Image,Name,Face,CorrAns,Match,Face_onset,CResponse_onset,IResponse_onset,Match.thisRepN,Match.thisTrialN,Match.thisN,Match.thisIndex,Blocks.thisRepN,Blocks.thisTrialN,Blocks.thisN,Blocks.thisIndex,trials.thisRepN,trials.thisTrialN,trials.thisN,trials.thisIndex,trials_2.thisRepN,trials_2.thisTrialN,trials_2.thisN,trials_2.thisIndex,text.started,text.stopped,p1.started,p1.stopped,MatchInstructions.started,MatchInstructions.stopped,Name1.started,Name1.stopped,Face_Relevance.started,Face_Relevance.stopped,MismatchInstructions.started,MismatchInstructions.stopped,Rest_trainingInstruct.started,Rest_trainingInstruct.stopped,next8.keys,next8.rt,next8.started,next8.stopped,Ready.started,Ready.stopped,delay_one_picked,delay_two_picked,blank0.started,blank0.stopped,FixationCross1.started,FixationCross1.stopped,Name3.started,Name3.stopped,Face_Relevance3.started,Face_Relevance3.stopped,responseTime.started,responseTime.stopped,resp.keys,resp.corr,resp.started,resp.stopped,Accuracy.started,Accuracy.stopped,resp.rt,questions.started,questions.stopped,p2.started,p2.stopped,FixationCross3.started,FixationCross3.stopped,port_Face_onset.started,port_Face_onset.stopped,Name4.started,Name4.stopped,Face_Relevance4.started,Face_Relevance4.stopped,responseTime2.started,responseTime2.stopped,Response.keys,Response.corr,Response.rt,Response.started,Response.stopped,p3.started,p3.stopped,Finish.started,Finish.stopped,gender,age,participant,date,expName,psychopyVersion,frameRate,
Stranger.png,Stranger,,,,,,,0,0,0,2,,,,,,,,,,,,,24.578906200127676,None,0.01607441995292902,0.5463467198424041,40.70204030000605,None,54.49716540006921,None,54.49716540006921,None,,,,,,,,,,,,,,,,,,,,,,,,,,,,,,,,,,,,,,,,,,,,,,,,,,,,,m,24,p10,2022_Apr_12_1545,training+cueing,2021.1.4,60.03737929137875,
Friend.png,Friend,,,,,,,0,1,1,1,,,,,,,,,,,,,,,,,,,74.38298880006187,None,74.38298880006187,None,,,,,,,,,,,,,,,,,,,,,,,,,,,,,,,,,,,,,,,,,,,,,,,,,,,,,m,24,p10,2022_Apr_12_1545,training+cueing,2021.1.4,60.03737929137875,
Self.png,You,,,,,,,0,2,2,0,,,,,,,,,,,,,,,,,,,94.38052710006014,None,94.38052710006014,None,,,,,,,,,,,,,,,,,,,,,,,,,,,,,,,,,,,,,,,,,,,,,,,,,,,,,m,24,p10,2022_Apr_12_1545,training+cueing,2021.1.4,60.03737929137875,
Stranger.png,Friend,Stranger,m,2.3,17,27,97,,,,,0,0,0,0,0,0,0,7,,,,,,,,,,,,,,,114.34219019999728,None,138.50979649997316,None,space,13.415204100077972,2.009081889875233,None,153.9377942001447,None,1.795,1.771,156.9570812000893,None,157.58346029999666,158.09059879998676,158.07393090007827,158.19065540004522,158.07393090007827,158.19065540004522,158.17410330008715,None,None,0,158.17410330008715,None,159.9739846000448,None,,,,,,,,,,,,,,,,,,,,,,,,,m,24,p10,2022_Apr_12_1545,training+cueing,2021.1.4,60.03737929137875,
Stranger.png,Stranger,Stranger,c,3,13,23,93,,,,,0,0,0,0,0,1,1,8,,,,,,,,,,,,,,,,,,,,,,,,,1.404,2.49,160.37563599995337,None,160.91051160008647,161.40966110001318,161.40966110001318,161.50972730014473,161.40966110001318,161.50972730014473,161.50972730014473,None,c,1,161.50972730014473,None,162.4929782000836,None,0.9601441000122577,,,,,,,,,,,,,,,,,,,,,,,,m,24,p10,2022_Apr_12_1545,training+cueing,2021.1.4,60.03737929137875,
Friend.png,Friend,Friend,c,2,12,22,92,,,,,0,0,0,0,0,2,2,4,,,,,,,,,,,,,,,,,,,,,,,,,1.734,1.616,162.89404250006191,None,163.42670239997096,163.92814910016023,163.9114888999611,164.02817910001613,163.9114888999611,164.02817910001613,164.01152179995552,None,m,0,164.01152179995552,None,164.6961159000639,None,0.6663160999305546,,,,,,,,,,,,,,,,,,,,,,,,m,24,p10,2022_Apr_12_1545,training+cueing,2021.1.4,60.03737929137875,
Self.png,You,Self ,c,1,11,21,91,,,,,0,0,0,0,0,3,3,9,,,,,,,,,,,,,,,,,,,,,,,,,1.573,2.172,165.09561920003034,None,165.6261053001508,166.12972220010124,166.11304550012574,166.21309980005026,166.11304550012574,166.21309980005026,166.21309980005026,None,c,1,166.21309980005026,None,166.88249780004844,None,0.6407707999460399,,,,,,,,,,,,,,,,,,,,,,,,m,24,p10,2022_Apr_12_1545,training+cueing,2021.1.4,60.03737929137875,
Self.png,You,Self ,c,1,11,21,91,,,,,0,0,0,0,0,4,4,0,,,,,,,,,,,,,,,,,,,,,,,,,1.448,1.618,167.2972401001025,None,167.82550740009174,168.33136990014464,168.3146639999468,168.41470140009187,168.3146639999468,168.41470140009187,168.41470140009187,None,m,0,168.41470140009187,None,169.1994489999488,None,0.7591695000883192,,,,,,,,,,,,,,,,,,,,,,,,m,24,p10,2022_Apr_12_1545,training+cueing,2021.1.4,60.03737929137875,
Friend.png,Friend,Friend,c,2,12,22,92,,,,,0,0,0,0,0,5,5,10,,,,,,,,,,,,,,,,,,,,,,,,,1.544,1.639,169.5989051000215,None,170.13070380012505,170.63318370003253,170.61633210000582,170.73303900007159,170.61633210000582,170.73303900007159,170.71634040004574,None,c,1,170.71634040004574,None,171.29875640012324,None,0.553531999932602,,,,,,,,,,,,,,,,,,,,,,,,m,24,p10,2022_Apr_12_1545,training+cueing,2021.1.4,60.03737929137875,
Stranger.png,You,Stranger,m,1.3,15,25,95,,,,,0,0,0,0,0,6,6,6,,,,,,,,,,,,,,,,,,,,,,,,,1.557,1.863,171.70053090015426,None,172.2373492999468,172.75118490005843,172.7345118999947,172.83454439998604,172.7345118999947,172.83454439998604,172.83454439998604,None,m,1,172.83454439998604,None,173.68520259996876,None,0.8192888998892158,,,,,,,,,,,,,,,,,,,,,,,,m,24,p10,2022_Apr_12_1545,training+cueing,2021.1.4,60.03737929137875,
Friend.png,Stranger,Friend,m,3.2,19,29,99,,,,,0,0,0,0,0,7,7,5,,,,,,,,,,,,,,,,,,,,,,,,,1.435,2.165,174.08549650013447,None,174.6183130000718,175.11957860016264,175.10286860005,175.219640100142,175.10286860005,175.219640100142,175.20289700012654,None,m,1,175.20289700012654,None,176.20369410002604,None,0.978934200014919,,,,,,,,,,,,,,,,,,,,,,,,m,24,p10,2022_Apr_12_1545,training+cueing,2021.1.4,60.03737929137875,
Stranger.png,Stranger,Stranger,c,3,13,23,93,,,,,0,0,0,0,0,8,8,11,,,,,,,,,,,,,,,,,,,,,,,,,1.561,2.242,176.60392530006357,None,177.14484710013494,177.65468539996073,177.63804600015283,177.75477200001478,177.63804600015283,177.75477200001478,177.75477200001478,None,c,1,177.75477200001478,None,178.77235460001975,None,0.987099900143221,,,,,,,,,,,,,,,,,,,,,,,,m,24,p10,2022_Apr_12_1545,training+cueing,2021.1.4,60.03737929137875,
Friend.png,You,Friend,m,1.2,14,24,94,,,,,0,0,0,0,0,9,9,3,,,,,,,,,,,,,,,,,,,,,,,,,1.529,1.622,179.17257470008917,None,179.70359569997527,180.2065727999434,180.18989509996027,180.28995050000958,180.18989509996027,180.28995050000958,180.28995050000958,None,c,0,180.28995050000958,None,181.6250396000687,None,1.3158325999975204,,,,,,,,,,,,,,,,,,,,,,,,m,24,p10,2022_Apr_12_1545,training+cueing,2021.1.4,60.03737929137875,
Self.png,Stranger,Self ,m,3.1,18,28,98,,,,,0,0,0,0,0,10,10,2,,,,,,,,,,,,,,,,,,,,,,,,,1.726,1.491,182.02454619994387,None,182.5574082999956,183.05863810004666,183.04195230011828,183.15870680008084,183.04195230011828,183.15870680008084,183.14197700005025,None,m,1,183.14197700005025,None,184.27480820007622,None,1.1038545998744667,,,,,,,,,,,,,,,,,,,,,,,,m,24,p10,2022_Apr_12_1545,training+cueing,2021.1.4,60.03737929137875,
Self.png,Friend,Self ,m,2.1,16,26,96,,,,,0,0,0,0,0,11,11,1,,,,,,,,,,,,,,,,,,,,,,,,,1.661,1.449,184.67648130003363,None,185.2064755000174,185.71055660001002,185.69390289997682,185.8105834000744,185.69390289997682,185.8105834000744,185.793871199945,None,m,1,185.793871199945,None,186.87648930004798,None,1.0600213999859989,,,,,,,,,,,,,,,,,,,,,,,,m,24,p10,2022_Apr_12_1545,training+cueing,2021.1.4,60.03737929137875,
Friend.png,Stranger,Friend,m,3.2,19,29,99,,,,,0,0,0,0,,,,,0,0,0,5,,,,,,,,,,,,,,,,,,,214.96524509997107,None,1.405,1.736,218.4833725001663,None,,,,,,,,,,,,,,,,187.27852799999528,None,0.014177790144458413,0.5119693900924176,219.10663149994798,219.61852060002275,0.5043204198591411,1.0044872199650854,219.601830100175,219.71860320004635,219.601830100175,219.71860320004635,219.7018794999458,None,m,1,0.7840515999123454,219.7018794999458,None,,,,,m,24,p10,2022_Apr_12_1545,training+cueing,2021.1.4,60.03737929137875,
Self.png,Stranger,Self ,m,3.1,18,28,98,,,,,0,0,0,0,,,,,0,1,1,2,,,,,,,,,,,,,,,,,,,,,1.738,2.29,220.60984600009397,None,,,,,,,,,,,,,,,,,,,,221.16516140010208,221.66985599999316,0.5095129599794745,1.0097940599080175,221.65320209995843,221.76990470010787,221.65320209995843,221.76990470010787,221.75318820006214,None,m,1,0.8926457997877151,221.75318820006214,None,,,,,m,24,p10,2022_Apr_12_1545,training+cueing,2021.1.4,60.03737929137875,
Stranger.png,Friend,Stranger,m,2.3,17,27,97,,,,,0,0,0,0,,,,,0,2,2,7,,,,,,,,,,,,,,,,,,,,,1.445,2.151,222.77612740010954,None,,,,,,,,,,,,,,,,,,,,223.31575109995902,223.8214054000564,0.5105952699668705,1.010870970087126,223.80475690006278,223.9214789001271,223.80475690006278,223.9214789001271,223.9047753000632,None,m,1,0.9011036998126656,223.9047753000632,None,,,,,m,24,p10,2022_Apr_12_1545,training+cueing,2021.1.4,60.03737929137875,
Friend.png,Friend,Friend,c,2,12,22,92,,,,,0,0,0,0,,,,,0,3,3,4,,,,,,,,,,,,,,,,,,,,,1.43,2.285,224.9283529999666,None,,,,,,,,,,,,,,,,,,,,225.4659266001545,225.97305890009739,0.5113707699347287,1.0116497699636966,225.95633600000292,226.0730161999818,225.95633600000292,226.0730161999818,226.05634130002,None,c,1,1.22956099989824,226.05634130002,None,,,,,m,24,p10,2022_Apr_12_1545,training+cueing,2021.1.4,60.03737929137875,
Stranger.png,You,Stranger,m,1.3,15,25,95,,,,,0,0,0,0,,,,,0,4,4,6,,,,,,,,,,,,,,,,,,,,,1.467,2.195,227.41303579998203,None,,,,,,,,,,,,,,,,,,,,227.95389260002412,228.458051700145,0.507330970140174,1.0076171699911356,228.4414377999492,228.54149520001374,228.4414377999492,228.54149520001374,228.54149520001374,None,m,1,0.6962645000312477,228.54149520001374,None,,,,,m,24,p10,2022_Apr_12_1545,training+cueing,2021.1.4,60.03737929137875,
Stranger.png,Stranger,Stranger,c,3,13,23,93,,,,,0,0,0,0,,,,,0,5,5,11,,,,,,,,,,,,,,,,,,,,,1.52,1.858,229.36454270011745,None,,,,,,,,,,,,,,,,,,,,229.90508870012127,230.40951060014777,0.5100068699102849,1.0102533700410277,230.39285319996998,230.50958850001916,230.39285319996998,230.50958850001916,230.492871100083,None,c,1,0.8729105000384152,230.492871100083,None,,,,,m,24,p10,2022_Apr_12_1545,training+cueing,2021.1.4,60.03737929137875,
Stranger.png,Stranger,Stranger,c,3,13,23,93,,,,,0,0,0,0,,,,,0,6,6,8,,,,,,,,,,,,,,,,,,,,,1.764,2.03,231.49987880000845,None,,,,,,,,,,,,,,,,,,,,232.05172990006395,232.56143100000918,0.5041934698820114,1.0022089697886258,232.54660140001215,232.6611172000412,232.54660140001215,232.6611172000412,232.64441730012186,None,m,0,0.7694377000443637,232.64441730012186,None,,,,,m,24,p10,2022_Apr_12_1545,training+cueing,2021.1.4,60.03737929137875,
Friend.png,Friend,Friend,c,2,12,22,92,,,,,0,0,0,0,,,,,0,7,7,10,,,,,,,,,,,,,,,,,,,,,1.673,2.281,233.55119629995897,None,,,,,,,,,,,,,,,,,,,,234.09241569996811,234.59589060000144,0.5067093698307872,1.0076423699501902,234.57923740008846,234.69589280011132,234.57923740008846,234.69589280011132,234.67924090009183,None,c,1,0.86271240003407,234.67924090009183,None,,,,,m,24,p10,2022_Apr_12_1545,training+cueing,2021.1.4,60.03737929137875,
Self.png,Friend,Self ,m,2.1,16,26,96,,,,,0,0,0,0,,,,,0,8,8,1,,,,,,,,,,,,,,,,,,,,,1.528,1.453,235.67044589994475,None,,,,,,,,,,,,,,,,,,,,236.2084858000744,236.71407190011814,0.5086562701035291,1.0089162702206522,236.69739490002394,236.81412100000307,236.69739490002394,236.81412100000307,236.79743110015988,None,m,1,0.8243879999499768,236.79743110015988,None,,,,,m,24,p10,2022_Apr_12_1545,training+cueing,2021.1.4,60.03737929137875,
Self.png,You,Self ,c,1,11,21,91,,,,,0,0,0,0,,,,,0,9,9,9,,,,,,,,,,,,,,,,,,,,,1.795,2.269,237.75333920004778,None,,,,,,,,,,,,,,,,,,,,238.2955154001247,238.79893269995227,0.5074834700208157,1.0077843701001257,238.78223310015164,238.8822856999468,238.78223310015164,238.8822856999468,238.8822856999468,None,c,1,0.7875955998897552,238.8822856999468,None,,,,,m,24,p10,2022_Apr_12_1545,training+cueing,2021.1.4,60.03737929137875,
Self.png,You,Self ,c,1,11,21,91,,,,,0,0,0,0,,,,,0,10,10,0,,,,,,,,,,,,,,,,,,,,,1.586,1.316,239.8049761999864,None,,,,,,,,,,,,,,,,,,,,240.34483560011722,240.85039709997363,0.511074970010668,1.0113644700031728,240.83370970003307,240.9337412000168,240.83370970003307,240.9337412000168,240.9337412000168,None,c,1,0.5442009000107646,240.9337412000168,None,,,,,m,24,p10,2022_Apr_12_1545,training+cueing,2021.1.4,60.03737929137875,
Friend.png,You,Friend,m,1.2,14,24,94,,,,,0,0,0,0,,,,,0,11,11,3,,,,,,,,,,,,,,,,,,,,,1.592,2.248,241.60661890008487,None,,,,,,,,,,,,,,,,,,,,242.1437820000574,242.6517257001251,0.5143612700048834,1.0146583700552583,242.63499450008385,242.73505900008604,242.63499450008385,242.73505900008604,242.73505900008604,None,m,1,0.5667638001032174,242.73505900008604,None,,,,,m,24,p10,2022_Apr_12_1545,training+cueing,2021.1.4,60.03737929137875,
Stranger.png,You,Stranger,m,1.3,15,25,95,,,,,0,0,0,0,,,,,1,0,12,6,,,,,,,,,,,,,,,,,,,,,1.655,1.96,243.42502490011975,None,,,,,,,,,,,,,,,,,,,,243.96381580014713,244.4697068000678,0.5109895700588822,1.011269369861111,244.4530104000587,244.55312680010684,244.4530104000587,244.55312680010684,244.55312680010684,None,m,1,0.6686863000504673,244.55312680010684,None,,,,,m,24,p10,2022_Apr_12_1545,training+cueing,2021.1.4,60.03737929137875,
Stranger.png,Stranger,Stranger,c,3,13,23,93,,,,,0,0,0,0,,,,,1,1,13,11,,,,,,,,,,,,,,,,,,,,,1.642,1.674,245.34307430009358,None,,,,,,,,,,,,,,,,,,,,245.88594059995376,246.38769500004128,0.5055927701760083,1.0058835700619966,246.37106780009344,246.48779579997063,246.37106780009344,246.48779579997063,246.4711156000849,None,m,0,0.8467956001404673,246.4711156000849,None,,,,,m,24,p10,2022_Apr_12_1545,training+cueing,2021.1.4,60.03737929137875,
Self.png,Friend,Self ,m,2.1,16,26,96,,,,,0,0,0,0,,,,,1,2,14,1,,,,,,,,,,,,,,,,,,,,,1.588,2.108,247.4449350000359,None,,,,,,,,,,,,,,,,,,,,247.98474230011925,248.48924769996665,0.5064252701122314,1.0067116701975465,248.4726017001085,248.58934159995988,248.4726017001085,248.58934159995988,248.5726405000314,None,m,1,0.761158499866724,248.5726405000314,None,,,,,m,24,p10,2022_Apr_12_1545,training+cueing,2021.1.4,60.03737929137875,
Friend.png,Friend,Friend,c,2,12,22,92,,,,,0,0,0,0,,,,,1,3,15,10,,,,,,,,,,,,,,,,,,,,,1.637,2.324,249.462739800103,None,,,,,,,,,,,,,,,,,,,,250.00127290003002,250.5073995999992,0.5113453699741513,1.0115958699025214,250.4907076000236,250.60743189998902,250.4907076000236,250.60743189998902,250.59074580017477,None,c,1,0.7110980998259038,250.59074580017477,None,,,,,m,24,p10,2022_Apr_12_1545,training+cueing,2021.1.4,60.03737929137875,
Friend.png,Friend,Friend,c,2,12,22,92,,,,,0,0,0,0,,,,,1,4,16,4,,,,,,,,,,,,,,,,,,,,,1.562,1.393,251.43102510017343,None,,,,,,,,,,,,,,,,,,,,251.9688093001023,252.47549530002289,0.5113641698844731,1.0116649698466063,252.45876169996336,252.57555010006763,252.45876169996336,252.57555010006763,252.55901540000923,None,c,1,0.5828273000661284,252.55901540000923,None,,,,,m,24,p10,2022_Apr_12_1545,training+cueing,2021.1.4,60.03737929137875,
Stranger.png,Stranger,Stranger,c,3,13,23,93,,,,,0,0,0,0,,,,,1,5,17,8,,,,,,,,,,,,,,,,,,,,,1.611,1.457,253.2655849000439,None,,,,,,,,,,,,,,,,,,,,253.80846740002744,254.31013879994862,0.5048918700776994,1.005199570208788,254.29347639996558,254.41018180013634,254.29347639996558,254.41018180013634,254.39348720014095,None,m,0,0.5403223999310285,254.39348720014095,None,,,,,m,24,p10,2022_Apr_12_1545,training+cueing,2021.1.4,60.03737929137875,
Stranger.png,Friend,Stranger,m,2.3,17,27,97,,,,,0,0,0,0,,,,,1,6,18,7,,,,,,,,,,,,,,,,,,,,,1.78,2.095,255.06736440001987,None,,,,,,,,,,,,,,,,,,,,255.61317250016145,256.1281743000727,0.513533370103687,1.0138414700049907,256.11143180006184,256.22817270015366,256.11143180006184,256.22817270015366,256.2114636001643,None,m,1,0.8023637998849154,256.2114636001643,None,,,,,m,24,p10,2022_Apr_12_1545,training+cueing,2021.1.4,60.03737929137875,
Self.png,You,Self ,c,1,11,21,91,,,,,0,0,0,0,,,,,1,7,19,0,,,,,,,,,,,,,,,,,,,,,1.587,2.292,257.1517254000064,None,,,,,,,,,,,,,,,,,,,,257.6920551001094,258.19626400014386,0.5070765700656921,1.0073681701906025,258.17960670008324,258.2796457000077,258.17960670008324,258.2796457000077,258.2796457000077,None,c,1,0.6862214000429958,258.2796457000077,None,,,,,m,24,p10,2022_Apr_12_1545,training+cueing,2021.1.4,60.03737929137875,
Friend.png,You,Friend,m,1.2,14,24,94,,,,,0,0,0,0,,,,,1,8,20,3,,,,,,,,,,,,,,,,,,,,,1.797,1.282,259.10217460012063,None,,,,,,,,,,,,,,,,,,,,259.64151720004156,260.14769220002927,0.5110554702114314,1.0113364702556282,260.1310354000889,260.2310581000056,260.1310354000889,260.2310581000056,260.2310581000056,None,m,1,0.6708056000061333,260.2310581000056,None,,,,,m,24,p10,2022_Apr_12_1545,training+cueing,2021.1.4,60.03737929137875,
Friend.png,Stranger,Friend,m,3.2,19,29,99,,,,,0,0,0,0,,,,,1,9,21,5,,,,,,,,,,,,,,,,,,,,,1.579,1.419,261.0371211001184,None,,,,,,,,,,,,,,,,,,,,261.5792870000005,262.08245410001837,0.5064528698567301,1.0067061700392514,262.06576730008237,262.18248890014365,262.06576730008237,262.18248890014365,262.1657539999578,None,m,1,0.7041584998369217,262.1657539999578,None,,,,,m,24,p10,2022_Apr_12_1545,training+cueing,2021.1.4,60.03737929137875,
Self.png,Stranger,Self ,m,3.1,18,28,98,,,,,0,0,0,0,,,,,1,10,22,2,,,,,,,,,,,,,,,,,,,,,1.728,1.282,263.0054506000597,None,,,,,,,,,,,,,,,,,,,,263.54326910013333,264.0505207001697,0.5115144699811935,1.0118118699174374,264.03383590001613,264.1505289999768,264.03383590001613,264.1505289999768,264.1338576001581,None,m,1,0.7360340000595897,264.1338576001581,None,,,,,m,24,p10,2022_Apr_12_1545,training+cueing,2021.1.4,60.03737929137875,
Self.png,You,Self ,c,1,11,21,91,,,,,0,0,0,0,,,,,1,11,23,9,,,,,,,,,,,,,,,,,,,,,1.786,2.336,265.00694210012443,None,,,,,,,,,,,,,,,,,,,,265.547733000014,266.05196720012464,0.5075142700225115,1.0077812699601054,266.0353072001599,266.1353383001406,266.0353072001599,266.1353383001406,266.1353383001406,None,c,1,0.8144434001296759,266.1353383001406,None,,,,,m,24,p10,2022_Apr_12_1545,training+cueing,2021.1.4,60.03737929137875,
Stranger.png,Friend,Stranger,m,2.3,17,27,97,,,,,0,0,0,0,,,,,2,0,24,7,,,,,,,,,,,,,,,,,,,,,1.794,2.262,267.07571300002746,None,,,,,,,,,,,,,,,,,,,,267.61603170004673,268.12010710011236,0.5062678700778633,1.0065832699183375,268.1034442000091,268.22017370001413,268.1034442000091,268.22017370001413,268.20347670000046,None,m,1,0.6982824001461267,268.20347670000046,None,,,,,m,24,p10,2022_Apr_12_1545,training+cueing,2021.1.4,60.03737929137875,
Stranger.png,You,Stranger,m,1.3,15,25,95,,,,,0,0,0,0,,,,,2,1,25,6,,,,,,,,,,,,,,,,,,,,,1.47,2.448,269.0271781999618,None,,,,,,,,,,,,,,,,,,,,269.5678883001674,270.07154220016673,0.5071339700371027,1.0076921700965613,270.054866499966,270.1548983999528,270.054866499966,270.1548983999528,270.1548983999528,None,m,1,0.6989382000174373,270.1548983999528,None,,,,,m,24,p10,2022_Apr_12_1545,training+cueing,2021.1.4,60.03737929137875,
Friend.png,Friend,Friend,c,2,12,22,92,,,,,0,0,0,0,,,,,2,2,26,10,,,,,,,,,,,,,,,,,,,,,1.559,1.987,270.97779290005565,None,,,,,,,,,,,,,,,,,,,,271.5191171001643,272.0231643000152,0.5066683697514236,1.00702086975798,272.00627090013586,272.12297230004333,272.00627090013586,272.12297230004333,272.10631980001926,None,c,1,1.259525700006634,272.10631980001926,None,,,,,m,24,p10,2022_Apr_12_1545,training+cueing,2021.1.4,60.03737929137875,
Stranger.png,Stranger,Stranger,c,3,13,23,93,,,,,0,0,0,0,,,,,2,3,27,11,,,,,,,,,,,,,,,,,,,,,1.407,2.027,273.4963618000038,None,,,,,,,,,,,,,,,,,,,,274.0378970000893,274.54143210011534,0.5058553700800985,1.0061608701944351,274.5247506001033,274.6414924999699,274.5247506001033,274.6414924999699,274.6248060001526,None,m,0,0.5809977001044899,274.6248060001526,None,,,,,m,24,p10,2022_Apr_12_1545,training+cueing,2021.1.4,60.03737929137875,
Self.png,You,Self ,c,1,11,21,91,,,,,0,0,0,0,,,,,2,4,28,0,,,,,,,,,,,,,,,,,,,,,1.518,1.988,275.33182339998893,None,,,,,,,,,,,,,,,,,,,,275.8721809000708,276.3760935999453,0.5074122699443251,1.0077926700469106,276.35940880002454,276.45945179997943,276.35940880002454,276.45945179997943,276.45945179997943,None,m,0,1.1944474999327213,276.45945179997943,None,,,,,m,24,p10,2022_Apr_12_1545,training+cueing,2021.1.4,60.03737929137875,
Friend.png,You,Friend,m,1.2,14,24,94,,,,,0,0,0,0,,,,,2,5,29,3,,,,,,,,,,,,,,,,,,,,,1.69,2.306,277.782984000165,None,,,,,,,,,,,,,,,,,,,,278.3219071000349,278.8278862000443,0.511442770017311,1.011776469880715,278.81113529996946,278.91121070017107,278.81113529996946,278.91121070017107,278.91121070017107,None,m,1,0.8866699999198318,278.91121070017107,None,,,,,m,24,p10,2022_Apr_12_1545,training+cueing,2021.1.4,60.03737929137875,
Friend.png,Friend,Friend,c,2,12,22,92,,,,,0,0,0,0,,,,,2,6,30,4,,,,,,,,,,,,,,,,,,,,,1.58,2.37,279.9347329000011,None,,,,,,,,,,,,,,,,,,,,280.4754182000179,280.97943710000254,0.5061085699126124,1.0064114700071514,280.9627241999842,281.07947100000456,280.9627241999842,281.07947100000456,281.0627357000485,None,c,1,0.7830676999874413,281.0627357000485,None,,,,,m,24,p10,2022_Apr_12_1545,training+cueing,2021.1.4,60.03737929137875,
Self.png,You,Self ,c,1,11,21,91,,,,,0,0,0,0,,,,,2,7,31,9,,,,,,,,,,,,,,,,,,,,,1.556,2.457,281.96911279996857,None,,,,,,,,,,,,,,,,,,,,282.51067099999636,283.0142657000106,0.5073206699453294,1.0075991698540747,282.9975586000364,283.0975919000339,282.9975586000364,283.0975919000339,283.0975919000339,None,c,1,0.7001960999332368,283.0975919000339,None,,,,,m,24,p10,2022_Apr_12_1545,training+cueing,2021.1.4,60.03737929137875,
Self.png,Stranger,Self ,m,3.1,18,28,98,,,,,0,0,0,0,,,,,2,8,32,2,,,,,,,,,,,,,,,,,,,,,1.759,2.293,283.9209521000739,None,,,,,,,,,,,,,,,,,,,,284.47644390002824,284.9823201999534,0.5094623598270118,1.0097813599277288,284.96564260008745,285.08236850006506,284.96564260008745,285.08236850006506,285.0656338001136,None,m,1,0.9721939999144524,285.0656338001136,None,,,,,m,24,p10,2022_Apr_12_1545,training+cueing,2021.1.4,60.03737929137875,
Self.png,Friend,Self ,m,2.1,16,26,96,,,,,0,0,0,0,,,,,2,9,33,1,,,,,,,,,,,,,,,,,,,,,1.745,1.707,286.1730525000021,None,,,,,,,,,,,,,,,,,,,,286.715411900077,287.2172789000906,0.503927469952032,1.0043882699683309,287.200583799975,287.31734870001674,287.200583799975,287.31734870001674,287.30061729997396,None,m,1,0.9453511999454349,287.30061729997396,None,,,,,m,24,p10,2022_Apr_12_1545,training+cueing,2021.1.4,60.03737929137875,
Friend.png,Stranger,Friend,m,3.2,19,29,99,,,,,0,0,0,0,,,,,2,10,34,5,,,,,,,,,,,,,,,,,,,,,1.711,1.316,288.3760758000426,None,,,,,,,,,,,,,,,,,,,,288.9181242000777,289.4188886000775,0.5017139699775726,1.002153669949621,289.4022282001097,289.5189104999881,289.4022282001097,289.5189104999881,289.5189104999881,None,m,1,0.9669266999699175,289.5189104999881,None,,,,,m,24,p10,2022_Apr_12_1545,training+cueing,2021.1.4,60.03737929137875,
Stranger.png,Stranger,Stranger,c,3,13,23,93,,,,,0,0,0,0,,,,,2,11,35,8,,,,,,,,,,,,,,,,,,,,,1.517,2.293,290.6095076999627,None,,,,,,,,,,,,,,,,,,,,291.14678440010175,291.6538097001612,0.5114649699535221,1.0117290699854493,291.63713030004874,291.75386760011315,291.63713030004874,291.75386760011315,291.7371392000932,None,c,1,0.5727311999071389,291.7371392000932,None,,,,,m,24,p10,2022_Apr_12_1545,training+cueing,2021.1.4,60.03737929137875,
Friend.png,Friend,Friend,c,2,12,22,92,,,,,0,0,0,0,,,,,3,0,36,4,,,,,,,,,,,,,,,,,,,,,1.559,1.367,292.4433381999843,None,,,,,,,,,,,,,,,,,,,,292.985093700001,293.4884679999668,0.5068870701361448,1.007165470160544,293.4718146000523,293.58852340001613,293.4718146000523,293.58852340001613,293.57183469994925,None,c,1,0.8820329001173377,293.57183469994925,None,,,,,m,24,p10,2022_Apr_12_1545,training+cueing,2021.1.4,60.03737929137875,
Friend.png,Stranger,Friend,m,3.2,19,29,99,,,,,0,0,0,0,,,,,3,1,37,5,,,,,,,,,,,,,,,,,,,,,1.776,1.491,294.57907019997947,None,,,,,,,,,,,,,,,,,,,,295.1246430000756,295.6400256000925,0.5138417698908597,1.0140762699302286,295.62337610009126,295.74007489997894,295.62337610009126,295.74007489997894,295.72336760000326,None,m,1,0.9704326000064611,295.72336760000326,None,,,,,m,24,p10,2022_Apr_12_1545,training+cueing,2021.1.4,60.03737929137875,
Stranger.png,Stranger,Stranger,c,3,13,23,93,,,,,0,0,0,0,,,,,3,2,38,11,,,,,,,,,,,,,,,,,,,,,1.691,2.161,296.83033800008707,None,,,,,,,,,,,,,,,,,,,,297.3679898001719,297.874995799968,0.5111413700506091,1.011454770108685,297.85829990007915,297.9750213001389,297.85829990007915,297.9750213001389,297.9583290000446,None,c,1,0.8475822999607772,297.9583290000446,None,,,,,m,24,p10,2022_Apr_12_1545,training+cueing,2021.1.4,60.03737929137875,
Stranger.png,You,Stranger,m,1.3,15,25,95,,,,,0,0,0,0,,,,,3,3,39,6,,,,,,,,,,,,,,,,,,,,,1.502,2.315,298.9313897001557,None,,,,,,,,,,,,,,,,,,,,299.47232010005973,299.976498400094,0.5073213700670749,1.0076200698968023,299.9598243001383,300.05990830017254,299.9598243001383,300.05990830017254,300.05990830017254,None,m,1,0.6499044999945909,300.05990830017254,None,,,,,m,24,p10,2022_Apr_12_1545,training+cueing,2021.1.4,60.03737929137875,
Self.png,Stranger,Self ,m,3.1,18,28,98,,,,,0,0,0,0,,,,,3,4,40,2,,,,,,,,,,,,,,,,,,,,,1.788,1.312,300.8372710000258,None,,,,,,,,,,,,,,,,,,,,301.3738588001579,301.87787070008926,0.5057345698587596,1.0060315697919577,301.8612012001686,301.97792310011573,301.8612012001686,301.97792310011573,301.9612203000579,None,m,1,1.1809755999129266,301.9612203000579,None,,,,,m,24,p10,2022_Apr_12_1545,training+cueing,2021.1.4,60.03737929137875,
Self.png,You,Self ,c,1,11,21,91,,,,,0,0,0,0,,,,,3,5,41,0,,,,,,,,,,,,,,,,,,,,,1.463,1.749,303.27210419997573,None,,,,,,,,,,,,,,,,,,,,303.8102788000833,304.31298140017316,0.5063332701101899,1.0065971701405942,304.29631450003944,304.39633140014485,304.29631450003944,304.39633140014485,304.39633140014485,None,c,1,0.9695138998795301,304.39633140014485,None,,,,,m,24,p10,2022_Apr_12_1545,training+cueing,2021.1.4,60.03737929137875,
Stranger.png,Friend,Stranger,m,2.3,17,27,97,,,,,0,0,0,0,,,,,3,6,42,7,,,,,,,,,,,,,,,,,,,,,1.587,2.164,305.5033764000982,None,,,,,,,,,,,,,,,,,,,,306.04612269997597,306.54810440004803,0.5052651700098068,1.005537869874388,306.5312373000197,306.6479793000035,306.5312373000197,306.6479793000035,306.63121549994685,None,m,1,0.5265834000892937,306.63121549994685,None,,,,,m,24,p10,2022_Apr_12_1545,training+cueing,2021.1.4,60.03737929137875,
Friend.png,You,Friend,m,1.2,14,24,94,,,,,0,0,0,0,,,,,3,7,43,3,,,,,,,,,,,,,,,,,,,,,1.757,1.297,307.2878471999429,None,,,,,,,,,,,,,,,,,,,,307.82821650011465,308.3325335001573,0.5071396701969206,1.0073138701263815,308.31595550011843,308.41592389997095,308.31595550011843,308.41592389997095,308.41592389997095,None,m,1,0.9819312000181526,308.41592389997095,None,,,,,m,24,p10,2022_Apr_12_1545,training+cueing,2021.1.4,60.03737929137875,
Self.png,You,Self ,c,1,11,21,91,,,,,0,0,0,0,,,,,3,8,44,9,,,,,,,,,,,,,,,,,,,,,1.652,2.233,309.52283010003157,None,,,,,,,,,,,,,,,,,,,,310.06149780005217,310.5675437999889,0.5116591700352728,1.0117188699077815,310.5510230001528,310.65088320011273,310.5510230001528,310.65088320011273,310.65088320011273,None,c,1,0.570960900047794,310.65088320011273,None,,,,,m,24,p10,2022_Apr_12_1545,training+cueing,2021.1.4,60.03737929137875,
Self.png,Friend,Self ,m,2.1,16,26,96,,,,,0,0,0,0,,,,,3,9,45,1,,,,,,,,,,,,,,,,,,,,,1.697,2.343,311.3577394001186,None,,,,,,,,,,,,,,,,,,,,311.8987364000641,312.40214140014723,0.5067117700818926,1.0069972700439394,312.3854932000395,312.5021953000687,312.3854932000395,312.5021953000687,312.48551410017535,None,m,1,0.8482963999267668,312.48551410017535,None,,,,,m,24,p10,2022_Apr_12_1545,training+cueing,2021.1.4,60.03737929137875,
Stranger.png,Stranger,Stranger,c,3,13,23,93,,,,,0,0,0,0,,,,,3,10,46,8,,,,,,,,,,,,,,,,,,,,,1.619,1.25,313.45946680009365,None,,,,,,,,,,,,,,,,,,,,314.00042990013026,314.5037273999769,0.5053338701836765,1.0056369700469077,314.4870081001427,314.6037463999819,314.4870081001427,314.6037463999819,314.58705170010217,None,c,1,0.7787894001230597,314.58705170010217,None,,,,,m,24,p10,2022_Apr_12_1545,training+cueing,2021.1.4,60.03737929137875,
Friend.png,Friend,Friend,c,2,12,22,92,,,,,0,0,0,0,,,,,3,11,47,10,,,,,,,,,,,,,,,,,,,,,1.659,2.131,315.49384610005654,None,,,,,,,,,,,,,,,,,,,,316.0354879000224,316.5385275001172,0.5060501699335873,1.006340169813484,316.52181930001825,316.63855920010246,316.52181930001825,316.63855920010246,316.6218428001739,None,c,1,0.7761667999438941,316.6218428001739,None,,,,,m,24,p10,2022_Apr_12_1545,training+cueing,2021.1.4,60.03737929137875,
Stranger.png,Friend,Stranger,m,2.3,17,27,97,,,,,0,0,0,0,,,,,4,0,48,7,,,,,,,,,,,,,,,,,,,,,1.528,1.776,317.5283957000356,None,,,,,,,,,,,,,,,,,,,,318.0670484001748,318.57332630013116,0.511391170322895,1.0114210702013224,318.55684670014307,318.67329730000347,318.55684670014307,318.67329730000347,318.6566294999793,None,m,1,0.581167999887839,318.6566294999793,None,,,,,m,24,p10,2022_Apr_12_1545,training+cueing,2021.1.4,60.03737929137875,
Self.png,Stranger,Self ,m,3.1,18,28,98,,,,,0,0,0,0,,,,,4,1,49,2,,,,,,,,,,,,,,,,,,,,,1.52,2.399,319.3638033999596,None,,,,,,,,,,,,,,,,,,,,319.9169721000362,320.42464040010236,0.5152603602036834,1.0155186601914465,320.40797529998235,320.52469820016995,320.40797529998235,320.52469820016995,320.5079735999461,None,m,1,0.8899433000478894,320.5079735999461,None,,,,,m,24,p10,2022_Apr_12_1545,training+cueing,2021.1.4,60.03737929137875,
Friend.png,Friend,Friend,c,2,12,22,92,,,,,0,0,0,0,,,,,4,2,50,4,,,,,,,,,,,,,,,,,,,,,1.656,1.271,321.5315892000217,None,,,,,,,,,,,,,,,,,,,,322.0713657999877,322.57625939999707,0.5092978700995445,1.009520570281893,322.55954170017503,322.67625980009325,322.55954170017503,322.67625980009325,322.6595235001296,None,c,1,0.946452199947089,322.6595235001296,None,,,,,m,24,p10,2022_Apr_12_1545,training+cueing,2021.1.4,60.03737929137875,
Stranger.png,Stranger,Stranger,c,3,13,23,93,,,,,0,0,0,0,,,,,4,3,51,11,,,,,,,,,,,,,,,,,,,,,1.588,2.168,323.7331267001573,None,,,,,,,,,,,,,,,,,,,,324.2743599000387,324.7777960000094,0.5052095698192716,1.0054871698375791,324.76110929995775,324.8778325000312,324.76110929995775,324.8778325000312,324.8611445000861,None,m,0,0.4886723000090569,324.8611445000861,None,,,,,m,24,p10,2022_Apr_12_1545,training+cueing,2021.1.4,60.03737929137875,
Friend.png,Friend,Friend,c,2,12,22,92,,,,,0,0,0,0,,,,,4,4,52,10,,,,,,,,,,,,,,,,,,,,,1.599,1.738,325.48401940008625,None,,,,,,,,,,,,,,,,,,,,326.03889190009795,326.5459431000054,0.5149471599142998,1.0152302598580718,326.52906340011396,326.6457064000424,326.52906340011396,326.6457064000424,326.6270624999888,None,c,1,0.7707946000155061,326.6270624999888,None,,,,,m,24,p10,2022_Apr_12_1545,training+cueing,2021.1.4,60.03737929137875,
Stranger.png,You,Stranger,m,1.3,15,25,95,,,,,0,0,0,0,,,,,4,5,53,6,,,,,,,,,,,,,,,,,,,,,1.469,1.419,327.51961340010166,None,,,,,,,,,,,,,,,,,,,,328.0604618000798,328.5640206001699,0.5075161701533943,1.007793770171702,328.5471946001053,328.64724590000696,328.5471946001053,328.64724590000696,328.64724590000696,None,m,1,0.6545899999327958,328.64724590000696,None,,,,,m,24,p10,2022_Apr_12_1545,training+cueing,2021.1.4,60.03737929137875,
Self.png,You,Self ,c,1,11,21,91,,,,,0,0,0,0,,,,,4,6,54,9,,,,,,,,,,,,,,,,,,,,,1.781,1.301,329.4372755000368,None,,,,,,,,,,,,,,,,,,,,329.9756841000635,330.4819050000515,0.5113888699561357,1.0116307698190212,330.46524800010957,330.5653043000493,330.46524800010957,330.5653043000493,330.5653043000493,None,c,1,1.0886012997943908,330.5653043000493,None,,,,,m,24,p10,2022_Apr_12_1545,training+cueing,2021.1.4,60.03737929137875,
Friend.png,Stranger,Friend,m,3.2,19,29,99,,,,,0,0,0,0,,,,,4,7,55,5,,,,,,,,,,,,,,,,,,,,,1.757,2.3,331.7891353000887,None,,,,,,,,,,,,,,,,,,,,332.33158770017326,332.83364560012706,0.5057353703305125,1.0060140702407807,332.81695230002515,332.9336443000939,332.81695230002515,332.9336443000939,332.91693660011515,None,m,1,1.0409450000151992,332.91693660011515,None,,,,,m,24,p10,2022_Apr_12_1545,training+cueing,2021.1.4,60.03737929137875,
Stranger.png,Stranger,Stranger,c,3,13,23,93,,,,,0,0,0,0,,,,,4,8,56,8,,,,,,,,,,,,,,,,,,,,,1.609,2.151,334.09055069996975,None,,,,,,,,,,,,,,,,,,,,334.62939260015264,335.1352894001175,0.5115221699234098,1.0118134699296206,335.1185957000125,335.23538239998743,335.1185957000125,335.23538239998743,335.2186730999965,None,c,1,0.49907809984870255,335.2186730999965,None,,,,,m,24,p10,2022_Apr_12_1545,training+cueing,2021.1.4,60.03737929137875,
Self.png,Friend,Self ,m,2.1,16,26,96,,,,,0,0,0,0,,,,,4,9,57,1,,,,,,,,,,,,,,,,,,,,,1.4,2.496,335.8419669000432,None,,,,,,,,,,,,,,,,,,,,336.38255010009743,336.88653270015493,0.5068880701437593,1.0071826702915132,336.86986360000446,336.9865968001541,336.86986360000446,336.9865968001541,336.96991280000657,None,c,0,1.035953399958089,336.96991280000657,None,,,,,m,24,p10,2022_Apr_12_1545,training+cueing,2021.1.4,60.03737929137875,
Friend.png,You,Friend,m,1.2,14,24,94,,,,,0,0,0,0,,,,,4,10,58,3,,,,,,,,,,,,,,,,,,,,,1.748,2.249,338.1438575000502,None,,,,,,,,,,,,,,,,,,,,338.68462930014357,339.18821400008164,0.5074586698319763,1.0077699697576463,339.17154010012746,339.27158490009606,339.17154010012746,339.27158490009606,339.27158490009606,None,m,1,0.7981891999952495,339.27158490009606,None,,,,,m,24,p10,2022_Apr_12_1545,training+cueing,2021.1.4,60.03737929137875,
Self.png,You,Self ,c,1,11,21,91,,,,,0,0,0,0,,,,,4,11,59,0,,,,,,,,,,,,,,,,,,,,,1.747,1.648,340.1957815999631,None,,,,,,,,,,,,,,,,,,,,340.7330712999683,341.23969770013355,0.5112972701899707,1.0115839701611549,341.2230156001169,341.32306890003383,341.2230156001169,341.32306890003383,341.32306890003383,None,c,1,0.618856200017035,341.32306890003383,None,,,,,m,24,p10,2022_Apr_12_1545,training+cueing,2021.1.4,60.03737929137875,
Friend.png,You,Friend,m,1.2,14,24,94,,,,,0,0,0,0,,,,,5,0,60,3,,,,,,,,,,,,,,,,,,,,,1.509,2.458,342.0801319000311,None,,,,,,,,,,,,,,,,,,,,342.61819930002093,343.12437820015475,0.5117523700464517,1.0121154699008912,343.10766730015166,343.2077466000337,343.10766730015166,343.2077466000337,343.2077466000337,None,m,1,1.0062373999971896,343.2077466000337,None,,,,,m,24,p10,2022_Apr_12_1545,training+cueing,2021.1.4,60.03737929137875,
Friend.png,Friend,Friend,c,2,12,22,92,,,,,0,0,0,0,,,,,5,1,61,10,,,,,,,,,,,,,,,,,,,,,1.537,1.552,344.34771250002086,None,,,,,,,,,,,,,,,,,,,,344.88974829996005,345.3927027999889,0.506276470143348,1.0066291701514274,345.3760081001092,345.49274370004423,345.3760081001092,345.49274370004423,345.47603869996965,None,c,1,0.7858771001920104,345.47603869996965,None,,,,,m,24,p10,2022_Apr_12_1545,training+cueing,2021.1.4,60.03737929137875,
Friend.png,Stranger,Friend,m,3.2,19,29,99,,,,,0,0,0,0,,,,,5,2,62,5,,,,,,,,,,,,,,,,,,,,,1.747,2.485,346.39961750013754,None,,,,,,,,,,,,,,,,,,,,346.94027630006894,347.44418610003777,0.505584369879216,1.0059102699160576,347.42749240016565,347.54424359998666,347.42749240016565,347.54424359998666,347.52751490008086,None,m,1,0.6064601999241859,347.52751490008086,None,,,,,m,24,p10,2022_Apr_12_1545,training+cueing,2021.1.4,60.03737929137875,
Stranger.png,Stranger,Stranger,c,3,13,23,93,,,,,0,0,0,0,,,,,5,3,63,8,,,,,,,,,,,,,,,,,,,,,1.764,2.045,348.26767530012876,None,,,,,,,,,,,,,,,,,,,,348.80629279999994,349.3122307001613,0.511517470004037,1.0118118699174374,349.29551810002886,349.4122514000628,349.29551810002886,349.4122514000628,349.39555589994416,None,c,1,0.674284900072962,349.39555589994416,None,,,,,m,24,p10,2022_Apr_12_1545,training+cueing,2021.1.4,60.03737929137875,
Friend.png,Friend,Friend,c,2,12,22,92,,,,,0,0,0,0,,,,,5,4,64,4,,,,,,,,,,,,,,,,,,,,,1.6,2.431,350.2026052000001,None,,,,,,,,,,,,,,,,,,,,350.74179830006324,351.24694019998424,0.5085652701091021,1.008791170315817,351.230294900015,351.34698710008524,351.230294900015,351.34698710008524,351.33027310017496,None,c,1,0.5155935999937356,351.33027310017496,None,,,,,m,24,p10,2022_Apr_12_1545,training+cueing,2021.1.4,60.03737929137875,
Stranger.png,Stranger,Stranger,c,3,13,23,93,,,,,0,0,0,0,,,,,5,5,65,11,,,,,,,,,,,,,,,,,,,,,1.51,1.237,351.9698487999849,None,,,,,,,,,,,,,,,,,,,,352.51179550006054,353.0148855999578,0.5057840698864311,1.0060725698713213,352.99820460006595,353.11493470007554,352.99820460006595,353.11493470007554,353.0982079000678,None,m,0,0.5076260000932962,353.0982079000678,None,,,,,m,24,p10,2022_Apr_12_1545,training+cueing,2021.1.4,60.03737929137875,
Stranger.png,Friend,Stranger,m,2.3,17,27,97,,,,,0,0,0,0,,,,,5,6,66,7,,,,,,,,,,,,,,,,,,,,,1.691,2.403,353.73730550007895,None,,,,,,,,,,,,,,,,,,,,354.2802025000565,354.7828510000836,0.5062247700989246,1.0064471701625735,354.7661675000563,354.8828899001237,354.7661675000563,354.8828899001237,354.8661619001068,None,m,1,0.8197304999921471,354.8661619001068,None,,,,,m,24,p10,2022_Apr_12_1545,training+cueing,2021.1.4,60.03737929137875,
Self.png,You,Self ,c,1,11,21,91,,,,,0,0,0,0,,,,,5,7,67,9,,,,,,,,,,,,,,,,,,,,,1.699,2.491,355.82234210008755,None,,,,,,,,,,,,,,,,,,,,356.36357070016675,356.8676333001349,0.5065657699014992,1.0068169699516147,356.85102940001525,356.95104319998063,356.85102940001525,356.95104319998063,356.95104319998063,None,c,1,0.6229946999810636,356.95104319998063,None,,,,,m,24,p10,2022_Apr_12_1545,training+cueing,2021.1.4,60.03737929137875,
Stranger.png,You,Stranger,m,1.3,15,25,95,,,,,0,0,0,0,,,,,5,8,68,6,,,,,,,,,,,,,,,,,,,,,1.607,1.63,357.7081053999718,None,,,,,,,,,,,,,,,,,,,,358.24847180000506,358.7523795000743,0.5071886698715389,1.0074837699066848,358.73571120016277,358.83572890004143,358.73571120016277,358.83572890004143,358.83572890004143,None,m,1,0.5781273001339287,358.83572890004143,None,,,,,m,24,p10,2022_Apr_12_1545,training+cueing,2021.1.4,60.03737929137875,
Self.png,You,Self ,c,1,11,21,91,,,,,0,0,0,0,,,,,5,9,69,0,,,,,,,,,,,,,,,,,,,,,1.727,1.787,359.5424594001379,None,,,,,,,,,,,,,,,,,,,,360.08029299997725,360.58704650006257,0.513513769954443,1.0137346701230854,360.5704324999824,360.6703860000707,360.5704324999824,360.6703860000707,360.6703860000707,None,c,1,0.5994138999376446,360.6703860000707,None,,,,,m,24,p10,2022_Apr_12_1545,training+cueing,2021.1.4,60.03737929137875,
Self.png,Friend,Self ,m,2.1,16,26,96,,,,,0,0,0,0,,,,,5,10,70,1,,,,,,,,,,,,,,,,,,,,,1.596,2.159,361.3940920000896,None,,,,,,,,,,,,,,,,,,,,361.9344429001212,362.43841010006145,0.505913469940424,1.0061836699023843,362.42171270004474,362.5385585001204,362.42171270004474,362.5385585001204,362.52171070012264,None,m,1,0.8281666999682784,362.52171070012264,None,,,,,m,24,p10,2022_Apr_12_1545,training+cueing,2021.1.4,60.03737929137875,
Self.png,Stranger,Self ,m,3.1,18,28,98,,,,,0,0,0,0,,,,,5,11,71,2,,,,,,,,,,,,,,,,,,,,,1.733,2.123,363.4786249999888,None,,,,,,,,,,,,,,,,,,,,364.0217907000333,364.52322340011597,0.5043795702513307,1.0046868701465428,364.5065409000963,364.6232643001713,364.5065409000963,364.6232643001713,364.6065695001744,None,m,1,0.6792723999824375,364.6065695001744,None,,,,,m,24,p10,2022_Apr_12_1545,training+cueing,2021.1.4,60.03737929137875,
Stranger.png,Stranger,Stranger,c,3,13,23,93,,,,,0,0,0,0,,,,,6,0,72,11,,,,,,,,,,,,,,,,,,,,,1.75,1.517,365.4127177000046,None,,,,,,,,,,,,,,,,,,,,365.9512235999573,366.4579259001184,0.5109513700008392,1.0112638701684773,366.44127420010045,366.5581547000911,366.44127420010045,366.5581547000911,366.5414958000183,None,m,0,0.7443061000667512,366.5414958000183,None,,,,,m,24,p10,2022_Apr_12_1545,training+cueing,2021.1.4,60.03737929137875,
Self.png,Friend,Self ,m,2.1,16,26,96,,,,,0,0,0,0,,,,,6,1,73,1,,,,,,,,,,,,,,,,,,,,,1.425,1.467,367.4144834000617,None,,,,,,,,,,,,,,,,,,,,367.9566387999803,368.4594185000751,0.5068043703213334,1.0071691703051329,368.4427517999429,368.559711500071,368.4427517999429,368.559711500071,368.54287080001086,None,m,1,0.823018099879846,368.54287080001086,None,,,,,m,24,p10,2022_Apr_12_1545,training+cueing,2021.1.4,60.03737929137875,
Stranger.png,You,Stranger,m,1.3,15,25,95,,,,,0,0,0,0,,,,,6,2,74,6,,,,,,,,,,,,,,,,,,,,,1.623,2.463,369.50022469996475,None,,,,,,,,,,,,,,,,,,,,370.0426767000463,370.54441309999675,0.5037317699752748,1.0040289699099958,370.5275459000841,370.6276217000559,370.5275459000841,370.6276217000559,370.6276217000559,None,m,1,0.7381535999011248,370.6276217000559,None,,,,,m,24,p10,2022_Apr_12_1545,training+cueing,2021.1.4,60.03737929137875,
Self.png,You,Self ,c,1,11,21,91,,,,,0,0,0,0,,,,,6,3,75,0,,,,,,,,,,,,,,,,,,,,,1.594,1.532,371.5010143001564,None,,,,,,,,,,,,,,,,,,,,372.0393658000976,372.5458919000812,0.5108291700016707,1.011343470076099,372.52901290007867,372.62905800016597,372.52901290007867,372.62905800016597,372.62905800016597,None,c,1,0.9289887000340968,372.62905800016597,None,,,,,m,24,p10,2022_Apr_12_1545,training+cueing,2021.1.4,60.03737929137875,
Self.png,You,Self ,c,1,11,21,91,,,,,0,0,0,0,,,,,6,4,76,9,,,,,,,,,,,,,,,,,,,,,1.714,1.723,373.6870703001041,None,,,,,,,,,,,,,,,,,,,,374.226664399961,374.7306270999834,0.5084172701463103,1.008692170260474,374.7139525001403,374.8139828001149,374.7139525001403,374.8139828001149,374.8139828001149,None,c,1,0.7919546000193805,374.8139828001149,None,,,,,m,24,p10,2022_Apr_12_1545,training+cueing,2021.1.4,60.03737929137875,
Stranger.png,Stranger,Stranger,c,3,13,23,93,,,,,0,0,0,0,,,,,6,5,77,8,,,,,,,,,,,,,,,,,,,,,1.673,2.377,375.7369206000585,None,,,,,,,,,,,,,,,,,,,,376.29738790006377,376.79875790001824,0.5041362596675754,1.0044298598077148,376.78207290009595,376.8988020999823,376.78207290009595,376.8988020999823,376.88206620002165,None,c,1,0.6598223000764847,376.88206620002165,None,,,,,m,24,p10,2022_Apr_12_1545,training+cueing,2021.1.4,60.03737929137875,
Stranger.png,Friend,Stranger,m,2.3,17,27,97,,,,,0,0,0,0,,,,,6,6,78,7,,,,,,,,,,,,,,,,,,,,,1.706,2.493,377.6717503000982,None,,,,,,,,,,,,,,,,,,,,378.21254540001974,378.71681310003623,0.5063510700128973,1.0067510700318962,378.7001247999724,378.8170358000789,378.7001247999724,378.8170358000789,378.80013900017366,None,m,1,0.48580739996396005,378.80013900017366,None,,,,,m,24,p10,2022_Apr_12_1545,training+cueing,2021.1.4,60.03737929137875,
Friend.png,Friend,Friend,c,2,12,22,92,,,,,0,0,0,0,,,,,6,7,79,4,,,,,,,,,,,,,,,,,,,,,1.611,2.108,379.4234871000517,None,,,,,,,,,,,,,,,,,,,,379.96240329998545,380.46808240003884,0.5110256699845195,1.0112700699828565,380.45143590006046,380.56815199996345,380.45143590006046,380.56815199996345,380.5517037999816,None,c,1,0.6223601000383496,380.5517037999816,None,,,,,m,24,p10,2022_Apr_12_1545,training+cueing,2021.1.4,60.03737929137875,
Friend.png,Friend,Friend,c,2,12,22,92,,,,,0,0,0,0,,,,,6,8,80,10,,,,,,,,,,,,,,,,,,,,,1.72,1.801,381.3079540000763,None,,,,,,,,,,,,,,,,,,,,381.845060700085,382.3527879000176,0.51262326980941,1.0129113697912544,382.33609060011804,382.4528324001003,382.33609060011804,382.4528324001003,382.43609870015644,None,c,1,0.7698061000555754,382.43609870015644,None,,,,,m,24,p10,2022_Apr_12_1545,training+cueing,2021.1.4,60.03737929137875,
Self.png,Stranger,Self ,m,3.1,18,28,98,,,,,0,0,0,0,,,,,6,9,81,2,,,,,,,,,,,,,,,,,,,,,1.541,2.069,383.3427294001449,None,,,,,,,,,,,,,,,,,,,,383.88605269999243,384.3875703001395,0.5048065700102597,1.0058630697894841,384.3709251000546,384.4882490001619,384.3709251000546,384.4882490001619,384.4718526999932,None,m,1,0.5745350001379848,384.4718526999932,None,,,,,m,24,p10,2022_Apr_12_1545,training+cueing,2021.1.4,60.03737929137875,
Friend.png,Stranger,Friend,m,3.2,19,29,99,,,,,0,0,0,0,,,,,6,10,82,5,,,,,,,,,,,,,,,,,,,,,1.796,1.407,385.1810173999984,None,,,,,,,,,,,,,,,,,,,,385.718396600103,386.22225899994373,0.5077923701610416,1.0080425702035427,386.2055659000762,386.32230819994584,386.2055659000762,386.32230819994584,386.3055829999503,None,m,1,0.8203109998721629,386.3055829999503,None,,,,,m,24,p10,2022_Apr_12_1545,training+cueing,2021.1.4,60.03737929137875,
Friend.png,You,Friend,m,1.2,14,24,94,,,,,0,0,0,0,,,,,6,11,83,3,,,,,,,,,,,,,,,,,,,,,1.54,2.454,387.2625586001668,None,,,,,,,,,,,,,,,,,,,,387.80236610001884,388.30708190007135,0.5070046703331172,1.0072633703239262,388.29041679995134,388.3904633000493,388.29041679995134,388.3904633000493,388.3904633000493,None,c,0,0.5754973001312464,388.3904633000493,None,,,,,m,24,p10,2022_Apr_12_1545,training+cueing,2021.1.4,60.03737929137875,
Friend.png,You,Friend,m,1.2,14,24,94,,,,,0,0,0,0,,,,,7,0,84,3,,,,,,,,,,,,,,,,,,,,,1.401,1.772,389.09682690002955,None,,,,,,,,,,,,,,,,,,,,389.63555440003984,390.14181450009346,0.5116622699424624,1.0118648698553443,390.1251100001391,390.2251308001578,390.1251100001391,390.2251308001578,390.2251308001578,None,m,1,0.7407988999038935,390.2251308001578,None,,,,,m,24,p10,2022_Apr_12_1545,training+cueing,2021.1.4,60.03737929137875,
Stranger.png,You,Stranger,m,1.3,15,25,95,,,,,0,0,0,0,,,,,7,1,85,6,,,,,,,,,,,,,,,,,,,,,1.645,1.78,391.09862740011886,None,,,,,,,,,,,,,,,,,,,,391.63654269999824,392.143233000068,0.5134792700409889,1.0137087700422853,392.12658770009875,392.226596100023,392.12658770009875,392.226596100023,392.226596100023,None,m,1,0.4832043999340385,392.226596100023,None,,,,,m,24,p10,2022_Apr_12_1545,training+cueing,2021.1.4,60.03737929137875,
Self.png,Friend,Self ,m,2.1,16,26,96,,,,,0,0,0,0,,,,,7,2,86,1,,,,,,,,,,,,,,,,,,,,,1.441,1.739,392.83242860017344,None,,,,,,,,,,,,,,,,,,,,393.3737817001529,393.8778387000784,0.50643037003465,1.006674570031464,393.8611390001606,393.97783410013653,393.8611390001606,393.97783410013653,393.9611212001182,None,m,1,0.908887900179252,393.9611212001182,None,,,,,m,24,p10,2022_Apr_12_1545,training+cueing,2021.1.4,60.03737929137875,
Friend.png,Friend,Friend,c,2,12,22,92,,,,,0,0,0,0,,,,,7,3,87,4,,,,,,,,,,,,,,,,,,,,,1.671,2.276,395.00234190002084,None,,,,,,,,,,,,,,,,,,,,395.5417822001036,396.0460272000637,0.507936870213598,1.0082330701407045,396.0293543001171,396.1460880001541,396.0293543001171,396.1460880001541,396.12939659995027,None,c,1,0.6764907999895513,396.12939659995027,None,,,,,m,24,p10,2022_Apr_12_1545,training+cueing,2021.1.4,60.03737929137875,
Stranger.png,Stranger,Stranger,c,3,13,23,93,,,,,0,0,0,0,,,,,7,4,88,11,,,,,,,,,,,,,,,,,,,,,1.775,1.657,396.9362878999673,None,,,,,,,,,,,,,,,,,,,,397.4769085999578,397.98076019994915,0.5056606698781252,1.0059664698783308,397.96406830009073,398.08082420006394,397.96406830009073,398.08082420006394,398.06409420003183,None,c,1,0.5818148001562804,398.06409420003183,None,,,,,m,24,p10,2022_Apr_12_1545,training+cueing,2021.1.4,60.03737929137875,
Self.png,Stranger,Self ,m,3.1,18,28,98,,,,,0,0,0,0,,,,,7,5,89,2,,,,,,,,,,,,,,,,,,,,,1.614,1.698,398.7709075999446,None,,,,,,,,,,,,,,,,,,,,399.30948780011386,399.81542630004697,0.511442770017311,1.0117051699198782,399.79874620004557,399.91547630005516,399.79874620004557,399.91547630005516,399.898773400113,None,m,1,0.9071927999611944,399.898773400113,None,,,,,m,24,p10,2022_Apr_12_1545,training+cueing,2021.1.4,60.03737929137875,
Stranger.png,Stranger,Stranger,c,3,13,23,93,,,,,0,0,0,0,,,,,7,6,90,8,,,,,,,,,,,,,,,,,,,,,1.548,1.441,400.9394283001311,None,,,,,,,,,,,,,,,,,,,,401.4773648001719,401.98366910009645,0.5125644700601697,1.0128038700204343,401.96700890013017,402.08370380010456,401.96700890013017,402.08370380010456,402.0670092999935,None,c,1,0.5948759999591857,402.0670092999935,None,,,,,m,24,p10,2022_Apr_12_1545,training+cueing,2021.1.4,60.03737929137875,
Friend.png,Stranger,Friend,m,3.2,19,29,99,,,,,0,0,0,0,,,,,7,7,91,5,,,,,,,,,,,,,,,,,,,,,1.453,2.086,402.79059610003605,None,,,,,,,,,,,,,,,,,,,,403.3279393000994,403.8350017000921,0.5112530700862408,1.011575770098716,403.8183023999445,403.93509300006554,403.8183023999445,403.93509300006554,403.91853060014546,None,m,1,0.7273187001701444,403.91853060014546,None,,,,,m,24,p10,2022_Apr_12_1545,training+cueing,2021.1.4,60.03737929137875,
Stranger.png,Friend,Stranger,m,2.3,17,27,97,,,,,0,0,0,0,,,,,7,8,92,7,,,,,,,,,,,,,,,,,,,,,1.783,1.669,404.7746792000253,None,,,,,,,,,,,,,,,,,,,,405.3278092001565,405.83644420001656,0.5011608700733632,1.001427570125088,405.81977159995586,405.93647429998964,405.81977159995586,405.93647429998964,405.93647429998964,None,m,1,1.0134193999692798,405.93647429998964,None,,,,,m,24,p10,2022_Apr_12_1545,training+cueing,2021.1.4,60.03737929137875,
Self.png,You,Self ,c,1,11,21,91,,,,,0,0,0,0,,,,,7,9,93,9,,,,,,,,,,,,,,,,,,,,,1.439,1.731,407.076823099982,None,,,,,,,,,,,,,,,,,,,,407.61698330007493,408.1214400001336,0.5076585698407143,1.007936169859022,408.10480040009134,408.20481640007347,408.10480040009134,408.20481640007347,408.20481640007347,None,c,1,0.5050059000495821,408.20481640007347,None,,,,,m,24,p10,2022_Apr_12_1545,training+cueing,2021.1.4,60.03737929137875,
Self.png,You,Self ,c,1,11,21,91,,,,,0,0,0,0,,,,,7,10,94,0,,,,,,,,,,,,,,,,,,,,,1.769,1.474,408.8446391001344,None,,,,,,,,,,,,,,,,,,,,409.3824200001545,409.8893730000127,0.5114276702515781,1.011725370073691,409.8726995000616,409.9727680000942,409.8726995000616,409.9727680000942,409.9727680000942,None,c,1,0.769162500044331,409.9727680000942,None,,,,,m,24,p10,2022_Apr_12_1545,training+cueing,2021.1.4,60.03737929137875,
Friend.png,Friend,Friend,c,2,12,22,92,,,,,0,0,0,0,,,,,7,11,95,10,,,,,,,,,,,,,,,,,,,,,1.601,1.684,410.8799990999978,None,,,,,,,,,,,,,,,,,,,,411.42129740002565,411.924208200071,0.506465369835496,1.0067873697262257,411.90749739995226,412.0242781001143,411.90749739995226,412.0242781001143,412.0075368001126,None,c,1,0.5903908000327647,412.0075368001126,None,,,,,m,24,p10,2022_Apr_12_1545,training+cueing,2021.1.4,60.03737929137875,
Self.png,You,Self ,c,1,11,21,91,,,,,0,0,0,0,,,,,8,0,96,0,,,,,,,,,,,,,,,,,,,,,1.462,1.887,412.7309503001161,None,,,,,,,,,,,,,,,,,,,,413.27054250007495,413.7755319001153,0.5073477700352669,1.007656869944185,413.75881729996763,413.85886569996364,413.75881729996763,413.85886569996364,413.85886569996364,None,c,1,0.6750129000283778,413.85886569996364,None,,,,,m,24,p10,2022_Apr_12_1545,training+cueing,2021.1.4,60.03737929137875,
Stranger.png,Stranger,Stranger,c,3,13,23,93,,,,,0,0,0,0,,,,,8,1,97,11,,,,,,,,,,,,,,,,,,,,,1.47,1.512,414.6665008000564,None,,,,,,,,,,,,,,,,,,,,415.20616770000197,415.7102443999611,0.5076006702147424,1.0079020701814443,415.69358800002374,415.81029110006057,415.69358800002374,415.81029110006057,415.79362779995427,None,m,0,0.46829900005832314,415.79362779995427,None,,,,,m,24,p10,2022_Apr_12_1545,training+cueing,2021.1.4,60.03737929137875,
Friend.png,Friend,Friend,c,2,12,22,92,,,,,0,0,0,0,,,,,8,2,98,10,,,,,,,,,,,,,,,,,,,,,1.673,1.72,416.3834902001545,None,,,,,,,,,,,,,,,,,,,,416.92444330011494,417.42816280014813,0.5070407700259238,1.0073728701099753,417.4114636001177,417.528205800103,417.4114636001177,417.528205800103,417.51148550002836,None,c,1,0.6223140000365674,417.51148550002836,None,,,,,m,24,p10,2022_Apr_12_1545,training+cueing,2021.1.4,60.03737929137875,
Stranger.png,You,Stranger,m,1.3,15,25,95,,,,,0,0,0,0,,,,,8,3,99,6,,,,,,,,,,,,,,,,,,,,,1.641,1.991,418.2681791000068,None,,,,,,,,,,,,,,,,,,,,418.80784250004217,419.31286339997314,0.5071807699277997,1.0074689697939903,419.29620270011947,419.3962334000971,419.29620270011947,419.3962334000971,419.3962334000971,None,m,1,0.7055661000777036,419.3962334000971,None,,,,,m,24,p10,2022_Apr_12_1545,training+cueing,2021.1.4,60.03737929137875,
Stranger.png,Friend,Stranger,m,2.3,17,27,97,,,,,0,0,0,0,,,,,8,4,100,7,,,,,,,,,,,,,,,,,,,,,1.686,1.575,420.23670780006796,None,,,,,,,,,,,,,,,,,,,,420.7910339999944,421.29763430007733,0.513688359875232,1.0141533599235117,421.28095760010183,421.39768530009314,421.28095760010183,421.39768530009314,421.3810006000567,None,m,1,0.7850386998616159,421.3810006000567,None,,,,,m,24,p10,2022_Apr_12_1545,training+cueing,2021.1.4,60.03737929137875,
Friend.png,You,Friend,m,1.2,14,24,94,,,,,0,0,0,0,,,,,8,5,101,3,,,,,,,,,,,,,,,,,,,,,1.543,1.481,422.2895259000361,None,,,,,,,,,,,,,,,,,,,,422.83067069994286,423.33245129999705,0.5039096702821553,1.0042262701317668,423.315762600163,423.4157857000828,423.315762600163,423.4157857000828,423.4157857000828,None,m,1,0.7821132999379188,423.4157857000828,None,,,,,m,24,p10,2022_Apr_12_1545,training+cueing,2021.1.4,60.03737929137875,
Self.png,You,Self ,c,1,11,21,91,,,,,0,0,0,0,,,,,8,6,102,9,,,,,,,,,,,,,,,,,,,,,1.76,1.983,424.3227425001096,None,,,,,,,,,,,,,,,,,,,,424.8610880000051,425.3672585999593,0.5114072698634118,1.011667069979012,425.35059759998694,425.45062220003456,425.35059759998694,425.45062220003456,425.45062220003456,None,c,1,0.571199000114575,425.45062220003456,None,,,,,m,24,p10,2022_Apr_12_1545,training+cueing,2021.1.4,60.03737929137875,
Friend.png,Stranger,Friend,m,3.2,19,29,99,,,,,0,0,0,0,,,,,8,7,103,5,,,,,,,,,,,,,,,,,,,,,1.672,2.328,426.15732640004717,None,,,,,,,,,,,,,,,,,,,,426.6972352999728,427.20191770000383,0.5087073701433837,1.0089912700932473,427.1852375001181,427.301952800015,427.1852375001181,427.301952800015,427.2853753999807,None,m,1,0.8005172000266612,427.2853753999807,None,,,,,m,24,p10,2022_Apr_12_1545,training+cueing,2021.1.4,60.03737929137875,
Stranger.png,Stranger,Stranger,c,3,13,23,93,,,,,0,0,0,0,,,,,8,8,104,8,,,,,,,,,,,,,,,,,,,,,1.666,1.285,428.2092943000607,None,,,,,,,,,,,,,,,,,,,,428.7462739001494,429.253414100036,0.5112385698594153,1.0115266698412597,429.23672719998285,429.35345060005784,429.23672719998285,429.35345060005784,429.3367492000107,None,c,1,0.589537400053814,429.3367492000107,None,,,,,m,24,p10,2022_Apr_12_1545,training+cueing,2021.1.4,60.03737929137875,
Self.png,Stranger,Self ,m,3.1,18,28,98,,,,,0,0,0,0,,,,,8,9,105,2,,,,,,,,,,,,,,,,,,,,,1.489,2.429,430.0605655000545,None,,,,,,,,,,,,,,,,,,,,430.6236024000682,431.13807020010427,0.49972415971569717,1.0000204597599804,431.1047330000438,431.2047753999941,431.1047330000438,431.2047753999941,431.2047753999941,None,m,1,0.6570365999359637,431.2047753999941,None,,,,,m,24,p10,2022_Apr_12_1545,training+cueing,2021.1.4,60.03737929137875,
Friend.png,Friend,Friend,c,2,12,22,92,,,,,0,0,0,0,,,,,8,10,106,4,,,,,,,,,,,,,,,,,,,,,1.534,2.468,431.99483700003475,None,,,,,,,,,,,,,,,,,,,,432.5362118999474,433.0394844999537,0.506697169970721,1.0069606699980795,433.02281540003605,433.1395352000836,433.02281540003605,433.1395352000836,433.1228092999663,None,c,1,0.4830720000900328,433.1228092999663,None,,,,,m,24,p10,2022_Apr_12_1545,training+cueing,2021.1.4,60.03737929137875,
Self.png,Friend,Self ,m,2.1,16,26,96,,,,,0,0,0,0,,,,,8,11,107,1,,,,,,,,,,,,,,,,,,,,,1.773,1.621,433.72976180003025,None,,,,,,,,,,,,,,,,,,,,434.2674364000559,434.7740554001648,0.5114517700858414,1.0119006701279432,434.7574008000083,434.8747421000153,434.7574008000083,434.8747421000153,434.8577028999571,None,m,1,0.6841194001026452,434.8577028999571,None,,,,,m,24,p10,2022_Apr_12_1545,training+cueing,2021.1.4,60.03737929137875,
Friend.png,Friend,Friend,c,2,12,22,92,,,,,0,0,0,0,,,,,9,0,108,4,,,,,,,,,,,,,,,,,,,,,1.474,1.394,435.66520730010234,None,,,,,,,,,,,,,,,,,,,,436.22006110008806,436.72549930005334,0.5118268597871065,1.012096359860152,436.70882360008545,436.8255272000097,436.70882360008545,436.8255272000097,436.80882210005075,None,c,1,0.42913689999841154,436.80882210005075,None,,,,,m,24,p10,2022_Apr_12_1545,training+cueing,2021.1.4,60.03737929137875,
Stranger.png,Friend,Stranger,m,2.3,17,27,97,,,,,0,0,0,0,,,,,9,1,109,7,,,,,,,,,,,,,,,,,,,,,1.708,2.36,437.3649710000027,None,,,,,,,,,,,,,,,,,,,,437.90409129997715,438.41004410013556,0.5116759701631963,1.0119539701845497,438.39334310009144,438.51009310013615,438.39334310009144,438.51009310013615,438.4933635999914,None,m,1,0.4565390001516789,438.4933635999914,None,,,,,m,24,p10,2022_Apr_12_1545,training+cueing,2021.1.4,60.03737929137875,
Self.png,You,Self ,c,1,11,21,91,,,,,0,0,0,0,,,,,9,2,110,9,,,,,,,,,,,,,,,,,,,,,1.406,1.37,439.08342489995994,None,,,,,,,,,,,,,,,,,,,,439.6226220000535,440.12805519998074,0.5096173700876534,1.009914570255205,440.11138730007224,440.2114338001702,440.11138730007224,440.2114338001702,440.2114338001702,None,c,1,0.46643540007062256,440.2114338001702,None,,,,,m,24,p10,2022_Apr_12_1545,training+cueing,2021.1.4,60.03737929137875,
Stranger.png,Stranger,Stranger,c,3,13,23,93,,,,,0,0,0,0,,,,,9,3,111,11,,,,,,,,,,,,,,,,,,,,,1.467,1.744,440.8009575000033,None,,,,,,,,,,,,,,,,,,,,441.3433834000025,441.8458157000132,0.5056870703119785,1.005995670100674,441.82918770005926,441.94590310007334,441.82918770005926,441.94590310007334,441.92919500009157,None,m,0,0.5886440000031143,441.92919500009157,None,,,,,m,24,p10,2022_Apr_12_1545,training+cueing,2021.1.4,60.03737929137875,
Friend.png,Friend,Friend,c,2,12,22,92,,,,,0,0,0,0,,,,,9,4,112,10,,,,,,,,,,,,,,,,,,,,,1.795,1.628,442.6529425000772,None,,,,,,,,,,,,,,,,,,,,443.1931433000136,443.6971907999832,0.5063320698682219,1.0067076697014272,443.6804979001172,443.7973363001365,443.6804979001172,443.7973363001365,443.7806149001699,None,c,1,0.5292713998351246,443.7806149001699,None,,,,,m,24,p10,2022_Apr_12_1545,training+cueing,2021.1.4,60.03737929137875,
Stranger.png,Stranger,Stranger,c,3,13,23,93,,,,,0,0,0,0,,,,,9,5,113,8,,,,,,,,,,,,,,,,,,,,,1.554,1.913,444.43712220015004,None,,,,,,,,,,,,,,,,,,,,444.97923599998467,445.48181640007533,0.5052684699185193,1.0057688700035214,445.4651643000543,445.5818527000956,445.4651643000543,445.5818527000956,445.56516060000286,None,c,1,0.42483150004409254,445.56516060000286,None,,,,,m,24,p10,2022_Apr_12_1545,training+cueing,2021.1.4,60.03737929137875,
Self.png,Friend,Self ,m,2.1,16,26,96,,,,,0,0,0,0,,,,,9,6,114,1,,,,,,,,,,,,,,,,,,,,,1.651,1.286,446.1227605000604,None,,,,,,,,,,,,,,,,,,,,446.673953599995,447.1831972999498,0.5035097701475024,1.0038188700564206,447.16652810014784,447.28326920000836,447.16652810014784,447.28326920000836,447.266554400092,None,m,1,0.7073722002096474,447.266554400092,None,,,,,m,24,p10,2022_Apr_12_1545,training+cueing,2021.1.4,60.03737929137875,
Stranger.png,You,Stranger,m,1.3,15,25,95,,,,,0,0,0,0,,,,,9,7,115,6,,,,,,,,,,,,,,,,,,,,,1.524,2.295,448.10712289996445,None,,,,,,,,,,,,,,,,,,,,448.6465835000854,449.15116230002604,0.5074683702550828,1.0077632700558752,449.13453530007973,449.2345458001364,449.13453530007973,449.2345458001364,449.2345458001364,None,m,1,0.5473943999968469,449.2345458001364,None,,,,,m,24,p10,2022_Apr_12_1545,training+cueing,2021.1.4,60.03737929137875,
Friend.png,You,Friend,m,1.2,14,24,94,,,,,0,0,0,0,,,,,9,8,116,3,,,,,,,,,,,,,,,,,,,,,1.438,2.418,449.90783739998005,None,,,,,,,,,,,,,,,,,,,,450.4462315000128,450.9524526000023,0.5115775698795915,1.011790569871664,450.93580630002543,451.0358182999771,450.93580630002543,451.0358182999771,451.0358182999771,None,m,1,0.7782117000315338,451.0358182999771,None,,,,,m,24,p10,2022_Apr_12_1545,training+cueing,2021.1.4,60.03737929137875,
Self.png,Stranger,Self ,m,3.1,18,28,98,,,,,0,0,0,0,,,,,9,9,117,2,,,,,,,,,,,,,,,,,,,,,1.791,1.929,451.9431708001066,None,,,,,,,,,,,,,,,,,,,,452.48417620011605,452.9872350001242,0.505624070065096,1.0059075700119138,452.9705652000848,453.0873049001675,452.9705652000848,453.0873049001675,453.07058200007305,None,m,1,0.8232552998233587,453.07058200007305,None,,,,,m,24,p10,2022_Apr_12_1545,training+cueing,2021.1.4,60.03737929137875,
Self.png,You,Self ,c,1,11,21,91,,,,,0,0,0,0,,,,,9,10,118,0,,,,,,,,,,,,,,,,,,,,,1.796,1.732,454.02793720015325,None,,,,,,,,,,,,,,,,,,,,454.57043840014376,455.07208850001916,0.5022753700613976,1.00317347003147,455.05542370001785,455.1554700001143,455.05542370001785,455.1554700001143,455.1554700001143,None,c,1,0.5145918999332935,455.1554700001143,None,,,,,m,24,p10,2022_Apr_12_1545,training+cueing,2021.1.4,60.03737929137875,
Friend.png,Stranger,Friend,m,3.2,19,29,99,,,,,0,0,0,0,,,,,9,11,119,5,,,,,,,,,,,,,,,,,,,,,1.546,1.378,455.7995851000305,None,,,,,,,,,,,,,,,,,,,,456.3384635001421,456.8400404001586,0.5034637700300664,1.003723070025444,456.8233958000783,456.9400875000283,456.8233958000783,456.9400875000283,456.9233901000116,None,m,1,0.5865001999773085,456.9233901000116,None,,,,,m,24,p10,2022_Apr_12_1545,training+cueing,2021.1.4,60.03737929137875,
,,,,,,,,,,,,0,0,0,0,,,,,,,,,,,,,,,,,,,,,,,,,,,,,,,,,,,,,,,,,,,,,,,,,,,,,,,,,,,,,,,,,,,0.0010918299667537212,None,,,m,24,p10,2022_Apr_12_1545,training+cueing,2021.1.4,60.03737929137875,
Self.png,You,Self ,c,1,11,21,91,,,,,1,0,1,0,0,0,0,9,,,,,,,,,,,,,,,,,458.1576692999806,None,space,141.86335309990682,2.0165786899160594,None,602.0286441000644,None,1.774,2.168,605.047560099978,None,605.5800352001097,606.0814443000127,606.0648064000998,606.16482740012,606.0648064000998,606.16482740012,606.16482740012,None,c,1,606.16482740012,None,607.3657816001214,None,1.1851365000475198,,,,,,,,,,,,,,,,,,,,,,,,m,24,p10,2022_Apr_12_1545,training+cueing,2021.1.4,60.03737929137875,
Friend.png,You,Friend,m,1.2,14,24,94,,,,,1,0,1,0,0,1,1,3,,,,,,,,,,,,,,,,,,,,,,,,,1.606,1.5,607.7661139999982,None,608.3029738999903,608.8168139001355,608.800140599953,608.9001537000295,608.800140599953,608.9001537000295,608.9001537000295,None,m,1,608.9001537000295,None,609.6173774001654,None,0.6897511000279337,,,,,,,,,,,,,,,,,,,,,,,,m,24,p10,2022_Apr_12_1545,training+cueing,2021.1.4,60.03737929137875,
Stranger.png,Friend,Stranger,m,2.3,17,27,97,,,,,1,0,1,0,0,2,2,7,,,,,,,,,,,,,,,,,,,,,,,,,1.751,1.628,610.0179123999551,None,610.5489342000801,611.0517245000228,611.0350375000853,611.1517894000281,611.0350375000853,611.1517894000281,611.135067100171,None,m,1,611.135067100171,None,611.8356659000274,None,0.678904099855572,,,,,,,,,,,,,,,,,,,,,,,,m,24,p10,2022_Apr_12_1545,training+cueing,2021.1.4,60.03737929137875,
Friend.png,Stranger,Friend,m,3.2,19,29,99,,,,,1,0,1,0,0,3,3,5,,,,,,,,,,,,,,,,,,,,,,,,,1.685,1.32,612.2360849000979,None,612.7682245001197,613.2700219999533,613.25334689999,613.370047400007,613.25334689999,613.370047400007,613.3533221001271,None,m,1,613.3533221001271,None,614.1039456001017,None,0.7325635000597686,,,,,,,,,,,,,,,,,,,,,,,,m,24,p10,2022_Apr_12_1545,training+cueing,2021.1.4,60.03737929137875,
Friend.png,Friend,Friend,c,2,12,22,92,,,,,1,0,1,0,0,4,4,10,,,,,,,,,,,,,,,,,,,,,,,,,1.707,1.378,614.5042024001013,None,615.03639880009,615.5382938000839,615.5216408001725,615.6383492001332,615.5216408001725,615.6383492001332,615.6216518001165,None,c,1,615.6216518001165,None,616.388911700109,None,0.7362457001581788,,,,,,,,,,,,,,,,,,,,,,,,m,24,p10,2022_Apr_12_1545,training+cueing,2021.1.4,60.03737929137875,
Stranger.png,You,Stranger,m,1.3,15,25,95,,,,,1,0,1,0,0,5,5,6,,,,,,,,,,,,,,,,,,,,,,,,,1.768,2.455,616.7892009001225,None,617.3215684001334,617.823329700157,617.8066516001709,617.9066640001256,617.8066516001709,617.9066640001256,617.9066640001256,None,m,1,617.9066640001256,None,618.3903954999987,None,0.46725649992004037,,,,,,,,,,,,,,,,,,,,,,,,m,24,p10,2022_Apr_12_1545,training+cueing,2021.1.4,60.03737929137875,
Friend.png,Friend,Friend,c,2,12,22,92,,,,,1,0,1,0,0,6,6,4,,,,,,,,,,,,,,,,,,,,,,,,,1.588,1.425,618.7906406000257,None,619.3212731000967,619.8247818001546,619.8080838001333,619.9247979000211,619.8080838001333,619.9247979000211,619.9080884000286,None,c,1,619.9080884000286,None,620.5586364001501,None,0.6258207999635488,,,,,,,,,,,,,,,,,,,,,,,,m,24,p10,2022_Apr_12_1545,training+cueing,2021.1.4,60.03737929137875,
Stranger.png,Stranger,Stranger,c,3,13,23,93,,,,,1,0,1,0,0,7,7,11,,,,,,,,,,,,,,,,,,,,,,,,,1.63,1.759,620.959538700059,None,621.4947939000558,622.0097137000412,621.99300090014,622.1097236000933,621.99300090014,622.1097236000933,622.0929946000688,None,c,1,622.0929946000688,None,622.8436014000326,None,0.7289238998200744,,,,,,,,,,,,,,,,,,,,,,,,m,24,p10,2022_Apr_12_1545,training+cueing,2021.1.4,60.03737929137875,
Self.png,You,Self ,c,1,11,21,91,,,,,1,0,1,0,0,8,8,0,,,,,,,,,,,,,,,,,,,,,,,,,1.504,1.777,623.2438571001403,None,623.7748400000855,624.2779641000088,624.2613011000212,624.3613375001587,624.2613011000212,624.3613375001587,624.3613375001587,None,c,1,624.3613375001587,None,625.0285490001552,None,0.636557700112462,,,,,,,,,,,,,,,,,,,,,,,,m,24,p10,2022_Apr_12_1545,training+cueing,2021.1.4,60.03737929137875,
Self.png,Stranger,Self ,m,3.1,18,28,98,,,,,1,0,1,0,0,9,9,2,,,,,,,,,,,,,,,,,,,,,,,,,1.503,2.163,625.4294199000578,None,625.9616342999507,626.4629116000142,626.4461926999502,626.5629690000787,626.4461926999502,626.5629690000787,626.5629690000787,None,m,1,626.5629690000787,None,627.1134285000153,None,0.5308819999918342,,,,,,,,,,,,,,,,,,,,,,,,m,24,p10,2022_Apr_12_1545,training+cueing,2021.1.4,60.03737929137875,
Self.png,Friend,Self ,m,2.1,16,26,96,,,,,1,0,1,0,0,10,10,1,,,,,,,,,,,,,,,,,,,,,,,,,1.52,1.468,627.5136629000772,None,628.0456654999871,628.5478451000527,628.5310568001587,628.6477886000648,628.5310568001587,628.6477886000648,628.6310652999673,None,m,1,628.6310652999673,None,629.4651109001134,None,0.8148105998989195,,,,,,,,,,,,,,,,,,,,,,,,m,24,p10,2022_Apr_12_1545,training+cueing,2021.1.4,60.03737929137875,
Stranger.png,Stranger,Stranger,c,3,13,23,93,,,,,1,0,1,0,0,11,11,8,,,,,,,,,,,,,,,,,,,,,,,,,1.544,2.042,629.866097799968,None,630.399420300033,630.8994279999752,630.8827593000606,630.9994586999528,630.8827593000606,630.9994586999528,630.9994586999528,None,c,1,630.9994586999528,None,631.7167078000493,None,0.6863920001778752,,,,,,,,,,,,,,,,,,,,,,,,m,24,p10,2022_Apr_12_1545,training+cueing,2021.1.4,60.03737929137875,
Self.png,Friend,Self ,m,2.1,16,26,96,,,,,1,0,1,0,,,,,0,0,0,1,,,,,,,,,,,,,,,,,,,635.1193587000016,None,1.57,2.012,638.635190299945,None,,,,,,,,,,,,,,,,632.1169869999867,None,0.014615089865401387,0.5128872899804264,639.1941852001473,639.7059768000618,0.5061941600870341,1.0067641602363437,639.6893029999919,639.8060051000211,639.6893029999919,639.8060051000211,639.7893266000319,None,m,1,0.9045927999541163,639.7893266000319,None,,,,,m,24,p10,2022_Apr_12_1545,training+cueing,2021.1.4,60.03737929137875,
Friend.png,Friend,Friend,c,2,12,22,92,,,,,1,0,1,0,,,,,0,1,1,4,,,,,,,,,,,,,,,,,,,,,1.585,1.822,640.8298218999989,None,,,,,,,,,,,,,,,,,,,,641.3679532001261,641.8740570000373,0.5113830699119717,1.011681169969961,641.8573519999627,641.9741148001049,641.8573519999627,641.9741148001049,641.9574015999679,None,c,1,0.5125457001850009,641.9574015999679,None,,,,,m,24,p10,2022_Apr_12_1545,training+cueing,2021.1.4,60.03737929137875,
Stranger.png,Stranger,Stranger,c,3,13,23,93,,,,,1,0,1,0,,,,,0,2,2,8,,,,,,,,,,,,,,,,,,,,,1.712,1.935,642.5970408001449,None,,,,,,,,,,,,,,,,,,,,643.1380193000659,643.642028799979,0.505116670159623,1.0054064702708274,643.6253198999912,643.742046300089,643.6253198999912,643.742046300089,643.725344600156,None,c,1,0.44056369992904365,643.725344600156,None,,,,,m,24,p10,2022_Apr_12_1545,training+cueing,2021.1.4,60.03737929137875,
Stranger.png,You,Stranger,m,1.3,15,25,95,,,,,1,0,1,0,,,,,0,3,3,6,,,,,,,,,,,,,,,,,,,,,1.762,2.245,644.2984180001076,None,,,,,,,,,,,,,,,,,,,,644.8379045000765,645.3432261999696,0.5117148701101542,1.0120266701560467,645.3265293000732,645.4265915001743,645.3265293000732,645.4265915001743,645.4265915001743,None,m,1,0.49930719984695315,645.4265915001743,None,,,,,m,24,p10,2022_Apr_12_1545,training+cueing,2021.1.4,60.03737929137875,
Friend.png,Stranger,Friend,m,3.2,19,29,99,,,,,1,0,1,0,,,,,0,4,4,5,,,,,,,,,,,,,,,,,,,,,1.663,1.274,646.0502734000329,None,,,,,,,,,,,,,,,,,,,,646.5967419999652,647.1111719000619,0.5103861701209098,1.0109623700845987,647.0944950000849,647.2112513999455,647.0944950000849,647.2112513999455,647.1945313999895,None,m,1,0.8594790999777615,647.1945313999895,None,,,,,m,24,p10,2022_Apr_12_1545,training+cueing,2021.1.4,60.03737929137875,
Self.png,Stranger,Self ,m,3.1,18,28,98,,,,,1,0,1,0,,,,,0,5,5,2,,,,,,,,,,,,,,,,,,,,,1.566,1.495,648.1857161000371,None,,,,,,,,,,,,,,,,,,,,648.7242999000009,649.2295262000989,0.5082089698407799,1.0103131697978824,649.2109932000749,649.3128407001495,649.2109932000749,649.3128407001495,649.3128407001495,None,m,1,0.8851685000117868,649.3128407001495,None,,,,,m,24,p10,2022_Apr_12_1545,training+cueing,2021.1.4,60.03737929137875,
Friend.png,You,Friend,m,1.2,14,24,94,,,,,1,0,1,0,,,,,0,6,6,3,,,,,,,,,,,,,,,,,,,,,1.47,1.301,650.3204809001181,None,,,,,,,,,,,,,,,,,,,,650.8620776000898,651.3642562001478,0.5045474697835743,1.0048460699617863,651.347584699979,651.447626600042,651.347584699979,651.447626600042,651.447626600042,None,c,0,0.5422239999752492,651.447626600042,None,,,,,m,24,p10,2022_Apr_12_1545,training+cueing,2021.1.4,60.03737929137875,
Stranger.png,Stranger,Stranger,c,3,13,23,93,,,,,1,0,1,0,,,,,0,7,7,11,,,,,,,,,,,,,,,,,,,,,1.731,2.495,652.121035899967,None,,,,,,,,,,,,,,,,,,,,652.6622725001071,653.1655425999779,0.5050863700453192,1.0054309701081365,653.1488747000694,653.2655995001551,653.1488747000694,653.2655995001551,653.2489134999923,None,c,1,1.1570294999983162,653.2489134999923,None,,,,,m,24,p10,2022_Apr_12_1545,training+cueing,2021.1.4,60.03737929137875,
Stranger.png,Friend,Stranger,m,2.3,17,27,97,,,,,1,0,1,0,,,,,0,8,8,7,,,,,,,,,,,,,,,,,,,,,1.69,2.339,654.542157500051,None,,,,,,,,,,,,,,,,,,,,655.0808046001475,655.5839689001441,0.506717569893226,1.0070330700837076,655.5672965000849,655.6840358001646,655.5672965000849,655.6840358001646,655.6673336001113,None,m,1,0.9625725001096725,655.6673336001113,None,,,,,m,24,p10,2022_Apr_12_1545,training+cueing,2021.1.4,60.03737929137875,
Friend.png,Friend,Friend,c,2,12,22,92,,,,,1,0,1,0,,,,,0,9,9,10,,,,,,,,,,,,,,,,,,,,,1.592,2.219,656.7582076000981,None,,,,,,,,,,,,,,,,,,,,657.2934523001313,657.802194799995,0.5002071701455861,1.0006529702804983,657.7688677001279,657.8689147999976,657.7688677001279,657.8689147999976,657.8689147999976,None,c,1,0.7450570999644697,657.8689147999976,None,,,,,m,24,p10,2022_Apr_12_1545,training+cueing,2021.1.4,60.03737929137875,
Self.png,You,Self ,c,1,11,21,91,,,,,1,0,1,0,,,,,0,10,10,9,,,,,,,,,,,,,,,,,,,,,1.456,2.059,658.7475789999589,None,,,,,,,,,,,,,,,,,,,,659.2847077001352,659.7870328000281,0.503031870117411,1.0033130701631308,659.7703593999613,659.8703900000546,659.7703593999613,659.8703900000546,659.8703900000546,None,c,1,0.6794533999636769,659.8703900000546,None,,,,,m,24,p10,2022_Apr_12_1545,training+cueing,2021.1.4,60.03737929137875,
Self.png,You,Self ,c,1,11,21,91,,,,,1,0,1,0,,,,,0,11,11,0,,,,,,,,,,,,,,,,,,,,,1.688,2.241,660.6770532999653,None,,,,,,,,,,,,,,,,,,,,661.2359412000515,661.7384133001324,0.5079471601638943,1.0082478600088507,661.7217629000079,661.8217718000524,661.7217629000079,661.8217718000524,661.8217718000524,None,m,0,0.8080871000420302,661.8217718000524,None,,,,,m,24,p10,2022_Apr_12_1545,training+cueing,2021.1.4,60.03737929137875,
Friend.png,Stranger,Friend,m,3.2,19,29,99,,,,,1,0,1,0,,,,,1,0,12,5,,,,,,,,,,,,,,,,,,,,,1.566,1.622,662.7623044999782,None,,,,,,,,,,,,,,,,,,,,663.3020558001008,663.8065896001644,0.5060844700783491,1.006607570219785,663.7899450999685,663.9067975999787,663.7899450999685,663.9067975999787,663.8899948999751,None,m,1,0.6760369001422077,663.8899948999751,None,,,,,m,24,p10,2022_Apr_12_1545,training+cueing,2021.1.4,60.03737929137875,
Stranger.png,Friend,Stranger,m,2.3,17,27,97,,,,,1,0,1,0,,,,,1,1,13,7,,,,,,,,,,,,,,,,,,,,,1.782,1.389,664.6973053000402,None,,,,,,,,,,,,,,,,,,,,665.2400979001541,665.7413548000623,0.5038833699654788,1.0040444699116051,665.7247130000032,665.8413911000825,665.7247130000032,665.8413911000825,665.8246665999759,None,m,1,0.5972267999313772,665.8246665999759,None,,,,,m,24,p10,2022_Apr_12_1545,training+cueing,2021.1.4,60.03737929137875,
Stranger.png,You,Stranger,m,1.3,15,25,95,,,,,1,0,1,0,,,,,1,2,14,6,,,,,,,,,,,,,,,,,,,,,1.48,1.703,666.5481780001428,None,,,,,,,,,,,,,,,,,,,,667.0872647000942,667.5926781999879,0.5101344701834023,1.010432570008561,667.5759918000549,667.6760283999611,667.5759918000549,667.6760283999611,667.6760283999611,None,m,1,0.5698998998850584,667.6760283999611,None,,,,,m,24,p10,2022_Apr_12_1545,training+cueing,2021.1.4,60.03737929137875,
Friend.png,You,Friend,m,1.2,14,24,94,,,,,1,0,1,0,,,,,1,3,15,3,,,,,,,,,,,,,,,,,,,,,1.697,2.095,668.3829695000313,None,,,,,,,,,,,,,,,,,,,,668.9203769001178,669.4273221001495,0.511553370160982,1.0118509703315794,669.4106811999809,669.5107172999997,669.4106811999809,669.5107172999997,669.5107172999997,None,c,0,0.5912313000299037,669.5107172999997,None,,,,,m,24,p10,2022_Apr_12_1545,training+cueing,2021.1.4,60.03737929137875,
Self.png,You,Self ,c,1,11,21,91,,,,,1,0,1,0,,,,,1,4,16,9,,,,,,,,,,,,,,,,,,,,,1.719,2.086,670.2340912001673,None,,,,,,,,,,,,,,,,,,,,670.7727620000951,671.2786769999657,0.511493369936943,1.011776169994846,671.2620093000587,671.3620887000579,671.2620093000587,671.3620887000579,671.3620887000579,None,c,1,0.4038492999970913,671.3620887000579,None,,,,,m,24,p10,2022_Apr_12_1545,training+cueing,2021.1.4,60.03737929137875,
Self.png,Stranger,Self ,m,3.1,18,28,98,,,,,1,0,1,0,,,,,1,5,17,2,,,,,,,,,,,,,,,,,,,,,1.418,1.467,671.9019220999908,None,,,,,,,,,,,,,,,,,,,,672.4443360001314,672.9466170000378,0.5057024697307497,1.0059490697458386,672.9299183001276,673.0465999001171,672.9299183001276,673.0465999001171,673.0299178001005,None,m,1,0.7841860000044107,673.0299178001005,None,,,,,m,24,p10,2022_Apr_12_1545,training+cueing,2021.1.4,60.03737929137875,
Stranger.png,Stranger,Stranger,c,3,13,23,93,,,,,1,0,1,0,,,,,1,6,18,11,,,,,,,,,,,,,,,,,,,,,1.725,1.475,673.9363552001305,None,,,,,,,,,,,,,,,,,,,,674.4840488999616,674.9980689999647,0.5087010702118278,1.009009670233354,674.9813635000028,675.0980940000154,674.9813635000028,675.0980940000154,675.0814009001479,None,c,1,0.7484257998876274,675.0814009001479,None,,,,,m,24,p10,2022_Apr_12_1545,training+cueing,2021.1.4,60.03737929137875,
Self.png,Friend,Self ,m,2.1,16,26,96,,,,,1,0,1,0,,,,,1,7,19,1,,,,,,,,,,,,,,,,,,,,,1.44,2.064,675.9549958000425,None,,,,,,,,,,,,,,,,,,,,676.4957685000263,676.9994984001387,0.5063699698075652,1.0066544697619975,676.9828254999593,677.0995901999995,676.9828254999593,677.0995901999995,677.0828371001408,None,None,0,,677.0828371001408,None,,,,,m,24,p10,2022_Apr_12_1545,training+cueing,2021.1.4,60.03737929137875,
Friend.png,Friend,Friend,c,2,12,22,92,,,,,1,0,1,0,,,,,1,8,20,4,,,,,,,,,,,,,,,,,,,,,1.469,1.707,678.6384550000075,None,,,,,,,,,,,,,,,,,,,,679.1775964000262,679.6847767001018,0.5111326701007783,1.0114187700673938,679.6680938000791,679.7848543999717,679.6680938000791,679.7848543999717,679.7681257000659,None,c,1,0.8457615999504924,679.7681257000659,None,,,,,m,24,p10,2022_Apr_12_1545,training+cueing,2021.1.4,60.03737929137875,
Stranger.png,Stranger,Stranger,c,3,13,23,93,,,,,1,0,1,0,,,,,1,9,21,8,,,,,,,,,,,,,,,,,,,,,1.795,1.701,680.7410727001261,None,,,,,,,,,,,,,,,,,,,,681.2814044000115,681.7862893000711,0.5090414700098336,1.009359670104459,681.7696163000073,681.8863347000442,681.7696163000073,681.8863347000442,681.8696173999924,None,c,1,0.5522640000563115,681.8696173999924,None,,,,,m,24,p10,2022_Apr_12_1545,training+cueing,2021.1.4,60.03737929137875,
Self.png,You,Self ,c,1,11,21,91,,,,,1,0,1,0,,,,,1,10,22,0,,,,,,,,,,,,,,,,,,,,,1.589,1.874,682.5602758999448,None,,,,,,,,,,,,,,,,,,,,683.1000857001636,683.6042933000717,0.5076220699120313,1.007970669772476,683.5875858000945,683.6876384001225,683.5875858000945,683.6876384001225,683.6876384001225,None,c,1,0.5263197000604123,683.6876384001225,None,,,,,m,24,p10,2022_Apr_12_1545,training+cueing,2021.1.4,60.03737929137875,
Friend.png,Friend,Friend,c,2,12,22,92,,,,,1,0,1,0,,,,,1,11,23,10,,,,,,,,,,,,,,,,,,,,,1.551,2.185,684.3439615999814,None,,,,,,,,,,,,,,,,,,,,684.8972768001258,685.4055959000252,0.5149118602275848,1.0152020601090044,685.3889028001577,685.5056271001231,685.3889028001577,685.5056271001231,685.4889402000699,None,c,1,0.5809321999549866,685.4889402000699,None,,,,,m,24,p10,2022_Apr_12_1545,training+cueing,2021.1.4,60.03737929137875,
Friend.png,Stranger,Friend,m,3.2,19,29,99,,,,,1,0,1,0,,,,,2,0,24,5,,,,,,,,,,,,,,,,,,,,,1.731,2.356,686.1957024999429,None,,,,,,,,,,,,,,,,,,,,686.7369995000772,687.2402749999892,0.5062387702055275,1.0065377701539546,687.2235620999709,687.340300800046,687.2235620999709,687.340300800046,687.3235816000961,None,m,1,0.5703840001951903,687.3235816000961,None,,,,,m,24,p10,2022_Apr_12_1545,training+cueing,2021.1.4,60.03737929137875,
Stranger.png,Stranger,Stranger,c,3,13,23,93,,,,,1,0,1,0,,,,,2,1,25,11,,,,,,,,,,,,,,,,,,,,,1.433,1.705,688.0303573999554,None,,,,,,,,,,,,,,,,,,,,688.5697620999999,689.0749401999637,0.51006417023018,1.0103353701997548,689.0582773999777,689.1749705001712,689.0582773999777,689.1749705001712,689.1582963000983,None,c,1,0.6558689000084996,689.1582963000983,None,,,,,m,24,p10,2022_Apr_12_1545,training+cueing,2021.1.4,60.03737929137875,
Stranger.png,You,Stranger,m,1.3,15,25,95,,,,,1,0,1,0,,,,,2,2,26,6,,,,,,,,,,,,,,,,,,,,,1.789,1.878,689.9483688001055,None,,,,,,,,,,,,,,,,,,,,690.4859703001566,690.992983300006,0.5124475699849427,1.012731770053506,690.9762802000623,691.0763223001268,690.9762802000623,691.0763223001268,691.0763223001268,None,m,1,0.6256281000096351,691.0763223001268,None,,,,,m,24,p10,2022_Apr_12_1545,training+cueing,2021.1.4,60.03737929137875,
Friend.png,Friend,Friend,c,2,12,22,92,,,,,1,0,1,0,,,,,2,3,27,4,,,,,,,,,,,,,,,,,,,,,1.462,2.429,691.8332402000669,None,,,,,,,,,,,,,,,,,,,,692.3741916001309,692.8776589999907,0.506546069867909,1.0068517699837685,692.8609939999878,692.9777611000463,692.8609939999878,692.9777611000463,692.9610133001115,None,c,1,0.5969847999513149,692.9610133001115,None,,,,,m,24,p10,2022_Apr_12_1545,training+cueing,2021.1.4,60.03737929137875,
Self.png,Friend,Self ,m,2.1,16,26,96,,,,,1,0,1,0,,,,,2,4,28,1,,,,,,,,,,,,,,,,,,,,,1.499,2.022,693.6842108001001,None,,,,,,,,,,,,,,,,,,,,694.2222414000425,694.7290362000931,0.5109891700558364,1.01124267000705,694.7123617001344,694.8290292001329,694.7123617001344,694.8290292001329,694.8123606001027,None,m,1,0.8895344000775367,694.8123606001027,None,,,,,m,24,p10,2022_Apr_12_1545,training+cueing,2021.1.4,60.03737929137875,
Stranger.png,Stranger,Stranger,c,3,13,23,93,,,,,1,0,1,0,,,,,2,5,29,8,,,,,,,,,,,,,,,,,,,,,1.724,2.151,695.835642100079,None,,,,,,,,,,,,,,,,,,,,696.3769394000992,696.8805728999432,0.5073251698631793,1.0076107699424028,696.8638800999615,696.9806310001295,696.8638800999615,696.9806310001295,696.9639084001537,None,c,1,0.6100792000070214,696.9639084001537,None,,,,,m,24,p10,2022_Apr_12_1545,training+cueing,2021.1.4,60.03737929137875,
Stranger.png,Friend,Stranger,m,2.3,17,27,97,,,,,1,0,1,0,,,,,2,6,30,7,,,,,,,,,,,,,,,,,,,,,1.47,2.367,697.7036785001401,None,,,,,,,,,,,,,,,,,,,,698.2452678000554,698.7485970000271,0.5059969702269882,1.0062810701783746,698.7319076000713,698.8486613000277,698.7319076000713,698.8486613000277,698.8319725000765,None,m,1,0.70995940011926,698.8319725000765,None,,,,,m,24,p10,2022_Apr_12_1545,training+cueing,2021.1.4,60.03737929137875,
Friend.png,You,Friend,m,1.2,14,24,94,,,,,1,0,1,0,,,,,2,7,31,3,,,,,,,,,,,,,,,,,,,,,1.468,2.457,699.6714741000906,None,,,,,,,,,,,,,,,,,,,,700.2123728001025,700.7166800000705,0.5067340699024498,1.0070138699375093,700.700012100162,700.8000640000682,700.700012100162,700.8000640000682,700.8000640000682,None,m,1,0.6619218999985605,700.8000640000682,None,,,,,m,24,p10,2022_Apr_12_1545,training+cueing,2021.1.4,60.03737929137875,
Self.png,You,Self ,c,1,11,21,91,,,,,1,0,1,0,,,,,2,8,32,9,,,,,,,,,,,,,,,,,,,,,1.503,1.316,701.5906660000328,None,,,,,,,,,,,,,,,,,,,,702.1292876000516,702.6347136001568,0.5169419699814171,1.0125778699293733,702.623392800102,702.7347810000647,702.623392800102,702.7347810000647,702.7181273000315,None,c,1,0.45580450003035367,702.7181273000315,None,,,,,m,24,p10,2022_Apr_12_1545,training+cueing,2021.1.4,60.03737929137875,
Self.png,You,Self ,c,1,11,21,91,,,,,1,0,1,0,,,,,2,9,33,0,,,,,,,,,,,,,,,,,,,,,1.617,2.472,703.3096410001162,None,,,,,,,,,,,,,,,,,,,,703.8487371001393,704.3526586000808,0.5076473702210933,1.0079081701114774,704.335985600017,704.4360060000326,704.335985600017,704.4360060000326,704.4360060000326,None,c,1,0.561922200024128,704.4360060000326,None,,,,,m,24,p10,2022_Apr_12_1545,training+cueing,2021.1.4,60.03737929137875,
Self.png,Stranger,Self ,m,3.1,18,28,98,,,,,1,0,1,0,,,,,2,10,34,2,,,,,,,,,,,,,,,,,,,,,1.634,1.936,705.1255236000288,None,,,,,,,,,,,,,,,,,,,,705.6652053999715,706.1706240000203,0.5094395698979497,1.0097616699058563,706.1539521000814,706.2706965000834,706.1539521000814,706.2706965000834,706.253978200024,None,m,1,0.8079667999409139,706.253978200024,None,,,,,m,24,p10,2022_Apr_12_1545,training+cueing,2021.1.4,60.03737929137875,
Friend.png,Friend,Friend,c,2,12,22,92,,,,,1,0,1,0,,,,,2,11,35,10,,,,,,,,,,,,,,,,,,,,,1.796,1.57,707.1942366999574,None,,,,,,,,,,,,,,,,,,,,707.7354836999439,708.2388719001319,0.506543569965288,1.0068234698846936,708.2221518999431,708.3388563001063,708.2221518999431,708.3388563001063,708.322144200094,None,c,1,0.4997698999941349,708.322144200094,None,,,,,m,24,p10,2022_Apr_12_1545,training+cueing,2021.1.4,60.03737929137875,
Friend.png,Friend,Friend,c,2,12,22,92,,,,,1,0,1,0,,,,,3,0,36,10,,,,,,,,,,,,,,,,,,,,,1.517,2.086,708.9454036001116,None,,,,,,,,,,,,,,,,,,,,709.5028546999674,710.0067668000702,0.5052877601701766,1.0055887601338327,709.9900720999576,710.1067792000249,709.9900720999576,710.1067792000249,710.0900968001224,None,c,1,0.5878820999059826,710.0900968001224,None,,,,,m,24,p10,2022_Apr_12_1545,training+cueing,2021.1.4,60.03737929137875,
Stranger.png,Stranger,Stranger,c,3,13,23,93,,,,,1,0,1,0,,,,,3,1,37,11,,,,,,,,,,,,,,,,,,,,,1.72,2.357,710.8131342001725,None,,,,,,,,,,,,,,,,,,,,711.3535842001438,711.8580795000307,0.5090790700633079,1.0095690700691193,711.8413969001267,711.9582169000059,711.8413969001267,711.9582169000059,711.941561399959,None,m,0,0.7204036999028176,711.941561399959,None,,,,,m,24,p10,2022_Apr_12_1545,training+cueing,2021.1.4,60.03737929137875,
Friend.png,You,Friend,m,1.2,14,24,94,,,,,1,0,1,0,,,,,3,2,38,3,,,,,,,,,,,,,,,,,,,,,1.492,2.26,712.7977861000691,None,,,,,,,,,,,,,,,,,,,,713.3394269000273,713.8428521000315,0.5070349702145904,1.00735277030617,713.8261627000757,713.9262403999455,713.8261627000757,713.9262403999455,713.9262403999455,None,c,0,0.8636654000729322,713.9262403999455,None,,,,,m,24,p10,2022_Apr_12_1545,training+cueing,2021.1.4,60.03737929137875,
Friend.png,Stranger,Friend,m,3.2,19,29,99,,,,,1,0,1,0,,,,,3,3,39,5,,,,,,,,,,,,,,,,,,,,,1.609,1.624,714.9164474999998,None,,,,,,,,,,,,,,,,,,,,715.4561630000826,715.9610675999429,0.5082627702504396,1.0085579701699317,715.9443614999764,716.0611040000804,715.9443614999764,716.0611040000804,716.0443866001442,None,m,1,0.6015720998402685,716.0443866001442,None,,,,,m,24,p10,2022_Apr_12_1545,training+cueing,2021.1.4,60.03737929137875,
Stranger.png,Friend,Stranger,m,2.3,17,27,97,,,,,1,0,1,0,,,,,3,4,40,7,,,,,,,,,,,,,,,,,,,,,1.608,2.332,716.7675968001131,None,,,,,,,,,,,,,,,,,,,,717.3090163001325,717.8123711999506,0.5064789699390531,1.0067811699118465,717.7957248000894,717.9124477000441,717.7957248000894,717.9124477000441,717.8957499000244,None,m,1,0.8301093999762088,717.8957499000244,None,,,,,m,24,p10,2022_Apr_12_1545,training+cueing,2021.1.4,60.03737929137875,
Self.png,You,Self ,c,1,11,21,91,,,,,1,0,1,0,,,,,3,5,41,9,,,,,,,,,,,,,,,,,,,,,1.562,2.059,718.8524210001342,None,,,,,,,,,,,,,,,,,,,,719.3899694001302,719.8972372000571,0.5137543699238449,1.0142113699112087,719.8805649001151,719.9806046001613,719.8805649001151,719.9806046001613,719.9806046001613,None,c,1,0.6175476999487728,719.9806046001613,None,,,,,m,24,p10,2022_Apr_12_1545,training+cueing,2021.1.4,60.03737929137875,
Self.png,You,Self ,c,1,11,21,91,,,,,1,0,1,0,,,,,3,6,42,0,,,,,,,,,,,,,,,,,,,,,1.549,1.941,720.7219358000439,None,,,,,,,,,,,,,,,,,,,,721.2597882000264,721.7652289001271,0.5089446702040732,1.0092638700734824,721.7485510001425,721.8486397000961,721.7485510001425,721.8486397000961,721.8486397000961,None,c,1,0.861243300139904,721.8486397000961,None,,,,,m,24,p10,2022_Apr_12_1545,training+cueing,2021.1.4,60.03737929137875,
Stranger.png,Stranger,Stranger,c,3,13,23,93,,,,,1,0,1,0,,,,,3,7,43,8,,,,,,,,,,,,,,,,,,,,,1.575,1.239,722.8384369001724,None,,,,,,,,,,,,,,,,,,,,723.3806750001386,723.8835168001242,0.5055163700599223,1.0061323700938374,723.8668091001455,723.9837309999857,723.8668091001455,723.9837309999857,723.9672630999703,None,c,1,0.6147016000468284,723.9672630999703,None,,,,,m,24,p10,2022_Apr_12_1545,training+cueing,2021.1.4,60.03737929137875,
Self.png,Stranger,Self ,m,3.1,18,28,98,,,,,1,0,1,0,,,,,3,8,44,2,,,,,,,,,,,,,,,,,,,,,1.568,2.45,724.7085055999923,None,,,,,,,,,,,,,,,,,,,,725.2454107999802,725.7514860001393,0.5107112699188292,1.0109710700344294,725.734807100147,725.8515105000697,725.734807100147,725.8515105000697,725.8348075000104,None,m,1,1.035141299944371,725.8348075000104,None,,,,,m,24,p10,2022_Apr_12_1545,training+cueing,2021.1.4,60.03737929137875,
Self.png,Friend,Self ,m,2.1,16,26,96,,,,,1,0,1,0,,,,,3,9,45,1,,,,,,,,,,,,,,,,,,,,,1.739,2.487,726.9921212999616,None,,,,,,,,,,,,,,,,,,,,727.5341968000866,728.0364870000631,0.5059033699799329,1.0061677698977292,728.0198272999842,728.1365448001307,728.0198272999842,728.1365448001307,728.1198495000135,None,m,1,0.7980617000721395,728.1198495000135,None,,,,,m,24,p10,2022_Apr_12_1545,training+cueing,2021.1.4,60.03737929137875,
Stranger.png,You,Stranger,m,1.3,15,25,95,,,,,1,0,1,0,,,,,3,10,46,6,,,,,,,,,,,,,,,,,,,,,1.708,2.224,729.0436214001384,None,,,,,,,,,,,,,,,,,,,,729.584234100068,730.0879471001681,0.5069171702489257,1.007251970237121,730.0712807001546,730.1713141000364,730.0712807001546,730.1713141000364,730.1713141000364,None,m,1,0.8425668000709265,730.1713141000364,None,,,,,m,24,p10,2022_Apr_12_1545,training+cueing,2021.1.4,60.03737929137875,
Friend.png,Friend,Friend,c,2,12,22,92,,,,,1,0,1,0,,,,,3,11,47,4,,,,,,,,,,,,,,,,,,,,,1.734,2.454,731.1448301000055,None,,,,,,,,,,,,,,,,,,,,731.6833220999688,732.1894982999656,0.5099583698902279,1.0102456698659807,732.1727883000858,732.2895192001015,732.1727883000858,732.2895192001015,732.2728355000727,None,c,1,0.6611111001111567,732.2728355000727,None,,,,,m,24,p10,2022_Apr_12_1545,training+cueing,2021.1.4,60.03737929137875,
Friend.png,Stranger,Friend,m,3.2,19,29,99,,,,,1,0,1,0,,,,,4,0,48,5,,,,,,,,,,,,,,,,,,,,,1.776,1.421,733.0632456000894,None,,,,,,,,,,,,,,,,,,,,733.6057255000342,734.107531900052,0.5050762703176588,1.0054363701492548,734.090816100128,734.2075855999719,734.090816100128,734.2075855999719,734.1908673001453,None,m,1,0.6150712000671774,734.1908673001453,None,,,,,m,24,p10,2022_Apr_12_1545,training+cueing,2021.1.4,60.03737929137875,
Stranger.png,Friend,Stranger,m,2.3,17,27,97,,,,,1,0,1,0,,,,,4,1,49,7,,,,,,,,,,,,,,,,,,,,,1.613,1.994,734.9304915000685,None,,,,,,,,,,,,,,,,,,,,735.4719299999997,735.975578899961,0.5063647700008005,1.0066237698774785,735.9589136999566,736.0756423999555,735.9589136999566,736.0756423999555,736.0588597001042,None,m,1,0.8271047999151051,736.0588597001042,None,,,,,m,24,p10,2022_Apr_12_1545,training+cueing,2021.1.4,60.03737929137875,
Stranger.png,Stranger,Stranger,c,3,13,23,93,,,,,1,0,1,0,,,,,4,2,50,8,,,,,,,,,,,,,,,,,,,,,1.549,1.31,737.0159827000462,None,,,,,,,,,,,,,,,,,,,,737.5549941000063,738.0603835000657,0.5081919701769948,1.0087503702379763,738.043743400136,738.1604371999856,738.043743400136,738.1604371999856,738.143749000039,None,m,0,0.7581161998677999,738.143749000039,None,,,,,m,24,p10,2022_Apr_12_1545,training+cueing,2021.1.4,60.03737929137875,
Friend.png,Friend,Friend,c,2,12,22,92,,,,,1,0,1,0,,,,,4,3,51,4,,,,,,,,,,,,,,,,,,,,,1.538,2.443,739.0338938999921,None,,,,,,,,,,,,,,,,,,,,739.5755610000342,740.0785302999429,0.5063133698422462,1.0066812699660659,740.0618358000647,740.1786038000137,740.0618358000647,740.1786038000137,740.1618836000562,None,c,1,0.5641010000836104,740.1618836000562,None,,,,,m,24,p10,2022_Apr_12_1545,training+cueing,2021.1.4,60.03737929137875,
Self.png,Stranger,Self ,m,3.1,18,28,98,,,,,1,0,1,0,,,,,4,4,52,2,,,,,,,,,,,,,,,,,,,,,1.797,2.112,740.8520303000696,None,,,,,,,,,,,,,,,,,,,,741.4068526001647,741.9131937001366,0.5100867599248886,1.0104270598385483,741.8964828001335,742.0132469001692,741.8964828001335,742.0132469001692,741.9964893001597,None,m,1,0.5055953001137823,741.9964893001597,None,,,,,m,24,p10,2022_Apr_12_1545,training+cueing,2021.1.4,60.03737929137875,
Friend.png,Friend,Friend,c,2,12,22,92,,,,,1,0,1,0,,,,,4,5,53,10,,,,,,,,,,,,,,,,,,,,,1.728,2.487,742.636766300071,None,,,,,,,,,,,,,,,,,,,,743.1778359001037,743.6811518999748,0.5074856702703983,1.0077746701426804,743.664452200057,743.7811961001717,743.664452200057,743.7811961001717,743.7644879000727,None,c,1,0.6416342998854816,743.7644879000727,None,,,,,m,24,p10,2022_Apr_12_1545,training+cueing,2021.1.4,60.03737929137875,
Self.png,You,Self ,c,1,11,21,91,,,,,1,0,1,0,,,,,4,6,54,9,,,,,,,,,,,,,,,,,,,,,1.439,1.765,744.5380460000597,None,,,,,,,,,,,,,,,,,,,,745.0794920001645,745.5825066999532,0.5069539702963084,1.007268070243299,745.5658214001451,745.6658797001,745.5658214001451,745.6658797001,745.6658797001,None,c,1,0.9319343001116067,745.6658797001,None,,,,,m,24,p10,2022_Apr_12_1545,training+cueing,2021.1.4,60.03737929137875,
Self.png,Friend,Self ,m,2.1,16,26,96,,,,,1,0,1,0,,,,,4,7,55,1,,,,,,,,,,,,,,,,,,,,,1.532,2.127,746.7232300001197,None,,,,,,,,,,,,,,,,,,,,747.2672606999986,747.7674492001534,0.5151358700823039,1.0154244699515402,747.7674492001534,747.8674759001005,747.7674492001534,747.8674759001005,747.8674759001005,None,m,1,0.7465133999940008,747.8674759001005,None,,,,,m,24,p10,2022_Apr_12_1545,training+cueing,2021.1.4,60.03737929137875,
Self.png,You,Self ,c,1,11,21,91,,,,,1,0,1,0,,,,,4,8,56,0,,,,,,,,,,,,,,,,,,,,,1.511,2.482,748.7405048999935,None,,,,,,,,,,,,,,,,,,,,749.2828759001568,749.7855671001598,0.506927469978109,1.007226170040667,749.7688663001172,749.868908100063,749.7688663001172,749.868908100063,749.868908100063,None,m,0,0.6809324999339879,749.868908100063,None,,,,,m,24,p10,2022_Apr_12_1545,training+cueing,2021.1.4,60.03737929137875,
Friend.png,You,Friend,m,1.2,14,24,94,,,,,1,0,1,0,,,,,4,9,57,3,,,,,,,,,,,,,,,,,,,,,1.776,2.28,750.6761169000529,None,,,,,,,,,,,,,,,,,,,,751.2273683999665,751.7369655000512,0.502914970042184,1.0032178699038923,751.7202955000103,751.8203561000992,751.7202955000103,751.8203561000992,751.8203561000992,None,m,1,1.225634700153023,751.8203561000992,None,,,,,m,24,p10,2022_Apr_12_1545,training+cueing,2021.1.4,60.03737929137875,
Stranger.png,Stranger,Stranger,c,3,13,23,93,,,,,1,0,1,0,,,,,4,10,58,11,,,,,,,,,,,,,,,,,,,,,1.65,2.112,753.177526500076,None,,,,,,,,,,,,,,,,,,,,753.7184786000289,754.2221491001546,0.5048855701461434,1.005112670129165,754.2054747000802,754.3221676000394,754.2054747000802,754.3221676000394,754.3054476999678,None,c,1,0.5006365000735968,754.3054476999678,None,,,,,m,24,p10,2022_Apr_12_1545,training+cueing,2021.1.4,60.03737929137875,
Stranger.png,You,Stranger,m,1.3,15,25,95,,,,,1,0,1,0,,,,,4,11,59,6,,,,,,,,,,,,,,,,,,,,,1.775,1.951,754.929041299969,None,,,,,,,,,,,,,,,,,,,,755.4701133000199,755.9733486000914,0.5061496698763222,1.0064423698931932,755.9567015999928,756.056747399969,755.9567015999928,756.056747399969,756.056747399969,None,m,1,0.6372640999034047,756.056747399969,None,,,,,m,24,p10,2022_Apr_12_1545,training+cueing,2021.1.4,60.03737929137875,
Stranger.png,Stranger,Stranger,c,3,13,23,93,,,,,1,0,1,0,,,,,5,0,60,8,,,,,,,,,,,,,,,,,,,,,1.735,1.777,756.8303805000614,None,,,,,,,,,,,,,,,,,,,,757.389928100165,757.8914322999772,0.502946559805423,1.0032551598269492,757.8747638999484,757.9914784000721,757.8747638999484,757.9914784000721,757.9747798000462,None,c,1,0.575144600123167,757.9747798000462,None,,,,,m,24,p10,2022_Apr_12_1545,training+cueing,2021.1.4,60.03737929137875,
Self.png,You,Self ,c,1,11,21,91,,,,,1,0,1,0,,,,,5,1,61,9,,,,,,,,,,,,,,,,,,,,,1.457,2.459,758.6812261000741,None,,,,,,,,,,,,,,,,,,,,759.279185899999,759.7928683001082,0.5107602400239557,1.0110232399310917,759.7761502000503,759.876184400171,759.7761502000503,759.876184400171,759.876184400171,None,c,1,0.5937284999527037,759.876184400171,None,,,,,m,24,p10,2022_Apr_12_1545,training+cueing,2021.1.4,60.03737929137875,
Friend.png,You,Friend,m,1.2,14,24,94,,,,,1,0,1,0,,,,,5,2,62,3,,,,,,,,,,,,,,,,,,,,,1.542,1.336,760.5997884999961,None,,,,,,,,,,,,,,,,,,,,761.137061299989,761.6441291000228,0.5149851702153683,1.015252270270139,761.6274552000687,761.7275015001651,761.6274552000687,761.7275015001651,761.7275015001651,None,m,1,0.5664192000404,761.7275015001651,None,,,,,m,24,p10,2022_Apr_12_1545,training+cueing,2021.1.4,60.03737929137875,
Self.png,You,Self ,c,1,11,21,91,,,,,1,0,1,0,,,,,5,3,63,0,,,,,,,,,,,,,,,,,,,,,1.755,1.543,762.4175770999864,None,,,,,,,,,,,,,,,,,,,,762.9560549999587,763.4621405999642,0.5100528700277209,1.0103541701100767,763.4454616999719,763.5455126001034,763.4454616999719,763.5455126001034,763.5455126001034,None,c,1,0.8284757998771966,763.5455126001034,None,,,,,m,24,p10,2022_Apr_12_1545,training+cueing,2021.1.4,60.03737929137875,
Stranger.png,You,Stranger,m,1.3,15,25,95,,,,,1,0,1,0,,,,,5,4,64,6,,,,,,,,,,,,,,,,,,,,,1.611,1.565,764.5018754000776,None,,,,,,,,,,,,,,,,,,,,765.0420469001401,765.5469621999655,0.5105039700865746,1.0108089700806886,765.5302727001254,765.6303218000103,765.5302727001254,765.6303218000103,765.6303218000103,None,m,1,0.6156121999956667,765.6303218000103,None,,,,,m,24,p10,2022_Apr_12_1545,training+cueing,2021.1.4,60.03737929137875,
Friend.png,Friend,Friend,c,2,12,22,92,,,,,1,0,1,0,,,,,5,5,65,4,,,,,,,,,,,,,,,,,,,,,1.541,2.35,766.3703771000728,None,,,,,,,,,,,,,,,,,,,,766.9100665000733,767.4149915999733,0.5101711698807776,1.0111186699941754,767.3983351001516,767.5156247001141,767.3983351001516,767.5156247001141,767.4985263999552,None,c,1,0.9554834999144077,767.4985263999552,None,,,,,m,24,p10,2022_Apr_12_1545,training+cueing,2021.1.4,60.03737929137875,
Stranger.png,Stranger,Stranger,c,3,13,23,93,,,,,1,0,1,0,,,,,5,6,66,11,,,,,,,,,,,,,,,,,,,,,1.425,1.544,768.5899963001721,None,,,,,,,,,,,,,,,,,,,,769.129484700039,769.6333375000395,0.5050544699188322,1.0052761698607355,769.6167200000491,769.7333996000234,769.6167200000491,769.7333996000234,769.7166788000613,None,c,1,0.7852855999954045,769.7166788000613,None,,,,,m,24,p10,2022_Apr_12_1545,training+cueing,2021.1.4,60.03737929137875,
Self.png,Stranger,Self ,m,3.1,18,28,98,,,,,1,0,1,0,,,,,5,7,67,2,,,,,,,,,,,,,,,,,,,,,1.586,1.507,770.6298249000683,None,,,,,,,,,,,,,,,,,,,,771.16271100007,771.6680904000532,0.5116193701978773,1.011925470083952,771.6513895001262,771.7681448999792,771.6513895001262,771.7681448999792,771.7514637999702,None,m,1,0.6226795001421124,771.7514637999702,None,,,,,m,24,p10,2022_Apr_12_1545,training+cueing,2021.1.4,60.03737929137875,
Friend.png,Friend,Friend,c,2,12,22,92,,,,,1,0,1,0,,,,,5,8,68,10,,,,,,,,,,,,,,,,,,,,,1.762,1.914,772.5076960001606,None,,,,,,,,,,,,,,,,,,,,773.0486404001713,773.5528129001614,0.505998469889164,1.0062014700379223,773.536188500002,773.6528263001237,773.536188500002,773.6528263001237,773.6361464001238,None,c,1,0.7217838000506163,773.6361464001238,None,,,,,m,24,p10,2022_Apr_12_1545,training+cueing,2021.1.4,60.03737929137875,
Self.png,Friend,Self ,m,2.1,16,26,96,,,,,1,0,1,0,,,,,5,9,69,1,,,,,,,,,,,,,,,,,,,,,1.406,1.475,774.4929919999558,None,,,,,,,,,,,,,,,,,,,,775.0325905999634,775.5375565001741,0.5101780700497329,1.0105091698933393,775.520865400089,775.6376029001549,775.520865400089,775.6376029001549,775.6209382000379,None,m,1,0.7850735001266003,775.6209382000379,None,,,,,m,24,p10,2022_Apr_12_1545,training+cueing,2021.1.4,60.03737929137875,
Stranger.png,Friend,Stranger,m,2.3,17,27,97,,,,,1,0,1,0,,,,,5,10,70,7,,,,,,,,,,,,,,,,,,,,,1.643,2.443,776.5279227001593,None,,,,,,,,,,,,,,,,,,,,777.0669289999641,777.5723627000116,0.5110230701975524,1.0113271703012288,777.5556757999584,777.6724187999498,777.5556757999584,777.6724187999498,777.655688200146,None,m,1,0.5742765001486987,777.655688200146,None,,,,,m,24,p10,2022_Apr_12_1545,training+cueing,2021.1.4,60.03737929137875,
Friend.png,Stranger,Friend,m,3.2,19,29,99,,,,,1,0,1,0,,,,,5,11,71,5,,,,,,,,,,,,,,,,,,,,,1.497,2.481,778.3629612999503,None,,,,,,,,,,,,,,,,,,,,778.9040564000607,779.4070520000532,0.5033000700641423,1.0035327700898051,779.3904089001007,779.5070770001039,779.3904089001007,779.5070770001039,779.4903750000522,None,m,1,0.5955747000407428,779.4903750000522,None,,,,,m,24,p10,2022_Apr_12_1545,training+cueing,2021.1.4,60.03737929137875,
Friend.png,Stranger,Friend,m,3.2,19,29,99,,,,,1,0,1,0,,,,,6,0,72,5,,,,,,,,,,,,,,,,,,,,,1.473,2.313,780.2132060001604,None,,,,,,,,,,,,,,,,,,,,780.7534386999905,781.2583683000412,0.5109730700496584,1.0113627701066434,781.2416954000946,781.3584159000311,781.2416954000946,781.3584159000311,781.3417146999855,None,m,1,0.5202275000046939,781.3417146999855,None,,,,,m,24,p10,2022_Apr_12_1545,training+cueing,2021.1.4,60.03737929137875,
Stranger.png,Stranger,Stranger,c,3,13,23,93,,,,,1,0,1,0,,,,,6,1,73,8,,,,,,,,,,,,,,,,,,,,,1.698,2.233,781.9981707001571,None,,,,,,,,,,,,,,,,,,,,782.5359690999612,783.0429998999462,0.5130001700017601,None,783.0262985001318,783.1430512000807,783.0262985001318,783.1430512000807,783.1263236999512,None,c,1,0.3676326998975128,783.1263236999512,None,,,,,m,24,p10,2022_Apr_12_1545,training+cueing,2021.1.4,60.03737929137875,
Stranger.png,Stranger,Stranger,c,3,13,23,93,,,,,1,0,1,0,,,,,6,2,74,11,,,,,,,,,,,,,,,,,,,,,1.412,1.237,783.6162175999489,None,,,,,,,,,,,,,,,,,,,,784.1540463001002,784.6608472000808,0.5112852698657662,None,784.6441783001646,784.7608435000293,784.6441783001646,784.7608435000293,784.7441698000766,None,c,1,0.3818142998497933,784.7441698000766,None,,,,,m,24,p10,2022_Apr_12_1545,training+cueing,2021.1.4,60.03737929137875,
Stranger.png,You,Stranger,m,1.3,15,25,95,,,,,1,0,1,0,,,,,6,3,75,6,,,,,,,,,,,,,,,,,,,,,1.747,1.501,785.250402700156,None,,,,,,,,,,,,,,,,,,,,785.7914362000301,786.295340700075,0.5070812699850649,1.007381570059806,786.2786485000979,786.378693100065,786.2786485000979,786.378693100065,786.378693100065,None,m,1,0.47521859989501536,786.378693100065,None,,,,,m,24,p10,2022_Apr_12_1545,training+cueing,2021.1.4,60.03737929137875,
Friend.png,You,Friend,m,1.2,14,24,94,,,,,1,0,1,0,,,,,6,4,76,3,,,,,,,,,,,,,,,,,,,,,1.691,2.286,786.9852997001726,None,,,,,,,,,,,,,,,,,,,,787.5237432001159,788.0299585000612,0.5107215698808432,1.0109059698879719,788.0133305001073,788.1133070001379,788.0133305001073,788.1133070001379,788.1133070001379,None,m,1,0.7086222998332232,788.1133070001379,None,,,,,m,24,p10,2022_Apr_12_1545,training+cueing,2021.1.4,60.03737929137875,
Friend.png,Friend,Friend,c,2,12,22,92,,,,,1,0,1,0,,,,,6,5,77,10,,,,,,,,,,,,,,,,,,,,,1.713,2.044,788.9538776001427,None,,,,,,,,,,,,,,,,,,,,789.4949640000705,789.9980334001593,0.5062320700380951,1.0065451699774712,789.9813602999784,790.0980694999453,789.9813602999784,790.0980694999453,790.0813768000808,None,c,1,0.6926047001034021,790.0813768000808,None,,,,,m,24,p10,2022_Apr_12_1545,training+cueing,2021.1.4,60.03737929137875,
Stranger.png,Friend,Stranger,m,2.3,17,27,97,,,,,1,0,1,0,,,,,6,6,78,7,,,,,,,,,,,,,,,,,,,,,1.569,1.337,790.9053935001139,None,,,,,,,,,,,,,,,,,,,,791.4438371001743,791.9494565001223,0.510047169867903,1.0103229698725045,791.932797000045,792.0496052000672,791.932797000045,792.0496052000672,792.0327979000285,None,m,1,0.4850567998364568,792.0327979000285,None,,,,,m,24,p10,2022_Apr_12_1545,training+cueing,2021.1.4,60.03737929137875,
Self.png,Stranger,Self ,m,3.1,18,28,98,,,,,1,0,1,0,,,,,6,7,79,2,,,,,,,,,,,,,,,,,,,,,1.442,1.474,792.6563510999549,None,,,,,,,,,,,,,,,,,,,,793.1984264999628,793.7007151001599,0.5027413701172918,1.0031623700633645,793.684042399982,793.8008043000009,793.684042399982,793.8008043000009,793.7840661001392,None,m,1,0.5099461998324841,793.7840661001392,None,,,,,m,24,p10,2022_Apr_12_1545,training+cueing,2021.1.4,60.03737929137875,
Self.png,Friend,Self ,m,2.1,16,26,96,,,,,1,0,1,0,,,,,6,8,80,1,,,,,,,,,,,,,,,,,,,,,1.736,2.178,794.4255264999811,None,,,,,,,,,,,,,,,,,,,,794.9807857000269,795.4853287001606,0.5103313599247485,1.0106528599280864,795.4686666999478,795.5854075001553,795.4686666999478,795.5854075001553,795.5686960001476,None,m,1,1.1412502001039684,795.5686960001476,None,,,,,m,24,p10,2022_Apr_12_1545,training+cueing,2021.1.4,60.03737929137875,
Self.png,You,Self ,c,1,11,21,91,,,,,1,0,1,0,,,,,6,9,81,0,,,,,,,,,,,,,,,,,,,,,1.72,1.942,796.8417034000158,None,,,,,,,,,,,,,,,,,,,,797.3828781000338,797.8870733999647,0.5071302698925138,1.0074128699488938,797.8703996001277,797.9704444000963,797.8703996001277,797.9704444000963,797.9704444000963,None,c,1,0.5635563000105321,797.9704444000963,None,,,,,m,24,p10,2022_Apr_12_1545,training+cueing,2021.1.4,60.03737929137875,
Self.png,You,Self ,c,1,11,21,91,,,,,1,0,1,0,,,,,6,10,82,9,,,,,,,,,,,,,,,,,,,,,1.686,2.168,798.6601948000025,None,,,,,,,,,,,,,,,,,,,,799.1985559000168,799.705059699947,0.5107436699327081,1.011044470127672,799.6883635001723,799.7883983999491,799.6883635001723,799.7883983999491,799.7883983999491,None,c,1,0.6494867000728846,799.7883983999491,None,,,,,m,24,p10,2022_Apr_12_1545,training+cueing,2021.1.4,60.03737929137875,
