Image,Name,Face,CorrAns,Match,Face_onset,CResponse_onset,IResponse_onset,Match.thisRepN,Match.thisTrialN,Match.thisN,Match.thisIndex,Blocks.thisRepN,Blocks.thisTrialN,Blocks.thisN,Blocks.thisIndex,trials.thisRepN,trials.thisTrialN,trials.thisN,trials.thisIndex,trials_2.thisRepN,trials_2.thisTrialN,trials_2.thisN,trials_2.thisIndex,text.started,text.stopped,p1.started,p1.stopped,MatchInstructions.started,MatchInstructions.stopped,Name1.started,Name1.stopped,Face_Relevance.started,Face_Relevance.stopped,MismatchInstructions.started,MismatchInstructions.stopped,Rest_trainingInstruct.started,Rest_trainingInstruct.stopped,next8.keys,next8.rt,next8.started,next8.stopped,Ready.started,Ready.stopped,delay_one_picked,delay_two_picked,blank0.started,blank0.stopped,FixationCross1.started,FixationCross1.stopped,Name3.started,Name3.stopped,Face_Relevance3.started,Face_Relevance3.stopped,responseTime.started,responseTime.stopped,resp.keys,resp.corr,resp.started,resp.stopped,Accuracy.started,Accuracy.stopped,resp.rt,questions.started,questions.stopped,p2.started,p2.stopped,FixationCross3.started,FixationCross3.stopped,port_Face_onset.started,port_Face_onset.stopped,Name4.started,Name4.stopped,Face_Relevance4.started,Face_Relevance4.stopped,responseTime2.started,responseTime2.stopped,Response.keys,Response.corr,Response.rt,Response.started,Response.stopped,p3.started,p3.stopped,Finish.started,Finish.stopped,gender,age,participant,date,expName,psychopyVersion,frameRate,
Self.png,You,,,,,,,0,0,0,0,,,,,,,,,,,,,28.373005799992825,None,0.011553400006960146,0.5402513000008184,36.940178399992874,None,54.366903999994975,None,54.366903999994975,None,,,,,,,,,,,,,,,,,,,,,,,,,,,,,,,,,,,,,,,,,,,,,,,,,,,,,m,49,p11,2022_Mar_16_1422,training+cueing,2021.1.4,59.7573255020275,
Friend.png,Friend,,,,,,,0,1,1,1,,,,,,,,,,,,,,,,,,,74.2692332000006,None,74.2692332000006,None,,,,,,,,,,,,,,,,,,,,,,,,,,,,,,,,,,,,,,,,,,,,,,,,,,,,,m,49,p11,2022_Mar_16_1422,training+cueing,2021.1.4,59.7573255020275,
Stranger.png,Stranger,,,,,,,0,2,2,2,,,,,,,,,,,,,,,,,,,94.2649825999979,None,94.2649825999979,None,,,,,,,,,,,,,,,,,,,,,,,,,,,,,,,,,,,,,,,,,,,,,,,,,,,,,m,49,p11,2022_Mar_16_1422,training+cueing,2021.1.4,59.7573255020275,
Stranger.png,Stranger,Stranger,c,3,13,23,93,,,,,0,0,0,0,0,0,0,11,,,,,,,,,,,,,,,114.21631649999472,None,188.72043049999047,None,space,2.0535758000041824,2.008621899993159,None,192.78880159999244,None,1.706,1.975,195.79974930000026,None,196.4313264999946,196.94317279999086,196.92650509999658,197.0432276999927,196.92650509999658,197.0432276999927,197.02651729999343,None,None,0,197.02651729999343,None,198.74318169998878,None,,,,,,,,,,,,,,,,,,,,,,,,,m,49,p11,2022_Mar_16_1422,training+cueing,2021.1.4,59.7573255020275,
Friend.png,Friend,Friend,c,2,12,22,92,,,,,0,0,0,0,0,1,1,4,,,,,,,,,,,,,,,,,,,,,,,,,1.416,1.701,199.14491329999873,None,199.68157529999735,200.1955209000007,200.17883489999804,200.29557119999663,200.17883489999804,200.29557119999663,200.2788642999949,None,None,0,200.2788642999949,None,201.6966437999945,None,,,,,,,,,,,,,,,,,,,,,,,,,m,49,p11,2022_Mar_16_1422,training+cueing,2021.1.4,59.7573255020275,
Friend.png,Stranger,Friend,m,3.2,19,29,99,,,,,0,0,0,0,0,2,2,5,,,,,,,,,,,,,,,,,,,,,,,,,1.624,2.123,202.0973884999985,None,202.6395126999996,203.14762769998924,203.13099399999192,203.24776810000185,203.13099399999192,203.24776810000185,203.23101920000045,None,c,0,203.23101920000045,None,203.96493349999946,None,0.7120655000035185,,,,,,,,,,,,,,,,,,,,,,,,m,49,p11,2022_Mar_16_1422,training+cueing,2021.1.4,59.7573255020275,
Stranger.png,Friend,Stranger,m,2.3,17,27,97,,,,,0,0,0,0,0,3,3,7,,,,,,,,,,,,,,,,,,,,,,,,,1.632,1.254,204.36542219998955,None,204.90126430000237,205.41594929998973,205.39929299999494,205.51603119999345,205.39929299999494,205.51603119999345,205.49932609999087,None,m,1,205.49932609999087,None,206.16508209999301,None,0.6357712000026368,,,,,,,,,,,,,,,,,,,,,,,,m,49,p11,2022_Mar_16_1422,training+cueing,2021.1.4,59.7573255020275,
Self.png,You,Self ,c,1,11,21,91,,,,,0,0,0,0,0,4,4,0,,,,,,,,,,,,,,,,,,,,,,,,,1.663,1.627,206.56692040000053,None,207.10553919999802,207.6176024000015,207.60108369999216,207.70094949999475,207.60108369999216,207.70094949999475,207.70094949999475,None,m,0,207.70094949999475,None,208.48519019999367,None,0.7541605000005802,,,,,,,,,,,,,,,,,,,,,,,,m,49,p11,2022_Mar_16_1422,training+cueing,2021.1.4,59.7573255020275,
Stranger.png,You,Stranger,m,1.3,15,25,95,,,,,0,0,0,0,0,5,5,6,,,,,,,,,,,,,,,,,,,,,,,,,1.523,1.256,208.8857057999994,None,209.42186550000042,209.93598769999517,209.91928879999614,210.0192909999896,209.91928879999614,210.0192909999896,210.0192909999896,None,m,1,210.0192909999896,None,210.85193340000114,None,0.8038317000027746,,,,,,,,,,,,,,,,,,,,,,,,m,49,p11,2022_Mar_16_1422,training+cueing,2021.1.4,59.7573255020275,
Stranger.png,Stranger,Stranger,c,3,13,23,93,,,,,0,0,0,0,0,6,6,8,,,,,,,,,,,,,,,,,,,,,,,,,1.563,1.263,211.25351889999,None,211.78672740000184,212.28759209999407,212.27090139999927,212.38765229999262,212.27090139999927,212.38765229999262,212.38765229999262,None,c,1,212.38765229999262,None,213.28837059999933,None,0.8834118000086164,,,,,,,,,,,,,,,,,,,,,,,,m,49,p11,2022_Mar_16_1422,training+cueing,2021.1.4,59.7573255020275,
Friend.png,You,Friend,m,1.2,14,24,94,,,,,0,0,0,0,0,7,7,3,,,,,,,,,,,,,,,,,,,,,,,,,1.777,2.055,213.68862439999066,None,214.22045799999614,214.72269479998795,214.70602430000145,214.80609309999272,214.70602430000145,214.80609309999272,214.80609309999272,None,m,1,214.80609309999272,None,215.17303389999142,None,0.33700920001138,,,,,,,,,,,,,,,,,,,,,,,,m,49,p11,2022_Mar_16_1422,training+cueing,2021.1.4,59.7573255020275,
Self.png,You,Self ,c,1,11,21,91,,,,,0,0,0,0,0,8,8,9,,,,,,,,,,,,,,,,,,,,,,,,,1.535,2.231,215.57384389999788,None,216.1101903999952,216.62408259999938,216.60739759998978,216.7076442999969,216.60739759998978,216.7076442999969,216.7076442999969,None,c,1,216.7076442999969,None,216.9409786999895,None,0.2115551000024425,,,,,,,,,,,,,,,,,,,,,,,,m,49,p11,2022_Mar_16_1422,training+cueing,2021.1.4,59.7573255020275,
Friend.png,Friend,Friend,c,2,12,22,92,,,,,0,0,0,0,0,9,9,10,,,,,,,,,,,,,,,,,,,,,,,,,1.67,2.235,217.3412532999937,None,217.87297459998808,218.37534339999547,218.35867669999425,218.47539429999597,218.35867669999425,218.47539429999597,218.4587094999879,None,m,0,218.4587094999879,None,218.89303500000096,None,0.41241449999506585,,,,,,,,,,,,,,,,,,,,,,,,m,49,p11,2022_Mar_16_1422,training+cueing,2021.1.4,59.7573255020275,
Self.png,Friend,Self ,m,2.1,16,26,96,,,,,0,0,0,0,0,10,10,1,,,,,,,,,,,,,,,,,,,,,,,,,1.47,1.371,219.29267479998816,None,219.82858750000014,220.3434311000019,220.3267487999983,220.44350359999225,220.3267487999983,220.44350359999225,220.42680869999458,None,m,1,220.42680869999458,None,220.8105460999941,None,0.3482501999969827,,,,,,,,,,,,,,,,,,,,,,,,m,49,p11,2022_Mar_16_1422,training+cueing,2021.1.4,59.7573255020275,
Self.png,Stranger,Self ,m,3.1,18,28,98,,,,,0,0,0,0,0,11,11,2,,,,,,,,,,,,,,,,,,,,,,,,,1.737,2.425,221.21072619999177,None,221.74120299999777,222.24481839999498,222.22813639999367,222.34487609998905,222.22813639999367,222.34487609998905,222.32817789999535,None,c,0,222.32817789999535,None,223.36702959999093,None,1.0070336000062525,,,,,,,,,,,,,,,,,,,,,,,,m,49,p11,2022_Mar_16_1422,training+cueing,2021.1.4,59.7573255020275,
Self.png,You,Self ,c,1,11,21,91,,,,,0,0,0,0,,,,,0,0,0,9,,,,,,,,,,,,,,,,,,,262.4907664999919,None,1.501,2.298,266.0070912999945,None,,,,,,,,,,,,,,,,223.77926739999384,None,0.014083699992625043,None,266.6172632999951,267.12730819999706,0.5002606000052765,1.0008174999966286,267.0939541999978,267.19402339999215,267.0939541999978,267.19402339999215,267.19402339999215,None,m,0,0.6691543000051752,267.19402339999215,None,,,,,m,49,p11,2022_Mar_16_1422,training+cueing,2021.1.4,59.7573255020275,
Self.png,Stranger,Self ,m,3.1,18,28,98,,,,,0,0,0,0,,,,,0,1,1,2,,,,,,,,,,,,,,,,,,,,,1.6,2.458,268.00222080000094,None,,,,,,,,,,,,,,,,,,,,268.5455781999917,269.04537049999635,0.49982749999617226,1.0001092000020435,269.02870979999716,269.14542499999516,269.02870979999716,269.14542499999516,269.14542499999516,None,m,1,1.1977805999922566,269.14542499999516,None,,,,,m,49,p11,2022_Mar_16_1422,training+cueing,2021.1.4,59.7573255020275,
Friend.png,Stranger,Friend,m,3.2,19,29,99,,,,,0,0,0,0,,,,,0,2,2,5,,,,,,,,,,,,,,,,,,,,,1.647,1.805,270.4693610999966,None,,,,,,,,,,,,,,,,,,,,271.0076241999923,271.513824499998,0.511503999994602,1.0116324999980861,271.49728339999274,271.61388059999445,271.49728339999274,271.61388059999445,271.59742299999925,None,m,1,1.465765699991607,271.59742299999925,None,,,,,m,49,p11,2022_Mar_16_1422,training+cueing,2021.1.4,59.7573255020275,
Self.png,Friend,Self ,m,2.1,16,26,96,,,,,0,0,0,0,,,,,0,3,3,1,,,,,,,,,,,,,,,,,,,,,1.603,2.196,273.1872211000009,None,,,,,,,,,,,,,,,,,,,,273.72952539999096,274.2324598999985,0.5045425999996951,1.0048142000014195,274.21579219998966,274.33251680000103,274.21579219998966,274.33251680000103,274.3157854000019,None,c,0,1.3235803999996278,274.3157854000019,None,,,,,m,49,p11,2022_Mar_16_1422,training+cueing,2021.1.4,59.7573255020275,
Friend.png,Friend,Friend,c,2,12,22,92,,,,,0,0,0,0,,,,,0,4,4,10,,,,,,,,,,,,,,,,,,,,,1.721,2.184,275.77309180000157,None,,,,,,,,,,,,,,,,,,,,276.3110364000022,276.81784209999023,0.5117339999997057,1.011880599995493,276.8011155999993,276.917712800001,276.8011155999993,276.917712800001,276.901065699989,None,c,1,1.3301212999940617,276.901065699989,None,,,,,m,49,p11,2022_Mar_16_1422,training+cueing,2021.1.4,59.7573255020275,
Stranger.png,Stranger,Stranger,c,3,13,23,93,,,,,0,0,0,0,,,,,0,5,5,8,,,,,,,,,,,,,,,,,,,,,1.665,2.012,278.36020859998825,None,,,,,,,,,,,,,,,,,,,,278.90176860000065,279.4028447999881,0.5020435999904294,1.0023912999895401,279.3861867999949,279.50293930000043,279.3861867999949,279.50293930000043,279.4863583999977,None,m,0,1.5608206000033533,279.4863583999977,None,,,,,m,49,p11,2022_Mar_16_1422,training+cueing,2021.1.4,59.7573255020275,
Stranger.png,Stranger,Stranger,c,3,13,23,93,,,,,0,0,0,0,,,,,0,6,6,11,,,,,,,,,,,,,,,,,,,,,1.549,2.355,281.17676049999136,None,,,,,,,,,,,,,,,,,,,,281.7148843999894,282.2215748999879,0.5110795000073267,1.0113673000014387,282.2049008999893,282.3216507999896,282.2049008999893,282.3216507999896,282.30493600000045,None,c,1,1.2222614999918733,282.30493600000045,None,,,,,m,49,p11,2022_Mar_16_1422,training+cueing,2021.1.4,59.7573255020275,
Stranger.png,You,Stranger,m,1.3,15,25,95,,,,,0,0,0,0,,,,,0,7,7,6,,,,,,,,,,,,,,,,,,,,,1.777,1.612,283.6621008999937,None,,,,,,,,,,,,,,,,,,,,284.20257239999773,284.7066918999917,0.5069329000107246,1.0072286000067834,284.6900123999949,284.7900754000002,284.6900123999949,284.7900754000002,284.7900754000002,None,m,1,0.7531670999887865,284.7900754000002,None,,,,,m,49,p11,2022_Mar_16_1422,training+cueing,2021.1.4,59.7573255020275,
Self.png,You,Self ,c,1,11,21,91,,,,,0,0,0,0,,,,,0,8,8,0,,,,,,,,,,,,,,,,,,,,,1.568,2.127,285.68074749999505,None,,,,,,,,,,,,,,,,,,,,286.2178436999966,286.72483939999074,0.5110824000148568,1.011343800011673,286.7081679999974,286.8082368999894,286.7081679999974,286.8082368999894,286.8082368999894,None,c,1,0.7029711000068346,286.8082368999894,None,,,,,m,49,p11,2022_Mar_16_1422,training+cueing,2021.1.4,59.7573255020275,
Stranger.png,Friend,Stranger,m,2.3,17,27,97,,,,,0,0,0,0,,,,,0,9,9,7,,,,,,,,,,,,,,,,,,,,,1.576,1.488,287.6488728999975,None,,,,,,,,,,,,,,,,,,,,288.18900199999916,288.6929306999955,0.5066186999902129,1.0069186000037007,288.6762553000008,288.7929757999955,288.6762553000008,288.7929757999955,288.77627779998875,None,m,1,0.8629558999964502,288.77627779998875,None,,,,,m,49,p11,2022_Mar_16_1422,training+cueing,2021.1.4,59.7573255020275,
Friend.png,You,Friend,m,1.2,14,24,94,,,,,0,0,0,0,,,,,0,10,10,3,,,,,,,,,,,,,,,,,,,,,1.681,1.311,289.7661255999992,None,,,,,,,,,,,,,,,,,,,,290.30626389999816,290.81114510000043,0.5104187000106322,1.0106865000125254,290.79445970000234,290.89450539999234,290.79445970000234,290.89450539999234,290.89450539999234,None,m,1,1.6086963000125252,290.89450539999234,None,,,,,m,49,p11,2022_Mar_16_1422,training+cueing,2021.1.4,59.7573255020275,
Friend.png,Friend,Friend,c,2,12,22,92,,,,,0,0,0,0,,,,,0,11,11,4,,,,,,,,,,,,,,,,,,,,,1.795,2.467,292.6353672999976,None,,,,,,,,,,,,,,,,,,,,293.1747503999941,293.6798729000002,0.5074584000103641,1.0077544000087073,293.66320789999736,293.77991149999434,293.66320789999736,293.77991149999434,293.76322490000166,None,c,1,1.0119810000032885,293.76322490000166,None,,,,,m,49,p11,2022_Mar_16_1422,training+cueing,2021.1.4,59.7573255020275,
Stranger.png,Stranger,Stranger,c,3,13,23,93,,,,,0,0,0,0,,,,,1,0,12,8,,,,,,,,,,,,,,,,,,,,,1.775,1.594,294.9031207999942,None,,,,,,,,,,,,,,,,,,,,295.4451482000004,295.9481927000015,0.5059921000065515,1.0062574000039604,295.9315215999959,296.04825539999,295.9315215999959,296.04825539999,296.0315569999948,None,c,1,1.447915800003102,296.0315569999948,None,,,,,m,49,p11,2022_Mar_16_1422,training+cueing,2021.1.4,59.7573255020275,
Friend.png,Friend,Friend,c,2,12,22,92,,,,,0,0,0,0,,,,,1,1,13,10,,,,,,,,,,,,,,,,,,,,,1.587,2.087,297.60654129998875,None,,,,,,,,,,,,,,,,,,,,298.1453535999899,298.65014019999944,0.5092511999973794,1.0095476999995299,298.6334601999988,298.7501939999929,298.6334601999988,298.7501939999929,298.7335127999977,None,None,0,,298.7335127999977,None,,,,,m,49,p11,2022_Mar_16_1422,training+cueing,2021.1.4,59.7573255020275,
Self.png,You,Self ,c,1,11,21,91,,,,,0,0,0,0,,,,,1,2,14,0,,,,,,,,,,,,,,,,,,,,,1.68,1.517,300.43838789999427,None,,,,,,,,,,,,,,,,,,,,300.9795211000019,301.48555099999066,0.5090854000009131,1.0093877000035718,301.46884819999104,301.5689061000012,301.46884819999104,301.5689061000012,301.5689061000012,None,c,1,1.0463432000105968,301.5689061000012,None,,,,,m,49,p11,2022_Mar_16_1422,training+cueing,2021.1.4,59.7573255020275,
Self.png,Stranger,Self ,m,3.1,18,28,98,,,,,0,0,0,0,,,,,1,3,15,2,,,,,,,,,,,,,,,,,,,,,1.426,1.573,302.7421079999913,None,,,,,,,,,,,,,,,,,,,,303.2845099999977,303.78720219999377,0.5061795000074198,1.0064644000085536,303.77052219999314,303.887258799994,303.77052219999314,303.887258799994,303.87056119999033,None,m,1,1.3046565000113333,303.87056119999033,None,,,,,m,49,p11,2022_Mar_16_1422,training+cueing,2021.1.4,59.7573255020275,
Friend.png,Stranger,Friend,m,3.2,19,29,99,,,,,0,0,0,0,,,,,1,4,16,5,,,,,,,,,,,,,,,,,,,,,1.462,1.833,305.3114318000007,None,,,,,,,,,,,,,,,,,,,,305.8662301000004,306.37275299998873,0.5108368000219343,1.0113217000180157,306.3558449999982,306.4725577999925,306.3558449999982,306.4725577999925,306.4558806999994,None,None,0,,306.4558806999994,None,,,,,m,49,p11,2022_Mar_16_1422,training+cueing,2021.1.4,59.7573255020275,
Stranger.png,Friend,Stranger,m,2.3,17,27,97,,,,,0,0,0,0,,,,,1,5,17,7,,,,,,,,,,,,,,,,,,,,,1.605,1.391,308.027634699989,None,,,,,,,,,,,,,,,,,,,,308.58455729999696,309.0910162999935,0.5134478999971179,1.0137344999966444,309.07436099999177,309.19109339998977,309.07436099999177,309.19109339998977,309.17438440000114,None,m,1,1.408905499993125,309.17438440000114,None,,,,,m,49,p11,2022_Mar_16_1422,training+cueing,2021.1.4,59.7573255020275,
Self.png,Friend,Self ,m,2.1,16,26,96,,,,,0,0,0,0,,,,,1,6,18,1,,,,,,,,,,,,,,,,,,,,,1.432,1.618,310.7155605000007,None,,,,,,,,,,,,,,,,,,,,311.2534719999967,311.7596496999904,0.5118215999973472,1.012159599995357,311.7429207999958,311.8598697999987,311.7429207999958,311.8598697999987,311.8429960999929,None,None,0,,311.8429960999929,None,,,,,m,49,p11,2022_Mar_16_1422,training+cueing,2021.1.4,59.7573255020275,
Friend.png,You,Friend,m,1.2,14,24,94,,,,,0,0,0,0,,,,,1,7,19,3,,,,,,,,,,,,,,,,,,,,,1.453,1.762,313.3819755000004,None,,,,,,,,,,,,,,,,,,,,313.93619699998817,314.44491919998836,0.5156047000054969,1.0158700000029057,314.428276199993,314.5282819999993,314.428276199993,314.5282819999993,314.5282819999993,None,m,1,1.0629134999908274,314.5282819999993,None,,,,,m,49,p11,2022_Mar_16_1422,training+cueing,2021.1.4,59.7573255020275,
Stranger.png,Stranger,Stranger,c,3,13,23,93,,,,,0,0,0,0,,,,,1,8,20,11,,,,,,,,,,,,,,,,,,,,,1.544,1.458,315.71921080000175,None,,,,,,,,,,,,,,,,,,,,316.25938920000044,316.7632697999943,0.5076957000128459,1.008205900012399,316.7465630999941,316.86414559998957,316.7465630999941,316.86414559998957,316.8471808999893,None,c,1,1.4480400000029476,316.8471808999893,None,,,,,m,49,p11,2022_Mar_16_1422,training+cueing,2021.1.4,59.7573255020275,
Stranger.png,You,Stranger,m,1.3,15,25,95,,,,,0,0,0,0,,,,,1,9,21,6,,,,,,,,,,,,,,,,,,,,,1.624,1.537,318.4201566999982,None,,,,,,,,,,,,,,,,,,,,318.97758389999217,319.48202270000183,0.5084534000052372,1.008771799999522,319.4653130999941,319.5653835999983,319.4653130999941,319.5653835999983,319.5653835999983,None,m,1,1.529926200004411,319.5653835999983,None,,,,,m,49,p11,2022_Mar_16_1422,training+cueing,2021.1.4,59.7573255020275,
Self.png,You,Self ,c,1,11,21,91,,,,,0,0,0,0,,,,,1,10,22,9,,,,,,,,,,,,,,,,,,,,,1.644,2.182,321.2231810999947,None,,,,,,,,,,,,,,,,,,,,321.7624085999996,322.26724859999376,0.5079451999918092,1.0082467999891378,322.250549999997,322.35067600000184,322.250549999997,322.35067600000184,322.35067600000184,None,c,1,0.8729408999934094,322.35067600000184,None,,,,,m,49,p11,2022_Mar_16_1422,training+cueing,2021.1.4,59.7573255020275,
Friend.png,Friend,Friend,c,2,12,22,92,,,,,0,0,0,0,,,,,1,11,23,4,,,,,,,,,,,,,,,,,,,,,1.473,1.243,323.3575506999914,None,,,,,,,,,,,,,,,,,,,,323.8987200999982,324.40215290000197,0.5067371000041021,1.0070082000020193,324.3854769999889,324.5021953999967,324.3854769999889,324.5021953999967,324.48547249998956,None,m,0,1.3937442999886116,324.48547249998956,None,,,,,m,49,p11,2022_Mar_16_1422,training+cueing,2021.1.4,59.7573255020275,
Stranger.png,Stranger,Stranger,c,3,13,23,93,,,,,0,0,0,0,,,,,2,0,24,11,,,,,,,,,,,,,,,,,,,,,1.793,2.122,326.00948969999445,None,,,,,,,,,,,,,,,,,,,,326.54997249999724,327.0540600999957,0.5057524000148987,1.0060393000167096,327.03738290000183,327.15410859999247,327.03738290000183,327.15410859999247,327.1374327999947,None,None,0,,327.1374327999947,None,,,,,m,49,p11,2022_Mar_16_1422,training+cueing,2021.1.4,59.7573255020275,
Self.png,Friend,Self ,m,2.1,16,26,96,,,,,0,0,0,0,,,,,2,1,25,1,,,,,,,,,,,,,,,,,,,,,1.578,1.905,329.0423371999932,None,,,,,,,,,,,,,,,,,,,,329.5854462999996,330.0895928999962,0.5067742000101134,1.0070546000060858,330.07290859999193,330.1896407999884,330.07290859999193,330.1896407999884,330.17293770000106,None,m,1,1.2744008000008762,330.17293770000106,None,,,,,m,49,p11,2022_Mar_16_1422,training+cueing,2021.1.4,59.7573255020275,
Self.png,You,Self ,c,1,11,21,91,,,,,0,0,0,0,,,,,2,2,26,0,,,,,,,,,,,,,,,,,,,,,1.617,1.37,331.5805313999881,None,,,,,,,,,,,,,,,,,,,,332.12081809999654,332.62478349999583,0.5066596999968169,1.0069422999949893,332.6080944999994,332.7081419000024,332.6080944999994,332.7081419000024,332.7081419000024,None,c,1,1.0751597000053152,332.7081419000024,None,,,,,m,49,p11,2022_Mar_16_1422,training+cueing,2021.1.4,59.7573255020275,
Stranger.png,You,Stranger,m,1.3,15,25,95,,,,,0,0,0,0,,,,,2,3,27,6,,,,,,,,,,,,,,,,,,,,,1.672,1.963,333.9156393000012,None,,,,,,,,,,,,,,,,,,,,334.4531898999994,334.95978429999377,0.5115556000091601,1.0118794000154594,334.9430988999957,335.0431594999973,334.9430988999957,335.0431594999973,335.0431594999973,None,m,1,0.8201428000029409,335.0431594999973,None,,,,,m,49,p11,2022_Mar_16_1422,training+cueing,2021.1.4,59.7573255020275,
Stranger.png,Friend,Stranger,m,2.3,17,27,97,,,,,0,0,0,0,,,,,2,4,28,7,,,,,,,,,,,,,,,,,,,,,1.536,2.122,336.0001263000013,None,,,,,,,,,,,,,,,,,,,,336.54097309999634,337.04465109999,0.5068072000285611,1.0070970000233501,337.02795589999005,337.1446489999944,337.02795589999005,337.1446489999944,337.1279876999906,None,None,0,,337.1279876999906,None,,,,,m,49,p11,2022_Mar_16_1422,training+cueing,2021.1.4,59.7573255020275,
Stranger.png,Stranger,Stranger,c,3,13,23,93,,,,,0,0,0,0,,,,,2,5,29,8,,,,,,,,,,,,,,,,,,,,,1.779,2.214,338.7833011999901,None,,,,,,,,,,,,,,,,,,,,339.3267374999996,339.8299482000002,0.5053060000063851,1.0055003000015859,339.81335159999435,339.930039400002,339.81335159999435,339.930039400002,339.91329250000126,None,None,0,,339.91329250000126,None,,,,,m,49,p11,2022_Mar_16_1422,training+cueing,2021.1.4,59.7573255020275,
Friend.png,You,Friend,m,1.2,14,24,94,,,,,0,0,0,0,,,,,2,6,30,3,,,,,,,,,,,,,,,,,,,,,1.781,2.132,341.80276479999884,None,,,,,,,,,,,,,,,,,,,,342.3438266000012,342.84883909999917,0.5086732999916421,1.0088515999959782,342.83221680000133,342.9322078999976,342.83221680000133,342.9322078999976,342.9322078999976,None,m,1,1.0911350999958813,342.9322078999976,None,,,,,m,49,p11,2022_Mar_16_1422,training+cueing,2021.1.4,59.7573255020275,
Friend.png,Friend,Friend,c,2,12,22,92,,,,,0,0,0,0,,,,,2,7,31,4,,,,,,,,,,,,,,,,,,,,,1.658,2.182,344.1557954000018,None,,,,,,,,,,,,,,,,,,,,344.6971741000016,345.20051409999724,0.5067429000046104,1.0070303000102285,345.18386189999,345.3005864000006,345.18386189999,345.3005864000006,345.28385329998855,None,c,1,1.4594932999898447,345.28385329998855,None,,,,,m,49,p11,2022_Mar_16_1422,training+cueing,2021.1.4,59.7573255020275,
Friend.png,Friend,Friend,c,2,12,22,92,,,,,0,0,0,0,,,,,2,8,32,10,,,,,,,,,,,,,,,,,,,,,1.547,2.01,346.8755403999967,None,,,,,,,,,,,,,,,,,,,,347.41404799999145,347.91917699998885,0.5070360999961849,1.0073510000074748,347.9024644000019,348.0192352000013,347.9024644000019,348.0192352000013,348.00250529999903,None,c,1,0.8847051999910036,348.00250529999903,None,,,,,m,49,p11,2022_Mar_16_1422,training+cueing,2021.1.4,59.7573255020275,
Self.png,Stranger,Self ,m,3.1,18,28,98,,,,,0,0,0,0,,,,,2,9,33,2,,,,,,,,,,,,,,,,,,,,,1.649,1.725,349.0100558999984,None,,,,,,,,,,,,,,,,,,,,349.5510867999983,350.05404909999925,0.5058640000061132,1.0061792000051355,350.0373532999947,350.1541068999941,350.0373532999947,350.1541068999941,350.13740049999615,None,c,0,1.262013500003377,350.13740049999615,None,,,,,m,49,p11,2022_Mar_16_1422,training+cueing,2021.1.4,59.7573255020275,
Friend.png,Stranger,Friend,m,3.2,19,29,99,,,,,0,0,0,0,,,,,2,10,34,5,,,,,,,,,,,,,,,,,,,,,1.661,1.204,351.52873209999234,None,,,,,,,,,,,,,,,,,,,,352.0683357999951,352.5725423999975,0.5086096000159159,1.0089012000098592,352.555884699992,352.6725868999929,352.555884699992,352.6725868999929,352.65590529999463,None,None,0,,352.65590529999463,None,,,,,m,49,p11,2022_Mar_16_1422,training+cueing,2021.1.4,59.7573255020275,
Self.png,You,Self ,c,1,11,21,91,,,,,0,0,0,0,,,,,2,11,35,9,,,,,,,,,,,,,,,,,,,,,1.517,2.337,354.4276499999978,None,,,,,,,,,,,,,,,,,,,,354.9700914999994,355.4746285000001,0.5075281000172254,1.0078292000107467,355.4579692999978,355.55802810000023,355.4579692999978,355.55802810000023,355.55802810000023,None,c,1,0.7853440000035334,355.55802810000023,None,,,,,m,49,p11,2022_Mar_16_1422,training+cueing,2021.1.4,59.7573255020275,
Stranger.png,You,Stranger,m,1.3,15,25,95,,,,,0,0,0,0,,,,,3,0,36,6,,,,,,,,,,,,,,,,,,,,,1.674,1.461,356.4817471999995,None,,,,,,,,,,,,,,,,,,,,357.0202145999938,357.526143199997,0.5115580999990925,1.011843800006318,357.5094618000003,357.60952610000095,357.5094618000003,357.60952610000095,357.60952610000095,None,m,1,0.8137431000068318,357.60952610000095,None,,,,,m,49,p11,2022_Mar_16_1422,training+cueing,2021.1.4,59.7573255020275,
Self.png,You,Self ,c,1,11,21,91,,,,,0,0,0,0,,,,,3,1,37,9,,,,,,,,,,,,,,,,,,,,,1.403,2.181,358.54898789999424,None,,,,,,,,,,,,,,,,,,,,359.08882549998816,359.5943899999984,0.5116792000189889,1.0119828000169946,359.5776162999973,359.67765299999155,359.5776162999973,359.67765299999155,359.67765299999155,None,c,1,0.8895898000046145,359.67765299999155,None,,,,,m,49,p11,2022_Mar_16_1422,training+cueing,2021.1.4,59.7573255020275,
Stranger.png,Stranger,Stranger,c,3,13,23,93,,,,,0,0,0,0,,,,,3,2,38,8,,,,,,,,,,,,,,,,,,,,,1.796,2.102,360.7014968000003,None,,,,,,,,,,,,,,,,,,,,361.2422355999879,361.7458620999969,0.5051057000091532,1.0053790000092704,361.7291824999993,361.8459135000012,361.7291824999993,361.8459135000012,361.82922859999235,None,c,1,1.6021273999940604,361.82922859999235,None,,,,,m,49,p11,2022_Mar_16_1422,training+cueing,2021.1.4,59.7573255020275,
Friend.png,Friend,Friend,c,2,12,22,92,,,,,0,0,0,0,,,,,3,3,39,4,,,,,,,,,,,,,,,,,,,,,1.633,2.331,363.5529131999938,None,,,,,,,,,,,,,,,,,,,,364.0939323999919,364.5979338999896,0.5067607000091812,1.0072374000010313,364.5812401000003,364.69852429999446,364.5812401000003,364.69852429999446,364.6817650000012,None,c,1,1.0695215000014286,364.6817650000012,None,,,,,m,49,p11,2022_Mar_16_1422,training+cueing,2021.1.4,59.7573255020275,
Self.png,Stranger,Self ,m,3.1,18,28,98,,,,,0,0,0,0,,,,,3,4,40,2,,,,,,,,,,,,,,,,,,,,,1.593,2.237,365.8882692999905,None,,,,,,,,,,,,,,,,,,,,366.4287933000014,366.932968299996,0.5047455000021728,1.0050190000038128,366.9163011999917,367.0329836000019,366.9163011999917,367.0329836000019,367.0163249999896,None,m,1,1.1829763999994611,367.0163249999896,None,,,,,m,49,p11,2022_Mar_16_1422,training+cueing,2021.1.4,59.7573255020275,
Friend.png,Stranger,Friend,m,3.2,19,29,99,,,,,0,0,0,0,,,,,3,5,41,5,,,,,,,,,,,,,,,,,,,,,1.74,1.944,368.32384009999805,None,,,,,,,,,,,,,,,,,,,,368.86093999999866,369.3680403999897,0.51301070000045,1.0138899000012316,369.3513721999916,369.4686614999955,369.3513721999916,369.4686614999955,369.4519164999947,None,m,1,1.3233710000058636,369.4519164999947,None,,,,,m,49,p11,2022_Mar_16_1422,training+cueing,2021.1.4,59.7573255020275,
Stranger.png,Friend,Stranger,m,2.3,17,27,97,,,,,0,0,0,0,,,,,3,6,42,7,,,,,,,,,,,,,,,,,,,,,1.702,1.907,370.9098690999963,None,,,,,,,,,,,,,,,,,,,,371.4501459999883,371.9534402999998,0.5050540999945952,1.0053394999995362,371.93658499998855,372.0533034999971,371.93658499998855,372.0533034999971,372.03661499999,None,m,1,1.1706871000060346,372.03661499999,None,,,,,m,49,p11,2022_Mar_16_1422,training+cueing,2021.1.4,59.7573255020275,
Friend.png,You,Friend,m,1.2,14,24,94,,,,,0,0,0,0,,,,,3,7,43,3,,,,,,,,,,,,,,,,,,,,,1.766,1.323,373.34390169999097,None,,,,,,,,,,,,,,,,,,,,373.8816989999905,374.38836620000075,0.5099212000059197,1.0102081000077305,374.37163779999537,374.4717266999942,374.37163779999537,374.4717266999942,374.4717266999942,None,m,1,1.215584100005799,374.4717266999942,None,,,,,m,49,p11,2022_Mar_16_1422,training+cueing,2021.1.4,59.7573255020275,
Self.png,Friend,Self ,m,2.1,16,26,96,,,,,0,0,0,0,,,,,3,8,44,1,,,,,,,,,,,,,,,,,,,,,1.624,1.347,375.81185939999705,None,,,,,,,,,,,,,,,,,,,,376.35301320000144,376.85683069999504,0.5077640999952564,1.0081330999964848,376.8401450999954,376.95700099998794,376.8401450999954,376.95700099998794,376.9401555999939,None,m,1,1.131303400004981,376.9401555999939,None,,,,,m,49,p11,2022_Mar_16_1422,training+cueing,2021.1.4,59.7573255020275,
Stranger.png,Stranger,Stranger,c,3,13,23,93,,,,,0,0,0,0,,,,,3,9,45,11,,,,,,,,,,,,,,,,,,,,,1.614,1.807,378.1976164999942,None,,,,,,,,,,,,,,,,,,,,378.73772609999287,379.24188609998964,0.5068429999955697,1.0071437000005972,379.22519399999874,379.3419251000014,379.22519399999874,379.3419251000014,379.32522179999796,None,c,1,1.3061174000031315,379.32522179999796,None,,,,,m,49,p11,2022_Mar_16_1422,training+cueing,2021.1.4,59.7573255020275,
Self.png,You,Self ,c,1,11,21,91,,,,,0,0,0,0,,,,,3,10,46,0,,,,,,,,,,,,,,,,,,,,,1.609,1.455,380.76612519999617,None,,,,,,,,,,,,,,,,,,,,381.3049153999891,381.81046739999147,0.508402000006754,1.0089094000140904,381.79375179999624,381.8937692999898,381.79375179999624,381.8937692999898,381.8937692999898,None,c,1,0.8178291999938665,381.8937692999898,None,,,,,m,49,p11,2022_Mar_16_1422,training+cueing,2021.1.4,59.7573255020275,
Friend.png,Friend,Friend,c,2,12,22,92,,,,,0,0,0,0,,,,,3,11,47,10,,,,,,,,,,,,,,,,,,,,,1.689,2.017,382.8350706999918,None,,,,,,,,,,,,,,,,,,,,383.37691549999,383.8785547000007,0.5043528999958653,1.0046462000027532,383.86188649998803,383.9786187999998,383.86188649998803,383.9786187999998,383.96189789999335,None,c,1,0.9894149000028847,383.96189789999335,None,,,,,m,49,p11,2022_Mar_16_1422,training+cueing,2021.1.4,59.7573255020275,
Stranger.png,Stranger,Stranger,c,3,13,23,93,,,,,0,0,0,0,,,,,4,0,48,8,,,,,,,,,,,,,,,,,,,,,1.69,2.339,385.0855778999976,None,,,,,,,,,,,,,,,,,,,,385.62657619999663,386.13019879999047,0.5037501000042539,1.004049399998621,386.11353119999694,386.2302350999962,386.11353119999694,386.2302350999962,386.2135547999933,None,c,1,1.0898205999983475,386.2135547999933,None,,,,,m,49,p11,2022_Mar_16_1422,training+cueing,2021.1.4,59.7573255020275,
Stranger.png,Stranger,Stranger,c,3,13,23,93,,,,,0,0,0,0,,,,,4,1,49,11,,,,,,,,,,,,,,,,,,,,,1.672,1.923,387.4374484,None,,,,,,,,,,,,,,,,,,,,387.97481419998803,388.4818838999927,0.5133392999996431,1.0136517000064487,388.46522159999586,388.5819685000024,388.46522159999586,388.5819685000024,388.5652898999979,None,c,1,0.9940482999954838,388.5652898999979,None,,,,,m,49,p11,2022_Mar_16_1422,training+cueing,2021.1.4,59.7573255020275,
Friend.png,Friend,Friend,c,2,12,22,92,,,,,0,0,0,0,,,,,4,2,50,4,,,,,,,,,,,,,,,,,,,,,1.401,1.657,389.6896124999912,None,,,,,,,,,,,,,,,,,,,,390.22984509999515,390.7335560999927,0.5080350000062026,1.008322900015628,390.71687109999766,390.8335817999905,390.71687109999766,390.8335817999905,390.816868599999,None,c,1,1.2384237000078429,390.816868599999,None,,,,,m,49,p11,2022_Mar_16_1422,training+cueing,2021.1.4,59.7573255020275,
Friend.png,You,Friend,m,1.2,14,24,94,,,,,0,0,0,0,,,,,4,3,51,3,,,,,,,,,,,,,,,,,,,,,1.585,1.667,392.19064909999724,None,,,,,,,,,,,,,,,,,,,,392.7294780999946,393.2353804000013,0.5083688000013353,1.0086401000007754,393.218658999991,393.31872369999473,393.218658999991,393.31872369999473,393.31872369999473,None,None,0,,393.31872369999473,None,,,,,m,49,p11,2022_Mar_16_1422,training+cueing,2021.1.4,59.7573255020275,
Self.png,Stranger,Self ,m,3.1,18,28,98,,,,,0,0,0,0,,,,,4,4,52,2,,,,,,,,,,,,,,,,,,,,,1.745,1.604,395.00738080000156,None,,,,,,,,,,,,,,,,,,,,395.5550663999893,396.07074759999523,0.514728100009961,1.0150149000110105,396.0540633999917,396.1707796999981,396.0540633999917,396.1707796999981,396.1540871999896,None,m,1,1.4052597999980208,396.1540871999896,None,,,,,m,49,p11,2022_Mar_16_1422,training+cueing,2021.1.4,59.7573255020275,
Self.png,You,Self ,c,1,11,21,91,,,,,0,0,0,0,,,,,4,5,53,0,,,,,,,,,,,,,,,,,,,,,1.402,1.793,397.69537709999713,None,,,,,,,,,,,,,,,,,,,,398.2351720000006,398.73932769999374,0.5082881000125781,1.008590200013714,398.7226404999965,398.82270459999563,398.7226404999965,398.82270459999563,398.82270459999563,None,c,1,0.9287163999979384,398.82270459999563,None,,,,,m,49,p11,2022_Mar_16_1422,training+cueing,2021.1.4,59.7573255020275,
Self.png,Friend,Self ,m,2.1,16,26,96,,,,,0,0,0,0,,,,,4,6,54,1,,,,,,,,,,,,,,,,,,,,,1.678,1.732,399.8794327999931,None,,,,,,,,,,,,,,,,,,,,400.41923210000095,400.9242385999969,0.508275300016976,1.0085625000065193,400.9075742999994,401.02432079998835,400.9075742999994,401.02432079998835,401.0076387000008,None,m,1,0.9517470999999205,401.0076387000008,None,,,,,m,49,p11,2022_Mar_16_1422,training+cueing,2021.1.4,59.7573255020275,
Self.png,You,Self ,c,1,11,21,91,,,,,0,0,0,0,,,,,4,7,55,9,,,,,,,,,,,,,,,,,,,,,1.684,2.109,402.0815144999942,None,,,,,,,,,,,,,,,,,,,,402.6288286999916,403.14255389999016,0.5098194000165677,1.010188600004767,403.1258630999946,403.22587860000203,403.1258630999946,403.22587860000203,403.22587860000203,None,c,1,0.9094697999971686,403.22587860000203,None,,,,,m,49,p11,2022_Mar_16_1422,training+cueing,2021.1.4,59.7573255020275,
Stranger.png,Friend,Stranger,m,2.3,17,27,97,,,,,0,0,0,0,,,,,4,8,56,7,,,,,,,,,,,,,,,,,,,,,1.55,2.435,404.26612839999143,None,,,,,,,,,,,,,,,,,,,,404.83714679999684,405.3441193999897,0.5108298999984981,1.0112559999979567,405.3274326999963,405.4441610999929,405.3274326999963,405.4441610999929,405.4274558999896,None,None,0,,405.4274558999896,None,,,,,m,49,p11,2022_Mar_16_1422,training+cueing,2021.1.4,59.7573255020275,
Stranger.png,You,Stranger,m,1.3,15,25,95,,,,,0,0,0,0,,,,,4,9,57,6,,,,,,,,,,,,,,,,,,,,,1.505,2.072,407.08306540000194,None,,,,,,,,,,,,,,,,,,,,407.6254601999972,408.12946169999486,0.5075405999959912,1.0078884999966249,408.11278969999694,408.2128292999987,408.11278969999694,408.2128292999987,408.2128292999987,None,m,1,1.170510900003137,408.2128292999987,None,,,,,m,49,p11,2022_Mar_16_1422,training+cueing,2021.1.4,59.7573255020275,
Friend.png,Friend,Friend,c,2,12,22,92,,,,,0,0,0,0,,,,,4,10,58,10,,,,,,,,,,,,,,,,,,,,,1.669,1.949,409.5199731999892,None,,,,,,,,,,,,,,,,,,,,410.0608848999982,410.56458159998874,0.5075521000107983,1.0078419000055874,410.54789339999843,410.66463159999694,410.54789339999843,410.66463159999694,410.6479137999995,None,c,1,1.151431499994942,410.6479137999995,None,,,,,m,49,p11,2022_Mar_16_1422,training+cueing,2021.1.4,59.7573255020275,
Friend.png,Stranger,Friend,m,3.2,19,29,99,,,,,0,0,0,0,,,,,4,11,59,5,,,,,,,,,,,,,,,,,,,,,1.646,1.508,411.92181569999957,None,,,,,,,,,,,,,,,,,,,,412.4612835000007,412.9663068999944,0.5070326999993995,1.007346400001552,412.94961049999984,413.06636949999665,412.94961049999984,413.06636949999665,413.0496661999932,None,m,1,0.8136305000080029,413.0496661999932,None,,,,,m,49,p11,2022_Mar_16_1422,training+cueing,2021.1.4,59.7573255020275,
Self.png,You,Self ,c,1,11,21,91,,,,,0,0,0,0,,,,,5,0,60,9,,,,,,,,,,,,,,,,,,,,,1.489,2.129,413.99029390000214,None,,,,,,,,,,,,,,,,,,,,414.528771199999,415.0344732999947,0.5097021000110544,1.0099839000031352,415.01778949999425,415.1178397999902,415.01778949999425,415.1178397999902,415.1178397999902,None,c,1,0.6495285000128206,415.1178397999902,None,,,,,m,49,p11,2022_Mar_16_1422,training+cueing,2021.1.4,59.7573255020275,
Stranger.png,Stranger,Stranger,c,3,13,23,93,,,,,0,0,0,0,,,,,5,1,61,11,,,,,,,,,,,,,,,,,,,,,1.559,2.277,415.8911389999994,None,,,,,,,,,,,,,,,,,,,,416.43220719999226,416.935868200002,0.5072727000078885,1.0081568000168772,416.91916879999917,417.0360920999956,416.91916879999917,417.0360920999956,417.0192285999947,None,c,1,1.1001950999925612,417.0192285999947,None,,,,,m,49,p11,2022_Mar_16_1422,training+cueing,2021.1.4,59.7573255020275,
Friend.png,Friend,Friend,c,2,12,22,92,,,,,0,0,0,0,,,,,5,2,62,4,,,,,,,,,,,,,,,,,,,,,1.622,1.601,418.2435659999901,None,,,,,,,,,,,,,,,,,,,,418.78254970000125,419.2875458999915,0.5074563000089256,1.007761600019876,419.270866699997,419.38756449999346,419.270866699997,419.38756449999346,419.37091240000154,None,c,1,0.8284832000063034,419.37091240000154,None,,,,,m,49,p11,2022_Mar_16_1422,training+cueing,2021.1.4,59.7573255020275,
Stranger.png,Stranger,Stranger,c,3,13,23,93,,,,,0,0,0,0,,,,,5,3,63,8,,,,,,,,,,,,,,,,,,,,,1.545,1.789,420.327976200002,None,,,,,,,,,,,,,,,,,,,,420.8688842999982,421.3723758999986,0.5066486000141595,1.0069278000155464,421.3557110999973,421.47248019999824,421.3557110999973,421.47248019999824,421.4557332999975,None,m,0,0.8876415999984602,421.4557332999975,None,,,,,m,49,p11,2022_Mar_16_1422,training+cueing,2021.1.4,59.7573255020275,
Friend.png,Stranger,Friend,m,3.2,19,29,99,,,,,0,0,0,0,,,,,5,4,64,5,,,,,,,,,,,,,,,,,,,,,1.69,1.389,422.47889589999977,None,,,,,,,,,,,,,,,,,,,,423.01675650000107,423.52397019999626,0.5123620999947889,1.0126711999910185,423.5072747999948,423.6240584999905,423.5072747999948,423.6240584999905,423.6074404999963,None,None,0,,423.6074404999963,None,,,,,m,49,p11,2022_Mar_16_1422,training+cueing,2021.1.4,59.7573255020275,
Stranger.png,Friend,Stranger,m,2.3,17,27,97,,,,,0,0,0,0,,,,,5,5,65,7,,,,,,,,,,,,,,,,,,,,,1.52,1.418,425.4141557999974,None,,,,,,,,,,,,,,,,,,,,425.955137699988,426.45940639999753,0.5077780999999959,1.0080744000006234,426.4427318999951,426.55947029999516,426.4427318999951,426.55947029999516,426.54279719998885,None,m,1,1.1766197999968426,426.54279719998885,None,,,,,m,49,p11,2022_Mar_16_1422,training+cueing,2021.1.4,59.7573255020275,
Self.png,Friend,Self ,m,2.1,16,26,96,,,,,0,0,0,0,,,,,5,6,66,1,,,,,,,,,,,,,,,,,,,,,1.403,2.478,427.84952629999316,None,,,,,,,,,,,,,,,,,,,,428.38778849999653,428.8944977999927,0.5127540999965277,1.0130710999947041,428.8778331999929,428.99456239999563,428.8778331999929,428.99456239999563,428.9778784999944,None,m,1,0.9176131999993231,428.9778784999944,None,,,,,m,49,p11,2022_Mar_16_1422,training+cueing,2021.1.4,59.7573255020275,
Friend.png,You,Friend,m,1.2,14,24,94,,,,,0,0,0,0,,,,,5,7,67,3,,,,,,,,,,,,,,,,,,,,,1.485,2.356,430.0183812999894,None,,,,,,,,,,,,,,,,,,,,430.56292589999794,431.0627448000014,0.5139220999990357,1.014210000008461,431.0627448000014,431.1627965999942,431.0627448000014,431.1627965999942,431.1627965999942,None,m,1,0.8446243000071263,431.1627965999942,None,,,,,m,49,p11,2022_Mar_16_1422,training+cueing,2021.1.4,59.7573255020275,
Stranger.png,You,Stranger,m,1.3,15,25,95,,,,,0,0,0,0,,,,,5,8,68,6,,,,,,,,,,,,,,,,,,,,,1.585,2.202,432.1367132000014,None,,,,,,,,,,,,,,,,,,,,432.67390629999863,433.18095759999414,0.5127209999918705,1.013093999994453,433.1642719999945,433.2643365999975,433.1642719999945,433.2643365999975,433.2643365999975,None,c,0,1.3190389999945182,433.2643365999975,None,,,,,m,49,p11,2022_Mar_16_1422,training+cueing,2021.1.4,59.7573255020275,
Self.png,You,Self ,c,1,11,21,91,,,,,0,0,0,0,,,,,5,9,69,0,,,,,,,,,,,,,,,,,,,,,1.645,2.336,434.72150580000016,None,,,,,,,,,,,,,,,,,,,,435.259802399989,435.76616829998966,0.5127237999986392,1.0130309000087436,435.7494587999972,435.8495431999909,435.7494587999972,435.8495431999909,435.8495431999909,None,c,1,0.6378715000028023,435.8495431999909,None,,,,,m,49,p11,2022_Mar_16_1422,training+cueing,2021.1.4,59.7573255020275,
Self.png,Stranger,Self ,m,3.1,18,28,98,,,,,0,0,0,0,,,,,5,10,70,2,,,,,,,,,,,,,,,,,,,,,1.637,2.104,436.6229924999934,None,,,,,,,,,,,,,,,,,,,,437.16295899999386,437.66754959999525,0.5059692000068026,1.0070017000107327,437.6508642999979,437.76757749999524,437.6508642999979,437.76757749999524,437.75088239999604,None,m,1,0.7686858999950346,437.75088239999604,None,,,,,m,49,p11,2022_Mar_16_1422,training+cueing,2021.1.4,59.7573255020275,
Friend.png,Friend,Friend,c,2,12,22,92,,,,,0,0,0,0,,,,,5,11,71,10,,,,,,,,,,,,,,,,,,,,,1.449,2.098,438.64402139998856,None,,,,,,,,,,,,,,,,,,,,439.1818113999907,439.6857239999954,0.5067116000136593,1.00699780001014,439.668981099996,439.7857260000019,439.668981099996,439.7857260000019,439.76902779999364,None,c,1,0.9742985000048066,439.76902779999364,None,,,,,m,49,p11,2022_Mar_16_1422,training+cueing,2021.1.4,59.7573255020275,
Self.png,You,Self ,c,1,11,21,91,,,,,0,0,0,0,,,,,6,0,72,0,,,,,,,,,,,,,,,,,,,,,1.79,1.57,440.87535409998964,None,,,,,,,,,,,,,,,,,,,,441.4162617999973,441.92090279998956,0.5071285000158241,1.0073869000043487,441.9041305999999,442.00419279999915,441.9041305999999,442.00419279999915,442.00419279999915,None,c,1,0.9953091999923345,442.00419279999915,None,,,,,m,49,p11,2022_Mar_16_1422,training+cueing,2021.1.4,59.7573255020275,
Stranger.png,You,Stranger,m,1.3,15,25,95,,,,,0,0,0,0,,,,,6,1,73,6,,,,,,,,,,,,,,,,,,,,,1.679,1.243,443.12912399999914,None,,,,,,,,,,,,,,,,,,,,443.66705979999097,444.1722318999964,0.5090238000120735,1.009323600010248,444.1555706999934,444.2556248999899,444.1555706999934,444.2556248999899,444.2556248999899,None,m,1,0.7597937000100501,444.2556248999899,None,,,,,m,49,p11,2022_Mar_16_1422,training+cueing,2021.1.4,59.7573255020275,
Self.png,You,Self ,c,1,11,21,91,,,,,0,0,0,0,,,,,6,2,74,9,,,,,,,,,,,,,,,,,,,,,1.697,1.969,445.1453705999884,None,,,,,,,,,,,,,,,,,,,,445.6835788999888,446.1903995999892,0.5125127999926917,1.012881100003142,446.1737035999977,446.273752299996,446.1737035999977,446.273752299996,446.273752299996,None,c,1,0.7416383999952814,446.273752299996,None,,,,,m,49,p11,2022_Mar_16_1422,training+cueing,2021.1.4,59.7573255020275,
Self.png,Stranger,Self ,m,3.1,18,28,98,,,,,0,0,0,0,,,,,6,3,75,2,,,,,,,,,,,,,,,,,,,,,1.675,1.225,447.14704539999366,None,,,,,,,,,,,,,,,,,,,,447.7168124000018,448.2251963999879,0.5043896000133827,1.0046901000023354,448.20852139999624,448.3252346999943,448.20852139999624,448.3252346999943,448.30852929998946,None,c,0,0.6748878999933368,448.30852929998946,None,,,,,m,49,p11,2022_Mar_16_1422,training+cueing,2021.1.4,59.7573255020275,
Friend.png,Friend,Friend,c,2,12,22,92,,,,,0,0,0,0,,,,,6,4,76,10,,,,,,,,,,,,,,,,,,,,,1.41,1.706,449.11525889999757,None,,,,,,,,,,,,,,,,,,,,449.6567362999922,450.159900499988,0.505760799991549,1.0060390999860829,450.1432602999994,450.2599493000016,450.1432602999994,450.2599493000016,450.2432745999977,None,c,1,1.0601117000041995,450.2432745999977,None,,,,,m,49,p11,2022_Mar_16_1422,training+cueing,2021.1.4,59.7573255020275,
Stranger.png,Friend,Stranger,m,2.3,17,27,97,,,,,0,0,0,0,,,,,6,5,77,7,,,,,,,,,,,,,,,,,,,,,1.727,1.653,451.4336755999975,None,,,,,,,,,,,,,,,,,,,,451.97249909999664,452.47826269999496,0.5117156000051182,1.0120084000081988,452.4615955999907,452.57832279999275,452.4615955999907,452.57832279999275,452.5616164999956,None,m,1,0.8698059000016656,452.5616164999956,None,,,,,m,49,p11,2022_Mar_16_1422,training+cueing,2021.1.4,59.7573255020275,
Friend.png,Stranger,Friend,m,3.2,19,29,99,,,,,0,0,0,0,,,,,6,6,78,5,,,,,,,,,,,,,,,,,,,,,1.714,2.229,453.56854769999336,None,,,,,,,,,,,,,,,,,,,,454.10827810000046,454.6131669999886,0.5082504999882076,1.0085012999916216,454.5965096,454.7132081000018,454.5965096,454.7132081000018,454.6965211999923,None,m,1,0.9428843000059715,454.6965211999923,None,,,,,m,49,p11,2022_Mar_16_1422,training+cueing,2021.1.4,59.7573255020275,
Friend.png,You,Friend,m,1.2,14,24,94,,,,,0,0,0,0,,,,,6,7,79,3,,,,,,,,,,,,,,,,,,,,,1.662,1.28,455.7698953999934,None,,,,,,,,,,,,,,,,,,,,456.3107835999981,456.8147375999979,0.5076446000020951,1.0079140000016196,456.79806819999067,456.8981184000004,456.79806819999067,456.8981184000004,456.8981184000004,None,m,1,1.141300700008287,456.8981184000004,None,,,,,m,49,p11,2022_Mar_16_1422,training+cueing,2021.1.4,59.7573255020275,
Stranger.png,Stranger,Stranger,c,3,13,23,93,,,,,0,0,0,0,,,,,6,8,80,11,,,,,,,,,,,,,,,,,,,,,1.774,2.112,458.17190349999873,None,,,,,,,,,,,,,,,,,,,,458.711919399997,459.216479900002,0.505676200002199,1.0059970000002068,459.1998034999997,459.31650499999523,459.1998034999997,459.31650499999523,459.29984059999697,None,c,1,1.2355650999961654,459.29984059999697,None,,,,,m,49,p11,2022_Mar_16_1422,training+cueing,2021.1.4,59.7573255020275,
Friend.png,Friend,Friend,c,2,12,22,92,,,,,0,0,0,0,,,,,6,9,81,4,,,,,,,,,,,,,,,,,,,,,1.621,2.003,460.67366289999336,None,,,,,,,,,,,,,,,,,,,,461.21418840000115,461.7183604999882,0.5075666000193451,1.0078644000168424,461.7016345000011,461.8183519000013,461.7016345000011,461.8183519000013,461.8017007000017,None,c,1,0.8457077000057325,461.8017007000017,None,,,,,m,49,p11,2022_Mar_16_1422,training+cueing,2021.1.4,59.7573255020275,
Self.png,Friend,Self ,m,2.1,16,26,96,,,,,0,0,0,0,,,,,6,10,82,1,,,,,,,,,,,,,,,,,,,,,1.472,1.63,462.7745971999975,None,,,,,,,,,,,,,,,,,,,,463.3291939999908,463.8364780999982,0.4996143000171287,0.9998639000114053,463.8031469999987,463.9032107999956,463.8031469999987,463.9032107999956,463.9032107999956,None,m,1,1.0322004000045126,463.9032107999956,None,,,,,m,49,p11,2022_Mar_16_1422,training+cueing,2021.1.4,59.7573255020275,
Stranger.png,Stranger,Stranger,c,3,13,23,93,,,,,0,0,0,0,,,,,6,11,83,8,,,,,,,,,,,,,,,,,,,,,1.464,2.162,465.0604769999918,None,,,,,,,,,,,,,,,,,,,,465.6032320999948,466.1048735999939,0.5023878000065451,1.002651800008607,466.08816279999155,466.2048843999946,466.08816279999155,466.2048843999946,466.1881766000006,None,c,1,1.0354618999990635,466.1881766000006,None,,,,,m,49,p11,2022_Mar_16_1422,training+cueing,2021.1.4,59.7573255020275,
Stranger.png,Friend,Stranger,m,2.3,17,27,97,,,,,0,0,0,0,,,,,7,0,84,7,,,,,,,,,,,,,,,,,,,,,1.668,1.928,467.34834549999505,None,,,,,,,,,,,,,,,,,,,,467.88821229999303,468.3898016999883,0.5040076000004774,1.0043074999994133,468.3731034999946,468.48983849999786,468.3731034999946,468.48983849999786,468.47316959999443,None,None,0,,468.47316959999443,None,,,,,m,49,p11,2022_Mar_16_1422,training+cueing,2021.1.4,59.7573255020275,
Self.png,You,Self ,c,1,11,21,91,,,,,0,0,0,0,,,,,7,1,85,0,,,,,,,,,,,,,,,,,,,,,1.527,1.749,470.2454041999881,None,,,,,,,,,,,,,,,,,,,,470.8007479999942,471.30857670000114,0.5154139999940526,1.015706099991803,471.29190650000237,471.39193309999246,471.29190650000237,471.39193309999246,471.39193309999246,None,c,1,0.7754982000042219,471.39193309999246,None,,,,,m,49,p11,2022_Mar_16_1422,training+cueing,2021.1.4,59.7573255020275,
Self.png,Friend,Self ,m,2.1,16,26,96,,,,,0,0,0,0,,,,,7,2,86,1,,,,,,,,,,,,,,,,,,,,,1.681,1.849,472.2985833999992,None,,,,,,,,,,,,,,,,,,,,472.839395899995,473.34338520000165,0.5063379000057466,1.0066560999985086,473.32669629999145,473.4434570000012,473.32669629999145,473.4434570000012,473.42674969999644,None,m,1,0.7886197999905562,473.42674969999644,None,,,,,m,49,p11,2022_Mar_16_1422,training+cueing,2021.1.4,59.7573255020275,
Stranger.png,You,Stranger,m,1.3,15,25,95,,,,,0,0,0,0,,,,,7,3,87,6,,,,,,,,,,,,,,,,,,,,,1.577,1.627,474.35044569999445,None,,,,,,,,,,,,,,,,,,,,474.9035806999891,475.41169769999397,0.4990099000133341,0.9993739000055939,475.3950330999942,475.4950996999978,475.3950330999942,475.4950996999978,475.47843399998965,None,m,1,1.0574708000058308,475.47843399998965,None,,,,,m,49,p11,2022_Mar_16_1422,training+cueing,2021.1.4,59.7573255020275,
Friend.png,Friend,Friend,c,2,12,22,92,,,,,0,0,0,0,,,,,7,4,88,10,,,,,,,,,,,,,,,,,,,,,1.407,2.26,476.6701682999992,None,,,,,,,,,,,,,,,,,,,,477.21585549999145,477.72990890000074,0.5094319000054384,1.0097298000036972,477.7132328000007,477.8299738999922,477.7132328000007,477.8299738999922,477.81330460000027,None,c,1,0.834358499996597,477.81330460000027,None,,,,,m,49,p11,2022_Mar_16_1422,training+cueing,2021.1.4,59.7573255020275,
Self.png,Stranger,Self ,m,3.1,18,28,98,,,,,0,0,0,0,,,,,7,5,89,2,,,,,,,,,,,,,,,,,,,,,1.582,1.432,478.77029049998964,None,,,,,,,,,,,,,,,,,,,,479.31146479999006,479.81477579999773,0.5062881000048947,1.006669200010947,479.7980818999931,479.9148036999977,479.7980818999931,479.9148036999977,479.8981081999955,None,m,1,0.9093277000065427,479.8981081999955,None,,,,,m,49,p11,2022_Mar_16_1422,training+cueing,2021.1.4,59.7573255020275,
Friend.png,You,Friend,m,1.2,14,24,94,,,,,0,0,0,0,,,,,7,6,90,3,,,,,,,,,,,,,,,,,,,,,1.48,2.094,480.938648299998,None,,,,,,,,,,,,,,,,,,,,481.4783708999894,481.98298679999425,0.5075568000029307,1.0078315999999177,481.966320099993,482.06635059999826,481.966320099993,482.06635059999826,482.06635059999826,None,m,1,0.8691130999941379,482.06635059999826,None,,,,,m,49,p11,2022_Mar_16_1422,training+cueing,2021.1.4,59.7573255020275,
Friend.png,Stranger,Friend,m,3.2,19,29,99,,,,,0,0,0,0,,,,,7,7,91,5,,,,,,,,,,,,,,,,,,,,,1.643,1.318,483.0727334999974,None,,,,,,,,,,,,,,,,,,,,483.61630069999956,484.1178794000007,0.5011852000025101,1.0015036000113469,484.10116559999005,484.21791569999186,484.10116559999005,484.21791569999186,484.21791569999186,None,m,1,0.8135339000000386,484.21791569999186,None,,,,,m,49,p11,2022_Mar_16_1422,training+cueing,2021.1.4,59.7573255020275,
Stranger.png,Stranger,Stranger,c,3,13,23,93,,,,,0,0,0,0,,,,,7,8,92,11,,,,,,,,,,,,,,,,,,,,,1.657,2.001,485.1577096999972,None,,,,,,,,,,,,,,,,,,,,485.69483500000206,486.20270339999115,0.514215500006685,1.0145200000115437,486.18601710000075,486.3027713999909,486.18601710000075,486.3027713999909,486.28608059999533,None,c,1,1.0973849000001792,486.28608059999533,None,,,,,m,49,p11,2022_Mar_16_1422,training+cueing,2021.1.4,59.7573255020275,
Friend.png,Friend,Friend,c,2,12,22,92,,,,,0,0,0,0,,,,,7,9,93,4,,,,,,,,,,,,,,,,,,,,,1.734,1.377,487.5097620000015,None,,,,,,,,,,,,,,,,,,,,488.05029109999305,488.55453149999084,0.5069022000097902,1.0070396000082837,488.53786379999656,488.6544892999955,488.53786379999656,488.6544892999955,488.63776469998993,None,c,1,0.729633199996897,488.63776469998993,None,,,,,m,49,p11,2022_Mar_16_1422,training+cueing,2021.1.4,59.7573255020275,
Stranger.png,Stranger,Stranger,c,3,13,23,93,,,,,0,0,0,0,,,,,7,10,94,8,,,,,,,,,,,,,,,,,,,,,1.678,1.876,489.4951346000016,None,,,,,,,,,,,,,,,,,,,,490.03534849999414,490.5392004000023,0.5056075000175042,1.005897000010009,490.52252059998864,490.6392387999949,490.52252059998864,490.6392387999949,490.62255390000064,None,m,0,1.1929109000047902,490.62255390000064,None,,,,,m,49,p11,2022_Mar_16_1422,training+cueing,2021.1.4,59.7573255020275,
Self.png,You,Self ,c,1,11,21,91,,,,,0,0,0,0,,,,,7,11,95,9,,,,,,,,,,,,,,,,,,,,,1.504,2.47,491.94638969999505,None,,,,,,,,,,,,,,,,,,,,492.48683419999725,492.99100019999605,0.5074052000127267,1.0081536000216147,492.97432519998983,493.07433409999066,492.97432519998983,493.07433409999066,493.07433409999066,None,c,1,1.2051697999995667,493.07433409999066,None,,,,,m,49,p11,2022_Mar_16_1422,training+cueing,2021.1.4,59.7573255020275,
Self.png,Stranger,Self ,m,3.1,18,28,98,,,,,0,0,0,0,,,,,8,0,96,2,,,,,,,,,,,,,,,,,,,,,1.695,1.646,494.41579990000173,None,,,,,,,,,,,,,,,,,,,,494.9578648000024,495.4594269999943,0.5012328000011621,1.001533800008474,495.44274349999614,495.5594832999923,495.44274349999614,495.5594832999923,495.5594832999923,None,m,1,0.6240302999940468,495.5594832999923,None,,,,,m,49,p11,2022_Mar_16_1422,training+cueing,2021.1.4,59.7573255020275,
Friend.png,Friend,Friend,c,2,12,22,92,,,,,0,0,0,0,,,,,8,1,97,10,,,,,,,,,,,,,,,,,,,,,1.771,1.669,496.316318600002,None,,,,,,,,,,,,,,,,,,,,496.8570112000016,497.3608213999978,0.5067863000003854,1.007611299995915,497.3441373999958,497.4608881000022,497.3441373999958,497.4608881000022,497.44415379999555,None,c,1,0.8033387000032235,497.44415379999555,None,,,,,m,49,p11,2022_Mar_16_1422,training+cueing,2021.1.4,59.7573255020275,
Stranger.png,Stranger,Stranger,c,3,13,23,93,,,,,0,0,0,0,,,,,8,2,98,11,,,,,,,,,,,,,,,,,,,,,1.53,1.784,498.3847606999916,None,,,,,,,,,,,,,,,,,,,,498.9262740999984,499.42896039999323,0.5052877999987686,1.0055973999988055,499.4122934999905,499.52902919999906,499.4122934999905,499.52902919999906,499.5123157999915,None,None,0,,499.5123157999915,None,,,,,m,49,p11,2022_Mar_16_1422,training+cueing,2021.1.4,59.7573255020275,
Stranger.png,Friend,Stranger,m,2.3,17,27,97,,,,,0,0,0,0,,,,,8,3,99,7,,,,,,,,,,,,,,,,,,,,,1.531,1.214,501.1511385999911,None,,,,,,,,,,,,,,,,,,,,501.6928756999987,502.19779059999564,0.5065991000155918,1.0068954000162194,502.1809632999939,502.29765110000153,502.1809632999939,502.29765110000153,502.2810021999903,None,m,1,1.3424269999959506,502.2810021999903,None,,,,,m,49,p11,2022_Mar_16_1422,training+cueing,2021.1.4,59.7573255020275,
Friend.png,Friend,Friend,c,2,12,22,92,,,,,0,0,0,0,,,,,8,4,100,4,,,,,,,,,,,,,,,,,,,,,1.697,1.303,503.7551287999959,None,,,,,,,,,,,,,,,,,,,,504.2937641999888,504.79952799998864,0.5117759000131628,1.012204600017867,504.78285949998826,504.89971869999135,504.78285949998826,504.89971869999135,504.8828761999903,None,c,1,0.6606656999938423,504.8828761999903,None,,,,,m,49,p11,2022_Mar_16_1422,training+cueing,2021.1.4,59.7573255020275,
Self.png,Friend,Self ,m,2.1,16,26,96,,,,,0,0,0,0,,,,,8,5,101,1,,,,,,,,,,,,,,,,,,,,,1.505,1.922,505.6731929999951,None,,,,,,,,,,,,,,,,,,,,506.21177309998893,506.7175981999899,0.5112731999979587,1.0117794999969192,506.70088389999,506.8176475999935,506.70088389999,506.8176475999935,506.80093430000124,None,m,1,0.9185736999934306,506.80093430000124,None,,,,,m,49,p11,2022_Mar_16_1422,training+cueing,2021.1.4,59.7573255020275,
Self.png,You,Self ,c,1,11,21,91,,,,,0,0,0,0,,,,,8,6,102,0,,,,,,,,,,,,,,,,,,,,,1.601,1.804,507.84095559999696,None,,,,,,,,,,,,,,,,,,,,508.38140620000195,508.8858169000014,0.5072680000157561,1.0075625000172295,508.86914499998966,508.9692110999895,508.86914499998966,508.9692110999895,508.9692110999895,None,c,1,0.5422647000086727,508.9692110999895,None,,,,,m,49,p11,2022_Mar_16_1422,training+cueing,2021.1.4,59.7573255020275,
Stranger.png,Stranger,Stranger,c,3,13,23,93,,,,,0,0,0,0,,,,,8,7,103,8,,,,,,,,,,,,,,,,,,,,,1.432,2.021,509.6423291999963,None,,,,,,,,,,,,,,,,,,,,510.18496099999174,510.6871539999993,0.505743400004576,1.0060466000140877,510.6704342000012,510.78716500000155,510.6704342000012,510.78716500000155,510.77062809999916,None,c,1,1.0288931999966735,510.77062809999916,None,,,,,m,49,p11,2022_Mar_16_1422,training+cueing,2021.1.4,59.7573255020275,
Stranger.png,You,Stranger,m,1.3,15,25,95,,,,,0,0,0,0,,,,,8,8,104,6,,,,,,,,,,,,,,,,,,,,,1.634,1.274,511.92778069998894,None,,,,,,,,,,,,,,,,,,,,512.4669686999987,512.9721275999909,0.5079226999951061,1.0081820000050357,512.9554453999881,513.0554909999919,512.9554453999881,513.0554909999919,513.0554909999919,None,m,1,0.7760542000032729,513.0554909999919,None,,,,,m,49,p11,2022_Mar_16_1422,training+cueing,2021.1.4,59.7573255020275,
Self.png,You,Self ,c,1,11,21,91,,,,,0,0,0,0,,,,,8,9,105,9,,,,,,,,,,,,,,,,,,,,,1.641,2.489,513.9623318999948,None,,,,,,,,,,,,,,,,,,,,514.5006968999951,515.0069479999947,0.5116732000024058,1.0119070000073407,514.9902938000014,515.0903092999943,514.9902938000014,515.0903092999943,515.0903092999943,None,c,1,0.6131817999994382,515.0903092999943,None,,,,,m,49,p11,2022_Mar_16_1422,training+cueing,2021.1.4,59.7573255020275,
Friend.png,Stranger,Friend,m,3.2,19,29,99,,,,,0,0,0,0,,,,,8,10,106,5,,,,,,,,,,,,,,,,,,,,,1.679,1.883,515.8303936000011,None,,,,,,,,,,,,,,,,,,,,516.3731530999939,516.8749500999984,0.5050453000148991,1.0053246000024956,516.8582655999926,516.974985599998,516.8582655999926,516.974985599998,516.9583046999905,None,m,1,0.9051711999927647,516.9583046999905,None,,,,,m,49,p11,2022_Mar_16_1422,training+cueing,2021.1.4,59.7573255020275,
Friend.png,You,Friend,m,1.2,14,24,94,,,,,0,0,0,0,,,,,8,11,107,3,,,,,,,,,,,,,,,,,,,,,1.552,1.363,517.9981811999896,None,,,,,,,,,,,,,,,,,,,,518.5379948999907,519.0431803999963,0.5070462000148837,1.0073379000095883,519.0265054999909,519.1265570999967,519.0265054999909,519.1265570999967,519.1265570999967,None,m,1,0.8648452000052202,519.1265570999967,None,,,,,m,49,p11,2022_Mar_16_1422,training+cueing,2021.1.4,59.7573255020275,
Friend.png,Stranger,Friend,m,3.2,19,29,99,,,,,0,0,0,0,,,,,9,0,108,5,,,,,,,,,,,,,,,,,,,,,1.582,1.785,520.1165650999901,None,,,,,,,,,,,,,,,,,,,,520.6579651999928,521.1613734999992,0.5052728000009665,1.005573300004471,521.144716099996,521.2614203999983,521.144716099996,521.2614203999983,521.2447410999885,None,m,1,1.0986245999956736,521.2447410999885,None,,,,,m,49,p11,2022_Mar_16_1422,training+cueing,2021.1.4,59.7573255020275,
Self.png,You,Self ,c,1,11,21,91,,,,,0,0,0,0,,,,,9,1,109,9,,,,,,,,,,,,,,,,,,,,,1.692,2.138,522.4683727999945,None,,,,,,,,,,,,,,,,,,,,523.023186099992,523.5299166999903,0.5125045999884605,1.0128232999995816,523.5130815000011,523.6131721999991,523.5130815000011,523.6131721999991,523.6131721999991,None,c,1,0.7142305000015767,523.6131721999991,None,,,,,m,49,p11,2022_Mar_16_1422,training+cueing,2021.1.4,59.7573255020275,
Friend.png,You,Friend,m,1.2,14,24,94,,,,,0,0,0,0,,,,,9,2,110,3,,,,,,,,,,,,,,,,,,,,,1.422,1.768,524.453594999999,None,,,,,,,,,,,,,,,,,,,,524.9960438999988,525.4978097999992,0.5036994000111008,1.0039316000038525,525.4812145999895,525.5812335999944,525.4812145999895,525.5812335999944,525.5812335999944,None,m,1,0.8743104000022868,525.5812335999944,None,,,,,m,49,p11,2022_Mar_16_1422,training+cueing,2021.1.4,59.7573255020275,
Self.png,Stranger,Self ,m,3.1,18,28,98,,,,,0,0,0,0,,,,,9,3,111,2,,,,,,,,,,,,,,,,,,,,,1.462,1.911,526.5877351999952,None,,,,,,,,,,,,,,,,,,,,527.1309762000019,527.6327728999895,0.5045776000042679,1.0047107000136748,527.6161861,527.732797299992,527.6161861,527.732797299992,527.7161084999971,None,m,1,0.8514477999997325,527.7161084999971,None,,,,,m,49,p11,2022_Mar_16_1422,training+cueing,2021.1.4,59.7573255020275,
Stranger.png,Stranger,Stranger,c,3,13,23,93,,,,,0,0,0,0,,,,,9,4,112,8,,,,,,,,,,,,,,,,,,,,,1.488,1.747,528.6897188000003,None,,,,,,,,,,,,,,,,,,,,529.2269495999935,529.7342665999895,0.5111759000137681,1.0114543000090634,529.7175888999918,529.8343303000001,529.7175888999918,529.8343303000001,529.8176373999886,None,c,1,1.2778821000101743,529.8176373999886,None,,,,,m,49,p11,2022_Mar_16_1422,training+cueing,2021.1.4,59.7573255020275,
Friend.png,Friend,Friend,c,2,12,22,92,,,,,0,0,0,0,,,,,9,5,113,10,,,,,,,,,,,,,,,,,,,,,1.687,1.517,531.2246161999938,None,,,,,,,,,,,,,,,,,,,,531.7662451999931,532.2694532999885,0.5062024000071688,1.0064867000037339,532.2527487999905,532.3694758999918,532.2527487999905,532.3694758999918,532.3527533000015,None,c,1,0.6307700000033947,532.3527533000015,None,,,,,m,49,p11,2022_Mar_16_1422,training+cueing,2021.1.4,59.7573255020275,
Stranger.png,Stranger,Stranger,c,3,13,23,93,,,,,0,0,0,0,,,,,9,6,114,11,,,,,,,,,,,,,,,,,,,,,1.551,1.293,533.1090636000008,None,,,,,,,,,,,,,,,,,,,,533.6519416999945,534.1541230000003,0.5050232000066899,1.005504100001417,534.1374652999948,534.2541874999879,534.1374652999948,534.2541874999879,534.237472199995,None,c,1,0.8262119999999413,534.237472199995,None,,,,,m,49,p11,2022_Mar_16_1422,training+cueing,2021.1.4,59.7573255020275,
Stranger.png,You,Stranger,m,1.3,15,25,95,,,,,0,0,0,0,,,,,9,7,115,6,,,,,,,,,,,,,,,,,,,,,1.466,1.922,535.1953575999942,None,,,,,,,,,,,,,,,,,,,,535.7363078999915,536.2389755999902,0.5028697000088869,1.0031294000073103,536.2222953999881,536.322350699993,536.2222953999881,536.322350699993,536.322350699993,None,m,1,0.8051573999982793,536.322350699993,None,,,,,m,49,p11,2022_Mar_16_1422,training+cueing,2021.1.4,59.7573255020275,
Stranger.png,Friend,Stranger,m,2.3,17,27,97,,,,,0,0,0,0,,,,,9,8,116,7,,,,,,,,,,,,,,,,,,,,,1.483,2.144,537.2629599999927,None,,,,,,,,,,,,,,,,,,,,537.8054425000009,538.3071926999983,0.5033591000101296,1.0036520000139717,538.2905065999948,538.4072061999905,538.2905065999948,538.4072061999905,538.3905303999927,None,m,1,1.3929778000019724,538.3905303999927,None,,,,,m,49,p11,2022_Mar_16_1422,training+cueing,2021.1.4,59.7573255020275,
Friend.png,Friend,Friend,c,2,12,22,92,,,,,0,0,0,0,,,,,9,9,117,4,,,,,,,,,,,,,,,,,,,,,1.517,1.333,539.9143955999898,None,,,,,,,,,,,,,,,,,,,,540.4528012999945,540.9590633999906,0.5114291000063531,1.011707200013916,540.9424051999958,541.0591316999926,540.9424051999958,541.0591316999926,541.0424276999984,None,c,1,0.7412067999975989,541.0424276999984,None,,,,,m,49,p11,2022_Mar_16_1422,training+cueing,2021.1.4,59.7573255020275,
Self.png,You,Self ,c,1,11,21,91,,,,,0,0,0,0,,,,,9,10,118,0,,,,,,,,,,,,,,,,,,,,,1.72,1.551,541.9162729999953,None,,,,,,,,,,,,,,,,,,,,542.456554599994,542.9605348999903,0.5063353000005009,1.006630399991991,542.9438577999972,543.0439482999936,542.9438577999972,543.0439482999936,543.0439482999936,None,c,1,0.6435284000035608,543.0439482999936,None,,,,,m,49,p11,2022_Mar_16_1422,training+cueing,2021.1.4,59.7573255020275,
Self.png,Friend,Self ,m,2.1,16,26,96,,,,,0,0,0,0,,,,,9,11,119,1,,,,,,,,,,,,,,,,,,,,,1.403,2.125,543.8172000999912,None,,,,,,,,,,,,,,,,,,,,544.3566290000017,544.8618871999934,0.5098155000014231,1.0100820000079693,544.8452227999951,544.9619292999996,544.8452227999951,544.9619292999996,544.9452420000016,None,m,1,0.6142179000016768,544.9452420000016,None,,,,,m,49,p11,2022_Mar_16_1422,training+cueing,2021.1.4,59.7573255020275,
,,,,,,,,,,,,0,0,0,0,,,,,,,,,,,,,,,,,,,,,,,,,,,,,,,,,,,,,,,,,,,,,,,,,,,,,,,,,,,,,,,,,,,0.0001771999814081937,None,,,m,49,p11,2022_Mar_16_1422,training+cueing,2021.1.4,59.7573255020275,
Self.png,You,Self ,c,1,11,21,91,,,,,1,0,1,0,0,0,0,9,,,,,,,,,,,,,,,,,546.1961980999913,None,space,17.01045490000979,2.016366299998481,None,565.2102461999893,None,1.665,1.459,568.2193029999908,None,568.7577590000001,569.262924900002,569.2462363999948,569.3462778999965,569.2462363999948,569.3462778999965,569.3462778999965,None,c,1,569.3462778999965,None,570.6296940999891,None,1.253274299990153,,,,,,,,,,,,,,,,,,,,,,,,m,49,p11,2022_Mar_16_1422,training+cueing,2021.1.4,59.7573255020275,
Stranger.png,You,Stranger,m,1.3,15,25,95,,,,,1,0,1,0,0,1,1,6,,,,,,,,,,,,,,,,,,,,,,,,,1.715,2.35,571.0310019999888,None,571.5636096999951,572.0649498999992,572.0482451999997,572.1483017999999,572.0482451999997,572.1483017999999,572.1483017999999,None,m,1,572.1483017999999,None,572.9322414999915,None,0.7552384000009624,,,,,,,,,,,,,,,,,,,,,,,,m,49,p11,2022_Mar_16_1422,training+cueing,2021.1.4,59.7573255020275,
Stranger.png,Stranger,Stranger,c,3,13,23,93,,,,,1,0,1,0,0,2,2,8,,,,,,,,,,,,,,,,,,,,,,,,,1.797,2.147,573.3325324999896,None,573.8635055999912,574.366565999997,574.349944799993,574.4666627999977,574.349944799993,574.4666627999977,574.4499739999883,None,c,1,574.4499739999883,None,575.4007451999933,None,0.9335428000049433,,,,,,,,,,,,,,,,,,,,,,,,m,49,p11,2022_Mar_16_1422,training+cueing,2021.1.4,59.7573255020275,
Stranger.png,Stranger,Stranger,c,3,13,23,93,,,,,1,0,1,0,0,3,3,11,,,,,,,,,,,,,,,,,,,,,,,,,1.447,1.684,575.8009824999899,None,576.3300197999924,576.8350909000001,576.8184350999945,576.935184499991,576.8184350999945,576.935184499991,576.9184236000001,None,c,1,576.9184236000001,None,577.9525546999939,None,1.0091920000122627,,,,,,,,,,,,,,,,,,,,,,,,m,49,p11,2022_Mar_16_1422,training+cueing,2021.1.4,59.7573255020275,
Self.png,You,Self ,c,1,11,21,91,,,,,1,0,1,0,0,4,4,0,,,,,,,,,,,,,,,,,,,,,,,,,1.523,1.389,578.3528537999955,None,578.8850459999958,579.3869195000007,579.3702397000015,579.4702890999906,579.3702397000015,579.4702890999906,579.4702890999906,None,c,1,579.4702890999906,None,580.1713186999987,None,0.6814291000046069,,,,,,,,,,,,,,,,,,,,,,,,m,49,p11,2022_Mar_16_1422,training+cueing,2021.1.4,59.7573255020275,
Friend.png,Friend,Friend,c,2,12,22,92,,,,,1,0,1,0,0,5,5,10,,,,,,,,,,,,,,,,,,,,,,,,,1.521,2.017,580.5712570999895,None,581.1135942999972,581.6218411000009,581.5891773999901,581.6885495000024,581.5891773999901,581.6885495000024,581.6885495000024,None,c,1,581.6885495000024,None,582.4057843999908,None,0.687079100011033,,,,,,,,,,,,,,,,,,,,,,,,m,49,p11,2022_Mar_16_1422,training+cueing,2021.1.4,59.7573255020275,
Self.png,Friend,Self ,m,2.1,16,26,96,,,,,1,0,1,0,0,6,6,1,,,,,,,,,,,,,,,,,,,,,,,,,1.762,1.624,582.8060524999892,None,583.3352120999916,583.840165799993,583.8234551999922,583.9402444000007,583.8234551999922,583.9402444000007,583.9235003999929,None,m,1,583.9235003999929,None,584.7074426999898,None,0.7560023999976693,,,,,,,,,,,,,,,,,,,,,,,,m,49,p11,2022_Mar_16_1422,training+cueing,2021.1.4,59.7573255020275,
Friend.png,Stranger,Friend,m,3.2,19,29,99,,,,,1,0,1,0,0,7,7,5,,,,,,,,,,,,,,,,,,,,,,,,,1.682,2.0,585.1077229999937,None,585.6473449999903,586.1585916999902,586.1419284000003,586.2586487999943,586.1419284000003,586.2586487999943,586.2419585999887,None,m,1,586.2419585999887,None,587.1593339999963,None,0.8855642999988049,,,,,,,,,,,,,,,,,,,,,,,,m,49,p11,2022_Mar_16_1422,training+cueing,2021.1.4,59.7573255020275,
Self.png,Stranger,Self ,m,3.1,18,28,98,,,,,1,0,1,0,0,8,8,2,,,,,,,,,,,,,,,,,,,,,,,,,1.585,2.111,587.5596193999954,None,588.0919665999972,588.5936311999976,588.5769563999929,588.693645899999,588.5769563999929,588.693645899999,588.693645899999,None,m,1,588.693645899999,None,589.4942353999941,None,0.7699075999989873,,,,,,,,,,,,,,,,,,,,,,,,m,49,p11,2022_Mar_16_1422,training+cueing,2021.1.4,59.7573255020275,
Friend.png,You,Friend,m,1.2,14,24,94,,,,,1,0,1,0,0,9,9,3,,,,,,,,,,,,,,,,,,,,,,,,,1.576,2.227,589.8946863000019,None,590.4304315999907,590.9452964999946,590.9286348000023,591.0286842999922,590.9286348000023,591.0286842999922,591.0286842999922,None,m,1,591.0286842999922,None,591.946062499992,None,0.8988174000114668,,,,,,,,,,,,,,,,,,,,,,,,m,49,p11,2022_Mar_16_1422,training+cueing,2021.1.4,59.7573255020275,
Friend.png,Friend,Friend,c,2,12,22,92,,,,,1,0,1,0,0,10,10,4,,,,,,,,,,,,,,,,,,,,,,,,,1.724,1.854,592.346292199989,None,592.8787496000004,593.3804385999974,593.3637226999999,593.4804452999961,593.3637226999999,593.4804452999961,593.4637433999887,None,c,1,593.4637433999887,None,594.3644350999966,None,0.8798243999917759,,,,,,,,,,,,,,,,,,,,,,,,m,49,p11,2022_Mar_16_1422,training+cueing,2021.1.4,59.7573255020275,
Stranger.png,Friend,Stranger,m,2.3,17,27,97,,,,,1,0,1,0,0,11,11,7,,,,,,,,,,,,,,,,,,,,,,,,,1.636,2.011,594.7647262999963,None,595.3067929999961,595.8155127999926,595.7987942999898,595.9155567999987,595.7987942999898,595.9155567999987,595.8988365999976,None,m,1,595.8988365999976,None,596.6327907999948,None,0.716764199998579,,,,,,,,,,,,,,,,,,,,,,,,m,49,p11,2022_Mar_16_1422,training+cueing,2021.1.4,59.7573255020275,
Friend.png,Friend,Friend,c,2,12,22,92,,,,,1,0,1,0,,,,,0,0,0,4,,,,,,,,,,,,,,,,,,,606.1064755999978,None,1.485,2.34,609.6243930999917,None,,,,,,,,,,,,,,,,597.033033899992,None,0.013928199987276457,0.5115769999974873,610.1622203000006,610.6764162999898,0.5121317000011913,1.012258800008567,610.6597321000008,610.7764749999915,610.6597321000008,610.7764749999915,610.7597850999882,None,c,1,1.2477920999954222,610.7597850999882,None,,,,,m,49,p11,2022_Mar_16_1422,training+cueing,2021.1.4,59.7573255020275,
Self.png,Stranger,Self ,m,3.1,18,28,98,,,,,1,0,1,0,,,,,0,1,1,2,,,,,,,,,,,,,,,,,,,,,1.581,1.667,612.134204499991,None,,,,,,,,,,,,,,,,,,,,612.6752209999977,613.1780833999946,0.5053743000025861,1.005671999999322,613.1613981999981,613.2781141000014,613.1613981999981,613.2781141000014,613.261440599992,None,m,1,0.9221732000005431,613.261440599992,None,,,,,m,49,p11,2022_Mar_16_1422,training+cueing,2021.1.4,59.7573255020275,
Stranger.png,Stranger,Stranger,c,3,13,23,93,,,,,1,0,1,0,,,,,0,2,2,8,,,,,,,,,,,,,,,,,,,,,1.659,2.139,614.318440499992,None,,,,,,,,,,,,,,,,,,,,614.856002799992,615.3630038999981,0.5109311999985948,1.0112202000018442,615.3463380999892,615.463039299997,615.3463380999892,615.463039299997,615.4463375999912,None,c,1,0.993330800003605,615.4463375999912,None,,,,,m,49,p11,2022_Mar_16_1422,training+cueing,2021.1.4,59.7573255020275,
Self.png,You,Self ,c,1,11,21,91,,,,,1,0,1,0,,,,,0,3,3,0,,,,,,,,,,,,,,,,,,,,,1.569,1.394,616.5697943999985,None,,,,,,,,,,,,,,,,,,,,617.1112227999984,617.6147972999897,0.5072876000049291,1.0076458000112325,617.597949499992,617.6979965999926,617.597949499992,617.6979965999926,617.6979965999926,None,c,1,0.6456668000028003,617.6979965999926,None,,,,,m,49,p11,2022_Mar_16_1422,training+cueing,2021.1.4,59.7573255020275,
Stranger.png,You,Stranger,m,1.3,15,25,95,,,,,1,0,1,0,,,,,0,4,4,6,,,,,,,,,,,,,,,,,,,,,1.423,2.271,618.4716402999911,None,,,,,,,,,,,,,,,,,,,,619.0099962999957,619.5160034,0.5102601000107825,1.0105300000141142,619.4993446000008,619.599589999998,619.4993446000008,619.599589999998,619.599589999998,None,m,1,0.6479659999895375,619.599589999998,None,,,,,m,49,p11,2022_Mar_16_1422,training+cueing,2021.1.4,59.7573255020275,
Self.png,Friend,Self ,m,2.1,16,26,96,,,,,1,0,1,0,,,,,0,5,5,1,,,,,,,,,,,,,,,,,,,,,1.592,1.22,620.3727848999988,None,,,,,,,,,,,,,,,,,,,,620.9140770999948,621.4173878000001,0.507137500011595,1.007422900001984,621.4007149999961,621.517437699993,621.4007149999961,621.517437699993,621.5007074000023,None,m,1,0.9869743999879574,621.5007074000023,None,,,,,m,49,p11,2022_Mar_16_1422,training+cueing,2021.1.4,59.7573255020275,
Friend.png,You,Friend,m,1.2,14,24,94,,,,,1,0,1,0,,,,,0,6,6,3,,,,,,,,,,,,,,,,,,,,,1.534,2.429,622.6241527999955,None,,,,,,,,,,,,,,,,,,,,623.1650645999907,623.6690570999926,0.507159100001445,1.0074151000007987,623.6523690999893,623.7523953999917,623.6523690999893,623.7523953999917,623.7523953999917,None,m,1,0.7993868999910774,623.7523953999917,None,,,,,m,49,p11,2022_Mar_16_1422,training+cueing,2021.1.4,59.7573255020275,
Stranger.png,Stranger,Stranger,c,3,13,23,93,,,,,1,0,1,0,,,,,0,7,7,11,,,,,,,,,,,,,,,,,,,,,1.762,1.278,624.6788906000002,None,,,,,,,,,,,,,,,,,,,,625.21890729999,625.7204812999989,0.5021506000048248,1.002416200004518,625.7038279999979,625.8205847999925,625.7038279999979,625.8205847999925,625.8038537999964,None,c,1,0.843778000009479,625.8038537999964,None,,,,,m,49,p11,2022_Mar_16_1422,training+cueing,2021.1.4,59.7573255020275,
Self.png,You,Self ,c,1,11,21,91,,,,,1,0,1,0,,,,,0,8,8,9,,,,,,,,,,,,,,,,,,,,,1.542,2.282,626.777399499988,None,,,,,,,,,,,,,,,,,,,,627.3179517999961,627.8221065999969,0.5069780000048922,1.007227400012198,627.8053733999986,627.9053796999942,627.8053733999986,627.9053796999942,627.9053796999942,None,c,1,0.8382431999925757,627.9053796999942,None,,,,,m,49,p11,2022_Mar_16_1422,training+cueing,2021.1.4,59.7573255020275,
Stranger.png,Friend,Stranger,m,2.3,17,27,97,,,,,1,0,1,0,,,,,0,9,9,7,,,,,,,,,,,,,,,,,,,,,1.798,1.203,628.8783141999884,None,,,,,,,,,,,,,,,,,,,,629.418425099997,629.9235604999994,0.5092033999972045,1.009437100001378,629.9068847999879,630.0236032999965,629.9068847999879,630.0236032999965,630.0068954000017,None,m,1,0.7527065999893239,630.0068954000017,None,,,,,m,49,p11,2022_Mar_16_1422,training+cueing,2021.1.4,59.7573255020275,
Friend.png,Friend,Friend,c,2,12,22,92,,,,,1,0,1,0,,,,,0,10,10,10,,,,,,,,,,,,,,,,,,,,,1.783,1.335,630.8973775999912,None,,,,,,,,,,,,,,,,,,,,631.4346330999979,631.9416758000007,0.510904800001299,1.0113975999993272,631.924983799996,632.0417650000018,631.924983799996,632.0417650000018,632.0250868000003,None,c,1,0.8144409999949858,632.0250868000003,None,,,,,m,49,p11,2022_Mar_16_1422,training+cueing,2021.1.4,59.7573255020275,
Friend.png,Stranger,Friend,m,3.2,19,29,99,,,,,1,0,1,0,,,,,0,11,11,5,,,,,,,,,,,,,,,,,,,,,1.452,2.324,632.9649109999882,None,,,,,,,,,,,,,,,,,,,,633.5074424999912,634.0098331999907,0.5052290000166977,1.0055136000155471,633.9931695999985,634.1098913999886,633.9931695999985,634.1098913999886,634.0931868999905,None,m,1,0.8104692000051728,634.0931868999905,None,,,,,m,49,p11,2022_Mar_16_1422,training+cueing,2021.1.4,59.7573255020275,
Stranger.png,Stranger,Stranger,c,3,13,23,93,,,,,1,0,1,0,,,,,1,0,12,8,,,,,,,,,,,,,,,,,,,,,1.594,1.353,635.0335016999888,None,,,,,,,,,,,,,,,,,,,,635.5709214999952,636.078007899996,0.5108291000069585,1.0111398000153713,636.0613226999994,636.1780376999959,636.0613226999994,636.1780376999959,636.1613623000012,None,c,1,0.83824349999486,636.1613623000012,None,,,,,m,49,p11,2022_Mar_16_1422,training+cueing,2021.1.4,59.7573255020275,
Self.png,Stranger,Self ,m,3.1,18,28,98,,,,,1,0,1,0,,,,,1,1,13,2,,,,,,,,,,,,,,,,,,,,,1.427,2.384,637.1350085000013,None,,,,,,,,,,,,,,,,,,,,637.6738523999957,638.1795430999919,0.5108899000042584,1.0111985000112327,638.1628368999955,638.279587099998,638.1628368999955,638.279587099998,638.2628808000009,None,m,1,0.912778600002639,638.2628808000009,None,,,,,m,49,p11,2022_Mar_16_1422,training+cueing,2021.1.4,59.7573255020275,
Self.png,You,Self ,c,1,11,21,91,,,,,1,0,1,0,,,,,1,2,14,0,,,,,,,,,,,,,,,,,,,,,1.493,2.065,639.3025824999932,None,,,,,,,,,,,,,,,,,,,,639.8436575999949,640.3477582999913,0.5071306000172626,1.0074535000167089,640.3310943999968,640.4311462999904,640.3310943999968,640.4311462999904,640.4311462999904,None,c,1,0.632468499999959,640.4311462999904,None,,,,,m,49,p11,2022_Mar_16_1422,training+cueing,2021.1.4,59.7573255020275,
Friend.png,You,Friend,m,1.2,14,24,94,,,,,1,0,1,0,,,,,1,3,15,3,,,,,,,,,,,,,,,,,,,,,1.676,1.713,641.1877871999895,None,,,,,,,,,,,,,,,,,,,,641.7257394999906,642.2325216999889,0.510999800011632,1.0111133000027621,642.2159373999893,642.3158716999897,642.2159373999893,642.3158716999897,642.3158716999897,None,m,1,0.651822900006664,642.3158716999897,None,,,,,m,49,p11,2022_Mar_16_1422,training+cueing,2021.1.4,59.7573255020275,
Stranger.png,Friend,Stranger,m,2.3,17,27,97,,,,,1,0,1,0,,,,,1,4,16,7,,,,,,,,,,,,,,,,,,,,,1.618,1.748,643.0892221999966,None,,,,,,,,,,,,,,,,,,,,643.6324323000008,644.1338374999905,0.503483700013021,1.0037830000073882,644.1171644999995,644.2338852999965,644.1171644999995,644.2338852999965,644.2172056999989,None,m,1,1.118431100010639,644.2172056999989,None,,,,,m,49,p11,2022_Mar_16_1422,training+cueing,2021.1.4,59.7573255020275,
Stranger.png,You,Stranger,m,1.3,15,25,95,,,,,1,0,1,0,,,,,1,5,17,6,,,,,,,,,,,,,,,,,,,,,1.786,1.929,645.4580477999989,None,,,,,,,,,,,,,,,,,,,,645.999083799994,646.5022316999966,0.5062584999977844,1.0064730000012787,646.485592699988,646.5856555999926,646.485592699988,646.5856555999926,646.5856555999926,None,c,0,1.0540747000050033,646.5856555999926,None,,,,,m,49,p11,2022_Mar_16_1422,training+cueing,2021.1.4,59.7573255020275,
Self.png,Friend,Self ,m,2.1,16,26,96,,,,,1,0,1,0,,,,,1,6,18,1,,,,,,,,,,,,,,,,,,,,,1.67,2.003,647.7769561999885,None,,,,,,,,,,,,,,,,,,,,648.3172368999949,648.8206057999923,0.5041974000050686,1.0045137999986764,648.8039112999977,648.9206186999945,648.8039112999977,648.9206186999945,648.9039410999976,None,m,1,0.9277127999957884,648.9039410999976,None,,,,,m,49,p11,2022_Mar_16_1422,training+cueing,2021.1.4,59.7573255020275,
Friend.png,Stranger,Friend,m,3.2,19,29,99,,,,,1,0,1,0,,,,,1,7,19,5,,,,,,,,,,,,,,,,,,,,,1.528,2.086,649.9609155999933,None,,,,,,,,,,,,,,,,,,,,650.5024086999911,651.0055423000013,0.5050803999911295,1.0053423999925144,650.9888592999923,651.1055689999921,650.9888592999923,651.1055689999921,651.0888433999935,None,m,1,0.790860099994461,651.0888433999935,None,,,,,m,49,p11,2022_Mar_16_1422,training+cueing,2021.1.4,59.7573255020275,
Self.png,You,Self ,c,1,11,21,91,,,,,1,0,1,0,,,,,1,8,20,9,,,,,,,,,,,,,,,,,,,,,1.776,1.893,652.0118075999926,None,,,,,,,,,,,,,,,,,,,,652.5508166999934,653.0569844999991,0.5092550000117626,1.0095210000145016,653.0403231999953,653.1403697999922,653.0403231999953,653.1403697999922,653.1403697999922,None,c,1,0.6753384000039659,653.1403697999922,None,,,,,m,49,p11,2022_Mar_16_1422,training+cueing,2021.1.4,59.7573255020275,
Stranger.png,Stranger,Stranger,c,3,13,23,93,,,,,1,0,1,0,,,,,1,9,21,11,,,,,,,,,,,,,,,,,,,,,1.44,2.343,653.9477714999957,None,,,,,,,,,,,,,,,,,,,,654.4900194999937,654.9916665999917,0.5045524000161095,1.0050236000097357,654.9750409999979,655.0917768999934,654.9750409999979,655.0917768999934,655.0750784999982,None,c,1,1.316663999998127,655.0750784999982,None,,,,,m,49,p11,2022_Mar_16_1422,training+cueing,2021.1.4,59.7573255020275,
Friend.png,Friend,Friend,c,2,12,22,92,,,,,1,0,1,0,,,,,1,10,22,10,,,,,,,,,,,,,,,,,,,,,1.476,1.354,656.5171204999933,None,,,,,,,,,,,,,,,,,,,,657.0579709000012,657.5602603000007,0.5040379000129178,1.0046667000133311,657.5435729000019,657.660447599992,657.5435729000019,657.660447599992,657.6436174999981,None,c,1,0.7641177999903448,657.6436174999981,None,,,,,m,49,p11,2022_Mar_16_1422,training+cueing,2021.1.4,59.7573255020275,
Friend.png,Friend,Friend,c,2,12,22,92,,,,,1,0,1,0,,,,,1,11,23,4,,,,,,,,,,,,,,,,,,,,,1.529,2.352,658.534444799996,None,,,,,,,,,,,,,,,,,,,,659.072145099999,659.5783915999928,0.5106842999957735,1.0110439999989467,659.5617447999975,659.6784387999942,659.5617447999975,659.6784387999942,659.6617433999927,None,c,1,0.5859567000006791,659.6617433999927,None,,,,,m,49,p11,2022_Mar_16_1422,training+cueing,2021.1.4,59.7573255020275,
Friend.png,Friend,Friend,c,2,12,22,92,,,,,1,0,1,0,,,,,2,0,24,10,,,,,,,,,,,,,,,,,,,,,1.793,1.219,660.3862097999954,None,,,,,,,,,,,,,,,,,,,,660.9233093999937,661.4297053999908,0.5121441999945091,1.0124333999992814,661.4130510999967,661.5297796999948,661.4130510999967,661.5297796999948,661.5130705999909,None,c,1,0.5906049000041094,661.5130705999909,None,,,,,m,49,p11,2022_Mar_16_1422,training+cueing,2021.1.4,59.7573255020275,
Stranger.png,Friend,Stranger,m,2.3,17,27,97,,,,,1,0,1,0,,,,,2,1,25,7,,,,,,,,,,,,,,,,,,,,,1.633,1.78,662.2369174999913,None,,,,,,,,,,,,,,,,,,,,662.7757418999972,663.2810770999931,0.5109484999993583,1.0112609000061639,663.2643741999927,663.3811050999939,663.2643741999927,663.3811050999939,663.3644383999927,None,m,1,0.8512990999879548,663.3644383999927,None,,,,,m,49,p11,2022_Mar_16_1422,training+cueing,2021.1.4,59.7573255020275,
Self.png,You,Self ,c,1,11,21,91,,,,,1,0,1,0,,,,,2,2,26,0,,,,,,,,,,,,,,,,,,,,,1.443,2.371,664.3375478999951,None,,,,,,,,,,,,,,,,,,,,664.8782789999968,665.3825816999888,0.5065362000023015,1.0068299999984447,665.3659075999894,665.4659537999978,665.3659075999894,665.4659537999978,665.4659537999978,None,c,1,0.7017642999999225,665.4659537999978,None,,,,,m,49,p11,2022_Mar_16_1422,training+cueing,2021.1.4,59.7573255020275,
Friend.png,Friend,Friend,c,2,12,22,92,,,,,1,0,1,0,,,,,2,3,27,4,,,,,,,,,,,,,,,,,,,,,1.766,1.328,666.2893394999992,None,,,,,,,,,,,,,,,,,,,,666.8440810999891,667.3506782999902,0.5144634000171209,1.0147954000130994,667.3339814999927,667.4507044999918,667.3339814999927,667.4507044999918,667.4340253999981,None,c,1,0.6216356999939308,667.4340253999981,None,,,,,m,49,p11,2022_Mar_16_1422,training+cueing,2021.1.4,59.7573255020275,
Stranger.png,Stranger,Stranger,c,3,13,23,93,,,,,1,0,1,0,,,,,2,4,28,11,,,,,,,,,,,,,,,,,,,,,1.753,2.034,668.1907904999971,None,,,,,,,,,,,,,,,,,,,,668.7331755999912,669.2354453000007,0.5033817999938037,1.003436099999817,669.2189008999994,669.3354843999987,669.2189008999994,669.3354843999987,669.3187419000024,None,c,1,0.7848920999967959,669.3187419000024,None,,,,,m,49,p11,2022_Mar_16_1422,training+cueing,2021.1.4,59.7573255020275,
Stranger.png,You,Stranger,m,1.3,15,25,95,,,,,1,0,1,0,,,,,2,5,29,6,,,,,,,,,,,,,,,,,,,,,1.784,2.461,670.2255933999986,None,,,,,,,,,,,,,,,,,,,,670.7660956999898,671.2701885999995,0.5082024000148522,1.0084757000149693,671.2535232999944,671.3535429999902,671.2535232999944,671.3535429999902,671.3535429999902,None,m,1,0.9581536000041524,671.3535429999902,None,,,,,m,49,p11,2022_Mar_16_1422,training+cueing,2021.1.4,59.7573255020275,
Self.png,Stranger,Self ,m,3.1,18,28,98,,,,,1,0,1,0,,,,,2,6,30,2,,,,,,,,,,,,,,,,,,,,,1.637,1.704,672.4434085999965,None,,,,,,,,,,,,,,,,,,,,672.9864362999942,673.4884946999955,0.5044882000074722,1.004777299996931,673.4717844999977,673.588636799992,673.4717844999977,673.588636799992,673.5718239999987,None,m,1,0.8359303000033833,673.5718239999987,None,,,,,m,49,p11,2022_Mar_16_1422,training+cueing,2021.1.4,59.7573255020275,
Self.png,Friend,Self ,m,2.1,16,26,96,,,,,1,0,1,0,,,,,2,7,31,1,,,,,,,,,,,,,,,,,,,,,1.458,1.633,674.5457324000017,None,,,,,,,,,,,,,,,,,,,,675.0852656999923,675.5902194999944,0.5068789000069955,1.007162400012021,675.5733246000018,675.6900565999968,675.5733246000018,675.6900565999968,675.6733467000013,None,m,1,1.0062589000008302,675.6733467000013,None,,,,,m,49,p11,2022_Mar_16_1422,training+cueing,2021.1.4,59.7573255020275,
Stranger.png,Stranger,Stranger,c,3,13,23,93,,,,,1,0,1,0,,,,,2,8,32,8,,,,,,,,,,,,,,,,,,,,,1.559,1.826,676.8133325999952,None,,,,,,,,,,,,,,,,,,,,677.3565516999952,677.8583029000001,0.5042736000032164,1.004809899997781,677.8416118999885,677.9588889000006,677.8416118999885,677.9588889000006,677.9421885999909,None,c,1,0.9935591000103159,677.9421885999909,None,,,,,m,49,p11,2022_Mar_16_1422,training+cueing,2021.1.4,59.7573255020275,
Friend.png,Stranger,Friend,m,3.2,19,29,99,,,,,1,0,1,0,,,,,2,9,33,5,,,,,,,,,,,,,,,,,,,,,1.612,2.236,679.0670181999885,None,,,,,,,,,,,,,,,,,,,,679.6064847999951,680.1099242999917,0.5070973000110826,1.0074197000067215,680.0932381999883,680.2099985999957,680.0932381999883,680.2099985999957,680.1932710999972,None,m,1,0.9344393000064883,680.1932710999972,None,,,,,m,49,p11,2022_Mar_16_1422,training+cueing,2021.1.4,59.7573255020275,
Friend.png,You,Friend,m,1.2,14,24,94,,,,,1,0,1,0,,,,,2,10,34,3,,,,,,,,,,,,,,,,,,,,,1.62,1.67,681.2497145999951,None,,,,,,,,,,,,,,,,,,,,681.7898513999971,682.2948441999906,0.5073275000177091,1.007613500012667,682.2781601000024,682.378217599995,682.2781601000024,682.378217599995,682.378217599995,None,m,1,0.7654751000081887,682.378217599995,None,,,,,m,49,p11,2022_Mar_16_1422,training+cueing,2021.1.4,59.7573255020275,
Self.png,You,Self ,c,1,11,21,91,,,,,1,0,1,0,,,,,2,11,35,9,,,,,,,,,,,,,,,,,,,,,1.748,1.888,683.2683286999963,None,,,,,,,,,,,,,,,,,,,,683.8079072999972,684.3129965999979,0.5102769000077387,1.011140600006911,684.2963062999916,684.3963575999951,684.2963062999916,684.3963575999951,684.3963575999951,None,c,1,0.9075058000016725,684.3963575999951,None,,,,,m,49,p11,2022_Mar_16_1422,training+cueing,2021.1.4,59.7573255020275,
Self.png,Stranger,Self ,m,3.1,18,28,98,,,,,1,0,1,0,,,,,3,0,36,2,,,,,,,,,,,,,,,,,,,,,1.747,1.827,685.4398695999989,None,,,,,,,,,,,,,,,,,,,,685.9789505999943,686.4811833999993,0.5023083999985829,1.0028562999941641,686.4645262999984,686.5817572999949,686.4645262999984,686.5817572999949,686.5646090999944,None,m,1,0.915137699994375,686.5646090999944,None,,,,,m,49,p11,2022_Mar_16_1422,training+cueing,2021.1.4,59.7573255020275,
Self.png,You,Self ,c,1,11,21,91,,,,,1,0,1,0,,,,,3,1,37,0,,,,,,,,,,,,,,,,,,,,,1.787,2.121,687.6066471999948,None,,,,,,,,,,,,,,,,,,,,688.147566899992,688.6494624999905,0.5048691000120016,1.005142900015926,688.632784699992,688.7327869000001,688.632784699992,688.7327869000001,688.7327869000001,None,c,1,0.6828292999998666,688.7327869000001,None,,,,,m,49,p11,2022_Mar_16_1422,training+cueing,2021.1.4,59.7573255020275,
Stranger.png,Friend,Stranger,m,2.3,17,27,97,,,,,1,0,1,0,,,,,3,2,38,7,,,,,,,,,,,,,,,,,,,,,1.693,1.372,689.538910999996,None,,,,,,,,,,,,,,,,,,,,690.081465700001,690.5842496999976,0.5061695000040345,1.0064673000015318,690.5675027999969,690.6842354999972,690.5675027999969,690.6842354999972,690.6675377999927,None,m,1,0.9881688000023132,690.6675377999927,None,,,,,m,49,p11,2022_Mar_16_1422,training+cueing,2021.1.4,59.7573255020275,
Stranger.png,You,Stranger,m,1.3,15,25,95,,,,,1,0,1,0,,,,,3,3,39,6,,,,,,,,,,,,,,,,,,,,,1.417,1.411,691.791258199999,None,,,,,,,,,,,,,,,,,,,,692.3317651999969,692.8358329999901,0.5055348000023514,1.0057806999975583,692.8191900999955,692.9192137999926,692.8191900999955,692.9192137999926,692.9192137999926,None,m,1,0.7365302000107476,692.9192137999926,None,,,,,m,49,p11,2022_Mar_16_1422,training+cueing,2021.1.4,59.7573255020275,
Friend.png,Stranger,Friend,m,3.2,19,29,99,,,,,1,0,1,0,,,,,3,4,40,5,,,,,,,,,,,,,,,,,,,,,1.715,1.875,693.7922441999981,None,,,,,,,,,,,,,,,,,,,,694.3349992000003,694.8372653999977,0.5057660000165924,1.0060586000181502,694.8205943999928,694.9373105999985,694.8205943999928,694.9373105999985,694.9206309000001,None,m,1,0.8471217999904184,694.9206309000001,None,,,,,m,49,p11,2022_Mar_16_1422,training+cueing,2021.1.4,59.7573255020275,
Stranger.png,Stranger,Stranger,c,3,13,23,93,,,,,1,0,1,0,,,,,3,5,41,11,,,,,,,,,,,,,,,,,,,,,1.735,1.994,695.8940501999896,None,,,,,,,,,,,,,,,,,,,,696.4326408999914,696.9389513999922,0.5109893000189913,1.0112723000202095,696.9221082000004,697.0388468000019,696.9221082000004,697.0388468000019,697.0221680999966,None,c,1,0.8894696999923326,697.0221680999966,None,,,,,m,49,p11,2022_Mar_16_1422,training+cueing,2021.1.4,59.7573255020275,
Self.png,Friend,Self ,m,2.1,16,26,96,,,,,1,0,1,0,,,,,3,6,42,1,,,,,,,,,,,,,,,,,,,,,1.536,1.895,698.0458088000014,None,,,,,,,,,,,,,,,,,,,,698.5864132999995,699.0903539999999,0.5058980000030715,1.0062293999944814,699.0736640999967,699.1903872999974,699.0736640999967,699.1903872999974,699.1737403000006,None,m,1,0.7859453999990365,699.1737403000006,None,,,,,m,49,p11,2022_Mar_16_1422,training+cueing,2021.1.4,59.7573255020275,
Self.png,You,Self ,c,1,11,21,91,,,,,1,0,1,0,,,,,3,7,43,9,,,,,,,,,,,,,,,,,,,,,1.626,1.486,700.0971960999887,None,,,,,,,,,,,,,,,,,,,,700.6532242999965,701.1585164999997,0.5102777000138303,1.0105940000066767,701.1418394999928,701.2418935999885,701.1418394999928,701.2418935999885,701.2418935999885,None,c,1,0.7658181000006152,701.2418935999885,None,,,,,m,49,p11,2022_Mar_16_1422,training+cueing,2021.1.4,59.7573255020275,
Friend.png,Friend,Friend,c,2,12,22,92,,,,,1,0,1,0,,,,,3,8,44,4,,,,,,,,,,,,,,,,,,,,,1.505,1.794,702.1316095999937,None,,,,,,,,,,,,,,,,,,,,702.6721671999985,703.176647299988,0.5064019999990705,1.0067147000081604,703.1599669999996,703.2766723999957,703.1599669999996,703.2766723999957,703.2600192999962,None,c,1,0.6356698000017786,703.2600192999962,None,,,,,m,49,p11,2022_Mar_16_1422,training+cueing,2021.1.4,59.7573255020275,
Friend.png,You,Friend,m,1.2,14,24,94,,,,,1,0,1,0,,,,,3,9,45,3,,,,,,,,,,,,,,,,,,,,,1.724,1.902,704.033615399996,None,,,,,,,,,,,,,,,,,,,,704.5738663999946,705.0780598999991,0.506864900002256,1.0069593000080204,705.0615150999947,705.1614389000024,705.0615150999947,705.1614389000024,705.1614389000024,None,m,1,1.0703595999948448,705.1614389000024,None,,,,,m,49,p11,2022_Mar_16_1422,training+cueing,2021.1.4,59.7573255020275,
Friend.png,Friend,Friend,c,2,12,22,92,,,,,1,0,1,0,,,,,3,10,46,10,,,,,,,,,,,,,,,,,,,,,1.438,2.096,706.368338299988,None,,,,,,,,,,,,,,,,,,,,706.9111055999965,707.4130592000001,0.5039586000202689,1.004271100013284,707.39636839999,707.5130973999912,707.39636839999,707.5130973999912,707.4963749999879,None,c,1,0.7354461999930209,707.4963749999879,None,,,,,m,49,p11,2022_Mar_16_1422,training+cueing,2021.1.4,59.7573255020275,
Stranger.png,Stranger,Stranger,c,3,13,23,93,,,,,1,0,1,0,,,,,3,11,47,8,,,,,,,,,,,,,,,,,,,,,1.64,2.316,708.353160300001,None,,,,,,,,,,,,,,,,,,,,708.8936281999922,709.3978819999902,0.5054060999973444,1.0056628999882378,709.3811821999989,709.4981117999996,709.3811821999989,709.4981117999996,709.481179800001,None,c,1,0.718617099992116,709.481179800001,None,,,,,m,49,p11,2022_Mar_16_1422,training+cueing,2021.1.4,59.7573255020275,
Friend.png,Friend,Friend,c,2,12,22,92,,,,,1,0,1,0,,,,,4,0,48,10,,,,,,,,,,,,,,,,,,,,,1.57,1.929,710.3379597000021,None,,,,,,,,,,,,,,,,,,,,710.8793692999898,711.3825871000008,0.5055488000070909,1.0058345000143163,711.365899299999,711.4826596999919,711.365899299999,711.4826596999919,711.4659423999983,None,m,0,0.6538082000042778,711.4659423999983,None,,,,,m,49,p11,2022_Mar_16_1422,training+cueing,2021.1.4,59.7573255020275,
Friend.png,You,Friend,m,1.2,14,24,94,,,,,1,0,1,0,,,,,4,1,49,3,,,,,,,,,,,,,,,,,,,,,1.47,1.51,712.25576,None,,,,,,,,,,,,,,,,,,,,712.7972521999909,713.300654599996,0.5075145000155317,1.007826600005501,713.2839748999977,713.3840127000003,713.2839748999977,713.3840127000003,713.3840127000003,None,m,1,0.7196783999970648,713.3840127000003,None,,,,,m,49,p11,2022_Mar_16_1422,training+cueing,2021.1.4,59.7573255020275,
Stranger.png,You,Stranger,m,1.3,15,25,95,,,,,1,0,1,0,,,,,4,2,50,6,,,,,,,,,,,,,,,,,,,,,1.638,1.738,714.2409895999881,None,,,,,,,,,,,,,,,,,,,,714.7789457999897,715.2854568999901,0.5108082000078866,1.0110840999986976,715.2687822000007,715.3688264999946,715.2687822000007,715.3688264999946,715.3688264999946,None,m,1,0.894962200007285,715.3688264999946,None,,,,,m,49,p11,2022_Mar_16_1422,training+cueing,2021.1.4,59.7573255020275,
Stranger.png,Friend,Stranger,m,2.3,17,27,97,,,,,1,0,1,0,,,,,4,3,51,7,,,,,,,,,,,,,,,,,,,,,1.586,1.347,716.3920499999949,None,,,,,,,,,,,,,,,,,,,,716.9408708999981,717.453631299999,0.5088382999965688,1.0091534999955911,717.4369841000007,717.5538409000001,717.4369841000007,717.5538409000001,717.5370292000007,None,m,1,0.9507224999979371,717.5370292000007,None,,,,,m,49,p11,2022_Mar_16_1422,training+cueing,2021.1.4,59.7573255020275,
Stranger.png,Stranger,Stranger,c,3,13,23,93,,,,,1,0,1,0,,,,,4,4,52,8,,,,,,,,,,,,,,,,,,,,,1.742,2.175,718.6108393999893,None,,,,,,,,,,,,,,,,,,,,719.2074295999919,719.7219800000021,0.5096441999776289,1.0098886999767274,719.705303900002,719.8220469999942,719.705303900002,719.8220469999942,719.8053308999952,None,c,1,0.7464551999873947,719.8053308999952,None,,,,,m,49,p11,2022_Mar_16_1422,training+cueing,2021.1.4,59.7573255020275,
Self.png,Stranger,Self ,m,3.1,18,28,98,,,,,1,0,1,0,,,,,4,5,53,2,,,,,,,,,,,,,,,,,,,,,1.547,2.174,720.678485700002,None,,,,,,,,,,,,,,,,,,,,721.2175372999918,721.7234282999998,0.511877100012498,1.012241600008565,721.7067552999943,721.8234736000013,721.7067552999943,721.8234736000013,721.806763399989,None,m,1,0.8409895999939181,721.806763399989,None,,,,,m,49,p11,2022_Mar_16_1422,training+cueing,2021.1.4,59.7573255020275,
Self.png,Friend,Self ,m,2.1,16,26,96,,,,,1,0,1,0,,,,,4,6,54,1,,,,,,,,,,,,,,,,,,,,,1.423,1.202,722.7802740999905,None,,,,,,,,,,,,,,,,,,,,723.322276699997,723.8249776000011,0.5056406000076095,1.0058424000017112,723.8082971999975,723.9250226000004,723.8082971999975,723.9250226000004,723.9083148999925,None,c,0,0.707504499994684,723.9083148999925,None,,,,,m,49,p11,2022_Mar_16_1422,training+cueing,2021.1.4,59.7573255020275,
Self.png,You,Self ,c,1,11,21,91,,,,,1,0,1,0,,,,,4,7,55,9,,,,,,,,,,,,,,,,,,,,,1.59,1.386,724.7479155999899,None,,,,,,,,,,,,,,,,,,,,725.2890008999966,725.7930651999923,0.5066196999978274,1.0074682999984361,725.7763956999988,725.8764162000007,725.7763956999988,725.8764162000007,725.8764162000007,None,c,1,0.49940120000974275,725.8764162000007,None,,,,,m,49,p11,2022_Mar_16_1422,training+cueing,2021.1.4,59.7573255020275,
Stranger.png,Stranger,Stranger,c,3,13,23,93,,,,,1,0,1,0,,,,,4,8,56,11,,,,,,,,,,,,,,,,,,,,,1.778,2.145,726.5004172999907,None,,,,,,,,,,,,,,,,,,,,727.0409816999891,727.5443260999891,0.505501199993887,1.0058051999949384,727.5276332999929,727.6443921999889,727.5276332999929,727.6443921999889,727.6276586000022,None,c,1,1.2120677000057185,727.6276586000022,None,,,,,m,49,p11,2022_Mar_16_1422,training+cueing,2021.1.4,59.7573255020275,
Friend.png,Stranger,Friend,m,3.2,19,29,99,,,,,1,0,1,0,,,,,4,9,57,5,,,,,,,,,,,,,,,,,,,,,1.532,2.105,728.9681726999988,None,,,,,,,,,,,,,,,,,,,,729.5067541999888,730.0127547000011,0.5106292000127723,1.0109537000098499,729.9960923999897,730.1128272999922,729.9960923999897,730.1128272999922,730.0961286999955,None,m,1,0.9356106000050204,730.0961286999955,None,,,,,m,49,p11,2022_Mar_16_1422,training+cueing,2021.1.4,59.7573255020275,
Self.png,You,Self ,c,1,11,21,91,,,,,1,0,1,0,,,,,4,10,58,0,,,,,,,,,,,,,,,,,,,,,1.493,1.51,731.1697612999997,None,,,,,,,,,,,,,,,,,,,,731.7081125999975,732.2143578999967,0.5100164000177756,1.0109061000111979,732.1976758999954,732.2977250999975,732.1976758999954,732.2977250999975,732.2977250999975,None,c,1,0.8621814999933122,732.2977250999975,None,,,,,m,49,p11,2022_Mar_16_1422,training+cueing,2021.1.4,59.7573255020275,
Friend.png,Friend,Friend,c,2,12,22,92,,,,,1,0,1,0,,,,,4,11,59,4,,,,,,,,,,,,,,,,,,,,,1.554,1.428,733.2890767999925,None,,,,,,,,,,,,,,,,,,,,733.8364080999891,734.3492425000004,0.5093956000055186,1.0096916000038618,734.3325639999966,734.4493367999967,734.3325639999966,734.4493367999967,734.432625299989,None,c,1,0.5991294999985257,734.432625299989,None,,,,,m,49,p11,2022_Mar_16_1422,training+cueing,2021.1.4,59.7573255020275,
Stranger.png,You,Stranger,m,1.3,15,25,95,,,,,1,0,1,0,,,,,5,0,60,6,,,,,,,,,,,,,,,,,,,,,1.459,2.128,735.1561089000024,None,,,,,,,,,,,,,,,,,,,,735.6964308000024,736.2006277999899,0.5064324000122724,1.0067322000104468,736.1839096999902,736.2839335999888,736.1839096999902,736.2839335999888,736.2839335999888,None,m,1,0.8278763999987859,736.2839335999888,None,,,,,m,49,p11,2022_Mar_16_1422,training+cueing,2021.1.4,59.7573255020275,
Friend.png,Friend,Friend,c,2,12,22,92,,,,,1,0,1,0,,,,,5,1,61,10,,,,,,,,,,,,,,,,,,,,,1.671,1.717,737.2408729000017,None,,,,,,,,,,,,,,,,,,,,737.7818123999896,738.2854287999944,0.506320800006506,1.0065950000134762,738.2687708000012,738.3854869999923,738.2687708000012,738.3854869999923,738.3687722999894,None,c,1,0.6789919000002556,738.3687722999894,None,,,,,m,49,p11,2022_Mar_16_1422,training+cueing,2021.1.4,59.7573255020275,
Stranger.png,Stranger,Stranger,c,3,13,23,93,,,,,1,0,1,0,,,,,5,2,62,8,,,,,,,,,,,,,,,,,,,,,1.509,1.886,739.175107099989,None,,,,,,,,,,,,,,,,,,,,739.7170012999995,740.2201719000004,0.5046875999978511,1.0049672000022838,740.2035016000009,740.3202321999997,740.2035016000009,740.3202321999997,740.3035271999979,None,c,1,0.8403601999889361,740.3035271999979,None,,,,,m,49,p11,2022_Mar_16_1422,training+cueing,2021.1.4,59.7573255020275,
Friend.png,Friend,Friend,c,2,12,22,92,,,,,1,0,1,0,,,,,5,3,63,4,,,,,,,,,,,,,,,,,,,,,1.733,1.529,741.2770569999993,None,,,,,,,,,,,,,,,,,,,,741.8176979999989,742.3216637000005,0.5059463999932632,1.0062977000052342,742.3050249999942,742.4217387999961,742.3050249999942,742.4217387999961,742.4050267999992,None,c,1,0.6107188000023598,742.4050267999992,None,,,,,m,49,p11,2022_Mar_16_1422,training+cueing,2021.1.4,59.7573255020275,
Self.png,Stranger,Self ,m,3.1,18,28,98,,,,,1,0,1,0,,,,,5,4,64,2,,,,,,,,,,,,,,,,,,,,,1.531,1.532,743.1451957999961,None,,,,,,,,,,,,,,,,,,,,743.6874409000011,744.1897228000016,0.5041086000128416,1.0043994000152452,744.1730616999994,744.2897601000004,744.1730616999994,744.2897601000004,744.2730834999966,None,m,1,0.8066669999971054,744.2730834999966,None,,,,,m,49,p11,2022_Mar_16_1422,training+cueing,2021.1.4,59.7573255020275,
Self.png,Friend,Self ,m,2.1,16,26,96,,,,,1,0,1,0,,,,,5,5,65,1,,,,,,,,,,,,,,,,,,,,,1.622,1.835,745.2127881999913,None,,,,,,,,,,,,,,,,,,,,745.755201299995,746.2578745999926,0.5056095000036294,1.0058888000057777,746.2411973999988,746.357938599991,746.2411973999988,746.357938599991,746.3412761999934,None,m,1,1.026492999997572,746.3412761999934,None,,,,,m,49,p11,2022_Mar_16_1422,training+cueing,2021.1.4,59.7573255020275,
Friend.png,Stranger,Friend,m,3.2,19,29,99,,,,,1,0,1,0,,,,,5,6,66,5,,,,,,,,,,,,,,,,,,,,,1.401,2.344,747.4982636999921,None,,,,,,,,,,,,,,,,,,,,748.0390898999904,748.5429111999983,0.504688700006227,1.0049923000042327,748.5262083999987,748.6429835000017,748.5262083999987,748.6429835000017,748.6262385000009,None,m,1,0.837500399997225,748.6262385000009,None,,,,,m,49,p11,2022_Mar_16_1422,training+cueing,2021.1.4,59.7573255020275,
Stranger.png,Stranger,Stranger,c,3,13,23,93,,,,,1,0,1,0,,,,,5,7,67,11,,,,,,,,,,,,,,,,,,,,,1.71,2.281,749.5997027999983,None,,,,,,,,,,,,,,,,,,,,750.1380962999974,750.6444090000005,0.5123415999987628,1.0126291000051424,750.6277174999996,750.7444370000012,750.6277174999996,750.7444370000012,750.7277497999894,None,c,1,0.8160361999907764,750.7277497999894,None,,,,,m,49,p11,2022_Mar_16_1422,training+cueing,2021.1.4,59.7573255020275,
Friend.png,You,Friend,m,1.2,14,24,94,,,,,1,0,1,0,,,,,5,8,68,3,,,,,,,,,,,,,,,,,,,,,1.575,1.887,751.6673180999933,None,,,,,,,,,,,,,,,,,,,,752.208226799994,752.7125094999938,0.5066181000001961,1.0069008999998914,752.6958835999976,752.7959343999973,752.6958835999976,752.7959343999973,752.7959343999973,None,m,1,1.3398146999970777,752.7959343999973,None,,,,,m,49,p11,2022_Mar_16_1422,training+cueing,2021.1.4,59.7573255020275,
Stranger.png,Friend,Stranger,m,2.3,17,27,97,,,,,1,0,1,0,,,,,5,9,69,7,,,,,,,,,,,,,,,,,,,,,1.573,1.869,754.2695889999886,None,,,,,,,,,,,,,,,,,,,,754.8309952999989,755.3311245999939,0.5008763000078034,1.0012089000083506,755.3144321,755.4311761999998,755.3144321,755.4311761999998,755.4311761999998,None,None,0,,755.4311761999998,None,,,,,m,49,p11,2022_Mar_16_1422,training+cueing,2021.1.4,59.7573255020275,
Self.png,You,Self ,c,1,11,21,91,,,,,1,0,1,0,,,,,5,10,70,0,,,,,,,,,,,,,,,,,,,,,1.638,1.219,757.1194124999893,None,,,,,,,,,,,,,,,,,,,,757.6642436999973,758.1665061999956,0.5054846999992151,1.005779299986898,758.1498262999958,758.2498841999914,758.1498262999958,758.2498841999914,758.2498841999914,None,c,1,0.6218410000001313,758.2498841999914,None,,,,,m,49,p11,2022_Mar_16_1422,training+cueing,2021.1.4,59.7573255020275,
Self.png,You,Self ,c,1,11,21,91,,,,,1,0,1,0,,,,,5,11,71,9,,,,,,,,,,,,,,,,,,,,,1.734,1.948,759.0067427999893,None,,,,,,,,,,,,,,,,,,,,759.5451655999932,760.051215799991,0.5098770000040531,1.010169200002565,760.0345210999949,760.1345868999924,760.0345210999949,760.1345868999924,760.1345868999924,None,c,1,1.18527639999229,760.1345868999924,None,,,,,m,49,p11,2022_Mar_16_1422,training+cueing,2021.1.4,59.7573255020275,
Stranger.png,Friend,Stranger,m,2.3,17,27,97,,,,,1,0,1,0,,,,,6,0,72,7,,,,,,,,,,,,,,,,,,,,,1.595,2.203,761.4419715999975,None,,,,,,,,,,,,,,,,,,,,761.9832152999879,762.4862896999985,0.505271799993352,1.005584300000919,762.4696238999895,762.5863528999907,762.4696238999895,762.5863528999907,762.5696588999999,None,m,1,0.9741125000000466,762.5696588999999,None,,,,,m,49,p11,2022_Mar_16_1422,training+cueing,2021.1.4,59.7573255020275,
Stranger.png,Stranger,Stranger,c,3,13,23,93,,,,,1,0,1,0,,,,,6,1,73,8,,,,,,,,,,,,,,,,,,,,,1.497,2.393,763.6772186000017,None,,,,,,,,,,,,,,,,,,,,764.2175045999902,764.7212499000016,0.5079914000089047,1.0083008000074187,764.704562599989,764.8213381999958,764.704562599989,764.8213381999958,764.8046094999881,None,c,1,1.0911722999881022,764.8046094999881,None,,,,,m,49,p11,2022_Mar_16_1422,training+cueing,2021.1.4,59.7573255020275,
Friend.png,Friend,Friend,c,2,12,22,92,,,,,1,0,1,0,,,,,6,2,74,4,,,,,,,,,,,,,,,,,,,,,1.569,1.903,766.0285598999908,None,,,,,,,,,,,,,,,,,,,,766.5690228000021,767.0729678999924,0.5049668999854475,1.005234299984295,767.0563065000024,767.1730215999996,767.0563065000024,767.1730215999996,767.1563184999977,None,c,1,0.7074412999936612,767.1563184999977,None,,,,,m,49,p11,2022_Mar_16_1422,training+cueing,2021.1.4,59.7573255020275,
Self.png,Stranger,Self ,m,3.1,18,28,98,,,,,1,0,1,0,,,,,6,3,75,2,,,,,,,,,,,,,,,,,,,,,1.765,1.692,767.9959702999913,None,,,,,,,,,,,,,,,,,,,,768.5388857999933,769.0410452999931,0.5049446000193711,1.0052915000123903,769.0243792999972,769.1411178999988,769.0243792999972,769.1411178999988,769.124476099998,None,m,1,0.6273128999891924,769.124476099998,None,,,,,m,49,p11,2022_Mar_16_1422,training+cueing,2021.1.4,59.7573255020275,
Self.png,You,Self ,c,1,11,21,91,,,,,1,0,1,0,,,,,6,4,76,0,,,,,,,,,,,,,,,,,,,,,1.596,2.282,769.8813147999899,None,,,,,,,,,,,,,,,,,,,,770.4365997999994,770.9424519999884,0.5100837999925716,1.0103283999924315,770.9258019999979,771.0258122999949,770.9258019999979,771.0258122999949,771.0258122999949,None,c,1,0.6459725000022445,771.0258122999949,None,,,,,m,49,p11,2022_Mar_16_1422,training+cueing,2021.1.4,59.7573255020275,
Friend.png,Stranger,Friend,m,3.2,19,29,99,,,,,1,0,1,0,,,,,6,5,77,5,,,,,,,,,,,,,,,,,,,,,1.496,2.45,771.7995786999963,None,,,,,,,,,,,,,,,,,,,,772.340174099998,772.8437873999937,0.5078521000104956,1.0081439000059618,772.8271442999976,772.9438657999999,772.8271442999976,772.9438657999999,772.9271842000016,None,m,1,0.9686414000025252,772.9271842000016,None,,,,,m,49,p11,2022_Mar_16_1422,training+cueing,2021.1.4,59.7573255020275,
Self.png,You,Self ,c,1,11,21,91,,,,,1,0,1,0,,,,,6,6,78,9,,,,,,,,,,,,,,,,,,,,,1.447,1.591,774.0343762999983,None,,,,,,,,,,,,,,,,,,,,774.5760652999888,775.0787588999956,0.5060487000009743,1.0063342000066768,775.062099799994,775.1621397999988,775.062099799994,775.1621397999988,775.1621397999988,None,c,1,0.6216825000010431,775.1621397999988,None,,,,,m,49,p11,2022_Mar_16_1422,training+cueing,2021.1.4,59.7573255020275,
Stranger.png,Stranger,Stranger,c,3,13,23,93,,,,,1,0,1,0,,,,,6,7,79,11,,,,,,,,,,,,,,,,,,,,,1.78,1.504,775.9189252999931,None,,,,,,,,,,,,,,,,,,,,776.4600202000001,776.9634571999923,0.5041836999880616,1.0044764999911422,776.9467922999902,777.063530799991,776.9467922999902,777.063530799991,777.0468370000017,None,m,0,0.6889021999959368,777.0468370000017,None,,,,,m,49,p11,2022_Mar_16_1422,training+cueing,2021.1.4,59.7573255020275,
Friend.png,You,Friend,m,1.2,14,24,94,,,,,1,0,1,0,,,,,6,8,80,3,,,,,,,,,,,,,,,,,,,,,1.787,1.862,777.8708161999966,None,,,,,,,,,,,,,,,,,,,,778.410756799989,778.9149037999887,0.5068234000063967,1.0070722999953432,778.8982573999965,778.9982442999899,778.8982573999965,778.9982442999899,778.9982442999899,None,m,1,0.9615436000021873,778.9982442999899,None,,,,,m,49,p11,2022_Mar_16_1422,training+cueing,2021.1.4,59.7573255020275,
Friend.png,Friend,Friend,c,2,12,22,92,,,,,1,0,1,0,,,,,6,9,81,10,,,,,,,,,,,,,,,,,,,,,1.434,2.008,780.0886497999891,None,,,,,,,,,,,,,,,,,,,,780.6314814999932,781.1331768999953,0.5043877999996766,1.0046145999949658,781.11653259999,781.2332004999917,781.11653259999,781.2332004999917,781.2165249999962,None,c,1,0.6472719000012148,781.2165249999962,None,,,,,m,49,p11,2022_Mar_16_1422,training+cueing,2021.1.4,59.7573255020275,
Self.png,Friend,Self ,m,2.1,16,26,96,,,,,1,0,1,0,,,,,6,10,82,1,,,,,,,,,,,,,,,,,,,,,1.546,1.773,781.9894205999881,None,,,,,,,,,,,,,,,,,,,,782.5281670999975,783.0345388999995,0.5098851000075229,1.0102098000061233,783.0178241999965,783.1345557000022,783.0178241999965,783.1345557000022,783.1178998999967,None,m,1,1.0339792000013404,783.1178998999967,None,,,,,m,49,p11,2022_Mar_16_1422,training+cueing,2021.1.4,59.7573255020275,
Stranger.png,You,Stranger,m,1.3,15,25,95,,,,,1,0,1,0,,,,,6,11,83,6,,,,,,,,,,,,,,,,,,,,,1.674,1.346,784.2744882999978,None,,,,,,,,,,,,,,,,,,,,784.8258843999938,785.336223899998,0.5026606000028551,1.0029794000001857,785.3195425000013,785.4195888999966,785.3195425000013,785.4195888999966,785.4195888999966,None,m,1,0.8762507999927038,785.4195888999966,None,,,,,m,49,p11,2022_Mar_16_1422,training+cueing,2021.1.4,59.7573255020275,
Stranger.png,Stranger,Stranger,c,3,13,23,93,,,,,1,0,1,0,,,,,7,0,84,11,,,,,,,,,,,,,,,,,,,,,1.471,2.153,786.4260875999898,None,,,,,,,,,,,,,,,,,,,,786.967856999996,787.4710923999955,0.502979700017022,1.0032786000083433,787.4544064999936,787.5711527999956,787.4544064999936,787.5711527999956,787.5544365999958,None,c,1,0.7573914999957196,787.5544365999958,None,,,,,m,49,p11,2022_Mar_16_1422,training+cueing,2021.1.4,59.7573255020275,
