Image,Name,Face,CorrAns,Match,Face_onset,CResponse_onset,IResponse_onset,Match.thisRepN,Match.thisTrialN,Match.thisN,Match.thisIndex,Blocks.thisRepN,Blocks.thisTrialN,Blocks.thisN,Blocks.thisIndex,trials.thisRepN,trials.thisTrialN,trials.thisN,trials.thisIndex,trials_2.thisRepN,trials_2.thisTrialN,trials_2.thisN,trials_2.thisIndex,text.started,text.stopped,p1.started,p1.stopped,MatchInstructions.started,MatchInstructions.stopped,Name1.started,Name1.stopped,Face_Relevance.started,Face_Relevance.stopped,MismatchInstructions.started,MismatchInstructions.stopped,Rest_trainingInstruct.started,Rest_trainingInstruct.stopped,next8.keys,next8.rt,next8.started,next8.stopped,Ready.started,Ready.stopped,delay_one_picked,delay_two_picked,blank0.started,blank0.stopped,FixationCross1.started,FixationCross1.stopped,Name3.started,Name3.stopped,Face_Relevance3.started,Face_Relevance3.stopped,responseTime.started,responseTime.stopped,resp.keys,resp.corr,resp.started,resp.stopped,Accuracy.started,Accuracy.stopped,resp.rt,questions.started,questions.stopped,p2.started,p2.stopped,FixationCross3.started,FixationCross3.stopped,port_Face_onset.started,port_Face_onset.stopped,Name4.started,Name4.stopped,Face_Relevance4.started,Face_Relevance4.stopped,responseTime2.started,responseTime2.stopped,Response.keys,Response.corr,Response.rt,Response.started,Response.stopped,p3.started,p3.stopped,Finish.started,Finish.stopped,gender,age,participant,date,expName,psychopyVersion,frameRate,
Self.png,You,,,,,,,0,0,0,0,,,,,,,,,,,,,15.498381500001415,None,0.012664169989875518,0.5270680699904915,25.705234600005497,None,41.5004270999998,None,41.5004270999998,None,,,,,,,,,,,,,,,,,,,,,,,,,,,,,,,,,,,,,,,,,,,,,,,,,,,,,,,p12,2022_Apr_13_1117,training+cueing,2021.1.4,59.953943382463436,
Stranger.png,Stranger,,,,,,,0,1,1,2,,,,,,,,,,,,,,,,,,,61.40818960000615,None,61.40818960000615,None,,,,,,,,,,,,,,,,,,,,,,,,,,,,,,,,,,,,,,,,,,,,,,,,,,,,,,,p12,2022_Apr_13_1117,training+cueing,2021.1.4,59.953943382463436,
Friend.png,Friend,,,,,,,0,2,2,1,,,,,,,,,,,,,,,,,,,81.41186930000549,None,81.41186930000549,None,,,,,,,,,,,,,,,,,,,,,,,,,,,,,,,,,,,,,,,,,,,,,,,,,,,,,,,p12,2022_Apr_13_1117,training+cueing,2021.1.4,59.953943382463436,
Friend.png,Friend,Friend,c,2,12,22,92,,,,,0,0,0,0,0,0,0,10,,,,,,,,,,,,,,,101.36050670000259,None,134.80124100000103,None,space,23.5596510999967,2.00799220999761,None,160.36834780000208,None,1.47,1.82,163.38630489999923,None,164.01096930000494,164.5226932000005,164.50602470000013,164.62287550000474,164.50602470000013,164.62287550000474,164.60604160000366,None,None,0,164.60604160000366,None,166.08911980000266,None,,,,,,,,,,,,,,,,,,,,,,,,,,,p12,2022_Apr_13_1117,training+cueing,2021.1.4,59.953943382463436,
Stranger.png,Stranger,Stranger,c,3,13,23,93,,,,,0,0,0,0,0,1,1,8,,,,,,,,,,,,,,,,,,,,,,,,,1.522,1.586,166.4907463000054,None,167.02515549999953,167.52485290000186,167.52485290000186,167.62541010000132,167.52485290000186,167.62541010000132,167.62541010000132,None,c,1,167.62541010000132,None,168.0685145000025,None,0.41679470000235597,,,,,,,,,,,,,,,,,,,,,,,,,,p12,2022_Apr_13_1117,training+cueing,2021.1.4,59.953943382463436,
Friend.png,Friend,Friend,c,2,12,22,92,,,,,0,0,0,0,0,2,2,4,,,,,,,,,,,,,,,,,,,,,,,,,1.451,1.53,168.47558470000513,None,169.00906260000193,169.50961010000174,169.49293940000643,169.6096794000041,169.49293940000643,169.6096794000041,169.6096794000041,None,m,0,169.6096794000041,None,169.90973060000397,None,0.27214030000322964,,,,,,,,,,,,,,,,,,,,,,,,,,p12,2022_Apr_13_1117,training+cueing,2021.1.4,59.953943382463436,
Friend.png,You,Friend,m,1.2,14,24,94,,,,,0,0,0,0,0,3,3,3,,,,,,,,,,,,,,,,,,,,,,,,,1.475,1.963,170.31032330000016,None,170.8477703000026,171.3609465000045,171.3443006000016,171.44434270000056,171.3443006000016,171.44434270000056,171.44434270000056,None,None,0,171.44434270000056,None,172.9288022000037,None,,,,,,,,,,,,,,,,,,,,,,,,,,,p12,2022_Apr_13_1117,training+cueing,2021.1.4,59.953943382463436,
Self.png,You,Self ,c,1,11,21,91,,,,,0,0,0,0,0,4,4,0,,,,,,,,,,,,,,,,,,,,,,,,,1.739,1.94,173.32900710000104,None,173.85900820000097,174.36310620000586,174.34643610000057,174.44649270000082,174.34643610000057,174.44649270000082,174.44649270000082,None,c,1,174.44649270000082,None,175.42925090000062,None,0.9551863999950001,,,,,,,,,,,,,,,,,,,,,,,,,,p12,2022_Apr_13_1117,training+cueing,2021.1.4,59.953943382463436,
Stranger.png,You,Stranger,m,1.3,15,25,95,,,,,0,0,0,0,0,5,5,6,,,,,,,,,,,,,,,,,,,,,,,,,1.714,2.236,175.83096330000262,None,176.36686650000047,176.88166289999936,176.86447500000213,176.96505660000548,176.86447500000213,176.96505660000548,176.96505660000548,None,m,1,176.96505660000548,None,177.46540930000629,None,0.4847096000012243,,,,,,,,,,,,,,,,,,,,,,,,,,p12,2022_Apr_13_1117,training+cueing,2021.1.4,59.953943382463436,
Self.png,Friend,Self ,m,2.1,16,26,96,,,,,0,0,0,0,0,6,6,1,,,,,,,,,,,,,,,,,,,,,,,,,1.694,1.355,177.86570260000008,None,178.41504750000604,178.91642120000324,178.89972000000125,179.0164889000007,178.89972000000125,179.0164889000007,179.0164889000007,None,m,1,179.0164889000007,None,179.8337623000043,None,0.8012572000006912,,,,,,,,,,,,,,,,,,,,,,,,,,p12,2022_Apr_13_1117,training+cueing,2021.1.4,59.953943382463436,
Self.png,You,Self ,c,1,11,21,91,,,,,0,0,0,0,0,7,7,9,,,,,,,,,,,,,,,,,,,,,,,,,1.771,1.415,180.23400070000207,None,180.76641220000602,181.26808960000199,181.2514108000032,181.3514576000016,181.2514108000032,181.3514576000016,181.3514576000016,None,c,1,181.3514576000016,None,181.90189950000058,None,0.5302919000023394,,,,,,,,,,,,,,,,,,,,,,,,,,p12,2022_Apr_13_1117,training+cueing,2021.1.4,59.953943382463436,
Stranger.png,Friend,Stranger,m,2.3,17,27,97,,,,,0,0,0,0,0,8,8,7,,,,,,,,,,,,,,,,,,,,,,,,,1.409,2.037,182.30268920000526,None,182.8427473000047,183.35289890000422,183.33627360000537,183.45300610000413,183.33627360000537,183.45300610000413,183.45300610000413,None,c,0,183.45300610000413,None,184.32280040000478,None,0.8447588999988511,,,,,,,,,,,,,,,,,,,,,,,,,,p12,2022_Apr_13_1117,training+cueing,2021.1.4,59.953943382463436,
Self.png,Stranger,Self ,m,3.1,18,28,98,,,,,0,0,0,0,0,9,9,2,,,,,,,,,,,,,,,,,,,,,,,,,1.464,2.222,184.7376762000058,None,185.2761984000026,185.7880254000047,185.7713584000012,185.8880705000047,185.7713584000012,185.8880705000047,185.87139860000025,None,None,0,185.87139860000025,None,187.33913450000546,None,,,,,,,,,,,,,,,,,,,,,,,,,,,p12,2022_Apr_13_1117,training+cueing,2021.1.4,59.953943382463436,
Friend.png,Stranger,Friend,m,3.2,19,29,99,,,,,0,0,0,0,0,10,10,5,,,,,,,,,,,,,,,,,,,,,,,,,1.588,2.318,187.73941800000466,None,188.26805420000164,188.77351260000432,188.75685180000437,188.87355280000338,188.75685180000437,188.87355280000338,188.8568735000008,None,m,1,188.8568735000008,None,189.42309370000294,None,0.5448663999995915,,,,,,,,,,,,,,,,,,,,,,,,,,p12,2022_Apr_13_1117,training+cueing,2021.1.4,59.953943382463436,
Stranger.png,Stranger,Stranger,c,3,13,23,93,,,,,0,0,0,0,0,11,11,11,,,,,,,,,,,,,,,,,,,,,,,,,1.646,1.302,189.8248334000018,None,190.36331030000292,190.87502750000567,190.85834199999954,190.9750967,190.85834199999954,190.9750967,190.95840450000105,None,m,0,190.95840450000105,None,191.40898190000007,None,0.42729650000546826,,,,,,,,,,,,,,,,,,,,,,,,,,p12,2022_Apr_13_1117,training+cueing,2021.1.4,59.953943382463436,
Friend.png,Friend,Friend,c,2,12,22,92,,,,,0,0,0,0,,,,,0,0,0,4,,,,,,,,,,,,,,,,,,,216.61040019999928,None,1.562,1.98,220.13070800000423,None,,,,,,,,,,,,,,,,191.8091831000056,None,0.014897509987349622,None,220.7353992000062,221.24705209999956,0.5030433799984166,1.0032877799967537,221.23042530000384,221.34713710000506,221.23042530000384,221.34713710000506,221.33052510000562,None,m,0,0.6632089000049746,221.33052510000562,None,,,,,,,p12,2022_Apr_13_1117,training+cueing,2021.1.4,59.953943382463436,
Friend.png,You,Friend,m,1.2,14,24,94,,,,,0,0,0,0,,,,,0,1,1,3,,,,,,,,,,,,,,,,,,,,,1.719,2.344,222.12142180000228,None,,,,,,,,,,,,,,,,,,,,222.66336710000178,223.16507300000376,0.503987429998233,1.0042754300011438,223.14831000000413,223.24846470000193,223.14831000000413,223.24846470000193,223.24846470000193,None,c,0,0.857315599998401,223.24846470000193,None,,,,,,,p12,2022_Apr_13_1117,training+cueing,2021.1.4,59.953943382463436,
Stranger.png,You,Stranger,m,1.3,15,25,95,,,,,0,0,0,0,,,,,0,2,2,6,,,,,,,,,,,,,,,,,,,,,1.481,2.394,224.23830219999945,None,,,,,,,,,,,,,,,,,,,,224.78329150000354,225.2831720000031,0.515429730003234,None,225.2831720000031,225.3832309000063,225.2831720000031,225.3832309000063,225.3832309000063,None,m,1,0.37070329999551177,225.3832309000063,None,,,,,,,p12,2022_Apr_13_1117,training+cueing,2021.1.4,59.953943382463436,
Friend.png,Friend,Friend,c,2,12,22,92,,,,,0,0,0,0,,,,,0,3,3,10,,,,,,,,,,,,,,,,,,,,,1.461,1.751,225.89293270000053,None,,,,,,,,,,,,,,,,,,,,226.43275659999927,226.93437640000047,0.5019710300039151,1.0023014300022624,226.91768530000263,227.0343955000062,226.91768530000263,227.0343955000062,227.01775970000017,None,m,0,0.5119574999989709,227.01775970000017,None,,,,,,,p12,2022_Apr_13_1117,training+cueing,2021.1.4,59.953943382463436,
Self.png,Stranger,Self ,m,3.1,18,28,98,,,,,0,0,0,0,,,,,0,4,4,2,,,,,,,,,,,,,,,,,,,,,1.508,1.269,227.65781609999976,None,,,,,,,,,,,,,,,,,,,,228.199137100004,228.7023298999993,0.505809930000396,1.0060978300025454,228.68565769999987,228.80234200000268,228.68565769999987,228.80234200000268,228.78570559999935,None,m,1,0.9361088000005111,228.78570559999935,None,,,,,,,p12,2022_Apr_13_1117,training+cueing,2021.1.4,59.953943382463436,
Self.png,You,Self ,c,1,11,21,91,,,,,0,0,0,0,,,,,0,5,5,0,,,,,,,,,,,,,,,,,,,,,1.592,1.571,229.85921710000548,None,,,,,,,,,,,,,,,,,,,,230.39992150000035,230.90388380000513,0.5075668299978133,1.0078808300022501,230.88724110000476,230.98728739999933,230.88724110000476,230.98728739999933,230.98728739999933,None,m,0,0.9743702999985544,230.98728739999933,None,,,,,,,p12,2022_Apr_13_1117,training+cueing,2021.1.4,59.953943382463436,
Stranger.png,Stranger,Stranger,c,3,13,23,93,,,,,0,0,0,0,,,,,0,6,6,11,,,,,,,,,,,,,,,,,,,,,1.722,1.334,232.09453159999975,None,,,,,,,,,,,,,,,,,,,,232.63524809999944,233.13897060000454,0.5053906300017843,1.0056861300035962,233.12216730000364,233.23890980000579,233.12216730000364,233.23890980000579,233.22220880000532,None,m,0,1.3314792000019224,233.22220880000532,None,,,,,,,p12,2022_Apr_13_1117,training+cueing,2021.1.4,59.953943382463436,
Friend.png,Stranger,Friend,m,3.2,19,29,99,,,,,0,0,0,0,,,,,0,7,7,5,,,,,,,,,,,,,,,,,,,,,1.405,1.237,234.68037980000372,None,,,,,,,,,,,,,,,,,,,,235.21805410000525,235.7240488000025,0.5120690300027491,1.0123589300055755,235.70738540000457,235.8241041000001,235.70738540000457,235.8241041000001,235.80746440000075,None,None,0,,235.80746440000075,None,,,,,,,p12,2022_Apr_13_1117,training+cueing,2021.1.4,59.953943382463436,
Self.png,You,Self ,c,1,11,21,91,,,,,0,0,0,0,,,,,0,8,8,9,,,,,,,,,,,,,,,,,,,,,1.766,2.08,237.3292333999998,None,,,,,,,,,,,,,,,,,,,,237.88285929999984,238.3926238999993,0.5009858300109045,1.0014873300096951,238.3760007000019,238.47601420000137,238.3760007000019,238.47601420000137,238.47601420000137,None,c,1,0.9417457000017748,238.47601420000137,None,,,,,,,p12,2022_Apr_13_1117,training+cueing,2021.1.4,59.953943382463436,
Stranger.png,Friend,Stranger,m,2.3,17,27,97,,,,,0,0,0,0,,,,,0,9,9,7,,,,,,,,,,,,,,,,,,,,,1.588,1.752,239.54976230000466,None,,,,,,,,,,,,,,,,,,,,240.09011630000168,240.59426480000548,0.5072706299979473,1.0075327300000936,240.57760450000205,240.69445900000574,240.57760450000205,240.69445900000574,240.6776056000017,None,m,1,0.6760227000049781,240.6776056000017,None,,,,,,,p12,2022_Apr_13_1117,training+cueing,2021.1.4,59.953943382463436,
Self.png,Friend,Self ,m,2.1,16,26,96,,,,,0,0,0,0,,,,,0,10,10,1,,,,,,,,,,,,,,,,,,,,,1.651,1.28,241.4845792000051,None,,,,,,,,,,,,,,,,,,,,242.0225258000064,242.52896930000134,0.512001129995042,1.0123177299974486,242.5122782000035,242.62904759999947,242.5122782000035,242.62904759999947,242.6123108000029,None,m,1,0.9013932000016212,242.6123108000029,None,,,,,,,p12,2022_Apr_13_1117,training+cueing,2021.1.4,59.953943382463436,
Stranger.png,Stranger,Stranger,c,3,13,23,93,,,,,0,0,0,0,,,,,0,11,11,8,,,,,,,,,,,,,,,,,,,,,1.793,2.307,243.6373848000003,None,,,,,,,,,,,,,,,,,,,,244.19760569999926,244.69718660000217,0.5134680400005891,1.0143103399968822,244.69718660000217,244.79723360000207,244.69718660000217,244.79723360000207,244.79723360000207,None,m,0,0.7484275999959209,244.79723360000207,None,,,,,,,p12,2022_Apr_13_1117,training+cueing,2021.1.4,59.953943382463436,
Self.png,Stranger,Self ,m,3.1,18,28,98,,,,,0,0,0,0,,,,,1,0,12,2,,,,,,,,,,,,,,,,,,,,,1.788,1.318,245.67186850000144,None,,,,,,,,,,,,,,,,,,,,246.2103081000023,246.71532360000128,0.5088422300032107,1.0091365300031612,246.69864410000446,246.81538040000305,246.69864410000446,246.81538040000305,246.79867090000334,None,m,1,0.9389747000022908,246.79867090000334,None,,,,,,,p12,2022_Apr_13_1117,training+cueing,2021.1.4,59.953943382463436,
Self.png,You,Self ,c,1,11,21,91,,,,,0,0,0,0,,,,,1,1,13,9,,,,,,,,,,,,,,,,,,,,,1.588,1.276,247.8723625000057,None,,,,,,,,,,,,,,,,,,,,248.41310100000555,248.9169258000038,0.5081542300031288,1.0090296299968031,248.90023560000554,249.00034260000393,248.90023560000554,249.00034260000393,249.00034260000393,None,c,1,0.7534401999946567,249.00034260000393,None,,,,,,,p12,2022_Apr_13_1117,training+cueing,2021.1.4,59.953943382463436,
Stranger.png,Stranger,Stranger,c,3,13,23,93,,,,,0,0,0,0,,,,,1,2,14,8,,,,,,,,,,,,,,,,,,,,,1.716,1.547,249.89152180000383,None,,,,,,,,,,,,,,,,,,,,250.4336586000063,250.935017900003,0.5014838299975963,1.001757029996952,250.91837040000246,251.0350755000036,250.91837040000246,251.0350755000036,251.0350755000036,None,m,0,0.7664911999963806,251.0350755000036,None,,,,,,,p12,2022_Apr_13_1117,training+cueing,2021.1.4,59.953943382463436,
Stranger.png,Stranger,Stranger,c,3,13,23,93,,,,,0,0,0,0,,,,,1,3,15,11,,,,,,,,,,,,,,,,,,,,,1.476,2.335,251.92502900000545,None,,,,,,,,,,,,,,,,,,,,252.46348070000386,252.96979830000055,0.5120922300047823,1.0125960300065344,252.95315640000626,253.06987870000012,252.95315640000626,253.06987870000012,253.05319160000363,None,None,0,,253.05319160000363,None,,,,,,,p12,2022_Apr_13_1117,training+cueing,2021.1.4,59.953943382463436,
Friend.png,You,Friend,m,1.2,14,24,94,,,,,0,0,0,0,,,,,1,4,16,3,,,,,,,,,,,,,,,,,,,,,1.656,2.303,254.64206410000043,None,,,,,,,,,,,,,,,,,,,,255.18326510000043,255.68845440000587,0.50760332999198,1.0079450299963355,255.67176680000557,255.7718387999994,255.67176680000557,255.7718387999994,255.7718387999994,None,m,1,1.0537965999974404,255.7718387999994,None,,,,,,,p12,2022_Apr_13_1117,training+cueing,2021.1.4,59.953943382463436,
Self.png,Friend,Self ,m,2.1,16,26,96,,,,,0,0,0,0,,,,,1,5,17,1,,,,,,,,,,,,,,,,,,,,,1.431,2.472,256.9622371000005,None,,,,,,,,,,,,,,,,,,,,257.5029094000056,258.00682800000504,0.5067197299940744,1.0069788299952052,257.9901570000002,258.10685039999953,257.9901570000002,258.10685039999953,258.0901637000061,None,m,1,0.9115614999973332,258.0901637000061,None,,,,,,,p12,2022_Apr_13_1117,training+cueing,2021.1.4,59.953943382463436,
Stranger.png,Friend,Stranger,m,2.3,17,27,97,,,,,0,0,0,0,,,,,1,6,18,7,,,,,,,,,,,,,,,,,,,,,1.74,1.428,259.12971110000217,None,,,,,,,,,,,,,,,,,,,,259.66908310000144,260.1749889000057,0.5118857299967203,1.0121588299953146,260.1583873000054,260.2750739000039,260.1583873000054,260.2750739000039,260.25842200000625,None,m,1,0.9511903000020538,260.25842200000625,None,,,,,,,p12,2022_Apr_13_1117,training+cueing,2021.1.4,59.953943382463436,
Friend.png,Friend,Friend,c,2,12,22,92,,,,,0,0,0,0,,,,,1,7,19,10,,,,,,,,,,,,,,,,,,,,,1.496,1.868,261.3315810999993,None,,,,,,,,,,,,,,,,,,,,261.8809562000024,262.39330560000235,0.5052293299959274,1.0054447299989988,262.3766575000045,262.4933693999992,262.3766575000045,262.4933693999992,262.47669610000594,None,c,1,1.0689849999980652,262.47669610000594,None,,,,,,,p12,2022_Apr_13_1117,training+cueing,2021.1.4,59.953943382463436,
Self.png,You,Self ,c,1,11,21,91,,,,,0,0,0,0,,,,,1,8,20,0,,,,,,,,,,,,,,,,,,,,,1.725,2.231,263.6670521000051,None,,,,,,,,,,,,,,,,,,,,264.2075435000006,264.71163810000144,0.5080435299969395,1.0089880300001823,264.6949225000062,264.79505600000266,264.6949225000062,264.79505600000266,264.79505600000266,None,c,1,0.7666328999985126,264.79505600000266,None,,,,,,,p12,2022_Apr_13_1117,training+cueing,2021.1.4,59.953943382463436,
Friend.png,Stranger,Friend,m,3.2,19,29,99,,,,,0,0,0,0,,,,,1,9,21,5,,,,,,,,,,,,,,,,,,,,,1.652,1.913,265.6913707000058,None,,,,,,,,,,,,,,,,,,,,266.2280174000043,266.7297308000052,0.5044575299980352,1.0047334299961221,266.71311799999967,266.82982300000003,266.71311799999967,266.82982300000003,266.8131580000045,None,m,1,0.636532199998328,266.8131580000045,None,,,,,,,p12,2022_Apr_13_1117,training+cueing,2021.1.4,59.953943382463436,
Friend.png,Friend,Friend,c,2,12,22,92,,,,,0,0,0,0,,,,,1,10,22,4,,,,,,,,,,,,,,,,,,,,,1.542,2.08,267.5866215999995,None,,,,,,,,,,,,,,,,,,,,268.14125530000456,268.6478238000054,0.510710239999753,1.0109830399960629,268.63118300000497,268.7478648000033,268.63118300000497,268.7478648000033,268.7311957000056,None,c,1,0.8944826000006287,268.7311957000056,None,,,,,,,p12,2022_Apr_13_1117,training+cueing,2021.1.4,59.953943382463436,
Stranger.png,You,Stranger,m,1.3,15,25,95,,,,,0,0,0,0,,,,,1,11,23,6,,,,,,,,,,,,,,,,,,,,,1.723,2.399,269.75474609999947,None,,,,,,,,,,,,,,,,,,,,270.29560680000577,270.79939000000013,0.5080560299975332,1.0083141299983254,270.7827114000029,270.8827487000017,270.7827114000029,270.8827487000017,270.8827487000017,None,c,0,1.0147613000008278,270.8827487000017,None,,,,,,,p12,2022_Apr_13_1117,training+cueing,2021.1.4,59.953943382463436,
Stranger.png,Stranger,Stranger,c,3,13,23,93,,,,,0,0,0,0,,,,,2,0,24,11,,,,,,,,,,,,,,,,,,,,,1.484,1.968,272.02303050000046,None,,,,,,,,,,,,,,,,,,,,272.5635851000043,273.0676562000008,0.5063331299970741,1.0066135300003225,273.05100720000337,273.1677192000061,273.05100720000337,273.1677192000061,273.1510475000032,None,None,0,,273.1510475000032,None,,,,,,,p12,2022_Apr_13_1117,training+cueing,2021.1.4,59.953943382463436,
Friend.png,Friend,Friend,c,2,12,22,92,,,,,0,0,0,0,,,,,2,1,25,10,,,,,,,,,,,,,,,,,,,,,1.592,2.019,274.74001690000296,None,,,,,,,,,,,,,,,,,,,,275.2821880000047,275.78634250000323,0.5069683300025645,1.0072606300018379,275.76960189999954,275.88634860000457,275.76960189999954,275.88634860000457,275.86967160000495,None,c,1,1.1479283000007854,275.86967160000495,None,,,,,,,p12,2022_Apr_13_1117,training+cueing,2021.1.4,59.953943382463436,
Friend.png,Friend,Friend,c,2,12,22,92,,,,,0,0,0,0,,,,,2,2,26,4,,,,,,,,,,,,,,,,,,,,,1.5,2.424,277.14339550000295,None,,,,,,,,,,,,,,,,,,,,277.68042770000466,278.18828100000246,0.514321030001156,1.0146145300022908,278.17158370000107,278.2883023000031,278.17158370000107,278.2883023000031,278.2716193000015,None,c,1,0.506023499998264,278.2716193000015,None,,,,,,,p12,2022_Apr_13_1117,training+cueing,2021.1.4,59.953943382463436,
Self.png,You,Self ,c,1,11,21,91,,,,,0,0,0,0,,,,,2,3,27,0,,,,,,,,,,,,,,,,,,,,,1.799,1.967,278.91297730000224,None,,,,,,,,,,,,,,,,,,,,279.45279980000487,279.9559780000054,0.5044738299984601,1.0049396300018998,279.93930140000157,280.03954910000175,279.93930140000157,280.03954910000175,280.03954910000175,None,c,1,0.7541234999953303,280.03954910000175,None,,,,,,,p12,2022_Apr_13_1117,training+cueing,2021.1.4,59.953943382463436,
Self.png,Stranger,Self ,m,3.1,18,28,98,,,,,0,0,0,0,,,,,2,4,28,2,,,,,,,,,,,,,,,,,,,,,1.622,1.568,280.9292587000018,None,,,,,,,,,,,,,,,,,,,,281.47052670000267,281.9740951000058,0.5071356299959007,1.0074406299972907,281.9574180000054,282.0741555000059,281.9574180000054,282.0741555000059,282.0574740000011,None,None,0,,282.0574740000011,None,,,,,,,p12,2022_Apr_13_1117,training+cueing,2021.1.4,59.953943382463436,
Stranger.png,Friend,Stranger,m,2.3,17,27,97,,,,,0,0,0,0,,,,,2,5,29,7,,,,,,,,,,,,,,,,,,,,,1.756,1.654,283.8002811000042,None,,,,,,,,,,,,,,,,,,,,284.34037230000104,284.84285400000226,0.5041627300015534,1.0044748299987987,284.8261612999995,284.94284990000597,284.8261612999995,284.94284990000597,284.9262189000001,None,m,1,1.0673829999941518,284.9262189000001,None,,,,,,,p12,2022_Apr_13_1117,training+cueing,2021.1.4,59.953943382463436,
Self.png,You,Self ,c,1,11,21,91,,,,,0,0,0,0,,,,,2,6,30,9,,,,,,,,,,,,,,,,,,,,,1.61,1.357,286.11686850000115,None,,,,,,,,,,,,,,,,,,,,286.65520670000114,287.1611935000037,0.508782329990936,1.0091628299924196,287.1445171000014,287.2445563000001,287.1445171000014,287.2445563000001,287.2445563000001,None,c,1,0.9090079999950831,287.2445563000001,None,,,,,,,p12,2022_Apr_13_1117,training+cueing,2021.1.4,59.953943382463436,
Self.png,Friend,Self ,m,2.1,16,26,96,,,,,0,0,0,0,,,,,2,7,31,1,,,,,,,,,,,,,,,,,,,,,1.664,2.469,288.2848251000032,None,,,,,,,,,,,,,,,,,,,,288.84063000000606,289.34609340000316,0.5100007399960305,1.0102806399954716,289.32943740000337,289.44610740000644,289.32943740000337,289.44610740000644,289.4294697000005,None,m,1,1.0761258999991696,289.4294697000005,None,,,,,,,p12,2022_Apr_13_1117,training+cueing,2021.1.4,59.953943382463436,
Stranger.png,Stranger,Stranger,c,3,13,23,93,,,,,0,0,0,0,,,,,2,8,32,8,,,,,,,,,,,,,,,,,,,,,1.559,2.213,290.63706220000313,None,,,,,,,,,,,,,,,,,,,,291.17697630000475,291.6812926000057,0.5057668299996294,1.0058913300017593,291.6645473000026,291.78119730000617,291.6645473000026,291.78119730000617,291.76447259999986,None,c,1,1.3812029000037,291.76447259999986,None,,,,,,,p12,2022_Apr_13_1117,training+cueing,2021.1.4,59.953943382463436,
Friend.png,You,Friend,m,1.2,14,24,94,,,,,0,0,0,0,,,,,2,9,33,3,,,,,,,,,,,,,,,,,,,,,1.715,1.593,293.2714699000062,None,,,,,,,,,,,,,,,,,,,,293.81225780000386,294.31636580000486,0.5071631300088484,1.0074488300087978,294.29971370000567,294.39975410000625,294.29971370000567,294.39975410000625,294.39975410000625,None,m,1,0.8258193999936339,294.39975410000625,None,,,,,,,p12,2022_Apr_13_1117,training+cueing,2021.1.4,59.953943382463436,
Friend.png,Stranger,Friend,m,3.2,19,29,99,,,,,0,0,0,0,,,,,2,10,34,5,,,,,,,,,,,,,,,,,,,,,1.655,1.496,295.35687360000156,None,,,,,,,,,,,,,,,,,,,,295.9181938000038,296.4178746000034,0.4991909399977885,0.9996779399953084,296.4011921000056,296.51790950000577,296.4011921000056,296.51790950000577,296.51790950000577,None,m,1,0.7077540999962366,296.51790950000577,None,,,,,,,p12,2022_Apr_13_1117,training+cueing,2021.1.4,59.953943382463436,
Stranger.png,You,Stranger,m,1.3,15,25,95,,,,,0,0,0,0,,,,,2,11,35,6,,,,,,,,,,,,,,,,,,,,,1.793,1.78,297.3597307000018,None,,,,,,,,,,,,,,,,,,,,297.8978553000052,298.4026412000021,0.507285329993465,1.007579329998407,298.3859800000064,298.48602100000426,298.3859800000064,298.48602100000426,298.48602100000426,None,m,1,1.3955218999981298,298.48602100000426,None,,,,,,,p12,2022_Apr_13_1117,training+cueing,2021.1.4,59.953943382463436,
Stranger.png,You,Stranger,m,1.3,15,25,95,,,,,0,0,0,0,,,,,3,0,36,6,,,,,,,,,,,,,,,,,,,,,1.551,2.277,300.0093426000021,None,,,,,,,,,,,,,,,,,,,,300.5466740000047,301.0545587000015,0.5151300299985451,1.0156757299992023,301.0378931000014,301.13792540000577,301.0378931000014,301.13792540000577,301.13792540000577,None,m,1,0.8237051000032807,301.13792540000577,None,,,,,,,p12,2022_Apr_13_1117,training+cueing,2021.1.4,59.953943382463436,
Friend.png,Stranger,Friend,m,3.2,19,29,99,,,,,0,0,0,0,,,,,3,1,37,5,,,,,,,,,,,,,,,,,,,,,1.693,1.62,302.09576100000413,None,,,,,,,,,,,,,,,,,,,,302.6381990000009,303.1395671000064,0.5026248300055158,1.0028872300099465,303.1228852999993,303.23962530000426,303.1228852999993,303.23962530000426,303.22291390000464,None,m,1,0.7068228999996791,303.22291390000464,None,,,,,,,p12,2022_Apr_13_1117,training+cueing,2021.1.4,59.953943382463436,
Self.png,Stranger,Self ,m,3.1,18,28,98,,,,,0,0,0,0,,,,,3,2,38,2,,,,,,,,,,,,,,,,,,,,,1.409,1.713,304.0642932000046,None,,,,,,,,,,,,,,,,,,,,304.6015342000028,305.1074971000053,0.5103382300003432,1.010631529999955,305.0908019000053,305.2075468000039,305.0908019000053,305.2075468000039,305.19084830000065,None,m,1,0.8988774000026751,305.19084830000065,None,,,,,,,p12,2022_Apr_13_1117,training+cueing,2021.1.4,59.953943382463436,
Stranger.png,Stranger,Stranger,c,3,13,23,93,,,,,0,0,0,0,,,,,3,3,39,8,,,,,,,,,,,,,,,,,,,,,1.658,2.446,306.21852590000344,None,,,,,,,,,,,,,,,,,,,,306.759012100003,307.2590075000044,0.51566222999827,1.015985929996532,307.2590075000044,307.3590986000054,307.2590075000044,307.3590986000054,307.3590986000054,None,c,1,0.842530900001293,307.3590986000054,None,,,,,,,p12,2022_Apr_13_1117,training+cueing,2021.1.4,59.953943382463436,
Friend.png,Friend,Friend,c,2,12,22,92,,,,,0,0,0,0,,,,,3,4,40,10,,,,,,,,,,,,,,,,,,,,,1.575,1.537,308.33273929999996,None,,,,,,,,,,,,,,,,,,,,308.8726878000016,309.37724210000306,0.5068232299963711,1.0071310299972538,309.36054929999955,309.47746670000197,309.36054929999955,309.47746670000197,309.46060240000224,None,c,1,0.964878899998439,309.46060240000224,None,,,,,,,p12,2022_Apr_13_1117,training+cueing,2021.1.4,59.953943382463436,
Stranger.png,Friend,Stranger,m,2.3,17,27,97,,,,,0,0,0,0,,,,,3,5,41,7,,,,,,,,,,,,,,,,,,,,,1.529,1.66,310.5511714000022,None,,,,,,,,,,,,,,,,,,,,311.0881861000016,311.59551090000605,0.5145040299976245,1.014815329996054,311.57883470000525,311.69556430000375,311.57883470000525,311.69556430000375,311.67889390000346,None,m,1,1.306578299998364,311.67889390000346,None,,,,,,,p12,2022_Apr_13_1117,training+cueing,2021.1.4,59.953943382463436,
Friend.png,Friend,Friend,c,2,12,22,92,,,,,0,0,0,0,,,,,3,6,42,4,,,,,,,,,,,,,,,,,,,,,1.657,2.374,313.11941490000027,None,,,,,,,,,,,,,,,,,,,,313.6565466000029,314.1640180000031,0.5142782300026738,1.0145884300000034,314.1473346000057,314.2640670000037,314.1473346000057,314.2640670000037,314.24739070000214,None,c,1,0.850117499998305,314.24739070000214,None,,,,,,,p12,2022_Apr_13_1117,training+cueing,2021.1.4,59.953943382463436,
Self.png,You,Self ,c,1,11,21,91,,,,,0,0,0,0,,,,,3,7,43,0,,,,,,,,,,,,,,,,,,,,,1.56,1.988,315.2206804000016,None,,,,,,,,,,,,,,,,,,,,315.7607799000034,316.2655550000054,0.5074088299952564,1.007861829995818,316.2488866999993,316.3489303000024,316.2488866999993,316.3489303000024,316.3489303000024,None,c,1,0.6847114999982296,316.3489303000024,None,,,,,,,p12,2022_Apr_13_1117,training+cueing,2021.1.4,59.953943382463436,
Stranger.png,Stranger,Stranger,c,3,13,23,93,,,,,0,0,0,0,,,,,3,8,44,11,,,,,,,,,,,,,,,,,,,,,1.614,1.34,317.1573458999992,None,,,,,,,,,,,,,,,,,,,,317.6986204999994,318.2003010000044,0.5028920299955644,1.003172730001097,318.1836175000062,318.3003561000005,318.1836175000062,318.3003561000005,318.2836016000001,None,m,0,0.6699108999964665,318.2836016000001,None,,,,,,,p12,2022_Apr_13_1117,training+cueing,2021.1.4,59.953943382463436,
Self.png,Friend,Self ,m,2.1,16,26,96,,,,,0,0,0,0,,,,,3,9,45,1,,,,,,,,,,,,,,,,,,,,,1.626,1.861,319.09041020000586,None,,,,,,,,,,,,,,,,,,,,319.62963700000546,320.13503180000407,0.5107491299932008,1.0110154299909482,320.1183597000054,320.23503610000625,320.1183597000054,320.23503610000625,320.2183681000024,None,m,1,1.071304199998849,320.2183681000024,None,,,,,,,p12,2022_Apr_13_1117,training+cueing,2021.1.4,59.953943382463436,
Self.png,You,Self ,c,1,11,21,91,,,,,0,0,0,0,,,,,3,10,46,9,,,,,,,,,,,,,,,,,,,,,1.417,2.068,321.4253530999995,None,,,,,,,,,,,,,,,,,,,,321.96543410000595,322.4700337000031,0.5074609300063457,1.007789130002493,322.45334350000485,322.5534104000035,322.45334350000485,322.5534104000035,322.5534104000035,None,c,1,0.8162386000039987,322.5534104000035,None,,,,,,,p12,2022_Apr_13_1117,training+cueing,2021.1.4,59.953943382463436,
Friend.png,You,Friend,m,1.2,14,24,94,,,,,0,0,0,0,,,,,3,11,47,3,,,,,,,,,,,,,,,,,,,,,1.694,2.414,323.4973286000022,None,,,,,,,,,,,,,,,,,,,,324.03411450000567,324.5382017000011,0.5081647300030454,1.0086974300065776,324.5215212000039,324.6215677,324.5215212000039,324.6215677,324.6215677,None,m,1,0.8601457000040682,324.6215677,None,,,,,,,p12,2022_Apr_13_1117,training+cueing,2021.1.4,59.953943382463436,
Friend.png,Friend,Friend,c,2,12,22,92,,,,,0,0,0,0,,,,,4,0,48,10,,,,,,,,,,,,,,,,,,,,,1.554,1.607,325.6124218000041,None,,,,,,,,,,,,,,,,,,,,326.1532423000026,326.65639660000306,0.504227629993693,1.004547630000161,326.6396650000024,326.75644110000576,326.6396650000024,326.75644110000576,326.7397473000019,None,c,1,0.7258235000044806,326.7397473000019,None,,,,,,,p12,2022_Apr_13_1117,training+cueing,2021.1.4,59.953943382463436,
Stranger.png,Stranger,Stranger,c,3,13,23,93,,,,,0,0,0,0,,,,,4,1,49,11,,,,,,,,,,,,,,,,,,,,,1.552,1.416,327.5972357999999,None,,,,,,,,,,,,,,,,,,,,328.13830040000175,328.64121040000464,0.5060746300077881,1.0063901300090947,328.6244674000045,328.74122080000234,328.6244674000045,328.74122080000234,328.72451900000306,None,c,1,1.141084499999124,328.72451900000306,None,,,,,,,p12,2022_Apr_13_1117,training+cueing,2021.1.4,59.953943382463436,
Friend.png,Friend,Friend,c,2,12,22,92,,,,,0,0,0,0,,,,,4,2,50,4,,,,,,,,,,,,,,,,,,,,,1.758,1.858,329.99809970000206,None,,,,,,,,,,,,,,,,,,,,330.53928070000256,331.0429168000046,0.5069785300001968,1.0073744299952523,331.0262065000061,331.1430515000029,331.0262065000061,331.1430515000029,331.12641010000516,None,c,1,1.059100300000864,331.12641010000516,None,,,,,,,p12,2022_Apr_13_1117,training+cueing,2021.1.4,59.953943382463436,
Friend.png,Stranger,Friend,m,3.2,19,29,99,,,,,0,0,0,0,,,,,4,3,51,5,,,,,,,,,,,,,,,,,,,,,1.483,1.287,332.3160607000027,None,,,,,,,,,,,,,,,,,,,,332.85730270000204,333.3612423000013,0.5053921300059301,1.0056718300038483,333.3445609000046,333.4613124000025,333.3445609000046,333.4613124000025,333.44459050000296,None,m,1,0.7728610999984085,333.44459050000296,None,,,,,,,p12,2022_Apr_13_1117,training+cueing,2021.1.4,59.953943382463436,
Self.png,Stranger,Self ,m,3.1,18,28,98,,,,,0,0,0,0,,,,,4,4,52,2,,,,,,,,,,,,,,,,,,,,,1.613,1.696,334.3517254000035,None,,,,,,,,,,,,,,,,,,,,334.889823000005,335.3960428999999,0.5119496300103492,1.012331930010987,335.3793390999999,335.4960932000031,335.3793390999999,335.4960932000031,335.4793920000011,None,None,0,,335.4793920000011,None,,,,,,,p12,2022_Apr_13_1117,training+cueing,2021.1.4,59.953943382463436,
Self.png,You,Self ,c,1,11,21,91,,,,,0,0,0,0,,,,,4,5,53,0,,,,,,,,,,,,,,,,,,,,,1.768,2.175,337.20257870000205,None,,,,,,,,,,,,,,,,,,,,337.7442308000027,338.24811110000155,0.5074439300005906,1.0077680299946223,338.2313950000025,338.33146500000294,338.2313950000025,338.33146500000294,338.33146500000294,None,c,1,0.7020954999970854,338.33146500000294,None,,,,,,,p12,2022_Apr_13_1117,training+cueing,2021.1.4,59.953943382463436,
Friend.png,You,Friend,m,1.2,14,24,94,,,,,0,0,0,0,,,,,4,6,54,3,,,,,,,,,,,,,,,,,,,,,1.76,1.229,339.1719777000035,None,,,,,,,,,,,,,,,,,,,,339.7087831000026,340.2161954000039,0.5132243300031405,1.013523930007068,340.19949389999965,340.29957310000464,340.19949389999965,340.29957310000464,340.29957310000464,None,m,1,0.7499887000012677,340.29957310000464,None,,,,,,,p12,2022_Apr_13_1117,training+cueing,2021.1.4,59.953943382463436,
Stranger.png,You,Stranger,m,1.3,15,25,95,,,,,0,0,0,0,,,,,4,7,55,6,,,,,,,,,,,,,,,,,,,,,1.452,1.476,341.17335980000644,None,,,,,,,,,,,,,,,,,,,,341.711596000001,342.21765670000605,0.5115607300031115,1.011902430007467,342.2009288000045,342.30102310000075,342.2009288000045,342.30102310000075,342.30102310000075,None,c,0,1.4045191999975941,342.30102310000075,None,,,,,,,p12,2022_Apr_13_1117,training+cueing,2021.1.4,59.953943382463436,
Self.png,Friend,Self ,m,2.1,16,26,96,,,,,0,0,0,0,,,,,4,8,56,1,,,,,,,,,,,,,,,,,,,,,1.586,1.95,343.84193690000393,None,,,,,,,,,,,,,,,,,,,,344.38221350000094,344.8862362,0.5062943299999461,1.0068186299977242,344.8695769000042,344.9868312000035,344.8695769000042,344.9868312000035,344.9700859000004,None,m,1,1.1676370999994106,344.9700859000004,None,,,,,,,p12,2022_Apr_13_1117,training+cueing,2021.1.4,59.953943382463436,
Stranger.png,Friend,Stranger,m,2.3,17,27,97,,,,,0,0,0,0,,,,,4,9,57,7,,,,,,,,,,,,,,,,,,,,,1.772,1.505,346.26176130000385,None,,,,,,,,,,,,,,,,,,,,346.8005301000012,347.3046549999999,0.5079651299965917,1.0082509299973026,347.2879713000002,347.404701200001,347.2879713000002,347.404701200001,347.38801340000646,None,m,1,0.6854901999977301,347.38801340000646,None,,,,,,,p12,2022_Apr_13_1117,training+cueing,2021.1.4,59.953943382463436,
Stranger.png,Stranger,Stranger,c,3,13,23,93,,,,,0,0,0,0,,,,,4,10,58,8,,,,,,,,,,,,,,,,,,,,,1.45,1.618,348.1947680000012,None,,,,,,,,,,,,,,,,,,,,348.7360437000025,349.23940470000525,0.5065720300044632,1.0068255299993325,349.2227000999992,349.3394346000059,349.2227000999992,349.3394346000059,349.3227391000037,None,c,1,1.006988499997533,349.3227391000037,None,,,,,,,p12,2022_Apr_13_1117,training+cueing,2021.1.4,59.953943382463436,
Self.png,You,Self ,c,1,11,21,91,,,,,0,0,0,0,,,,,4,11,59,9,,,,,,,,,,,,,,,,,,,,,1.491,1.64,350.46665630000643,None,,,,,,,,,,,,,,,,,,,,351.00256900000386,351.5077283000064,0.5084809300024062,1.00879513000109,351.4909917000041,351.5910552999994,351.4909917000041,351.5910552999994,351.5910552999994,None,c,1,0.7064891999980318,351.5910552999994,None,,,,,,,p12,2022_Apr_13_1117,training+cueing,2021.1.4,59.953943382463436,
Stranger.png,Stranger,Stranger,c,3,13,23,93,,,,,0,0,0,0,,,,,5,0,60,8,,,,,,,,,,,,,,,,,,,,,1.431,2.213,352.431413600003,None,,,,,,,,,,,,,,,,,,,,352.9742022999999,353.47574840000016,0.5044133300034446,1.004714230002719,353.45907250000164,353.5738935000045,353.45907250000164,353.5738935000045,353.5591452000008,None,c,1,1.1383246999976109,353.5591452000008,None,,,,,,,p12,2022_Apr_13_1117,training+cueing,2021.1.4,59.953943382463436,
Friend.png,Stranger,Friend,m,3.2,19,29,99,,,,,0,0,0,0,,,,,5,1,61,5,,,,,,,,,,,,,,,,,,,,,1.614,1.361,354.8323690000034,None,,,,,,,,,,,,,,,,,,,,355.37057270000514,355.8776070000022,0.5127435300018988,1.0128222300045309,355.86101330000383,355.9775701000035,355.86101330000383,355.9775701000035,355.9608533000064,None,m,1,1.120826099999249,355.9608533000064,None,,,,,,,p12,2022_Apr_13_1117,training+cueing,2021.1.4,59.953943382463436,
Self.png,You,Self ,c,1,11,21,91,,,,,0,0,0,0,,,,,5,2,62,9,,,,,,,,,,,,,,,,,,,,,1.71,2.262,357.22092859999975,None,,,,,,,,,,,,,,,,,,,,357.7605395000064,358.26252620000014,0.5030619300014223,1.0034577299957164,358.2458981000018,358.3459545000005,358.2458981000018,358.3459545000005,358.3459545000005,None,c,1,0.7195865999965463,358.3459545000005,None,,,,,,,p12,2022_Apr_13_1117,training+cueing,2021.1.4,59.953943382463436,
Stranger.png,Stranger,Stranger,c,3,13,23,93,,,,,0,0,0,0,,,,,5,3,63,11,,,,,,,,,,,,,,,,,,,,,1.703,1.654,359.20224730000336,None,,,,,,,,,,,,,,,,,,,,359.744154400003,360.2473456000007,0.5056426300070598,1.0059359300066717,360.23065920000226,360.3473881000027,360.23065920000226,360.3473881000027,360.3306456999999,None,c,1,1.1508299999986775,360.3306456999999,None,,,,,,,p12,2022_Apr_13_1117,training+cueing,2021.1.4,59.953943382463436,
Self.png,Friend,Self ,m,2.1,16,26,96,,,,,0,0,0,0,,,,,5,4,64,1,,,,,,,,,,,,,,,,,,,,,1.493,2.175,361.60475930000393,None,,,,,,,,,,,,,,,,,,,,362.14526730000216,362.6490252000003,0.5051173300016671,1.0054034299973864,362.632405700002,362.74909760000446,362.632405700002,362.74909760000446,362.73243039999943,None,m,1,1.356984799997008,362.73243039999943,None,,,,,,,p12,2022_Apr_13_1117,training+cueing,2021.1.4,59.953943382463436,
Stranger.png,Friend,Stranger,m,2.3,17,27,97,,,,,0,0,0,0,,,,,5,5,65,7,,,,,,,,,,,,,,,,,,,,,1.674,2.076,364.2230331000028,None,,,,,,,,,,,,,,,,,,,,364.76159060000646,365.2675922000053,0.5114590299999691,1.0117189299999154,365.25096499999927,365.3676880000057,365.25096499999927,365.3676880000057,365.3509924000027,None,m,1,0.8983634000032907,365.3509924000027,None,,,,,,,p12,2022_Apr_13_1117,training+cueing,2021.1.4,59.953943382463436,
Friend.png,Friend,Friend,c,2,12,22,92,,,,,0,0,0,0,,,,,5,6,66,10,,,,,,,,,,,,,,,,,,,,,1.706,1.841,366.3745748000001,None,,,,,,,,,,,,,,,,,,,,366.91152230000444,367.4191757000008,0.5139606299999286,1.0142631300041103,367.40249760000006,367.51922840000043,367.40249760000006,367.51922840000043,367.5025378999999,None,c,1,0.7949355000018841,367.5025378999999,None,,,,,,,p12,2022_Apr_13_1117,training+cueing,2021.1.4,59.953943382463436,
Stranger.png,You,Stranger,m,1.3,15,25,95,,,,,0,0,0,0,,,,,5,7,67,6,,,,,,,,,,,,,,,,,,,,,1.788,1.668,368.4256217000002,None,,,,,,,,,,,,,,,,,,,,368.9656004000062,369.47066080000513,0.5075138300016988,1.0078014300015639,369.45399259999976,369.5540301000001,369.45399259999976,369.5540301000001,369.5540301000001,None,m,1,1.239429499997641,369.5540301000001,None,,,,,,,p12,2022_Apr_13_1117,training+cueing,2021.1.4,59.953943382463436,
Friend.png,Friend,Friend,c,2,12,22,92,,,,,0,0,0,0,,,,,5,8,68,4,,,,,,,,,,,,,,,,,,,,,1.467,2.488,370.927408800002,None,,,,,,,,,,,,,,,,,,,,371.4690352000034,371.97246409999934,0.506676229997538,1.006987829998252,371.9557827000026,372.0724726000044,371.9557827000026,372.0724726000044,372.0558607999992,None,c,1,0.9776714999970864,372.0558607999992,None,,,,,,,p12,2022_Apr_13_1117,training+cueing,2021.1.4,59.953943382463436,
Self.png,Stranger,Self ,m,3.1,18,28,98,,,,,0,0,0,0,,,,,5,9,69,2,,,,,,,,,,,,,,,,,,,,,1.76,1.816,373.16258120000566,None,,,,,,,,,,,,,,,,,,,,373.70575760000065,374.20743660000153,0.5041057300040848,1.0043368300030124,374.1907999000032,374.3074489999999,374.1907999000032,374.3074489999999,374.29076930000156,None,m,1,1.2706811000025482,374.29076930000156,None,,,,,,,p12,2022_Apr_13_1117,training+cueing,2021.1.4,59.953943382463436,
Friend.png,You,Friend,m,1.2,14,24,94,,,,,0,0,0,0,,,,,5,10,70,3,,,,,,,,,,,,,,,,,,,,,1.471,1.381,375.6979468000063,None,,,,,,,,,,,,,,,,,,,,376.23769580000226,376.74258310000005,0.5071141299995361,1.0074029300012626,376.7259415000008,376.8260109000039,376.7259415000008,376.8260109000039,376.8260109000039,None,m,1,0.831343999998353,376.8260109000039,None,,,,,,,p12,2022_Apr_13_1117,training+cueing,2021.1.4,59.953943382463436,
Self.png,You,Self ,c,1,11,21,91,,,,,0,0,0,0,,,,,5,11,71,0,,,,,,,,,,,,,,,,,,,,,1.776,1.835,377.78261190000194,None,,,,,,,,,,,,,,,,,,,,378.3214739000032,378.82743100000516,0.5120467300002929,1.0129554300001473,378.8107235999996,378.91081630000554,378.8107235999996,378.91081630000554,378.91081630000554,None,c,1,0.7146502000032342,378.91081630000554,None,,,,,,,p12,2022_Apr_13_1117,training+cueing,2021.1.4,59.953943382463436,
Self.png,Stranger,Self ,m,3.1,18,28,98,,,,,0,0,0,0,,,,,6,0,72,2,,,,,,,,,,,,,,,,,,,,,1.775,1.694,379.7515973000045,None,,,,,,,,,,,,,,,,,,,,380.2901803000059,380.7956162000046,0.5072682299942244,1.0075647299963748,380.77884710000217,380.89552320000075,380.77884710000217,380.89552320000075,380.8788879000058,None,m,1,0.7626231000031112,380.8788879000058,None,,,,,,,p12,2022_Apr_13_1117,training+cueing,2021.1.4,59.953943382463436,
Stranger.png,Stranger,Stranger,c,3,13,23,93,,,,,0,0,0,0,,,,,6,1,73,11,,,,,,,,,,,,,,,,,,,,,1.526,1.533,381.7694546000057,None,,,,,,,,,,,,,,,,,,,,382.30843129999994,382.8136463000046,0.5104343299899483,1.0112691299946164,382.7969895999995,382.91367690000334,382.7969895999995,382.91367690000334,382.89701900000364,None,c,1,1.0804352999984985,382.89701900000364,None,,,,,,,p12,2022_Apr_13_1117,training+cueing,2021.1.4,59.953943382463436,
Friend.png,Stranger,Friend,m,3.2,19,29,99,,,,,0,0,0,0,,,,,6,2,74,5,,,,,,,,,,,,,,,,,,,,,1.775,1.898,384.1054607000042,None,,,,,,,,,,,,,,,,,,,,384.65877680000267,385.16551480000635,0.5134729399942444,1.0136957399881794,385.1488864000057,385.2655393000023,385.1488864000057,385.2655393000023,385.24887400000443,None,m,1,0.8885653000033926,385.24887400000443,None,,,,,,,p12,2022_Apr_13_1117,training+cueing,2021.1.4,59.953943382463436,
Self.png,You,Self ,c,1,11,21,91,,,,,0,0,0,0,,,,,6,3,75,0,,,,,,,,,,,,,,,,,,,,,1.615,1.382,386.2734017000039,None,,,,,,,,,,,,,,,,,,,,386.81431810000504,387.3169038000051,0.503682429989567,1.0039803299951018,387.300215400006,387.40026360000047,387.300215400006,387.40026360000047,387.40026360000047,None,c,1,0.5932000999964657,387.40026360000047,None,,,,,,,p12,2022_Apr_13_1117,training+cueing,2021.1.4,59.953943382463436,
Stranger.png,You,Stranger,m,1.3,15,25,95,,,,,0,0,0,0,,,,,6,4,76,6,,,,,,,,,,,,,,,,,,,,,1.533,1.503,388.12353790000634,None,,,,,,,,,,,,,,,,,,,,388.66282960000535,389.1682390999995,0.5103146300025401,1.0105977299972437,389.15154660000553,389.2516648000019,389.15154660000553,389.2516648000019,389.2516648000019,None,m,1,0.7739746000006562,389.2516648000019,None,,,,,,,p12,2022_Apr_13_1117,training+cueing,2021.1.4,59.953943382463436,
Stranger.png,Stranger,Stranger,c,3,13,23,93,,,,,0,0,0,0,,,,,6,5,77,8,,,,,,,,,,,,,,,,,,,,,1.783,1.451,390.16158330000326,None,,,,,,,,,,,,,,,,,,,,390.70196260000375,391.20303440000134,0.5022175300036906,1.002570630000264,391.18636810000316,391.30318680000346,391.18636810000316,391.30318680000346,391.28640100000484,None,c,1,1.0751055000000633,391.28640100000484,None,,,,,,,p12,2022_Apr_13_1117,training+cueing,2021.1.4,59.953943382463436,
Friend.png,You,Friend,m,1.2,14,24,94,,,,,0,0,0,0,,,,,6,6,78,3,,,,,,,,,,,,,,,,,,,,,1.512,2.026,392.4947858000014,None,,,,,,,,,,,,,,,,,,,,393.03269010000076,393.5380585000021,0.5083456299980753,1.008660229992529,393.5213466999994,393.6216107,393.5213466999994,393.6216107,393.6216107,None,m,1,0.6758246000026702,393.6216107,None,,,,,,,p12,2022_Apr_13_1117,training+cueing,2021.1.4,59.953943382463436,
Stranger.png,Friend,Stranger,m,2.3,17,27,97,,,,,0,0,0,0,,,,,6,7,79,7,,,,,,,,,,,,,,,,,,,,,1.654,2.218,394.4275859000045,None,,,,,,,,,,,,,,,,,,,,394.97008220000134,395.4727273000026,0.5065106300025946,1.0068543300003512,395.4561044000002,395.57283880000614,395.4561044000002,395.57283880000614,395.556161600005,None,m,1,1.1092378000030294,395.556161600005,None,,,,,,,p12,2022_Apr_13_1117,training+cueing,2021.1.4,59.953943382463436,
Self.png,Friend,Self ,m,2.1,16,26,96,,,,,0,0,0,0,,,,,6,8,80,1,,,,,,,,,,,,,,,,,,,,,1.574,1.458,396.7970667000045,None,,,,,,,,,,,,,,,,,,,,397.3340202000036,397.84117120000155,0.5115929300009157,1.0118445300031453,397.8244904000021,397.94122040000366,397.8244904000021,397.94122040000366,397.92452030000277,None,m,1,1.0131477999966592,397.92452030000277,None,,,,,,,p12,2022_Apr_13_1117,training+cueing,2021.1.4,59.953943382463436,
Self.png,You,Self ,c,1,11,21,91,,,,,0,0,0,0,,,,,6,9,81,9,,,,,,,,,,,,,,,,,,,,,1.552,1.822,399.0683358000024,None,,,,,,,,,,,,,,,,,,,,399.6054912000036,400.10948869999993,0.5068213300037314,1.007162829999288,400.09278050000285,400.19284190000326,400.09278050000285,400.19284190000326,400.19284190000326,None,c,1,0.6007384000040474,400.19284190000326,None,,,,,,,p12,2022_Apr_13_1117,training+cueing,2021.1.4,59.953943382463436,
Friend.png,Friend,Friend,c,2,12,22,92,,,,,0,0,0,0,,,,,6,10,82,10,,,,,,,,,,,,,,,,,,,,,1.8,2.356,400.9157475000029,None,,,,,,,,,,,,,,,,,,,,401.45737630000076,401.9607990000004,0.5070380300021498,1.007912330002,401.9441263000044,402.0608549000026,401.9441263000044,402.0608549000026,402.0441878000056,None,c,1,1.261335200004396,402.0441878000056,None,,,,,,,p12,2022_Apr_13_1117,training+cueing,2021.1.4,59.953943382463436,
Friend.png,Friend,Friend,c,2,12,22,92,,,,,0,0,0,0,,,,,6,11,83,4,,,,,,,,,,,,,,,,,,,,,1.782,1.78,403.4346704000054,None,,,,,,,,,,,,,,,,,,,,403.9725039000041,404.47929560000193,0.5110692300004303,1.0117591300004278,404.46261400000367,404.5793402000054,404.46261400000367,404.5793402000054,404.56266250000044,None,c,1,0.5988023999962024,404.56266250000044,None,,,,,,,p12,2022_Apr_13_1117,training+cueing,2021.1.4,59.953943382463436,
Self.png,You,Self ,c,1,11,21,91,,,,,0,0,0,0,,,,,7,0,84,9,,,,,,,,,,,,,,,,,,,,,1.564,1.793,405.28781080000044,None,,,,,,,,,,,,,,,,,,,,405.8287230999995,406.3305823000046,0.5042471299966564,1.0045464299982996,406.31397030000517,406.4140264000016,406.31397030000517,406.4140264000016,406.4140264000016,None,c,1,0.7153442000053474,406.4140264000016,None,,,,,,,p12,2022_Apr_13_1117,training+cueing,2021.1.4,59.953943382463436,
Stranger.png,Friend,Stranger,m,2.3,17,27,97,,,,,0,0,0,0,,,,,7,1,85,7,,,,,,,,,,,,,,,,,,,,,1.558,1.804,407.2543317000018,None,,,,,,,,,,,,,,,,,,,,407.7952443000031,408.2987276000058,0.5061870299905422,1.0065198299926124,408.2820639000056,408.3987441000063,408.2820639000056,408.3987441000063,408.38211130000127,None,m,1,0.6512774000002537,408.38211130000127,None,,,,,,,p12,2022_Apr_13_1117,training+cueing,2021.1.4,59.953943382463436,
Self.png,You,Self ,c,1,11,21,91,,,,,0,0,0,0,,,,,7,2,86,0,,,,,,,,,,,,,,,,,,,,,1.533,2.202,409.15525329999946,None,,,,,,,,,,,,,,,,,,,,409.71113270000205,410.21692690000054,0.5099057400002494,1.0100642399993376,410.2002772000051,410.30017110000335,410.2002772000051,410.30017110000335,410.30017110000335,None,c,1,0.6052169999966281,410.30017110000335,None,,,,,,,p12,2022_Apr_13_1117,training+cueing,2021.1.4,59.953943382463436,
Stranger.png,Stranger,Stranger,c,3,13,23,93,,,,,0,0,0,0,,,,,7,3,87,11,,,,,,,,,,,,,,,,,,,,,1.456,1.341,411.0402355000042,None,,,,,,,,,,,,,,,,,,,,411.58100760000525,412.0847855000029,0.5064736299973447,1.0066933300040546,412.06829260000086,412.1848497000028,412.06829260000086,412.1848497000028,412.1681826999993,None,c,1,1.3135446999949636,412.1681826999993,None,,,,,,,p12,2022_Apr_13_1117,training+cueing,2021.1.4,59.953943382463436,
Friend.png,Friend,Friend,c,2,12,22,92,,,,,0,0,0,0,,,,,7,4,88,10,,,,,,,,,,,,,,,,,,,,,1.739,2.436,413.6120293000058,None,,,,,,,,,,,,,,,,,,,,414.1646989000001,414.67005160000554,0.5074606400012271,1.0083170399957453,414.65332400000625,414.77006310000434,414.65332400000625,414.77006310000434,414.7533631000042,None,m,0,0.7121094999965862,414.7533631000042,None,,,,,,,p12,2022_Apr_13_1117,training+cueing,2021.1.4,59.953943382463436,
Friend.png,Friend,Friend,c,2,12,22,92,,,,,0,0,0,0,,,,,7,5,89,4,,,,,,,,,,,,,,,,,,,,,1.786,1.538,415.5946447000024,None,,,,,,,,,,,,,,,,,,,,416.13181470000563,416.63810090000334,0.5129810299986275,1.0138709300008486,416.62142270000186,416.73869630000263,416.62142270000186,416.73869630000263,416.72143620000134,None,None,0,,416.72143620000134,None,,,,,,,p12,2022_Apr_13_1117,training+cueing,2021.1.4,59.953943382463436,
Self.png,Stranger,Self ,m,3.1,18,28,98,,,,,0,0,0,0,,,,,7,6,90,2,,,,,,,,,,,,,,,,,,,,,1.652,1.96,418.6272045000005,None,,,,,,,,,,,,,,,,,,,,419.1701255000007,419.6736164000031,0.5053975300033926,1.0057194300025003,419.6569440000021,419.77364110000053,419.6569440000021,419.77364110000053,419.75700750000397,None,None,0,,419.75700750000397,None,,,,,,,p12,2022_Apr_13_1117,training+cueing,2021.1.4,59.953943382463436,
Friend.png,Stranger,Friend,m,3.2,19,29,99,,,,,0,0,0,0,,,,,7,7,91,5,,,,,,,,,,,,,,,,,,,,,1.574,1.618,421.51352100000076,None,,,,,,,,,,,,,,,,,,,,422.05199220000213,422.5590310000043,0.5114453299975139,1.0117079299961915,422.54237520000606,422.6591060999999,422.54237520000606,422.6591060999999,422.64234150000266,None,m,1,0.9830545999939204,422.64234150000266,None,,,,,,,p12,2022_Apr_13_1117,training+cueing,2021.1.4,59.953943382463436,
Stranger.png,You,Stranger,m,1.3,15,25,95,,,,,0,0,0,0,,,,,7,8,92,6,,,,,,,,,,,,,,,,,,,,,1.737,2.37,423.7494255000056,None,,,,,,,,,,,,,,,,,,,,424.2900563000003,424.7941093000045,0.5074399300065124,1.0077513300057035,424.7774067999999,424.87747800000216,424.7774067999999,424.87747800000216,424.87747800000216,None,m,1,0.9879887999995844,424.87747800000216,None,,,,,,,p12,2022_Apr_13_1117,training+cueing,2021.1.4,59.953943382463436,
Self.png,Friend,Self ,m,2.1,16,26,96,,,,,0,0,0,0,,,,,7,9,93,1,,,,,,,,,,,,,,,,,,,,,1.535,1.931,426.00123500000336,None,,,,,,,,,,,,,,,,,,,,426.54213860000164,427.04558940000425,0.5055345299988403,1.0058719299995573,427.0289413999999,427.14565280000534,427.0289413999999,427.14565280000534,427.1289889000036,None,m,1,0.92844260000129,427.1289889000036,None,,,,,,,p12,2022_Apr_13_1117,training+cueing,2021.1.4,59.953943382463436,
Stranger.png,Stranger,Stranger,c,3,13,23,93,,,,,0,0,0,0,,,,,7,10,94,8,,,,,,,,,,,,,,,,,,,,,1.71,2.013,428.18925980000495,None,,,,,,,,,,,,,,,,,,,,428.74393180000334,429.2471904000049,0.5043895399940084,1.0046797399918432,429.23051940000005,429.3472416000004,429.23051940000005,429.3472416000004,429.3305737000046,None,c,1,0.8868007000055513,429.3305737000046,None,,,,,,,p12,2022_Apr_13_1117,training+cueing,2021.1.4,59.953943382463436,
Friend.png,You,Friend,m,1.2,14,24,94,,,,,0,0,0,0,,,,,7,11,95,3,,,,,,,,,,,,,,,,,,,,,1.481,2.32,430.3534929000016,None,,,,,,,,,,,,,,,,,,,,430.90762760000507,431.41545210000186,0.5153797399980249,1.0155681399992318,431.39883060000284,431.4988752000063,431.39883060000284,431.4988752000063,431.4988752000063,None,m,1,0.782461399998283,431.4988752000063,None,,,,,,,p12,2022_Apr_13_1117,training+cueing,2021.1.4,59.953943382463436,
Stranger.png,Friend,Stranger,m,2.3,17,27,97,,,,,0,0,0,0,,,,,8,0,96,7,,,,,,,,,,,,,,,,,,,,,1.612,2.248,432.4057909000039,None,,,,,,,,,,,,,,,,,,,,432.94605389999924,433.4504388999994,0.5057904299901566,1.0061167299936642,433.433563700004,433.5503308000043,433.433563700004,433.5503308000043,433.533603200005,None,m,1,0.9396968000000925,433.533603200005,None,,,,,,,p12,2022_Apr_13_1117,training+cueing,2021.1.4,59.953943382463436,
Friend.png,Friend,Friend,c,2,12,22,92,,,,,0,0,0,0,,,,,8,1,97,4,,,,,,,,,,,,,,,,,,,,,1.657,1.887,434.6071541000056,None,,,,,,,,,,,,,,,,,,,,435.1438796000002,435.65200500000356,0.5148406299995258,1.0152623299945844,435.63533910000115,435.75203510000574,435.63533910000115,435.75203510000574,435.73539770000207,None,c,1,0.9140317000055802,435.73539770000207,None,,,,,,,p12,2022_Apr_13_1117,training+cueing,2021.1.4,59.953943382463436,
Friend.png,Stranger,Friend,m,3.2,19,29,99,,,,,0,0,0,0,,,,,8,2,98,5,,,,,,,,,,,,,,,,,,,,,1.403,1.571,436.7763422000062,None,,,,,,,,,,,,,,,,,,,,437.3148418000055,437.82001590000436,0.5108919300109847,1.0112022300090757,437.8033792999995,437.9201241000046,437.8033792999995,437.9201241000046,437.90342149999924,None,m,1,0.6978424999979325,437.90342149999924,None,,,,,,,p12,2022_Apr_13_1117,training+cueing,2021.1.4,59.953943382463436,
Friend.png,Friend,Friend,c,2,12,22,92,,,,,0,0,0,0,,,,,8,3,99,10,,,,,,,,,,,,,,,,,,,,,1.435,1.251,438.7267374000003,None,,,,,,,,,,,,,,,,,,,,439.2673228000058,439.7714588000017,0.5065494299924467,1.006833129991719,439.75480130000506,439.87167630000476,439.75480130000506,439.87167630000476,439.8548504000064,None,c,1,1.2905197000000044,439.8548504000064,None,,,,,,,p12,2022_Apr_13_1117,training+cueing,2021.1.4,59.953943382463436,
Self.png,Friend,Self ,m,2.1,16,26,96,,,,,0,0,0,0,,,,,8,4,100,1,,,,,,,,,,,,,,,,,,,,,1.542,1.873,441.2790540999995,None,,,,,,,,,,,,,,,,,,,,441.81782110000495,442.323492800002,0.5108115300026839,1.0111268300024676,442.306639500006,442.4233913999997,442.306639500006,442.4233913999997,442.4066804000031,None,m,1,1.1068476000000373,442.4066804000031,None,,,,,,,p12,2022_Apr_13_1117,training+cueing,2021.1.4,59.953943382463436,
Self.png,Stranger,Self ,m,3.1,18,28,98,,,,,0,0,0,0,,,,,8,5,101,2,,,,,,,,,,,,,,,,,,,,,1.709,1.455,443.64870209999935,None,,,,,,,,,,,,,,,,,,,,444.1903434000051,444.6917171000023,0.502446129998134,1.00246772999526,444.6752515000044,444.7917791,444.6752515000044,444.7917791,444.77506279999943,None,m,1,0.9462831999990158,444.77506279999943,None,,,,,,,p12,2022_Apr_13_1117,training+cueing,2021.1.4,59.953943382463436,
Stranger.png,You,Stranger,m,1.3,15,25,95,,,,,0,0,0,0,,,,,8,6,102,6,,,,,,,,,,,,,,,,,,,,,1.463,2.137,445.84818980000273,None,,,,,,,,,,,,,,,,,,,,446.38779400000203,446.89332260000083,0.509242929998436,1.009564029998728,446.87657949999993,446.9766677000007,446.87657949999993,446.9766677000007,446.9766677000007,None,m,1,0.7607435000027181,446.9766677000007,None,,,,,,,p12,2022_Apr_13_1117,training+cueing,2021.1.4,59.953943382463436,
Friend.png,You,Friend,m,1.2,14,24,94,,,,,0,0,0,0,,,,,8,7,103,3,,,,,,,,,,,,,,,,,,,,,1.404,2.37,447.8663102999999,None,,,,,,,,,,,,,,,,,,,,448.40599680000014,448.9114189000029,0.5105060299974866,1.0108083300001454,448.8947576999999,448.9948179000057,448.8947576999999,448.9948179000057,448.9948179000057,None,m,1,0.6144226000033086,448.9948179000057,None,,,,,,,p12,2022_Apr_13_1117,training+cueing,2021.1.4,59.953943382463436,
Self.png,You,Self ,c,1,11,21,91,,,,,0,0,0,0,,,,,8,8,104,9,,,,,,,,,,,,,,,,,,,,,1.658,2.269,449.73493760000565,None,,,,,,,,,,,,,,,,,,,,450.2712739000053,450.77944770000613,0.5132730300028925,1.013518430001568,450.76283859999967,450.8628308000043,450.76283859999967,450.8628308000043,450.8628308000043,None,c,1,0.6025211000014679,450.8628308000043,None,,,,,,,p12,2022_Apr_13_1117,training+cueing,2021.1.4,59.953943382463436,
Stranger.png,Stranger,Stranger,c,3,13,23,93,,,,,0,0,0,0,,,,,8,9,105,11,,,,,,,,,,,,,,,,,,,,,1.436,2.026,451.60231880000356,None,,,,,,,,,,,,,,,,,,,,452.14489410000533,452.64749080000183,0.5057157300034305,1.0059880300032091,452.63082390000636,452.7475110000014,452.63082390000636,452.7475110000014,452.73085300000093,None,c,1,1.262559400005557,452.73085300000093,None,,,,,,,p12,2022_Apr_13_1117,training+cueing,2021.1.4,59.953943382463436,
Stranger.png,Stranger,Stranger,c,3,13,23,93,,,,,0,0,0,0,,,,,8,10,106,8,,,,,,,,,,,,,,,,,,,,,1.437,1.993,454.12288570000237,None,,,,,,,,,,,,,,,,,,,,454.66182420000405,455.16593190000276,0.5072283299959963,1.007514729994,455.14928879999934,455.26598200000444,455.14928879999934,455.26598200000444,455.24931940000533,None,None,0,,455.24931940000533,None,,,,,,,p12,2022_Apr_13_1117,training+cueing,2021.1.4,59.953943382463436,
Self.png,You,Self ,c,1,11,21,91,,,,,0,0,0,0,,,,,8,11,107,0,,,,,,,,,,,,,,,,,,,,,1.674,2.365,456.80412060000526,None,,,,,,,,,,,,,,,,,,,,457.3463364000054,457.8512499999997,0.5069885300108581,1.007171630008088,457.8346023000049,457.93460060000507,457.8346023000049,457.93460060000507,457.93460060000507,None,c,1,0.8109391999969375,457.93460060000507,None,,,,,,,p12,2022_Apr_13_1117,training+cueing,2021.1.4,59.953943382463436,
Self.png,Stranger,Self ,m,3.1,18,28,98,,,,,0,0,0,0,,,,,9,0,108,2,,,,,,,,,,,,,,,,,,,,,1.403,1.21,458.8787417000058,None,,,,,,,,,,,,,,,,,,,,459.417746900006,459.91992390000087,0.5049426299956394,1.0047159300011117,459.9032787000033,460.01957020000555,459.9032787000033,460.01957020000555,460.00286100000085,None,m,1,0.7424823000037577,460.00286100000085,None,,,,,,,p12,2022_Apr_13_1117,training+cueing,2021.1.4,59.953943382463436,
Self.png,You,Self ,c,1,11,21,91,,,,,0,0,0,0,,,,,9,1,109,9,,,,,,,,,,,,,,,,,,,,,1.623,2.036,460.8757853999996,None,,,,,,,,,,,,,,,,,,,,461.4172198000015,461.9208512000041,0.5072726299986243,1.0075221299994155,461.90417540000635,462.0042212000044,461.90417540000635,462.0042212000044,462.0042212000044,None,None,0,,462.0042212000044,None,,,,,,,p12,2022_Apr_13_1117,training+cueing,2021.1.4,59.953943382463436,
Self.png,Friend,Self ,m,2.1,16,26,96,,,,,0,0,0,0,,,,,9,2,110,1,,,,,,,,,,,,,,,,,,,,,1.751,2.317,463.74266850000276,None,,,,,,,,,,,,,,,,,,,,464.2822935000004,464.78960380000353,0.5119894300005399,1.0122699299972737,464.7728924000039,464.88963610000064,464.7728924000039,464.88963610000064,464.8729217,None,m,1,0.8964888999980758,464.8729217,None,,,,,,,p12,2022_Apr_13_1117,training+cueing,2021.1.4,59.953943382463436,
Friend.png,Stranger,Friend,m,3.2,19,29,99,,,,,0,0,0,0,,,,,9,3,111,5,,,,,,,,,,,,,,,,,,,,,1.605,2.337,465.896358900005,None,,,,,,,,,,,,,,,,,,,,466.43850810000004,466.94114490000356,0.5057160300057149,1.0061145300060161,466.9244844000059,467.04130830000213,466.9244844000059,467.04130830000213,467.0245821000062,None,m,1,0.7608016999947722,467.0245821000062,None,,,,,,,p12,2022_Apr_13_1117,training+cueing,2021.1.4,59.953943382463436,
Stranger.png,You,Stranger,m,1.3,15,25,95,,,,,0,0,0,0,,,,,9,4,112,6,,,,,,,,,,,,,,,,,,,,,1.45,2.158,467.9146141000019,None,,,,,,,,,,,,,,,,,,,,468.45306260000507,468.9591758000024,0.5094000299941399,1.0096756299972185,468.94258360000094,469.0426269000018,468.94258360000094,469.0426269000018,469.0426269000018,None,m,1,0.838900000002468,469.0426269000018,None,,,,,,,p12,2022_Apr_13_1117,training+cueing,2021.1.4,59.953943382463436,
Stranger.png,Stranger,Stranger,c,3,13,23,93,,,,,0,0,0,0,,,,,9,5,113,11,,,,,,,,,,,,,,,,,,,,,1.438,1.393,470.0159230999998,None,,,,,,,,,,,,,,,,,,,,470.569894500004,471.0774728000033,0.5146646400025929,1.0149184399997466,471.06080260000454,471.1774702000039,471.06080260000454,471.1774702000039,471.16079520000494,None,c,1,0.6407340000005206,471.16079520000494,None,,,,,,,p12,2022_Apr_13_1117,training+cueing,2021.1.4,59.953943382463436,
Self.png,You,Self ,c,1,11,21,91,,,,,0,0,0,0,,,,,9,6,114,0,,,,,,,,,,,,,,,,,,,,,1.772,1.502,471.9386025999993,None,,,,,,,,,,,,,,,,,,,,472.4890987000035,472.99552160000167,0.5139145400025882,1.0141757399978815,472.97885769999993,473.0790211000058,472.97885769999993,473.0790211000058,473.0790211000058,None,c,1,0.6423150000046007,473.0790211000058,None,,,,,,,p12,2022_Apr_13_1117,training+cueing,2021.1.4,59.953943382463436,
Friend.png,You,Friend,m,1.2,14,24,94,,,,,0,0,0,0,,,,,9,7,115,3,,,,,,,,,,,,,,,,,,,,,1.773,2.199,473.85231860000204,None,,,,,,,,,,,,,,,,,,,,474.38796580000053,474.896879800006,0.5151709299971117,1.015451329993084,474.8802083000046,474.9802641999995,474.8802083000046,474.9802641999995,474.9802641999995,None,m,1,0.9491947999995318,474.9802641999995,None,,,,,,,p12,2022_Apr_13_1117,training+cueing,2021.1.4,59.953943382463436,
Friend.png,Friend,Friend,c,2,12,22,92,,,,,0,0,0,0,,,,,9,8,116,4,,,,,,,,,,,,,,,,,,,,,1.428,2.236,476.0572641000035,None,,,,,,,,,,,,,,,,,,,,476.5968167000028,477.0984890000036,0.5029204299935373,1.0031574299937347,477.0818309000024,477.19852710000123,477.0818309000024,477.19852710000123,477.1818473000021,None,c,1,0.8755741999993916,477.1818473000021,None,,,,,,,p12,2022_Apr_13_1117,training+cueing,2021.1.4,59.953943382463436,
Stranger.png,Stranger,Stranger,c,3,13,23,93,,,,,0,0,0,0,,,,,9,9,117,8,,,,,,,,,,,,,,,,,,,,,1.476,2.373,478.19191200000205,None,,,,,,,,,,,,,,,,,,,,478.7322611000054,479.2333538000021,0.5017961300036404,1.0021090299997013,479.2166597000032,479.33340860000317,479.2166597000032,479.33340860000317,479.33340860000317,None,c,1,0.8998675999973784,479.33340860000317,None,,,,,,,p12,2022_Apr_13_1117,training+cueing,2021.1.4,59.953943382463436,
Stranger.png,Friend,Stranger,m,2.3,17,27,97,,,,,0,0,0,0,,,,,9,10,118,7,,,,,,,,,,,,,,,,,,,,,1.542,2.062,480.35701600000175,None,,,,,,,,,,,,,,,,,,,,480.8959388000003,481.40161790000275,0.5091762300071423,1.0100307300017448,481.384884900006,481.502224200005,481.384884900006,481.502224200005,481.4849408000009,None,m,1,0.6525146999993012,481.4849408000009,None,,,,,,,p12,2022_Apr_13_1117,training+cueing,2021.1.4,59.953943382463436,
Friend.png,Friend,Friend,c,2,12,22,92,,,,,0,0,0,0,,,,,9,11,119,10,,,,,,,,,,,,,,,,,,,,,1.54,1.674,482.25985530000617,None,,,,,,,,,,,,,,,,,,,,482.79886350000015,483.30293100000563,0.5069462300016312,1.0072581300046295,483.28627410000627,483.40304430000106,483.28627410000627,483.40304430000106,483.3863383000062,None,c,1,0.6232187999994494,483.3863383000062,None,,,,,,,p12,2022_Apr_13_1117,training+cueing,2021.1.4,59.953943382463436,
,,,,,,,,,,,,0,0,0,0,,,,,,,,,,,,,,,,,,,,,,,,,,,,,,,,,,,,,,,,,,,,,,,,,,,,,,,,,,,,,,,,,,,2.0669991499744356e-05,None,,,,,p12,2022_Apr_13_1117,training+cueing,2021.1.4,59.953943382463436,
Friend.png,Friend,Friend,c,2,12,22,92,,,,,1,0,1,0,0,0,0,4,,,,,,,,,,,,,,,,,484.65397400000074,None,space,2.0112201000010828,2.016159010003321,None,488.675287500002,None,1.649,2.306,491.68755370000144,None,492.22202870000183,492.72645550000016,492.70978480000485,492.8264926000047,492.70978480000485,492.8264926000047,492.8098339999997,None,c,1,492.8098339999997,None,494.0098343999998,None,1.183361999996123,,,,,,,,,,,,,,,,,,,,,,,,,,p12,2022_Apr_13_1117,training+cueing,2021.1.4,59.953943382463436,
Friend.png,Friend,Friend,c,2,12,22,92,,,,,1,0,1,0,0,1,1,10,,,,,,,,,,,,,,,,,,,,,,,,,1.516,1.746,494.4111155999999,None,494.9490326000014,495.461742200001,495.4450438000058,495.56180640000093,495.4450438000058,495.56180640000093,495.5451327000046,None,c,1,495.5451327000046,None,496.21230600000126,None,0.6401508999988437,,,,,,,,,,,,,,,,,,,,,,,,,,p12,2022_Apr_13_1117,training+cueing,2021.1.4,59.953943382463436,
Self.png,Stranger,Self ,m,3.1,18,28,98,,,,,1,0,1,0,0,2,2,2,,,,,,,,,,,,,,,,,,,,,,,,,1.717,1.205,496.6125658000019,None,497.14343130000634,497.6466622000007,497.630012900001,497.746713200002,497.630012900001,497.746713200002,497.7300577999995,None,m,1,497.7300577999995,None,498.6125647000008,None,0.8552174999931594,,,,,,,,,,,,,,,,,,,,,,,,,,p12,2022_Apr_13_1117,training+cueing,2021.1.4,59.953943382463436,
Stranger.png,Friend,Stranger,m,2.3,17,27,97,,,,,1,0,1,0,0,3,3,7,,,,,,,,,,,,,,,,,,,,,,,,,1.558,2.053,499.014456900004,None,499.5507390000057,500.06514320000133,500.0484013000023,500.1651459000059,500.0484013000023,500.1651459000059,500.1484377000015,None,m,1,500.1484377000015,None,501.1158490000016,None,0.948810499998217,,,,,,,,,,,,,,,,,,,,,,,,,,p12,2022_Apr_13_1117,training+cueing,2021.1.4,59.953943382463436,
Self.png,You,Self ,c,1,11,21,91,,,,,1,0,1,0,0,4,4,9,,,,,,,,,,,,,,,,,,,,,,,,,1.503,2.139,501.5161070000031,None,502.04599840000446,502.55019110000285,502.5335491000005,502.63360570000077,502.5335491000005,502.63360570000077,502.63360570000077,None,c,1,502.63360570000077,None,503.2174023000043,None,0.5597036000035587,,,,,,,,,,,,,,,,,,,,,,,,,,p12,2022_Apr_13_1117,training+cueing,2021.1.4,59.953943382463436,
Self.png,Friend,Self ,m,2.1,16,26,96,,,,,1,0,1,0,0,5,5,1,,,,,,,,,,,,,,,,,,,,,,,,,1.778,1.927,503.6177983000016,None,504.15319810000074,504.66841200000636,504.6517246000003,504.76846070000465,504.6517246000003,504.76846070000465,504.7517689000015,None,m,1,504.7517689000015,None,505.8859664000047,None,1.1135130999973626,,,,,,,,,,,,,,,,,,,,,,,,,,p12,2022_Apr_13_1117,training+cueing,2021.1.4,59.953943382463436,
Friend.png,Stranger,Friend,m,3.2,19,29,99,,,,,1,0,1,0,0,6,6,5,,,,,,,,,,,,,,,,,,,,,,,,,1.768,1.622,506.28625580000516,None,506.8188595000029,507.3203345000002,507.3036538000015,507.42040049999923,507.3036538000015,507.42040049999923,507.40369120000105,None,m,1,507.40369120000105,None,508.27099420000013,None,0.8455848999947193,,,,,,,,,,,,,,,,,,,,,,,,,,p12,2022_Apr_13_1117,training+cueing,2021.1.4,59.953943382463436,
Self.png,You,Self ,c,1,11,21,91,,,,,1,0,1,0,0,7,7,0,,,,,,,,,,,,,,,,,,,,,,,,,1.428,1.774,508.6713005000056,None,509.2030769000048,509.70538680000027,509.68871890000446,509.78878310000437,509.68871890000446,509.78878310000437,509.78878310000437,None,c,1,509.78878310000437,None,510.71881779999967,None,0.8926188999976148,,,,,,,,,,,,,,,,,,,,,,,,,,p12,2022_Apr_13_1117,training+cueing,2021.1.4,59.953943382463436,
Stranger.png,Stranger,Stranger,c,3,13,23,93,,,,,1,0,1,0,0,8,8,8,,,,,,,,,,,,,,,,,,,,,,,,,1.66,1.887,511.1231891999996,None,511.6603863000055,512.1738636000009,512.1571848000021,512.2738744000017,512.1571848000021,512.2738744000017,512.2571915000008,None,m,0,512.2571915000008,None,513.3750164000012,None,1.0960868999973172,,,,,,,,,,,,,,,,,,,,,,,,,,p12,2022_Apr_13_1117,training+cueing,2021.1.4,59.953943382463436,
Friend.png,You,Friend,m,1.2,14,24,94,,,,,1,0,1,0,0,9,9,3,,,,,,,,,,,,,,,,,,,,,,,,,1.659,1.626,513.7750579999993,None,514.3099215000038,514.8090709000026,514.8090709000026,514.9091834000064,514.8090709000026,514.9091834000064,514.9091834000064,None,m,1,514.9091834000064,None,515.9586245000028,None,1.0200238000034005,,,,,,,,,,,,,,,,,,,,,,,,,,p12,2022_Apr_13_1117,training+cueing,2021.1.4,59.953943382463436,
Stranger.png,Stranger,Stranger,c,3,13,23,93,,,,,1,0,1,0,0,10,10,11,,,,,,,,,,,,,,,,,,,,,,,,,1.434,2.08,516.3604152000044,None,516.8956908000036,517.4109729000047,517.3943013000026,517.5110053000026,517.3943013000026,517.5110053000026,517.4943169000035,None,c,1,517.4943169000035,None,518.4784595000019,None,0.9629495999979554,,,,,,,,,,,,,,,,,,,,,,,,,,p12,2022_Apr_13_1117,training+cueing,2021.1.4,59.953943382463436,
Stranger.png,You,Stranger,m,1.3,15,25,95,,,,,1,0,1,0,0,11,11,6,,,,,,,,,,,,,,,,,,,,,,,,,1.42,2.218,518.8787089000034,None,519.4102540000022,519.912765000001,519.8961124000052,519.9961595000059,519.8961124000052,519.9961595000059,519.9961595000059,None,m,1,519.9961595000059,None,520.9301949000001,None,0.909065500003635,,,,,,,,,,,,,,,,,,,,,,,,,,p12,2022_Apr_13_1117,training+cueing,2021.1.4,59.953943382463436,
Stranger.png,Stranger,Stranger,c,3,13,23,93,,,,,1,0,1,0,,,,,0,0,0,11,,,,,,,,,,,,,,,,,,,526.2508393000026,None,1.667,2.24,529.7766295000038,None,,,,,,,,,,,,,,,,521.3309859000001,None,0.014387410003109835,0.5126039099995978,530.3002956000055,530.8039917999995,0.5061455299946829,1.0070394299982581,530.7873101000005,530.9040520000053,530.7873101000005,530.9040520000053,530.8873378999997,None,m,0,0.7701856999992742,530.8873378999997,None,,,,,,,p12,2022_Apr_13_1117,training+cueing,2021.1.4,59.953943382463436,
Friend.png,Friend,Friend,c,2,12,22,92,,,,,1,0,1,0,,,,,0,1,1,10,,,,,,,,,,,,,,,,,,,,,1.572,2.315,531.8008287000048,None,,,,,,,,,,,,,,,,,,,,532.3349883000046,532.8387963000059,0.5079531299998052,1.008234729997639,532.8221361000033,532.9388091000001,532.8221361000033,532.9388091000001,532.9221672999993,None,m,0,0.7990434999956051,532.9221672999993,None,,,,,,,p12,2022_Apr_13_1117,training+cueing,2021.1.4,59.953943382463436,
Stranger.png,Stranger,Stranger,c,3,13,23,93,,,,,1,0,1,0,,,,,0,2,2,8,,,,,,,,,,,,,,,,,,,,,1.726,1.504,533.845661600004,None,,,,,,,,,,,,,,,,,,,,534.3893621000025,534.8903105999998,0.5155965300000389,1.016446329995233,534.8903105999998,534.9903696000038,534.8903105999998,534.9903696000038,534.9903696000038,None,c,1,1.2109722000022884,534.9903696000038,None,,,,,,,p12,2022_Apr_13_1117,training+cueing,2021.1.4,59.953943382463436,
Friend.png,Stranger,Friend,m,3.2,19,29,99,,,,,1,0,1,0,,,,,0,3,3,5,,,,,,,,,,,,,,,,,,,,,1.785,2.153,536.3315963999994,None,,,,,,,,,,,,,,,,,,,,536.8719009000051,537.3754027000032,0.5066749300021911,1.0069381299981615,537.3587745000041,537.4754504000011,537.3587745000041,537.4754504000011,537.458773600003,None,m,1,0.726471500005573,537.458773600003,None,,,,,,,p12,2022_Apr_13_1117,training+cueing,2021.1.4,59.953943382463436,
Stranger.png,You,Stranger,m,1.3,15,25,95,,,,,1,0,1,0,,,,,0,4,4,6,,,,,,,,,,,,,,,,,,,,,1.637,1.204,538.3155213999999,None,,,,,,,,,,,,,,,,,,,,538.8653818000021,539.3768717999992,0.5040420299992547,1.0043132299979334,539.3601619000037,539.4602212000027,539.3601619000037,539.4602212000027,539.4602212000027,None,m,1,0.82097999999678,539.4602212000027,None,,,,,,,p12,2022_Apr_13_1117,training+cueing,2021.1.4,59.953943382463436,
Friend.png,You,Friend,m,1.2,14,24,94,,,,,1,0,1,0,,,,,0,5,5,3,,,,,,,,,,,,,,,,,,,,,1.435,1.427,540.4171847000034,None,,,,,,,,,,,,,,,,,,,,540.9557520000017,541.4616758000047,0.5115247300054762,1.011841830004414,541.4449762000004,541.5450380000038,541.4449762000004,541.5450380000038,541.5450380000038,None,m,1,0.6881247000055737,541.5450380000038,None,,,,,,,p12,2022_Apr_13_1117,training+cueing,2021.1.4,59.953943382463436,
Self.png,Friend,Self ,m,2.1,16,26,96,,,,,1,0,1,0,,,,,0,6,6,1,,,,,,,,,,,,,,,,,,,,,1.779,2.163,542.3683290000045,None,,,,,,,,,,,,,,,,,,,,542.9070486000055,543.4131173999995,0.5113810300026671,1.011677829999826,543.3964229000048,543.5131605999995,543.3964229000048,543.5131605999995,543.4964528000055,None,m,1,0.6730076000021654,543.4964528000055,None,,,,,,,p12,2022_Apr_13_1117,training+cueing,2021.1.4,59.953943382463436,
Self.png,You,Self ,c,1,11,21,91,,,,,1,0,1,0,,,,,0,7,7,9,,,,,,,,,,,,,,,,,,,,,1.575,2.362,544.3029735000018,None,,,,,,,,,,,,,,,,,,,,544.8438853000043,545.3478366000054,0.5064975300047081,1.006768330000341,545.3311976000041,545.4312425000026,545.3311976000041,545.4312425000026,545.4312425000026,None,None,0,,545.4312425000026,None,,,,,,,p12,2022_Apr_13_1117,training+cueing,2021.1.4,59.953943382463436,
Self.png,Stranger,Self ,m,3.1,18,28,98,,,,,1,0,1,0,,,,,0,8,8,2,,,,,,,,,,,,,,,,,,,,,1.647,1.642,547.1214180000024,None,,,,,,,,,,,,,,,,,,,,547.6642920000013,548.1665433000016,0.5054270300024655,1.0057155300091836,548.1499009000036,548.2665822000054,548.1499009000036,548.2665822000054,548.2499220000027,None,m,1,0.7192655999970157,548.2499220000027,None,,,,,,,p12,2022_Apr_13_1117,training+cueing,2021.1.4,59.953943382463436,
Friend.png,Friend,Friend,c,2,12,22,92,,,,,1,0,1,0,,,,,0,9,9,4,,,,,,,,,,,,,,,,,,,,,1.461,1.533,549.1069629000049,None,,,,,,,,,,,,,,,,,,,,549.6477490000034,550.1513262000008,0.5065869300015038,1.0068923299986636,550.1346198000028,550.2513691999993,550.1346198000028,550.2513691999993,550.2346687000027,None,m,0,0.7026056000031531,550.2346687000027,None,,,,,,,p12,2022_Apr_13_1117,training+cueing,2021.1.4,59.953943382463436,
Self.png,You,Self ,c,1,11,21,91,,,,,1,0,1,0,,,,,0,10,10,0,,,,,,,,,,,,,,,,,,,,,1.755,1.566,551.0746289000017,None,,,,,,,,,,,,,,,,,,,,551.6122773000025,552.1194065000018,0.5127026299960562,1.0129125299936277,552.1027692999996,552.202747700001,552.1027692999996,552.202747700001,552.202747700001,None,c,1,1.0543875000003027,552.202747700001,None,,,,,,,p12,2022_Apr_13_1117,training+cueing,2021.1.4,59.953943382463436,
Stranger.png,Friend,Stranger,m,2.3,17,27,97,,,,,1,0,1,0,,,,,0,11,11,7,,,,,,,,,,,,,,,,,,,,,1.503,1.457,553.3932289000004,None,,,,,,,,,,,,,,,,,,,,553.9361798000027,554.4377811000013,0.5036082299993723,1.0038874300007592,554.4210805000039,554.5378070000006,554.4210805000039,554.5378070000006,554.5211052000013,None,m,1,0.7204079000002821,554.5211052000013,None,,,,,,,p12,2022_Apr_13_1117,training+cueing,2021.1.4,59.953943382463436,
Self.png,Friend,Self ,m,2.1,16,26,96,,,,,1,0,1,0,,,,,1,0,12,1,,,,,,,,,,,,,,,,,,,,,1.436,2.482,555.3811646000031,None,,,,,,,,,,,,,,,,,,,,555.9169271000064,556.4227211000034,0.5089669299995876,1.0092544299986912,556.406012600004,556.5227435000052,556.406012600004,556.5227435000052,556.5060220000014,None,c,0,0.8472182999976212,556.5060220000014,None,,,,,,,p12,2022_Apr_13_1117,training+cueing,2021.1.4,59.953943382463436,
Friend.png,Friend,Friend,c,2,12,22,92,,,,,1,0,1,0,,,,,1,1,13,10,,,,,,,,,,,,,,,,,,,,,1.463,1.26,557.4800806999992,None,,,,,,,,,,,,,,,,,,,,558.0234039999996,558.5240432999999,0.5000544299982721,1.0003800300037256,558.5073651000057,558.6240790000011,558.5073651000057,558.6240790000011,558.6240790000011,None,None,0,,558.6240790000011,None,,,,,,,p12,2022_Apr_13_1117,training+cueing,2021.1.4,59.953943382463436,
Stranger.png,Stranger,Stranger,c,3,13,23,93,,,,,1,0,1,0,,,,,1,2,14,11,,,,,,,,,,,,,,,,,,,,,1.756,1.371,560.1975758000044,None,,,,,,,,,,,,,,,,,,,,560.739651200005,561.242637000003,0.5059922299915343,1.0063177299962263,561.2259954000037,561.3427164000022,561.2259954000037,561.3427164000022,561.3260670000018,None,None,0,,561.3260670000018,None,,,,,,,p12,2022_Apr_13_1117,training+cueing,2021.1.4,59.953943382463436,
Friend.png,Stranger,Friend,m,3.2,19,29,99,,,,,1,0,1,0,,,,,1,3,15,5,,,,,,,,,,,,,,,,,,,,,1.748,1.428,563.1981487000012,None,,,,,,,,,,,,,,,,,,,,563.7387498000026,564.2448000000004,0.5095397299955948,1.0098398299960536,564.2281766000015,564.3448886000042,564.2281766000015,564.3448886000042,564.3282089000058,None,m,1,0.8009803000022657,564.3282089000058,None,,,,,,,p12,2022_Apr_13_1117,training+cueing,2021.1.4,59.953943382463436,
Friend.png,Friend,Friend,c,2,12,22,92,,,,,1,0,1,0,,,,,1,4,16,4,,,,,,,,,,,,,,,,,,,,,1.554,2.2,565.2513497000036,None,,,,,,,,,,,,,,,,,,,,565.7922334000032,566.296308200006,0.5064837299942155,None,566.279652600002,566.3963886000056,566.279652600002,566.3963886000056,566.3797019000049,None,m,0,0.38138230000186013,566.3797019000049,None,,,,,,,p12,2022_Apr_13_1117,training+cueing,2021.1.4,59.953943382463436,
Stranger.png,You,Stranger,m,1.3,15,25,95,,,,,1,0,1,0,,,,,1,5,17,6,,,,,,,,,,,,,,,,,,,,,1.52,2.393,566.8861286000028,None,,,,,,,,,,,,,,,,,,,,567.4318818000029,567.9475342000005,0.5143017299924395,1.0145685299939942,567.9308474000063,568.0308941000039,567.9308474000063,568.0308941000039,568.0308941000039,None,m,1,1.3064707999947132,568.0308941000039,None,,,,,,,p12,2022_Apr_13_1117,training+cueing,2021.1.4,59.953943382463436,
Self.png,Stranger,Self ,m,3.1,18,28,98,,,,,1,0,1,0,,,,,1,6,18,2,,,,,,,,,,,,,,,,,,,,,1.657,2.103,569.471426300006,None,,,,,,,,,,,,,,,,,,,,570.0130033000023,570.5160651000042,0.5048793299938552,1.005076729990833,570.4994557000027,570.6161401000063,570.4994557000027,570.6161401000063,570.5994050000008,None,m,1,0.9137426000015694,570.5994050000008,None,,,,,,,p12,2022_Apr_13_1117,training+cueing,2021.1.4,59.953943382463436,
Stranger.png,Stranger,Stranger,c,3,13,23,93,,,,,1,0,1,0,,,,,1,7,19,8,,,,,,,,,,,,,,,,,,,,,1.653,1.713,571.6399665999998,None,,,,,,,,,,,,,,,,,,,,572.184571800004,572.6842954000022,0.4995255299945711,1.000025529996492,572.6675920000052,572.7843465000042,572.6675920000052,572.7843465000042,572.7843465000042,None,c,1,0.9368084000016097,572.7843465000042,None,,,,,,,p12,2022_Apr_13_1117,training+cueing,2021.1.4,59.953943382463436,
Self.png,You,Self ,c,1,11,21,91,,,,,1,0,1,0,,,,,1,8,20,0,,,,,,,,,,,,,,,,,,,,,1.539,2.359,573.8579764000024,None,,,,,,,,,,,,,,,,,,,,574.3964850000048,574.9025295000029,0.509366329999466,1.0095646300032968,574.8859814000025,574.9860048000046,574.8859814000025,574.9860048000046,574.9860048000046,None,c,1,0.5271644999957061,574.9860048000046,None,,,,,,,p12,2022_Apr_13_1117,training+cueing,2021.1.4,59.953943382463436,
Friend.png,You,Friend,m,1.2,14,24,94,,,,,1,0,1,0,,,,,1,9,21,3,,,,,,,,,,,,,,,,,,,,,1.501,2.113,575.642434500005,None,,,,,,,,,,,,,,,,,,,,576.1815401999993,576.6871656000003,0.5101866299955873,1.0104727299985825,576.6704912000059,576.770706700001,576.6704912000059,576.770706700001,576.770706700001,None,m,1,0.9824246999996831,576.770706700001,None,,,,,,,p12,2022_Apr_13_1117,training+cueing,2021.1.4,59.953943382463436,
Stranger.png,Friend,Stranger,m,2.3,17,27,97,,,,,1,0,1,0,,,,,1,10,22,7,,,,,,,,,,,,,,,,,,,,,1.696,2.121,577.8769930000053,None,,,,,,,,,,,,,,,,,,,,578.4180857000028,578.922135700006,0.5069583299991791,1.007261329999892,578.9054257000025,579.022189700001,578.9054257000025,579.022189700001,579.0055114999996,None,c,0,0.5556492999967304,579.0055114999996,None,,,,,,,p12,2022_Apr_13_1117,training+cueing,2021.1.4,59.953943382463436,
Self.png,You,Self ,c,1,11,21,91,,,,,1,0,1,0,,,,,1,11,23,9,,,,,,,,,,,,,,,,,,,,,1.656,1.73,579.6956135,None,,,,,,,,,,,,,,,,,,,,580.2361616000053,580.7401167999997,0.5044268299898249,1.0047028299886733,580.7234105000025,580.8234961000053,580.7234105000025,580.8234961000053,580.8234961000053,None,c,1,0.6895986999952584,580.8234961000053,None,,,,,,,p12,2022_Apr_13_1117,training+cueing,2021.1.4,59.953943382463436,
Self.png,Stranger,Self ,m,3.1,18,28,98,,,,,1,0,1,0,,,,,2,0,24,2,,,,,,,,,,,,,,,,,,,,,1.6,2.362,581.6469808000038,None,,,,,,,,,,,,,,,,,,,,582.1874285000013,582.691533600002,0.5066089300016756,1.0070091300003696,582.6748388000051,582.7915993999995,582.6748388000051,582.7915993999995,582.7748753000051,None,m,1,0.9462234000020544,582.7748753000051,None,,,,,,,p12,2022_Apr_13_1117,training+cueing,2021.1.4,59.953943382463436,
Self.png,Friend,Self ,m,2.1,16,26,96,,,,,1,0,1,0,,,,,2,1,25,1,,,,,,,,,,,,,,,,,,,,,1.542,1.495,583.8480017000038,None,,,,,,,,,,,,,,,,,,,,584.3905468000012,584.8931104000003,0.5053316299963626,1.00563123000029,584.8764274999994,584.993163500003,584.8764274999994,584.993163500003,584.9764657000051,None,m,1,0.5367293000017526,584.9764657000051,None,,,,,,,p12,2022_Apr_13_1117,training+cueing,2021.1.4,59.953943382463436,
Friend.png,You,Friend,m,1.2,14,24,94,,,,,1,0,1,0,,,,,2,2,26,3,,,,,,,,,,,,,,,,,,,,,1.444,1.356,585.6500034000055,None,,,,,,,,,,,,,,,,,,,,586.1905011000053,586.6943969000058,0.5048107300026459,1.0053011300042272,586.6777244000041,586.7777795000002,586.6777244000041,586.7777795000002,586.7777795000002,None,m,1,0.7354930000001332,586.7777795000002,None,,,,,,,p12,2022_Apr_13_1117,training+cueing,2021.1.4,59.953943382463436,
Stranger.png,Friend,Stranger,m,2.3,17,27,97,,,,,1,0,1,0,,,,,2,3,27,7,,,,,,,,,,,,,,,,,,,,,1.779,1.341,587.6359162000008,None,,,,,,,,,,,,,,,,,,,,588.1773877000014,588.6791758000036,0.50541632999375,1.0057013299956452,588.662496900004,588.7792595999999,588.662496900004,588.7792595999999,588.7625126999992,None,m,1,0.5425848000013502,588.7625126999992,None,,,,,,,p12,2022_Apr_13_1117,training+cueing,2021.1.4,59.953943382463436,
Friend.png,Friend,Friend,c,2,12,22,92,,,,,1,0,1,0,,,,,2,4,28,4,,,,,,,,,,,,,,,,,,,,,1.775,1.385,589.4359741000007,None,,,,,,,,,,,,,,,,,,,,589.9747879999995,590.480484700005,0.508403530002397,1.0087947300053202,590.4637900000016,590.580589600002,590.4637900000016,590.580589600002,590.5638356000054,None,c,1,0.5973398000060115,590.5638356000054,None,,,,,,,p12,2022_Apr_13_1117,training+cueing,2021.1.4,59.953943382463436,
Stranger.png,Stranger,Stranger,c,3,13,23,93,,,,,1,0,1,0,,,,,2,5,29,11,,,,,,,,,,,,,,,,,,,,,1.414,1.503,591.2871974000009,None,,,,,,,,,,,,,,,,,,,,591.8295675000045,592.3318096000003,0.5039421299952664,1.0048042299968074,592.3151523000051,592.4318662000005,592.3151523000051,592.4318662000005,592.4151641999997,None,m,0,0.7782526000009966,592.4151641999997,None,,,,,,,p12,2022_Apr_13_1117,training+cueing,2021.1.4,59.953943382463436,
Friend.png,Stranger,Friend,m,3.2,19,29,99,,,,,1,0,1,0,,,,,2,6,30,5,,,,,,,,,,,,,,,,,,,,,1.538,1.227,593.3257240000021,None,,,,,,,,,,,,,,,,,,,,593.861965300006,594.3666321000055,0.5081561300030444,1.0084726299974136,594.3499530000045,594.466686300002,594.3499530000045,594.466686300002,594.4500034000012,None,m,1,0.9351597999993828,594.4500034000012,None,,,,,,,p12,2022_Apr_13_1117,training+cueing,2021.1.4,59.953943382463436,
Stranger.png,You,Stranger,m,1.3,15,25,95,,,,,1,0,1,0,,,,,2,7,31,6,,,,,,,,,,,,,,,,,,,,,1.526,1.765,595.5069172000003,None,,,,,,,,,,,,,,,,,,,,596.0475254000048,596.5515379000062,0.5055566299997736,1.0064453300001333,596.5348636000053,596.6349132000032,596.5348636000053,596.6349132000032,596.6349132000032,None,None,0,,596.6349132000032,None,,,,,,,p12,2022_Apr_13_1117,training+cueing,2021.1.4,59.953943382463436,
Friend.png,Friend,Friend,c,2,12,22,92,,,,,1,0,1,0,,,,,2,8,32,10,,,,,,,,,,,,,,,,,,,,,1.563,1.821,598.2744001000028,None,,,,,,,,,,,,,,,,,,,,598.8161473,599.3202469000025,0.5080462300029467,1.0082460300036473,599.303587800001,599.4204842000036,599.303587800001,599.4204842000036,599.4035586000027,None,c,1,0.9580538000009255,599.4035586000027,None,,,,,,,p12,2022_Apr_13_1117,training+cueing,2021.1.4,59.953943382463436,
Self.png,You,Self ,c,1,11,21,91,,,,,1,0,1,0,,,,,2,9,33,9,,,,,,,,,,,,,,,,,,,,,1.729,1.859,600.4953607999996,None,,,,,,,,,,,,,,,,,,,,601.0379353000026,601.5384970000014,0.5016039300026023,1.0018852300054277,601.5218131000001,601.6218047000002,601.5218131000001,601.6218047000002,601.6218047000002,None,c,1,0.6432992000045488,601.6218047000002,None,,,,,,,p12,2022_Apr_13_1117,training+cueing,2021.1.4,59.953943382463436,
Stranger.png,Stranger,Stranger,c,3,13,23,93,,,,,1,0,1,0,,,,,2,10,34,8,,,,,,,,,,,,,,,,,,,,,1.406,1.352,602.3953144000043,None,,,,,,,,,,,,,,,,,,,,602.9359531000009,603.4398736000003,0.5047135300046648,1.0050142300024163,603.4231820000059,603.5399295000025,603.4231820000059,603.5399295000025,603.5232218000019,None,m,0,0.5818797000029008,603.5232218000019,None,,,,,,,p12,2022_Apr_13_1117,training+cueing,2021.1.4,59.953943382463436,
Self.png,You,Self ,c,1,11,21,91,,,,,1,0,1,0,,,,,2,11,35,0,,,,,,,,,,,,,,,,,,,,,1.45,2.016,604.2295862000028,None,,,,,,,,,,,,,,,,,,,,604.7727948000029,605.2746312000017,0.5045320299905143,1.0048206299907179,605.2578531000036,605.3578769000014,605.2578531000036,605.3578769000014,605.3578769000014,None,c,1,0.5712127000006149,605.3578769000014,None,,,,,,,p12,2022_Apr_13_1117,training+cueing,2021.1.4,59.953943382463436,
Friend.png,Stranger,Friend,m,3.2,19,29,99,,,,,1,0,1,0,,,,,3,0,36,5,,,,,,,,,,,,,,,,,,,,,1.577,2.087,606.064595900003,None,,,,,,,,,,,,,,,,,,,,606.6189043000049,607.1258946000016,0.5110803400020814,1.0113672400038922,607.1091847000062,607.2258990000046,607.1091847000062,607.2258990000046,607.2092466000031,None,m,1,0.6559813999992912,607.2092466000031,None,,,,,,,p12,2022_Apr_13_1117,training+cueing,2021.1.4,59.953943382463436,
Self.png,You,Self ,c,1,11,21,91,,,,,1,0,1,0,,,,,3,1,37,9,,,,,,,,,,,,,,,,,,,,,1.544,1.52,607.9997015000044,None,,,,,,,,,,,,,,,,,,,,608.5557695000025,609.0606038000042,0.5098435399922892,1.0101399399936781,609.0439249000046,609.1439731999999,609.0439249000046,609.1439731999999,609.1439731999999,None,c,1,0.5131234000000404,609.1439731999999,None,,,,,,,p12,2022_Apr_13_1117,training+cueing,2021.1.4,59.953943382463436,
Friend.png,You,Friend,m,1.2,14,24,94,,,,,1,0,1,0,,,,,3,2,38,3,,,,,,,,,,,,,,,,,,,,,1.489,2.424,609.7834847000049,None,,,,,,,,,,,,,,,,,,,,610.3270598000017,610.8285386000061,0.5044085299959988,1.0045976300025359,610.8119222000023,610.9119370000044,610.8119222000023,610.9119370000044,610.9119370000044,None,m,1,0.6651222000000416,610.9119370000044,None,,,,,,,p12,2022_Apr_13_1117,training+cueing,2021.1.4,59.953943382463436,
Stranger.png,You,Stranger,m,1.3,15,25,95,,,,,1,0,1,0,,,,,3,3,39,6,,,,,,,,,,,,,,,,,,,,,1.536,2.246,611.7019696000061,None,,,,,,,,,,,,,,,,,,,,612.240440900001,612.7465870000015,0.5095043299952522,1.009815029996389,612.7299028000052,612.8299728000056,612.7299028000052,612.8299728000056,612.8299728000056,None,m,1,0.6830986000059056,612.8299728000056,None,,,,,,,p12,2022_Apr_13_1117,training+cueing,2021.1.4,59.953943382463436,
Stranger.png,Stranger,Stranger,c,3,13,23,93,,,,,1,0,1,0,,,,,3,4,40,8,,,,,,,,,,,,,,,,,,,,,1.431,1.485,613.637318400004,None,,,,,,,,,,,,,,,,,,,,614.1793818000006,614.6813278000045,0.5043654299952323,1.0046577299945056,614.6646503000011,614.7813902000053,614.6646503000011,614.7813902000053,614.7646906000009,None,c,1,0.9403567999979714,614.7646906000009,None,,,,,,,p12,2022_Apr_13_1117,training+cueing,2021.1.4,59.953943382463436,
Stranger.png,Friend,Stranger,m,2.3,17,27,97,,,,,1,0,1,0,,,,,3,5,41,7,,,,,,,,,,,,,,,,,,,,,1.615,1.603,615.8383682999993,None,,,,,,,,,,,,,,,,,,,,616.3985151000015,616.8997197000062,0.5028494399957708,1.0030982399912318,616.8830327000032,616.9997359000045,616.8830327000032,616.9997359000045,616.9830572999999,None,m,1,1.0100708000027225,616.9830572999999,None,,,,,,,p12,2022_Apr_13_1117,training+cueing,2021.1.4,59.953943382463436,
Self.png,You,Self ,c,1,11,21,91,,,,,1,0,1,0,,,,,3,6,42,0,,,,,,,,,,,,,,,,,,,,,1.559,1.384,618.124570400003,None,,,,,,,,,,,,,,,,,,,,618.6634271000003,619.1679031000021,0.5060574300005101,1.0063641300002928,619.151208000003,619.2512711000018,619.151208000003,619.2512711000018,619.2512711000018,None,c,1,0.5339686000006623,619.2512711000018,None,,,,,,,p12,2022_Apr_13_1117,training+cueing,2021.1.4,59.953943382463436,
Friend.png,Friend,Friend,c,2,12,22,92,,,,,1,0,1,0,,,,,3,7,43,4,,,,,,,,,,,,,,,,,,,,,1.456,1.71,619.9077747000047,None,,,,,,,,,,,,,,,,,,,,620.4491766000065,620.9525104000058,0.5059166300052311,1.0062396300054388,620.9358549000026,621.0525723000028,620.9358549000026,621.0525723000028,621.0359011000037,None,m,0,0.5091992000016035,621.0359011000037,None,,,,,,,p12,2022_Apr_13_1117,training+cueing,2021.1.4,59.953943382463436,
Self.png,Friend,Self ,m,2.1,16,26,96,,,,,1,0,1,0,,,,,3,8,44,1,,,,,,,,,,,,,,,,,,,,,1.575,1.587,621.6759076000017,None,,,,,,,,,,,,,,,,,,,,622.2143137000021,622.7204774000056,0.5100548300033552,1.010335530001612,622.7038012000048,622.8205254000059,622.7038012000048,622.8205254000059,622.8038106000022,None,c,0,0.5332631000055699,622.8038106000022,None,,,,,,,p12,2022_Apr_13_1117,training+cueing,2021.1.4,59.953943382463436,
Stranger.png,Stranger,Stranger,c,3,13,23,93,,,,,1,0,1,0,,,,,3,9,45,11,,,,,,,,,,,,,,,,,,,,,1.778,1.294,623.4607870000036,None,,,,,,,,,,,,,,,,,,,,624.0053318000064,624.5051048000023,0.49971582999569364,1.000013630000467,624.4884206999996,624.6051636000047,624.4884206999996,624.6051636000047,624.6051636000047,None,c,1,1.43607460000203,624.6051636000047,None,,,,,,,p12,2022_Apr_13_1117,training+cueing,2021.1.4,59.953943382463436,
Self.png,Stranger,Self ,m,3.1,18,28,98,,,,,1,0,1,0,,,,,3,10,46,2,,,,,,,,,,,,,,,,,,,,,1.75,2.014,626.1796205000064,None,,,,,,,,,,,,,,,,,,,,626.7171495000002,627.2237206000063,0.5116364299974521,1.0119423299984192,627.2070573000019,627.3237598000051,627.2070573000019,627.3237598000051,627.3070981000055,None,m,1,0.9740828000067268,627.3070981000055,None,,,,,,,p12,2022_Apr_13_1117,training+cueing,2021.1.4,59.953943382463436,
Friend.png,Friend,Friend,c,2,12,22,92,,,,,1,0,1,0,,,,,3,11,47,10,,,,,,,,,,,,,,,,,,,,,1.751,2.049,628.4136773999999,None,,,,,,,,,,,,,,,,,,,,628.9551726999998,629.4586802000049,0.5045796300037182,1.0048454299976584,629.4420190000019,629.5638252999997,629.4420190000019,629.5638252999997,629.5420168000055,None,c,1,0.7710519000029308,629.5420168000055,None,,,,,,,p12,2022_Apr_13_1117,training+cueing,2021.1.4,59.953943382463436,
Self.png,Stranger,Self ,m,3.1,18,28,98,,,,,1,0,1,0,,,,,4,0,48,2,,,,,,,,,,,,,,,,,,,,,1.456,1.747,630.4485243000017,None,,,,,,,,,,,,,,,,,,,,631.0040829000063,631.510366100003,0.5110771399922669,1.011417439993238,631.493492900001,631.6103756000011,631.493492900001,631.6103756000011,631.5937703000018,None,None,0,,631.5937703000018,None,,,,,,,p12,2022_Apr_13_1117,training+cueing,2021.1.4,59.953943382463436,
Stranger.png,Stranger,Stranger,c,3,13,23,93,,,,,1,0,1,0,,,,,4,1,49,8,,,,,,,,,,,,,,,,,,,,,1.622,1.819,633.1652410000024,None,,,,,,,,,,,,,,,,,,,,633.7070104000013,634.2121047000037,0.5103112299984787,1.0106105300001218,634.1954519999999,634.3121773000021,634.1954519999999,634.3121773000021,634.2954960999996,None,c,1,1.025583299997379,634.2954960999996,None,,,,,,,p12,2022_Apr_13_1117,training+cueing,2021.1.4,59.953943382463436,
Friend.png,Friend,Friend,c,2,12,22,92,,,,,1,0,1,0,,,,,4,2,50,4,,,,,,,,,,,,,,,,,,,,,1.425,1.983,635.4528076999995,None,,,,,,,,,,,,,,,,,,,,635.9931534000061,636.4971445000047,0.5052919299996574,1.005698429995391,636.4804375000022,636.5973372000008,636.4804375000022,636.5973372000008,636.5804519000012,None,c,1,0.8046570000005886,636.5804519000012,None,,,,,,,p12,2022_Apr_13_1117,training+cueing,2021.1.4,59.953943382463436,
Stranger.png,Stranger,Stranger,c,3,13,23,93,,,,,1,0,1,0,,,,,4,3,51,11,,,,,,,,,,,,,,,,,,,,,1.743,1.698,637.5207683000044,None,,,,,,,,,,,,,,,,,,,,638.0636537000028,638.5652774000046,0.504939229998854,1.005188930001168,638.5485958000063,638.6653284999993,638.5485958000063,638.6653284999993,638.6486389000056,None,c,1,0.9604862999985926,638.6486389000056,None,,,,,,,p12,2022_Apr_13_1117,training+cueing,2021.1.4,59.953943382463436,
Stranger.png,You,Stranger,m,1.3,15,25,95,,,,,1,0,1,0,,,,,4,4,52,6,,,,,,,,,,,,,,,,,,,,,1.471,2.117,639.7389885000011,None,,,,,,,,,,,,,,,,,,,,640.2794305999996,640.783573700006,0.5059625299982144,1.0062338299976545,640.7668599000026,640.8669391000003,640.7668599000026,640.8669391000003,640.8669391000003,None,m,1,0.8223720000023604,640.8669391000003,None,,,,,,,p12,2022_Apr_13_1117,training+cueing,2021.1.4,59.953943382463436,
Self.png,You,Self ,c,1,11,21,91,,,,,1,0,1,0,,,,,4,5,53,0,,,,,,,,,,,,,,,,,,,,,1.515,1.548,641.8236768999996,None,,,,,,,,,,,,,,,,,,,,642.3632997000022,642.868447300003,0.5108824299968546,1.0110290299999178,642.8518301000004,642.9517476000037,642.8518301000004,642.9517476000037,642.9517476000037,None,c,1,0.62536249999539,642.9517476000037,None,,,,,,,p12,2022_Apr_13_1117,training+cueing,2021.1.4,59.953943382463436,
Self.png,You,Self ,c,1,11,21,91,,,,,1,0,1,0,,,,,4,6,54,9,,,,,,,,,,,,,,,,,,,,,1.733,1.493,643.7087444000063,None,,,,,,,,,,,,,,,,,,,,644.2481386,644.7532434000022,0.5109298299939837,1.0110422299985657,644.7365669999999,644.8364565000011,644.7365669999999,644.8364565000011,644.8364565000011,None,c,1,0.6125781000009738,644.8364565000011,None,,,,,,,p12,2022_Apr_13_1117,training+cueing,2021.1.4,59.953943382463436,
Friend.png,You,Friend,m,1.2,14,24,94,,,,,1,0,1,0,,,,,4,7,55,3,,,,,,,,,,,,,,,,,,,,,1.788,1.406,645.6354314000055,None,,,,,,,,,,,,,,,,,,,,646.1138505000054,646.6214258000036,0.5125557300052606,1.012672830001975,646.6045707000012,646.7046384000059,646.6045707000012,646.7046384000059,646.7046384000059,None,m,1,0.8084305999946082,646.7046384000059,None,,,,,,,p12,2022_Apr_13_1117,training+cueing,2021.1.4,59.953943382463436,
Stranger.png,Friend,Stranger,m,2.3,17,27,97,,,,,1,0,1,0,,,,,4,8,56,7,,,,,,,,,,,,,,,,,,,,,1.531,1.447,647.6442225000064,None,,,,,,,,,,,,,,,,,,,,648.1866298000023,648.6892825000032,0.505530729999009,1.0057897299993783,648.6726039000059,648.7893183000051,648.6726039000059,648.7893183000051,648.7726294000022,None,m,1,0.9003780999992159,648.7726294000022,None,,,,,,,p12,2022_Apr_13_1117,training+cueing,2021.1.4,59.953943382463436,
Friend.png,Stranger,Friend,m,3.2,19,29,99,,,,,1,0,1,0,,,,,4,9,57,5,,,,,,,,,,,,,,,,,,,,,1.539,2.396,649.7971395000059,None,,,,,,,,,,,,,,,,,,,,650.3377751000007,650.8407971000051,0.5049488299991935,1.0052978300009272,650.824125500003,650.9408538000062,650.824125500003,650.9408538000062,650.924179900001,None,m,1,0.796869699996023,650.924179900001,None,,,,,,,p12,2022_Apr_13_1117,training+cueing,2021.1.4,59.953943382463436,
Friend.png,Friend,Friend,c,2,12,22,92,,,,,1,0,1,0,,,,,4,10,58,10,,,,,,,,,,,,,,,,,,,,,1.638,2.397,651.8477589000031,None,,,,,,,,,,,,,,,,,,,,652.3885280000031,652.8923424000022,0.5050384299975121,1.005160929998965,652.8757501,652.9923837000024,652.8757501,652.9923837000024,652.9756397000019,None,c,1,0.9694260000032955,652.9756397000019,None,,,,,,,p12,2022_Apr_13_1117,training+cueing,2021.1.4,59.953943382463436,
Self.png,Friend,Self ,m,2.1,16,26,96,,,,,1,0,1,0,,,,,4,11,59,1,,,,,,,,,,,,,,,,,,,,,1.428,1.345,654.0828670000046,None,,,,,,,,,,,,,,,,,,,,654.6220346000046,655.1272575000039,0.5100842300016666,1.0103799299977254,655.1105680000037,655.2272975000014,655.1105680000037,655.2272975000014,655.2106071000017,None,m,1,0.8944476999968174,655.2106071000017,None,,,,,,,p12,2022_Apr_13_1117,training+cueing,2021.1.4,59.953943382463436,
Stranger.png,Stranger,Stranger,c,3,13,23,93,,,,,1,0,1,0,,,,,5,0,60,11,,,,,,,,,,,,,,,,,,,,,1.672,1.232,656.234418,None,,,,,,,,,,,,,,,,,,,,656.774035500006,657.2787736000028,0.5059120300065842,1.0061930300071253,657.2621266999995,657.3788550000027,657.2621266999995,657.3788550000027,657.3621488000063,None,m,0,1.4468724000034854,657.3621488000063,None,,,,,,,p12,2022_Apr_13_1117,training+cueing,2021.1.4,59.953943382463436,
Self.png,You,Self ,c,1,11,21,91,,,,,1,0,1,0,,,,,5,1,61,0,,,,,,,,,,,,,,,,,,,,,1.683,1.917,658.935681300005,None,,,,,,,,,,,,,,,,,,,,659.4776896000039,659.9807776000016,0.5061525299970526,1.0064159300018218,659.9641028000042,660.064140500006,659.9641028000042,660.064140500006,660.064140500006,None,c,1,0.6490250999995624,660.064140500006,None,,,,,,,p12,2022_Apr_13_1117,training+cueing,2021.1.4,59.953943382463436,
Stranger.png,You,Stranger,m,1.3,15,25,95,,,,,1,0,1,0,,,,,5,2,62,6,,,,,,,,,,,,,,,,,,,,,1.785,1.776,660.841347600006,None,,,,,,,,,,,,,,,,,,,,661.3785146000009,661.882151100006,0.5064981299947249,1.0067755299969576,661.8654510000051,661.9654702000043,661.8654510000051,661.9654702000043,661.9654702000043,None,m,1,0.7154840999937733,661.9654702000043,None,,,,,,,p12,2022_Apr_13_1117,training+cueing,2021.1.4,59.953943382463436,
Friend.png,Stranger,Friend,m,3.2,19,29,99,,,,,1,0,1,0,,,,,5,3,63,5,,,,,,,,,,,,,,,,,,,,,1.457,1.93,662.805644,None,,,,,,,,,,,,,,,,,,,,663.3613325000042,663.8668822000036,0.5088065399904735,1.0091056399905938,663.8502434000038,663.9669858000052,663.8502434000038,663.9669858000052,663.950276800002,None,None,0,,663.950276800002,None,,,,,,,p12,2022_Apr_13_1117,training+cueing,2021.1.4,59.953943382463436,
Self.png,Friend,Self ,m,2.1,16,26,96,,,,,1,0,1,0,,,,,5,4,64,1,,,,,,,,,,,,,,,,,,,,,1.722,1.903,665.5223237000027,None,,,,,,,,,,,,,,,,,,,,666.0664634999994,666.5688774000009,0.5052672300007544,1.0055716300048516,666.5521790000057,666.6689762000024,666.5521790000057,666.6689762000024,666.6521892000019,None,m,1,0.780789199998253,666.6521892000019,None,,,,,,,p12,2022_Apr_13_1117,training+cueing,2021.1.4,59.953943382463436,
Self.png,Stranger,Self ,m,3.1,18,28,98,,,,,1,0,1,0,,,,,5,5,65,2,,,,,,,,,,,,,,,,,,,,,1.788,2.421,667.5589118000062,None,,,,,,,,,,,,,,,,,,,,668.1003505000044,668.6036703000063,0.5055842299989308,1.0058620300042094,668.587010700001,668.703709100002,668.587010700001,668.703709100002,668.6869858999999,None,m,1,0.5379480999981752,668.6869858999999,None,,,,,,,p12,2022_Apr_13_1117,training+cueing,2021.1.4,59.953943382463436,
Friend.png,You,Friend,m,1.2,14,24,94,,,,,1,0,1,0,,,,,5,6,66,3,,,,,,,,,,,,,,,,,,,,,1.491,2.129,669.3606929000016,None,,,,,,,,,,,,,,,,,,,,669.9153035000054,670.4216121000063,0.5109725399961462,1.011262739993981,670.4049892000039,670.5050228000036,670.4049892000039,670.5050228000036,670.5050228000036,None,m,1,0.656019699999888,670.5050228000036,None,,,,,,,p12,2022_Apr_13_1117,training+cueing,2021.1.4,59.953943382463436,
Stranger.png,Friend,Stranger,m,2.3,17,27,97,,,,,1,0,1,0,,,,,5,7,67,7,,,,,,,,,,,,,,,,,,,,,1.732,1.211,671.2954931999993,None,,,,,,,,,,,,,,,,,,,,671.8368413000062,672.3396888000061,0.5062307299958775,1.0067631299971254,672.3230096000043,672.4397404000047,672.3230096000043,672.4397404000047,672.4230889000028,None,m,1,0.5620162999985041,672.4230889000028,None,,,,,,,p12,2022_Apr_13_1117,training+cueing,2021.1.4,59.953943382463436,
Friend.png,Friend,Friend,c,2,12,22,92,,,,,1,0,1,0,,,,,5,8,68,4,,,,,,,,,,,,,,,,,,,,,1.424,2.07,673.1129485000056,None,,,,,,,,,,,,,,,,,,,,673.6515963000056,674.1576926000052,0.5098473300022306,1.0106853300021612,674.1410252999995,674.2577579000063,674.1410252999995,674.2577579000063,674.2410057000016,None,c,1,0.6160773000010522,674.2410057000016,None,,,,,,,p12,2022_Apr_13_1117,training+cueing,2021.1.4,59.953943382463436,
Stranger.png,Stranger,Stranger,c,3,13,23,93,,,,,1,0,1,0,,,,,5,9,69,8,,,,,,,,,,,,,,,,,,,,,1.782,1.964,674.9844546000022,None,,,,,,,,,,,,,,,,,,,,675.5239279000016,676.0256867000062,0.5042198299997835,1.0045107299956726,676.009014700001,676.1257557000063,676.009014700001,676.1257557000063,676.1090646000011,None,m,0,0.6199918999991496,676.1090646000011,None,,,,,,,p12,2022_Apr_13_1117,training+cueing,2021.1.4,59.953943382463436,
Friend.png,Friend,Friend,c,2,12,22,92,,,,,1,0,1,0,,,,,5,10,70,10,,,,,,,,,,,,,,,,,,,,,1.564,1.343,676.8656719000064,None,,,,,,,,,,,,,,,,,,,,677.4073171000055,677.9103730000061,0.5055413300069631,1.0058222300067428,677.8937076000002,678.0104847000039,677.8937076000002,678.0104847000039,677.9937961000032,None,None,0,,677.9937961000032,None,,,,,,,p12,2022_Apr_13_1117,training+cueing,2021.1.4,59.953943382463436,
Self.png,You,Self ,c,1,11,21,91,,,,,1,0,1,0,,,,,5,11,71,9,,,,,,,,,,,,,,,,,,,,,1.532,1.639,679.6654055000035,None,,,,,,,,,,,,,,,,,,,,680.2080319000015,680.7124712000004,0.5065449299945612,1.0073844299986376,680.6957916000028,680.7958125000005,680.6957916000028,680.7958125000005,680.7958125000005,None,c,1,0.5095214000029955,680.7958125000005,None,,,,,,,p12,2022_Apr_13_1117,training+cueing,2021.1.4,59.953943382463436,
Friend.png,Friend,Friend,c,2,12,22,92,,,,,1,0,1,0,,,,,6,0,72,4,,,,,,,,,,,,,,,,,,,,,1.536,2.084,681.4391575000045,None,,,,,,,,,,,,,,,,,,,,681.9799924000035,682.4805081000013,0.5017375300012645,1.0026369299957878,682.4636813000034,682.5804215000026,682.4636813000034,682.5804215000026,682.5804215000026,None,c,1,1.0127352999988943,682.5804215000026,None,,,,,,,p12,2022_Apr_13_1117,training+cueing,2021.1.4,59.953943382463436,
Self.png,You,Self ,c,1,11,21,91,,,,,1,0,1,0,,,,,6,1,73,9,,,,,,,,,,,,,,,,,,,,,1.553,2.198,683.7216574000049,None,,,,,,,,,,,,,,,,,,,,684.2772289000059,684.7820266000053,0.5092401399888331,1.0095240399896284,684.7653557000012,684.8653971000022,684.7653557000012,684.8653971000022,684.8653971000022,None,c,1,0.5356145000041579,684.8653971000022,None,,,,,,,p12,2022_Apr_13_1117,training+cueing,2021.1.4,59.953943382463436,
Friend.png,You,Friend,m,1.2,14,24,94,,,,,1,0,1,0,,,,,6,2,74,3,,,,,,,,,,,,,,,,,,,,,1.471,1.649,685.5390448000035,None,,,,,,,,,,,,,,,,,,,,686.076321600005,686.5833339000019,0.5108597299986286,1.0113467299961485,686.5666371000043,686.6666971000013,686.5666371000043,686.6666971000013,686.6666971000013,None,m,1,0.6223933000001125,686.6666971000013,None,,,,,,,p12,2022_Apr_13_1117,training+cueing,2021.1.4,59.953943382463436,
Self.png,Stranger,Self ,m,3.1,18,28,98,,,,,1,0,1,0,,,,,6,3,75,2,,,,,,,,,,,,,,,,,,,,,1.52,2.425,687.4249605000005,None,,,,,,,,,,,,,,,,,,,,687.9670853000061,688.4680513000058,0.5011863299951074,1.002054529992165,688.4513699000017,688.5681089999998,688.4513699000017,688.5681089999998,688.5681089999998,None,m,1,1.4728940999993938,688.5681089999998,None,,,,,,,p12,2022_Apr_13_1117,training+cueing,2021.1.4,59.953943382463436,
Stranger.png,Friend,Stranger,m,2.3,17,27,97,,,,,1,0,1,0,,,,,6,4,76,7,,,,,,,,,,,,,,,,,,,,,1.444,1.364,690.1765890000024,None,,,,,,,,,,,,,,,,,,,,690.7183511000039,691.2200303000063,0.5023392300063279,1.00262773000577,691.2033365000025,691.320054200005,691.2033365000025,691.320054200005,691.3033737000005,None,m,1,0.9295486999981222,691.3033737000005,None,,,,,,,p12,2022_Apr_13_1117,training+cueing,2021.1.4,59.953943382463436,
Stranger.png,Stranger,Stranger,c,3,13,23,93,,,,,1,0,1,0,,,,,6,5,77,8,,,,,,,,,,,,,,,,,,,,,1.732,1.565,692.3608043999993,None,,,,,,,,,,,,,,,,,,,,692.9032540000044,693.4049379000062,0.5043933300039498,1.0047223300061887,693.3882670000021,693.5050082000016,693.3882670000021,693.5050082000016,693.4882963000055,None,c,1,0.7927208999972208,693.4882963000055,None,,,,,,,p12,2022_Apr_13_1117,training+cueing,2021.1.4,59.953943382463436,
Friend.png,Friend,Friend,c,2,12,22,92,,,,,1,0,1,0,,,,,6,6,78,10,,,,,,,,,,,,,,,,,,,,,1.422,2.074,694.4118402000022,None,,,,,,,,,,,,,,,,,,,,694.9649988000019,695.4731107000043,0.5155960400006734,1.0158925400028238,695.4563990000024,695.5731481000039,695.4563990000024,695.5731481000039,695.556453600002,None,c,1,0.5965332000050694,695.556453600002,None,,,,,,,p12,2022_Apr_13_1117,training+cueing,2021.1.4,59.953943382463436,
Self.png,You,Self ,c,1,11,21,91,,,,,1,0,1,0,,,,,6,7,79,0,,,,,,,,,,,,,,,,,,,,,1.748,2.201,696.2793250000032,None,,,,,,,,,,,,,,,,,,,,696.8204358000003,697.3244464000018,0.5064187300013145,None,697.3077661999996,697.4078080000036,697.3077661999996,697.4078080000036,697.4078080000036,None,c,1,0.3451539000016055,697.4078080000036,None,,,,,,,p12,2022_Apr_13_1117,training+cueing,2021.1.4,59.953943382463436,
Self.png,Friend,Self ,m,2.1,16,26,96,,,,,1,0,1,0,,,,,6,8,80,1,,,,,,,,,,,,,,,,,,,,,1.579,1.908,697.8812153000035,None,,,,,,,,,,,,,,,,,,,,698.4230735000019,698.9256339999993,0.5059586299976218,1.006231929997739,698.9089351000002,699.0256177000047,698.9089351000002,699.0256177000047,699.0088953000013,None,m,1,1.112037799997779,699.0088953000013,None,,,,,,,p12,2022_Apr_13_1117,training+cueing,2021.1.4,59.953943382463436,
Stranger.png,Stranger,Stranger,c,3,13,23,93,,,,,1,0,1,0,,,,,6,9,81,11,,,,,,,,,,,,,,,,,,,,,1.561,2.374,700.2499647000004,None,,,,,,,,,,,,,,,,,,,,700.7918493000034,701.2939858000027,0.5052344300056575,1.005743630004872,701.2772920999996,701.3940272000036,701.2772920999996,701.3940272000036,701.3775163000028,None,c,1,0.5675220999983139,701.3775163000028,None,,,,,,,p12,2022_Apr_13_1117,training+cueing,2021.1.4,59.953943382463436,
Stranger.png,You,Stranger,m,1.3,15,25,95,,,,,1,0,1,0,,,,,6,10,82,6,,,,,,,,,,,,,,,,,,,,,1.694,1.743,702.0685417000059,None,,,,,,,,,,,,,,,,,,,,702.608399100005,703.1119538000057,0.5040973299983307,1.0044225299934624,703.0952898000032,703.195323400003,703.0952898000032,703.195323400003,703.195323400003,None,None,0,,703.195323400003,None,,,,,,,p12,2022_Apr_13_1117,training+cueing,2021.1.4,59.953943382463436,
Friend.png,Stranger,Friend,m,3.2,19,29,99,,,,,1,0,1,0,,,,,6,11,83,5,,,,,,,,,,,,,,,,,,,,,1.566,1.472,705.0003973000057,None,,,,,,,,,,,,,,,,,,,,705.5437282999992,706.047430700004,0.5059725300015998,1.0062398299996858,706.0307451000044,706.1474914000064,706.0307451000044,706.1474914000064,706.1307671000031,None,m,1,0.662190199996985,706.1307671000031,None,,,,,,,p12,2022_Apr_13_1117,training+cueing,2021.1.4,59.953943382463436,
Friend.png,Stranger,Friend,m,3.2,19,29,99,,,,,1,0,1,0,,,,,7,0,84,5,,,,,,,,,,,,,,,,,,,,,1.549,1.739,706.9206019000048,None,,,,,,,,,,,,,,,,,,,,707.4589057000048,707.9654448000001,0.5105791300011333,1.010834929998964,707.9488294000039,708.0655352000031,707.9488294000039,708.0655352000031,708.0488436000014,None,m,1,0.48811099999875296,708.0488436000014,None,,,,,,,p12,2022_Apr_13_1117,training+cueing,2021.1.4,59.953943382463436,
