Image,Name,Face,CorrAns,Match,Face_onset,CResponse_onset,IResponse_onset,Match.thisRepN,Match.thisTrialN,Match.thisN,Match.thisIndex,Blocks.thisRepN,Blocks.thisTrialN,Blocks.thisN,Blocks.thisIndex,trials.thisRepN,trials.thisTrialN,trials.thisN,trials.thisIndex,trials_2.thisRepN,trials_2.thisTrialN,trials_2.thisN,trials_2.thisIndex,text.started,text.stopped,p1.started,p1.stopped,MatchInstructions.started,MatchInstructions.stopped,Name1.started,Name1.stopped,Face_Relevance.started,Face_Relevance.stopped,MismatchInstructions.started,MismatchInstructions.stopped,Rest_trainingInstruct.started,Rest_trainingInstruct.stopped,next8.keys,next8.rt,next8.started,next8.stopped,Ready.started,Ready.stopped,delay_one_picked,delay_two_picked,blank0.started,blank0.stopped,FixationCross1.started,FixationCross1.stopped,Name3.started,Name3.stopped,Face_Relevance3.started,Face_Relevance3.stopped,responseTime.started,responseTime.stopped,resp.keys,resp.corr,resp.started,resp.stopped,Accuracy.started,Accuracy.stopped,resp.rt,questions.started,questions.stopped,p2.started,p2.stopped,FixationCross3.started,FixationCross3.stopped,port_Face_onset.started,port_Face_onset.stopped,Name4.started,Name4.stopped,Face_Relevance4.started,Face_Relevance4.stopped,responseTime2.started,responseTime2.stopped,Response.keys,Response.corr,Response.rt,Response.started,Response.stopped,p3.started,p3.stopped,Finish.started,Finish.stopped,gender,age,participant,date,expName,psychopyVersion,frameRate,
Self.png,You,,,,,,,0,0,0,0,,,,,,,,,,,,,19.6896868001204,None,0.007554149720817804,0.5303574497811496,25.367494700010866,None,27.523526000091806,None,27.523526000091806,None,,,,,,,,,,,,,,,,,,,,,,,,,,,,,,,,,,,,,,,,,,,,,,,,,,,,,,,p132,2022_Apr_05_1430,training+cueing,2021.1.4,59.94125756688776,
Stranger.png,Stranger,,,,,,,0,1,1,2,,,,,,,,,,,,,,,,,,,47.4252054002136,None,47.4252054002136,None,,,,,,,,,,,,,,,,,,,,,,,,,,,,,,,,,,,,,,,,,,,,,,,,,,,,,,,p132,2022_Apr_05_1430,training+cueing,2021.1.4,59.94125756688776,
Friend.png,Friend,,,,,,,0,2,2,1,,,,,,,,,,,,,,,,,,,67.41901720012538,None,67.41901720012538,None,,,,,,,,,,,,,,,,,,,,,,,,,,,,,,,,,,,,,,,,,,,,,,,,,,,,,,,p132,2022_Apr_05_1430,training+cueing,2021.1.4,59.94125756688776,
Self.png,Stranger,Self ,m,3.1,18,28,98,,,,,0,0,0,0,0,0,0,2,,,,,,,,,,,,,,,87.37926710001193,None,90.8148072999902,None,space,0.46182260010391474,2.0091054500080645,None,93.28188610007055,None,1.415,1.309,96.30002100020647,None,96.93648210004903,97.43655059998855,97.43655059998855,97.53651760006323,97.43655059998855,97.53651760006323,97.53651760006323,None,None,0,97.53651760006323,None,98.96592089999467,None,,,,,,,,,,,,,,,,,,,,,,,,,,,p132,2022_Apr_05_1430,training+cueing,2021.1.4,59.94125756688776,
Friend.png,You,Friend,m,1.2,14,24,94,,,,,0,0,0,0,0,1,1,3,,,,,,,,,,,,,,,,,,,,,,,,,1.696,1.418,99.37118490017019,None,99.90316990017891,100.4052894001361,100.38858230016194,100.48862170008942,100.38858230016194,100.48862170008942,100.48862170008942,None,m,1,100.48862170008942,None,101.78851420013234,None,1.282237899955362,,,,,,,,,,,,,,,,,,,,,,,,,,p132,2022_Apr_05_1430,training+cueing,2021.1.4,59.94125756688776,
Stranger.png,Stranger,Stranger,c,3,13,23,93,,,,,0,0,0,0,0,2,2,8,,,,,,,,,,,,,,,,,,,,,,,,,1.652,1.674,102.1898881001398,None,102.72338840016164,103.2239970001392,103.207305500051,103.32407220010646,103.207305500051,103.32407220010646,103.32407220010646,None,m,0,103.32407220010646,None,104.85874160006642,None,1.502909499919042,,,,,,,,,,,,,,,,,,,,,,,,,,p132,2022_Apr_05_1430,training+cueing,2021.1.4,59.94125756688776,
Stranger.png,Friend,Stranger,m,2.3,17,27,97,,,,,0,0,0,0,0,3,3,7,,,,,,,,,,,,,,,,,,,,,,,,,1.737,1.902,105.25877050007693,None,105.79123249999247,106.2928790000733,106.27616760018282,106.39291739999317,106.27616760018282,106.39291739999317,106.39291739999317,None,None,0,106.39291739999317,None,108.14421360008419,None,,,,,,,,,,,,,,,,,,,,,,,,,,,p132,2022_Apr_05_1430,training+cueing,2021.1.4,59.94125756688776,
Self.png,You,Self ,c,1,11,21,91,,,,,0,0,0,0,0,4,4,9,,,,,,,,,,,,,,,,,,,,,,,,,1.711,1.221,108.54451230005361,None,109.07829020009376,109.57857190002687,109.56190209998749,109.66194140003063,109.56190209998749,109.66194140003063,109.66194140003063,None,None,0,109.66194140003063,None,111.37984240008518,None,,,,,,,,,,,,,,,,,,,,,,,,,,,p132,2022_Apr_05_1430,training+cueing,2021.1.4,59.94125756688776,
Friend.png,Friend,Friend,c,2,12,22,92,,,,,0,0,0,0,0,5,5,10,,,,,,,,,,,,,,,,,,,,,,,,,1.58,2.031,111.78017530008219,None,112.3144414999988,112.81444650003687,112.81444650003687,112.91430480009876,112.81444650003687,112.91430480009876,112.91430480009876,None,m,0,112.91430480009876,None,114.16525770002045,None,1.2245474997907877,,,,,,,,,,,,,,,,,,,,,,,,,,p132,2022_Apr_05_1430,training+cueing,2021.1.4,59.94125756688776,
Stranger.png,Stranger,Stranger,c,3,13,23,93,,,,,0,0,0,0,0,6,6,11,,,,,,,,,,,,,,,,,,,,,,,,,1.687,1.653,114.56551380013116,None,115.09973490005359,115.59961790009402,115.59961790009402,115.69967010011896,115.59961790009402,115.69967010011896,115.69967010011896,None,m,0,115.69967010011896,None,117.15075250016525,None,1.4312762999907136,,,,,,,,,,,,,,,,,,,,,,,,,,p132,2022_Apr_05_1430,training+cueing,2021.1.4,59.94125756688776,
Stranger.png,You,Stranger,m,1.3,15,25,95,,,,,0,0,0,0,0,7,7,6,,,,,,,,,,,,,,,,,,,,,,,,,1.411,2.12,117.55252780020237,None,118.08889440004714,118.60178170003928,118.58512240019627,118.68514270009473,118.58512240019627,118.68514270009473,118.68514270009473,None,m,1,118.68514270009473,None,119.73461230006069,None,1.021762300049886,,,,,,,,,,,,,,,,,,,,,,,,,,p132,2022_Apr_05_1430,training+cueing,2021.1.4,59.94125756688776,
Friend.png,Friend,Friend,c,2,12,22,92,,,,,0,0,0,0,0,8,8,4,,,,,,,,,,,,,,,,,,,,,,,,,1.555,1.599,120.13618160015903,None,120.67013720003888,121.17027920018882,121.15362690016627,121.27034320007078,121.15362690016627,121.27034320007078,121.27034320007078,None,c,1,121.27034320007078,None,122.67009010002948,None,1.3806908000260592,,,,,,,,,,,,,,,,,,,,,,,,,,p132,2022_Apr_05_1430,training+cueing,2021.1.4,59.94125756688776,
Friend.png,Stranger,Friend,m,3.2,19,29,99,,,,,0,0,0,0,0,9,9,5,,,,,,,,,,,,,,,,,,,,,,,,,1.761,2.322,123.07189300004393,None,123.61268700007349,124.1224495000206,124.10575680015609,124.22259920020588,124.10575680015609,124.22259920020588,124.20592440012842,None,m,1,124.20592440012842,None,125.58896400011145,None,1.3572643001098186,,,,,,,,,,,,,,,,,,,,,,,,,,p132,2022_Apr_05_1430,training+cueing,2021.1.4,59.94125756688776,
Self.png,You,Self ,c,1,11,21,91,,,,,0,0,0,0,0,10,10,0,,,,,,,,,,,,,,,,,,,,,,,,,1.699,1.55,125.99066810007207,None,126.53696800000034,127.04122440004721,127.02455940004438,127.12460219999775,127.02455940004438,127.12460219999775,127.12460219999775,None,c,1,127.12460219999775,None,127.641656300053,None,0.4863340000156313,,,,,,,,,,,,,,,,,,,,,,,,,,p132,2022_Apr_05_1430,training+cueing,2021.1.4,59.94125756688776,
Self.png,Friend,Self ,m,2.1,16,26,96,,,,,0,0,0,0,0,11,11,1,,,,,,,,,,,,,,,,,,,,,,,,,1.738,2.015,128.04194200015627,None,128.57509120018221,129.07603520015255,129.05934839998372,129.17609500000253,129.05934839998372,129.17609500000253,129.17609500000253,None,m,1,129.17609500000253,None,129.9766867000144,None,0.7708564999047667,,,,,,,,,,,,,,,,,,,,,,,,,,p132,2022_Apr_05_1430,training+cueing,2021.1.4,59.94125756688776,
Self.png,You,Self ,c,1,11,21,91,,,,,0,0,0,0,,,,,0,0,0,9,,,,,,,,,,,,,,,,,,,137.9659514001105,None,1.768,1.851,141.48169909999706,None,,,,,,,,,,,,,,,,130.3769658000674,None,0.014851850224658847,None,142.090179100167,142.60275790002197,0.5053648999892175,1.005650999955833,142.58596890000626,142.68617780017667,142.58596890000626,142.68617780017667,142.68617780017667,None,c,1,0.6688029000069946,142.68617780017667,None,,,,,,,p132,2022_Apr_05_1430,training+cueing,2021.1.4,59.94125756688776,
Stranger.png,Stranger,Stranger,c,3,13,23,93,,,,,0,0,0,0,,,,,0,1,1,11,,,,,,,,,,,,,,,,,,,,,1.75,1.553,143.49366859998554,None,,,,,,,,,,,,,,,,,,,,144.03653260017745,144.53723200014792,0.501212950097397,1.0015111500397325,144.52052470017225,144.6372895000968,144.52052470017225,144.6372895000968,144.6372895000968,None,m,0,1.0056370999664068,144.6372895000968,None,,,,,,,p132,2022_Apr_05_1430,training+cueing,2021.1.4,59.94125756688776,
Stranger.png,You,Stranger,m,1.3,15,25,95,,,,,0,0,0,0,,,,,0,2,2,6,,,,,,,,,,,,,,,,,,,,,1.453,1.32,145.77722290018573,None,,,,,,,,,,,,,,,,,,,,146.3196044000797,146.82221110002138,0.5064281499944627,1.007049750071019,146.80556360003538,146.90558110014535,146.80556360003538,146.90558110014535,146.90558110014535,None,m,1,0.9934258998837322,146.90558110014535,None,,,,,,,p132,2022_Apr_05_1430,training+cueing,2021.1.4,59.94125756688776,
Friend.png,You,Friend,m,1.2,14,24,94,,,,,0,0,0,0,,,,,0,3,3,3,,,,,,,,,,,,,,,,,,,,,1.66,1.791,148.02995009999722,None,,,,,,,,,,,,,,,,,,,,148.56838460010476,149.07384850014932,0.5087078497745097,1.0090165499132127,149.05715560005046,149.15721410000697,149.05715560005046,149.15721410000697,149.15721410000697,None,m,1,0.8856707999948412,149.15721410000697,None,,,,,,,p132,2022_Apr_05_1430,training+cueing,2021.1.4,59.94125756688776,
Self.png,You,Self ,c,1,11,21,91,,,,,0,0,0,0,,,,,0,4,4,0,,,,,,,,,,,,,,,,,,,,,1.503,1.25,150.18107000016607,None,,,,,,,,,,,,,,,,,,,,150.7193935001269,151.22546020010486,0.5107054500840604,1.0115824500098825,151.2087554000318,151.30888060014695,151.2087554000318,151.30888060014695,151.30888060014695,None,c,1,0.7820979000534862,151.30888060014695,None,,,,,,,p132,2022_Apr_05_1430,training+cueing,2021.1.4,59.94125756688776,
Self.png,Friend,Self ,m,2.1,16,26,96,,,,,0,0,0,0,,,,,0,5,5,1,,,,,,,,,,,,,,,,,,,,,1.615,2.3,152.21675150003284,None,,,,,,,,,,,,,,,,,,,,152.75925740017556,153.26017510006204,0.5020704502239823,1.0023748502135277,153.24353660014458,153.3602490001358,153.24353660014458,153.3602490001358,153.3435526001267,None,m,1,1.2434350999537855,153.3435526001267,None,,,,,,,p132,2022_Apr_05_1430,training+cueing,2021.1.4,59.94125756688776,
Friend.png,Friend,Friend,c,2,12,22,92,,,,,0,0,0,0,,,,,0,6,6,10,,,,,,,,,,,,,,,,,,,,,1.792,1.352,154.7175859999843,None,,,,,,,,,,,,,,,,,,,,155.25607980019413,155.76200990006328,0.5106576499529183,1.0110411499626935,155.74538790015504,155.86204090015963,155.74538790015504,155.86204090015963,155.84536760021,None,c,1,1.6215747999958694,155.84536760021,None,,,,,,,p132,2022_Apr_05_1430,training+cueing,2021.1.4,59.94125756688776,
Self.png,Stranger,Self ,m,3.1,18,28,98,,,,,0,0,0,0,,,,,0,7,7,2,,,,,,,,,,,,,,,,,,,,,1.796,2.393,157.60352090001106,None,,,,,,,,,,,,,,,,,,,,158.1457709001843,158.64744700002484,0.5041216500103474,1.0044790501706302,158.63068900001235,158.7475274000317,158.63068900001235,158.7475274000317,158.73077620007098,None,m,1,1.2480766999069601,158.73077620007098,None,,,,,,,p132,2022_Apr_05_1430,training+cueing,2021.1.4,59.94125756688776,
Friend.png,Friend,Friend,c,2,12,22,92,,,,,0,0,0,0,,,,,0,8,8,4,,,,,,,,,,,,,,,,,,,,,1.597,1.661,160.10476450016722,None,,,,,,,,,,,,,,,,,,,,160.64695600001141,161.14919600007124,0.5018258502241224,1.0020829502027482,161.13260550005361,161.24926880002022,161.13260550005361,161.24926880002022,161.24926880002022,None,c,1,1.0336620998568833,161.24926880002022,None,,,,,,,p132,2022_Apr_05_1430,training+cueing,2021.1.4,59.94125756688776,
Stranger.png,Friend,Stranger,m,2.3,17,27,97,,,,,0,0,0,0,,,,,0,9,9,7,,,,,,,,,,,,,,,,,,,,,1.572,2.004,162.40632200008258,None,,,,,,,,,,,,,,,,,,,,162.949543800205,163.4508951001335,0.5032513502519578,1.0041301501914859,163.43423580005765,163.55151100014336,163.43423580005765,163.55151100014336,163.53483100002632,None,m,1,1.03611099999398,163.53483100002632,None,,,,,,,p132,2022_Apr_05_1430,training+cueing,2021.1.4,59.94125756688776,
Stranger.png,Stranger,Stranger,c,3,13,23,93,,,,,0,0,0,0,,,,,0,10,10,8,,,,,,,,,,,,,,,,,,,,,1.54,2.305,164.7096087001264,None,,,,,,,,,,,,,,,,,,,,165.27370340004563,165.78594470000826,0.5082433996722102,1.008502199780196,165.76930110016838,165.8859951000195,165.76930110016838,165.8859951000195,165.86931300000288,None,c,1,1.4376580000389367,165.86931300000288,None,,,,,,,p132,2022_Apr_05_1430,training+cueing,2021.1.4,59.94125756688776,
Friend.png,Stranger,Friend,m,3.2,19,29,99,,,,,0,0,0,0,,,,,0,11,11,5,,,,,,,,,,,,,,,,,,,,,1.746,2.076,167.44280690001324,None,,,,,,,,,,,,,,,,,,,,167.9838811000809,168.48789570014924,0.5064792500343174,1.0067253499291837,168.4712211000733,168.58794430014677,168.4712211000733,168.58794430014677,168.57126350002363,None,m,1,1.3917309001553804,168.57126350002363,None,,,,,,,p132,2022_Apr_05_1430,training+cueing,2021.1.4,59.94125756688776,
Friend.png,You,Friend,m,1.2,14,24,94,,,,,0,0,0,0,,,,,1,0,12,3,,,,,,,,,,,,,,,,,,,,,1.613,1.629,170.09462930005975,None,,,,,,,,,,,,,,,,,,,,170.6385772000067,171.13984820013866,0.5028700500261039,1.0031420500017703,171.12313780002296,171.22318800003268,171.12313780002296,171.22318800003268,171.22318800003268,None,m,1,0.9797938999254256,171.22318800003268,None,,,,,,,p132,2022_Apr_05_1430,training+cueing,2021.1.4,59.94125756688776,
Stranger.png,You,Stranger,m,1.3,15,25,95,,,,,0,0,0,0,,,,,1,1,13,6,,,,,,,,,,,,,,,,,,,,,1.533,1.566,172.33067190018483,None,,,,,,,,,,,,,,,,,,,,172.87061710003763,173.3747579001356,0.5075108502060175,1.007983050076291,173.3581018000841,173.45813260017894,173.3581018000841,173.45813260017894,173.45813260017894,None,m,1,0.7448165998794138,173.45813260017894,None,,,,,,,p132,2022_Apr_05_1430,training+cueing,2021.1.4,59.94125756688776,
Friend.png,Stranger,Friend,m,3.2,19,29,99,,,,,0,0,0,0,,,,,1,2,14,5,,,,,,,,,,,,,,,,,,,,,1.531,1.795,174.33270590007305,None,,,,,,,,,,,,,,,,,,,,174.88785290019587,175.39288060017861,0.5078789000399411,1.0081495998892933,175.37624260014854,175.49292220012285,175.37624260014854,175.49292220012285,175.47625920013525,None,None,0,,175.47625920013525,None,,,,,,,p132,2022_Apr_05_1430,training+cueing,2021.1.4,59.94125756688776,
Friend.png,Friend,Friend,c,2,12,22,92,,,,,0,0,0,0,,,,,1,3,15,4,,,,,,,,,,,,,,,,,,,,,1.512,1.703,177.1143801000435,None,,,,,,,,,,,,,,,,,,,,177.66161210020073,178.16153899999335,0.5001553499605507,1.0004512500017881,178.1448912001215,178.2616001002025,178.1448912001215,178.2616001002025,178.2616001002025,None,c,1,0.7893058999907225,178.2616001002025,None,,,,,,,p132,2022_Apr_05_1430,training+cueing,2021.1.4,59.94125756688776,
Self.png,You,Self ,c,1,11,21,91,,,,,0,0,0,0,,,,,1,4,16,0,,,,,,,,,,,,,,,,,,,,,1.45,2.458,179.18559690006077,None,,,,,,,,,,,,,,,,,,,,179.72839450021274,180.22972070006654,0.49999305000528693,1.000289950054139,180.21305010002106,180.31311130011454,180.21305010002106,180.31311130011454,180.31311130011454,None,c,1,0.689952899934724,180.31311130011454,None,,,,,,,p132,2022_Apr_05_1430,training+cueing,2021.1.4,59.94125756688776,
Stranger.png,Stranger,Stranger,c,3,13,23,93,,,,,0,0,0,0,,,,,1,5,17,8,,,,,,,,,,,,,,,,,,,,,1.598,2.372,181.13649510010146,None,,,,,,,,,,,,,,,,,,,,181.68107030005194,182.18113680020906,0.5004401500336826,1.0013309500645846,182.1644735999871,182.28138540009968,182.1644735999871,182.28138540009968,182.28138540009968,None,m,0,1.009604600025341,182.28138540009968,None,,,,,,,p132,2022_Apr_05_1430,training+cueing,2021.1.4,59.94125756688776,
Stranger.png,Friend,Stranger,m,2.3,17,27,97,,,,,0,0,0,0,,,,,1,6,18,7,,,,,,,,,,,,,,,,,,,,,1.595,2.298,183.4228674999904,None,,,,,,,,,,,,,,,,,,,,183.97850930015557,184.48279720009305,0.5089218998327851,1.0092048996593803,184.4661131000612,184.58285390003584,184.4661131000612,184.58285390003584,184.56616390007548,None,None,0,,184.56616390007548,None,,,,,,,p132,2022_Apr_05_1430,training+cueing,2021.1.4,59.94125756688776,
Friend.png,Friend,Friend,c,2,12,22,92,,,,,0,0,0,0,,,,,1,7,19,10,,,,,,,,,,,,,,,,,,,,,1.624,2.249,186.2710467001889,None,,,,,,,,,,,,,,,,,,,,186.81416250020266,187.31821410008706,0.5068030499387532,1.0069466498680413,187.3016731000971,187.41824100003578,187.3016731000971,187.41824100003578,187.40155920013785,None,c,1,1.0733966999687254,187.40155920013785,None,,,,,,,p132,2022_Apr_05_1430,training+cueing,2021.1.4,59.94125756688776,
Self.png,Friend,Self ,m,2.1,16,26,96,,,,,0,0,0,0,,,,,1,8,20,1,,,,,,,,,,,,,,,,,,,,,1.643,2.428,188.60905710002407,None,,,,,,,,,,,,,,,,,,,,189.1558410001453,189.66986880009063,0.5124127499293536,1.0124453497119248,189.65346060018055,189.76997210015543,189.65346060018055,189.76997210015543,189.7532864001114,None,m,1,0.7696934000123292,189.7532864001114,None,,,,,,,p132,2022_Apr_05_1430,training+cueing,2021.1.4,59.94125756688776,
Self.png,Stranger,Self ,m,3.1,18,28,98,,,,,0,0,0,0,,,,,1,9,21,2,,,,,,,,,,,,,,,,,,,,,1.603,2.068,190.66041110013612,None,,,,,,,,,,,,,,,,,,,,191.20392990019172,191.70473480015062,0.5011252502445132,1.0014996503014117,191.68803670001216,191.80474849999882,191.68803670001216,191.80474849999882,191.80474849999882,None,m,1,1.038187300087884,191.80474849999882,None,,,,,,,p132,2022_Apr_05_1430,training+cueing,2021.1.4,59.94125756688776,
Stranger.png,Stranger,Stranger,c,3,13,23,93,,,,,0,0,0,0,,,,,1,10,22,11,,,,,,,,,,,,,,,,,,,,,1.482,2.069,192.9783620000817,None,,,,,,,,,,,,,,,,,,,,193.51721200020984,194.0230652000755,0.5092362500727177,1.0095109501853585,194.00636760005727,194.1231145001948,194.00636760005727,194.1231145001948,194.1063940001186,None,c,1,1.4246398000977933,194.1063940001186,None,,,,,,,p132,2022_Apr_05_1430,training+cueing,2021.1.4,59.94125756688776,
Self.png,You,Self ,c,1,11,21,91,,,,,0,0,0,0,,,,,1,11,23,9,,,,,,,,,,,,,,,,,,,,,1.618,1.285,195.66340370010585,None,,,,,,,,,,,,,,,,,,,,196.20499019999988,196.70833950000815,0.5056499501224607,1.0059595501516014,196.6916668000631,196.79172700014897,196.6916668000631,196.79172700014897,196.79172700014897,None,c,1,0.9311391999945045,196.79172700014897,None,,,,,,,p132,2022_Apr_05_1430,training+cueing,2021.1.4,59.94125756688776,
Friend.png,Friend,Friend,c,2,12,22,92,,,,,0,0,0,0,,,,,2,0,24,4,,,,,,,,,,,,,,,,,,,,,1.422,2.33,197.84844540013,None,,,,,,,,,,,,,,,,,,,,198.38913040002808,198.89332500007004,0.5055838499683887,1.0058735499624163,198.8765558002051,198.99331849999726,198.8765558002051,198.99331849999726,198.97658360004425,None,None,0,,198.97658360004425,None,,,,,,,p132,2022_Apr_05_1430,training+cueing,2021.1.4,59.94125756688776,
Friend.png,You,Friend,m,1.2,14,24,94,,,,,0,0,0,0,,,,,2,1,25,3,,,,,,,,,,,,,,,,,,,,,1.526,2.331,200.51896930020303,None,,,,,,,,,,,,,,,,,,,,201.060145100113,201.5618434001226,0.5035916499327868,1.0038706499617547,201.54516099998727,201.6452237002086,201.54516099998727,201.6452237002086,201.6452237002086,None,m,1,1.03772270004265,201.6452237002086,None,,,,,,,p132,2022_Apr_05_1430,training+cueing,2021.1.4,59.94125756688776,
Stranger.png,Friend,Stranger,m,2.3,17,27,97,,,,,0,0,0,0,,,,,2,2,26,7,,,,,,,,,,,,,,,,,,,,,1.491,1.509,202.81900840019807,None,,,,,,,,,,,,,,,,,,,,203.37636490003206,203.8801844001282,0.5083995999302715,1.0086908000521362,203.86352340015583,203.98022790020332,203.86352340015583,203.98022790020332,203.9635339002125,None,m,1,1.2313095000572503,203.9635339002125,None,,,,,,,p132,2022_Apr_05_1430,training+cueing,2021.1.4,59.94125756688776,
Stranger.png,You,Stranger,m,1.3,15,25,95,,,,,0,0,0,0,,,,,2,3,27,6,,,,,,,,,,,,,,,,,,,,,1.639,1.355,205.3209948001895,None,,,,,,,,,,,,,,,,,,,,205.86277790018357,206.36535670002922,0.5035573500208557,1.0038285499904305,206.34866440016776,206.4486879000906,206.34866440016776,206.4486879000906,206.4486879000906,None,c,0,1.0662529999390244,206.4486879000906,None,,,,,,,p132,2022_Apr_05_1430,training+cueing,2021.1.4,59.94125756688776,
Stranger.png,Stranger,Stranger,c,3,13,23,93,,,,,0,0,0,0,,,,,2,4,28,11,,,,,,,,,,,,,,,,,,,,,1.597,1.596,207.63896080013365,None,,,,,,,,,,,,,,,,,,,,208.18179430020973,208.68370390008204,0.5041809501126409,1.0044845500960946,208.66698170010932,208.78376660007052,208.66698170010932,208.78376660007052,208.766989500029,None,None,0,,208.766989500029,None,,,,,,,p132,2022_Apr_05_1430,training+cueing,2021.1.4,59.94125756688776,
Self.png,Stranger,Self ,m,3.1,18,28,98,,,,,0,0,0,0,,,,,2,5,29,2,,,,,,,,,,,,,,,,,,,,,1.642,1.938,210.47264809999615,None,,,,,,,,,,,,,,,,,,,,211.01334810000844,211.51906650001183,0.5105811497196555,1.010856749722734,211.50240650004707,211.6190737001598,211.50240650004707,211.6190737001598,211.60243790014647,None,m,1,1.1605787000153214,211.60243790014647,None,,,,,,,p132,2022_Apr_05_1430,training+cueing,2021.1.4,59.94125756688776,
Self.png,You,Self ,c,1,11,21,91,,,,,0,0,0,0,,,,,2,6,30,9,,,,,,,,,,,,,,,,,,,,,1.667,1.295,212.89383670012467,None,,,,,,,,,,,,,,,,,,,,213.435805400135,213.93745160009712,0.5022747500333935,1.0034893499687314,213.9207705000881,214.02083880011924,213.9207705000881,214.02083880011924,214.02083880011924,None,c,1,0.7262764999177307,214.02083880011924,None,,,,,,,p132,2022_Apr_05_1430,training+cueing,2021.1.4,59.94125756688776,
Friend.png,Friend,Friend,c,2,12,22,92,,,,,0,0,0,0,,,,,2,7,31,10,,,,,,,,,,,,,,,,,,,,,1.721,1.866,214.88120220019482,None,,,,,,,,,,,,,,,,,,,,215.42091500014067,215.92227210011333,0.5027922498993576,1.0032202498987317,215.90557570010424,216.02247239998542,215.90557570010424,216.02247239998542,216.00578370015137,None,c,1,1.3972737998701632,216.00578370015137,None,,,,,,,p132,2022_Apr_05_1430,training+cueing,2021.1.4,59.94125756688776,
Self.png,You,Self ,c,1,11,21,91,,,,,0,0,0,0,,,,,2,8,32,0,,,,,,,,,,,,,,,,,,,,,1.698,2.495,217.53083950001746,None,,,,,,,,,,,,,,,,,,,,218.07255919999443,218.57418990018778,0.5024037500843406,1.0025713499635458,218.5575602001045,218.65753259998746,218.5575602001045,218.65753259998746,218.65753259998746,None,c,1,0.7134580002166331,218.65753259998746,None,,,,,,,p132,2022_Apr_05_1430,training+cueing,2021.1.4,59.94125756688776,
Stranger.png,Stranger,Stranger,c,3,13,23,93,,,,,0,0,0,0,,,,,2,9,33,8,,,,,,,,,,,,,,,,,,,,,1.683,1.241,219.49767430010252,None,,,,,,,,,,,,,,,,,,,,220.0400853001047,220.54223440005444,0.5052037499845028,1.0057492500636727,220.5255909000989,220.64284500014037,220.5255909000989,220.64284500014037,220.62616780004464,None,c,1,1.2087467000819743,220.62616780004464,None,,,,,,,p132,2022_Apr_05_1430,training+cueing,2021.1.4,59.94125756688776,
Self.png,Friend,Self ,m,2.1,16,26,96,,,,,0,0,0,0,,,,,2,10,34,1,,,,,,,,,,,,,,,,,,,,,1.665,1.701,221.96589920017868,None,,,,,,,,,,,,,,,,,,,,222.50639390014112,223.0107134000864,0.5081157500389963,1.0084025501273572,222.9940222001169,223.1107799001038,222.9940222001169,223.1107799001038,223.09404780017212,None,m,1,0.8050644998438656,223.09404780017212,None,,,,,,,p132,2022_Apr_05_1430,training+cueing,2021.1.4,59.94125756688776,
Friend.png,Stranger,Friend,m,3.2,19,29,99,,,,,0,0,0,0,,,,,2,11,35,5,,,,,,,,,,,,,,,,,,,,,1.533,1.911,224.03527850005776,None,,,,,,,,,,,,,,,,,,,,224.5752912000753,225.07889990019612,0.5050247500184923,1.0053243499714881,225.0622020000592,225.17900480004027,225.0622020000592,225.17900480004027,225.16221020021476,None,None,0,,225.16221020021476,None,,,,,,,p132,2022_Apr_05_1430,training+cueing,2021.1.4,59.94125756688776,
Stranger.png,You,Stranger,m,1.3,15,25,95,,,,,0,0,0,0,,,,,3,0,36,6,,,,,,,,,,,,,,,,,,,,,1.697,2.388,226.801195200067,None,,,,,,,,,,,,,,,,,,,,227.34446260007098,227.84758110018447,0.5066036500502378,1.0067962501198053,227.8309079001192,227.93089070008136,227.8309079001192,227.93089070008136,227.93089070008136,None,m,1,0.8000577997881919,227.93089070008136,None,,,,,,,p132,2022_Apr_05_1430,training+cueing,2021.1.4,59.94125756688776,
Self.png,Stranger,Self ,m,3.1,18,28,98,,,,,0,0,0,0,,,,,3,1,37,2,,,,,,,,,,,,,,,,,,,,,1.768,1.789,228.85456540016457,None,,,,,,,,,,,,,,,,,,,,229.3939388000872,229.8990598001983,0.5091753501910716,1.0094104502350092,229.88235590001568,229.99910650006495,229.88235590001568,229.99910650006495,229.9823730001226,None,m,1,0.8285887001547962,229.9823730001226,None,,,,,,,p132,2022_Apr_05_1430,training+cueing,2021.1.4,59.94125756688776,
Self.png,You,Self ,c,1,11,21,91,,,,,0,0,0,0,,,,,3,2,38,9,,,,,,,,,,,,,,,,,,,,,1.449,2.015,230.9395330999978,None,,,,,,,,,,,,,,,,,,,,231.47991180000827,231.9838589001447,0.506468549836427,1.0067665497772396,231.96721020014957,232.06727090012282,231.96721020014957,232.06727090012282,232.06727090012282,None,c,1,0.6476070999633521,232.06727090012282,None,,,,,,,p132,2022_Apr_05_1430,training+cueing,2021.1.4,59.94125756688776,
Friend.png,Stranger,Friend,m,3.2,19,29,99,,,,,0,0,0,0,,,,,3,3,39,5,,,,,,,,,,,,,,,,,,,,,1.691,2.115,232.84068170003593,None,,,,,,,,,,,,,,,,,,,,233.3835716000758,233.88527660002,0.5039407501462847,1.0041995500214398,233.8685992001556,233.98531600018032,233.8685992001556,233.98531600018032,233.9686261001043,None,m,1,0.8582958998158574,233.9686261001043,None,,,,,,,p132,2022_Apr_05_1430,training+cueing,2021.1.4,59.94125756688776,
Friend.png,You,Friend,m,1.2,14,24,94,,,,,0,0,0,0,,,,,3,4,40,3,,,,,,,,,,,,,,,,,,,,,1.761,1.503,234.95836950000376,None,,,,,,,,,,,,,,,,,,,,235.50435970001854,236.00347750005312,0.5118858499918133,1.0121662497986108,236.00347750005312,236.1035268001724,236.00347750005312,236.1035268001724,236.1035268001724,None,m,1,0.8514400999993086,236.1035268001724,None,,,,,,,p132,2022_Apr_05_1430,training+cueing,2021.1.4,59.94125756688776,
Self.png,You,Self ,c,1,11,21,91,,,,,0,0,0,0,,,,,3,5,41,0,,,,,,,,,,,,,,,,,,,,,1.551,1.983,237.07650890015066,None,,,,,,,,,,,,,,,,,,,,237.62190450006165,238.12165880016983,0.49955684994347394,0.9998326499480754,238.1050023001153,238.2050383000169,238.1050023001153,238.2050383000169,238.2050383000169,None,c,1,0.6859814999625087,238.2050383000169,None,,,,,,,p132,2022_Apr_05_1430,training+cueing,2021.1.4,59.94125756688776,
Stranger.png,Stranger,Stranger,c,3,13,23,93,,,,,0,0,0,0,,,,,3,6,42,11,,,,,,,,,,,,,,,,,,,,,1.564,2.324,239.02863369998522,None,,,,,,,,,,,,,,,,,,,,239.5860946001485,240.08982870006002,0.5082535000983626,1.0086081000044942,240.07301090005785,240.18981090001762,240.07301090005785,240.18981090001762,240.17309450008906,None,c,1,1.1337999999523163,240.17309450008906,None,,,,,,,p132,2022_Apr_05_1430,training+cueing,2021.1.4,59.94125756688776,
Stranger.png,Stranger,Stranger,c,3,13,23,93,,,,,0,0,0,0,,,,,3,7,43,8,,,,,,,,,,,,,,,,,,,,,1.616,1.966,241.43054690002464,None,,,,,,,,,,,,,,,,,,,,241.9674057001248,242.47484240005724,0.5119367497973144,1.0122295496985316,242.45814010011964,242.57484430004843,242.45814010011964,242.57484430004843,242.55818120017648,None,c,1,1.116749299922958,242.55818120017648,None,,,,,,,p132,2022_Apr_05_1430,training+cueing,2021.1.4,59.94125756688776,
Self.png,Friend,Self ,m,2.1,16,26,96,,,,,0,0,0,0,,,,,3,8,44,1,,,,,,,,,,,,,,,,,,,,,1.563,1.823,243.79791220021434,None,,,,,,,,,,,,,,,,,,,,244.3396782001946,244.8431762000546,0.5060745500959456,1.0063533501233906,244.82653680001386,244.94320450001396,244.82653680001386,244.94320450001396,244.9265479000751,None,m,1,0.8283828999847174,244.9265479000751,None,,,,,,,p132,2022_Apr_05_1430,training+cueing,2021.1.4,59.94125756688776,
Friend.png,Friend,Friend,c,2,12,22,92,,,,,0,0,0,0,,,,,3,9,45,4,,,,,,,,,,,,,,,,,,,,,1.435,1.764,245.88351429998875,None,,,,,,,,,,,,,,,,,,,,246.424854000099,246.9280449000653,0.5051782501395792,1.0055555501021445,246.911297300132,247.02809730009176,246.911297300132,247.02809730009176,247.01138260005973,None,c,1,1.1595465999562293,247.01138260005973,None,,,,,,,p132,2022_Apr_05_1430,training+cueing,2021.1.4,59.94125756688776,
Stranger.png,Friend,Stranger,m,2.3,17,27,97,,,,,0,0,0,0,,,,,3,10,46,7,,,,,,,,,,,,,,,,,,,,,1.475,1.5,248.30191800021566,None,,,,,,,,,,,,,,,,,,,,248.8396795000881,249.34646210004576,0.5123653500340879,1.0127560500986874,249.32981980009936,249.44651410006918,249.32981980009936,249.44651410006918,249.42984240013175,None,m,1,1.0131455000955611,249.42984240013175,None,,,,,,,p132,2022_Apr_05_1430,training+cueing,2021.1.4,59.94125756688776,
Friend.png,Friend,Friend,c,2,12,22,92,,,,,0,0,0,0,,,,,3,11,47,10,,,,,,,,,,,,,,,,,,,,,1.614,2.357,250.57118330011144,None,,,,,,,,,,,,,,,,,,,,251.10936360014603,251.61474940017797,0.5105927500408143,1.0108890500850976,251.598088900093,251.71481260005385,251.598088900093,251.71481260005385,251.69813890010118,None,c,1,0.9528031998779625,251.69813890010118,None,,,,,,,p132,2022_Apr_05_1430,training+cueing,2021.1.4,59.94125756688776,
Stranger.png,Friend,Stranger,m,2.3,17,27,97,,,,,0,0,0,0,,,,,4,0,48,7,,,,,,,,,,,,,,,,,,,,,1.785,1.597,252.78787620016374,None,,,,,,,,,,,,,,,,,,,,253.3270164001733,253.83306289999746,0.5103048498276621,1.0105607500299811,253.81633700011298,253.93328500003554,253.81633700011298,253.93328500003554,253.91633060015738,None,m,1,1.0386125999502838,253.91633060015738,None,,,,,,,p132,2022_Apr_05_1430,training+cueing,2021.1.4,59.94125756688776,
Self.png,Friend,Self ,m,2.1,16,26,96,,,,,0,0,0,0,,,,,4,1,49,1,,,,,,,,,,,,,,,,,,,,,1.454,1.858,255.0902492001187,None,,,,,,,,,,,,,,,,,,,,255.63710240018554,256.1514163000975,0.5104823501314968,1.0107837500981987,256.13469800003804,256.25145780015737,256.13469800003804,256.25145780015737,256.2347295000218,None,m,1,1.0562514001503587,256.2347295000218,None,,,,,,,p132,2022_Apr_05_1430,training+cueing,2021.1.4,59.94125756688776,
Stranger.png,You,Stranger,m,1.3,15,25,95,,,,,0,0,0,0,,,,,4,2,50,6,,,,,,,,,,,,,,,,,,,,,1.744,1.52,257.42558320006356,None,,,,,,,,,,,,,,,,,,,,257.96455180016346,258.46973330015317,0.5093921502120793,1.0096958500798792,258.45306820003316,258.5531249002088,258.45306820003316,258.5531249002088,258.5531249002088,None,m,1,0.7060452001169324,258.5531249002088,None,,,,,,,p132,2022_Apr_05_1430,training+cueing,2021.1.4,59.94125756688776,
Friend.png,You,Friend,m,1.2,14,24,94,,,,,0,0,0,0,,,,,4,3,51,3,,,,,,,,,,,,,,,,,,,,,1.492,2.133,259.39384110015817,None,,,,,,,,,,,,,,,,,,,,259.93205710011534,260.4377829001751,0.510107550304383,1.0104000503197312,260.42116959998384,260.52120180008933,260.42116959998384,260.52120180008933,260.52120180008933,None,m,1,1.4097476999741048,260.52120180008933,None,,,,,,,p132,2022_Apr_05_1430,training+cueing,2021.1.4,59.94125756688776,
Friend.png,Stranger,Friend,m,3.2,19,29,99,,,,,0,0,0,0,,,,,4,4,52,5,,,,,,,,,,,,,,,,,,,,,1.75,2.391,262.06209910009056,None,,,,,,,,,,,,,,,,,,,,262.62249050009996,263.12310010008514,0.5010903996881098,1.0014330998528749,263.1063982001506,263.22318500000983,263.1063982001506,263.22318500000983,263.22318500000983,None,m,1,0.9637623999733478,263.22318500000983,None,,,,,,,p132,2022_Apr_05_1430,training+cueing,2021.1.4,59.94125756688776,
Stranger.png,Stranger,Stranger,c,3,13,23,93,,,,,0,0,0,0,,,,,4,5,53,11,,,,,,,,,,,,,,,,,,,,,1.633,1.852,264.3132257000543,None,,,,,,,,,,,,,,,,,,,,264.8510050000623,265.35808180016465,0.5143070498015732,1.0145781498868018,265.34136890014634,265.45811990019865,265.34136890014634,265.45811990019865,265.44140200014226,None,c,1,1.0495502999983728,265.44140200014226,None,,,,,,,p132,2022_Apr_05_1430,training+cueing,2021.1.4,59.94125756688776,
Self.png,You,Self ,c,1,11,21,91,,,,,0,0,0,0,,,,,4,6,54,9,,,,,,,,,,,,,,,,,,,,,1.474,1.883,266.6155201001093,None,,,,,,,,,,,,,,,,,,,,267.15563390008174,267.65976370009594,0.506532050203532,1.0067759500816464,267.64307170012034,267.7430948000401,267.64307170012034,267.7430948000401,267.7430948000401,None,c,1,0.7161522000096738,267.7430948000401,None,,,,,,,p132,2022_Apr_05_1430,training+cueing,2021.1.4,59.94125756688776,
Stranger.png,Stranger,Stranger,c,3,13,23,93,,,,,0,0,0,0,,,,,4,7,55,8,,,,,,,,,,,,,,,,,,,,,1.797,1.732,268.5866067002062,None,,,,,,,,,,,,,,,,,,,,269.1262753000483,269.62785290018655,0.5033423500135541,1.0035856498870999,269.6111781001091,269.7278870001901,269.6111781001091,269.7278870001901,269.71115760016255,None,m,0,0.6516899999696761,269.71115760016255,None,,,,,,,p132,2022_Apr_05_1430,training+cueing,2021.1.4,59.94125756688776,
Self.png,Stranger,Self ,m,3.1,18,28,98,,,,,0,0,0,0,,,,,4,8,56,2,,,,,,,,,,,,,,,,,,,,,1.43,2.3,270.48476970009506,None,,,,,,,,,,,,,,,,,,,,271.0230627001729,271.5292041001376,0.5102426500525326,1.010518650058657,271.51249900017865,271.62926389998756,271.51249900017865,271.62926389998756,271.6125255001243,None,m,1,0.7665059000719339,271.6125255001243,None,,,,,,,p132,2022_Apr_05_1430,training+cueing,2021.1.4,59.94125756688776,
Self.png,You,Self ,c,1,11,21,91,,,,,0,0,0,0,,,,,4,9,57,0,,,,,,,,,,,,,,,,,,,,,1.688,2.016,272.50351140019484,None,,,,,,,,,,,,,,,,,,,,273.04460120014846,273.5473147002049,0.5058488498907536,1.0061537500005215,273.5306222999934,273.63069580006413,273.5306222999934,273.63069580006413,273.63069580006413,None,c,1,0.7162487998139113,273.63069580006413,None,,,,,,,p132,2022_Apr_05_1430,training+cueing,2021.1.4,59.94125756688776,
Friend.png,Friend,Friend,c,2,12,22,92,,,,,0,0,0,0,,,,,4,10,58,10,,,,,,,,,,,,,,,,,,,,,1.64,1.752,274.47103290003724,None,,,,,,,,,,,,,,,,,,,,275.01207410008647,275.51543890009634,0.5063799500931054,1.0068100502248853,275.4987315000035,275.6156065000687,275.4987315000035,275.6156065000687,275.5988684000913,None,m,0,1.1961213001050055,275.5988684000913,None,,,,,,,p132,2022_Apr_05_1430,training+cueing,2021.1.4,59.94125756688776,
Friend.png,Friend,Friend,c,2,12,22,92,,,,,0,0,0,0,,,,,4,11,59,4,,,,,,,,,,,,,,,,,,,,,1.769,2.483,276.9228942000773,None,,,,,,,,,,,,,,,,,,,,277.46559740020894,277.9671949001495,0.5015171500854194,1.0018525500781834,277.95051020011306,278.0672345000785,277.95051020011306,278.0672345000785,278.0672345000785,None,c,1,0.8560025999322534,278.0672345000785,None,,,,,,,p132,2022_Apr_05_1430,training+cueing,2021.1.4,59.94125756688776,
Self.png,You,Self ,c,1,11,21,91,,,,,0,0,0,0,,,,,5,0,60,9,,,,,,,,,,,,,,,,,,,,,1.702,1.768,279.05741700017825,None,,,,,,,,,,,,,,,,,,,,279.59930740017444,280.10209050006233,0.5054707499220967,1.0057726497761905,280.0853901000228,280.18542440002784,280.0853901000228,280.18542440002784,280.18542440002784,None,c,1,0.5935917999595404,280.18542440002784,None,,,,,,,p132,2022_Apr_05_1430,training+cueing,2021.1.4,59.94125756688776,
Friend.png,Friend,Friend,c,2,12,22,92,,,,,0,0,0,0,,,,,5,1,61,4,,,,,,,,,,,,,,,,,,,,,1.607,1.24,280.90885780006647,None,,,,,,,,,,,,,,,,,,,,281.44892390002497,281.9534343001433,0.5083134497981519,1.0085937499534339,281.93673660000786,282.0534904000815,281.93673660000786,282.0534904000815,282.03672299999744,None,m,0,0.8062424999661744,282.03672299999744,None,,,,,,,p132,2022_Apr_05_1430,training+cueing,2021.1.4,59.94125756688776,
Self.png,You,Self ,c,1,11,21,91,,,,,0,0,0,0,,,,,5,2,62,0,,,,,,,,,,,,,,,,,,,,,1.741,2.449,282.9770075001288,None,,,,,,,,,,,,,,,,,,,,283.5172783001326,284.02162950020283,0.5067415502853692,1.0070478501729667,284.00491150002927,284.10497010010295,284.00491150002927,284.10497010010295,284.10497010010295,None,c,1,0.6260443001519889,284.10497010010295,None,,,,,,,p132,2022_Apr_05_1430,training+cueing,2021.1.4,59.94125756688776,
Stranger.png,Stranger,Stranger,c,3,13,23,93,,,,,0,0,0,0,,,,,5,3,63,11,,,,,,,,,,,,,,,,,,,,,1.745,2.262,284.8618958001025,None,,,,,,,,,,,,,,,,,,,,285.4047644000966,285.9062368001323,0.5038421498611569,1.004080549813807,285.8896515001543,286.0062967000995,285.8896515001543,286.0062967000995,285.98963660001755,None,c,1,0.9974542001727968,285.98963660001755,None,,,,,,,p132,2022_Apr_05_1430,training+cueing,2021.1.4,59.94125756688776,
Stranger.png,Stranger,Stranger,c,3,13,23,93,,,,,0,0,0,0,,,,,5,4,64,8,,,,,,,,,,,,,,,,,,,,,1.503,1.797,287.11351040005684,None,,,,,,,,,,,,,,,,,,,,287.65185440005735,288.15789340017363,0.5106676500290632,1.010967449983582,288.14124090014957,288.25805040006526,288.14124090014957,288.25805040006526,288.24137380020693,None,c,1,0.8415092001669109,288.24137380020693,None,,,,,,,p132,2022_Apr_05_1430,training+cueing,2021.1.4,59.94125756688776,
Self.png,Stranger,Self ,m,3.1,18,28,98,,,,,0,0,0,0,,,,,5,5,65,2,,,,,,,,,,,,,,,,,,,,,1.733,2.368,289.21484180004336,None,,,,,,,,,,,,,,,,,,,,289.75232410011813,290.25942430016585,0.5134591502137482,1.013753250008449,290.24276150017977,290.3594821000006,290.24276150017977,290.3594821000006,290.3428193000145,None,m,1,0.756085499888286,290.3428193000145,None,,,,,,,p132,2022_Apr_05_1430,training+cueing,2021.1.4,59.94125756688776,
Stranger.png,Friend,Stranger,m,2.3,17,27,97,,,,,0,0,0,0,,,,,5,6,66,7,,,,,,,,,,,,,,,,,,,,,1.77,1.516,291.23265960020944,None,,,,,,,,,,,,,,,,,,,,291.77446480002254,292.2776018001605,0.5062654500361532,1.0065583500545472,292.26089820009656,292.37764640012756,292.26089820009656,292.37764640012756,292.3609406000469,None,m,1,1.121987899998203,292.3609406000469,None,,,,,,,p132,2022_Apr_05_1430,training+cueing,2021.1.4,59.94125756688776,
Friend.png,Friend,Friend,c,2,12,22,92,,,,,0,0,0,0,,,,,5,7,67,10,,,,,,,,,,,,,,,,,,,,,1.425,2.385,293.6177050000988,None,,,,,,,,,,,,,,,,,,,,294.15567970019765,294.66263450006954,0.5109082499984652,1.0112168500199914,294.6459838000592,294.7626499000471,294.6459838000592,294.7626499000471,294.74601240013726,None,c,1,0.9770485998596996,294.74601240013726,None,,,,,,,p132,2022_Apr_05_1430,training+cueing,2021.1.4,59.94125756688776,
Stranger.png,You,Stranger,m,1.3,15,25,95,,,,,0,0,0,0,,,,,5,8,68,6,,,,,,,,,,,,,,,,,,,,,1.582,1.304,295.8529891001526,None,,,,,,,,,,,,,,,,,,,,296.39422740018927,296.8975682000164,0.5061556498985738,1.006440349854529,296.8809238001704,296.98094730009325,296.8809238001704,296.98094730009325,296.98094730009325,None,m,1,1.0779981000814587,296.98094730009325,None,,,,,,,p132,2022_Apr_05_1430,training+cueing,2021.1.4,59.94125756688776,
Friend.png,Stranger,Friend,m,3.2,19,29,99,,,,,0,0,0,0,,,,,5,9,69,5,,,,,,,,,,,,,,,,,,,,,1.739,2.236,298.188058400061,None,,,,,,,,,,,,,,,,,,,,298.7303966002073,299.23262260016054,0.5046425499022007,1.0049266498535872,299.21594070014544,299.3326874000486,299.21594070014544,299.3326874000486,299.3159378999844,None,m,1,1.1270208000205457,299.3159378999844,None,,,,,,,p132,2022_Apr_05_1430,training+cueing,2021.1.4,59.94125756688776,
Friend.png,You,Friend,m,1.2,14,24,94,,,,,0,0,0,0,,,,,5,10,70,3,,,,,,,,,,,,,,,,,,,,,1.743,2.284,300.57302360003814,None,,,,,,,,,,,,,,,,,,,,301.11275050020777,301.61764920013957,0.5069652500096709,1.0078609501942992,301.6010001001414,301.7010453999974,301.6010001001414,301.7010453999974,301.7010453999974,None,m,1,0.8699364000931382,301.7010453999974,None,,,,,,,p132,2022_Apr_05_1430,training+cueing,2021.1.4,59.94125756688776,
Self.png,Friend,Self ,m,2.1,16,26,96,,,,,0,0,0,0,,,,,5,11,71,1,,,,,,,,,,,,,,,,,,,,,1.429,1.22,302.7087617001962,None,,,,,,,,,,,,,,,,,,,,303.24990719999187,303.75258950004354,0.5050872499123216,1.0053659498225898,303.73586850007996,303.85261130006984,303.73586850007996,303.85261130006984,303.8359046999831,None,m,1,0.9430500001180917,303.8359046999831,None,,,,,,,p132,2022_Apr_05_1430,training+cueing,2021.1.4,59.94125756688776,
Friend.png,You,Friend,m,1.2,14,24,94,,,,,0,0,0,0,,,,,6,0,72,3,,,,,,,,,,,,,,,,,,,,,1.645,1.388,304.909801900154,None,,,,,,,,,,,,,,,,,,,,305.44993890007026,305.9541675001383,0.5066233498509973,1.0069137497339398,305.9374515002128,306.03749480005354,305.9374515002128,306.03749480005354,306.03749480005354,None,m,1,0.8535331999883056,306.03749480005354,None,,,,,,,p132,2022_Apr_05_1430,training+cueing,2021.1.4,59.94125756688776,
Self.png,Stranger,Self ,m,3.1,18,28,98,,,,,0,0,0,0,,,,,6,1,73,2,,,,,,,,,,,,,,,,,,,,,1.492,2.385,307.0281498001423,None,,,,,,,,,,,,,,,,,,,,307.57123400014825,308.0723570000846,0.5012618501204997,1.002280249958858,308.0556435000617,308.17243760009296,308.0556435000617,308.17243760009296,308.17243760009296,None,m,1,0.7665867998730391,308.17243760009296,None,,,,,,,p132,2022_Apr_05_1430,training+cueing,2021.1.4,59.94125756688776,
Self.png,Friend,Self ,m,2.1,16,26,96,,,,,0,0,0,0,,,,,6,2,74,1,,,,,,,,,,,,,,,,,,,,,1.412,2.233,309.06392730004154,None,,,,,,,,,,,,,,,,,,,,309.6089970001485,310.12382710003294,0.5131339498329908,1.013458849862218,310.10713800019585,310.2238506001886,310.10713800019585,310.2238506001886,310.2072176001966,None,m,1,1.0197782998438925,310.2072176001966,None,,,,,,,p132,2022_Apr_05_1430,training+cueing,2021.1.4,59.94125756688776,
Self.png,You,Self ,c,1,11,21,91,,,,,0,0,0,0,,,,,6,3,75,9,,,,,,,,,,,,,,,,,,,,,1.713,1.249,311.36486660013907,None,,,,,,,,,,,,,,,,,,,,311.90327220014296,312.40882400004193,0.5080552499275655,1.008352949982509,312.39215730014257,312.49221609998494,312.39215730014257,312.49221609998494,312.49221609998494,None,c,1,0.638643000042066,312.49221609998494,None,,,,,,,p132,2022_Apr_05_1430,training+cueing,2021.1.4,59.94125756688776,
Stranger.png,Stranger,Stranger,c,3,13,23,93,,,,,0,0,0,0,,,,,6,4,76,11,,,,,,,,,,,,,,,,,,,,,1.544,2.388,313.26577470009215,None,,,,,,,,,,,,,,,,,,,,313.808568400098,314.3102116000373,0.50376494997181,1.0040605498943478,314.29353210004047,314.41029040003195,314.29353210004047,314.41029040003195,314.3935334000271,None,c,1,1.217343800002709,314.3935334000271,None,,,,,,,p132,2022_Apr_05_1430,training+cueing,2021.1.4,59.94125756688776,
Friend.png,Stranger,Friend,m,3.2,19,29,99,,,,,0,0,0,0,,,,,6,5,77,5,,,,,,,,,,,,,,,,,,,,,1.648,1.875,315.73393630003557,None,,,,,,,,,,,,,,,,,,,,316.2733042000327,316.77868150011636,0.5111414499115199,1.0113984500057995,316.7620333000086,316.8787198001519,316.7620333000086,316.8787198001519,316.8620405001566,None,m,1,1.036949299974367,316.8620405001566,None,,,,,,,p132,2022_Apr_05_1430,training+cueing,2021.1.4,59.94125756688776,
Stranger.png,You,Stranger,m,1.3,15,25,95,,,,,0,0,0,0,,,,,6,6,78,6,,,,,,,,,,,,,,,,,,,,,1.77,2.272,318.03608210012317,None,,,,,,,,,,,,,,,,,,,,318.5760022001341,319.08033420005813,0.5056440501939505,1.005946450168267,319.0636411001906,319.1636920000892,319.0636411001906,319.1636920000892,319.1636920000892,None,m,1,0.7992533000651747,319.1636920000892,None,,,,,,,p132,2022_Apr_05_1430,training+cueing,2021.1.4,59.94125756688776,
Stranger.png,Stranger,Stranger,c,3,13,23,93,,,,,0,0,0,0,,,,,6,7,79,8,,,,,,,,,,,,,,,,,,,,,1.562,1.613,320.0871970001608,None,,,,,,,,,,,,,,,,,,,,320.63684020005167,321.1485063000582,0.5054878499358892,1.0059067499823868,321.1318061000202,321.24867110000923,321.1318061000202,321.24867110000923,321.2319573001005,None,c,1,1.067051799967885,321.2319573001005,None,,,,,,,p132,2022_Apr_05_1430,training+cueing,2021.1.4,59.94125756688776,
Friend.png,Friend,Friend,c,2,12,22,92,,,,,0,0,0,0,,,,,6,8,80,10,,,,,,,,,,,,,,,,,,,,,1.678,1.988,322.423261300195,None,,,,,,,,,,,,,,,,,,,,322.96269470010884,323.4668093000073,0.5051274499855936,1.0054186498746276,323.4501861000899,323.56690420000814,323.4501861000899,323.56690420000814,323.55022030021064,None,c,1,1.4689815999008715,323.55022030021064,None,,,,,,,p132,2022_Apr_05_1430,training+cueing,2021.1.4,59.94125756688776,
Self.png,You,Self ,c,1,11,21,91,,,,,0,0,0,0,,,,,6,9,81,0,,,,,,,,,,,,,,,,,,,,,1.655,2.449,325.1440845001489,None,,,,,,,,,,,,,,,,,,,,325.6837643000763,326.1854703000281,0.5032006504479796,1.004117050440982,326.1688118001912,326.26886390009895,326.1688118001912,326.26886390009895,326.26886390009895,None,c,1,0.6063190000131726,326.26886390009895,None,,,,,,,p132,2022_Apr_05_1430,training+cueing,2021.1.4,59.94125756688776,
Friend.png,Friend,Friend,c,2,12,22,92,,,,,0,0,0,0,,,,,6,10,82,4,,,,,,,,,,,,,,,,,,,,,1.738,1.971,327.012893400155,None,,,,,,,,,,,,,,,,,,,,327.56212450005114,328.07013260014355,0.49949779990129173,0.9997808998450637,328.0368507001549,328.136886900058,328.0368507001549,328.136886900058,328.136886900058,None,c,1,0.8180551000405103,328.136886900058,None,,,,,,,p132,2022_Apr_05_1430,training+cueing,2021.1.4,59.94125756688776,
Stranger.png,Friend,Stranger,m,2.3,17,27,97,,,,,0,0,0,0,,,,,6,11,83,7,,,,,,,,,,,,,,,,,,,,,1.782,2.153,329.0770262000151,None,,,,,,,,,,,,,,,,,,,,329.616047100164,330.1216541000176,0.5091599500738084,1.0095317501109093,330.10499160015024,330.22171800001524,330.10499160015024,330.22171800001524,330.2050809999928,None,m,1,0.877895399928093,330.2050809999928,None,,,,,,,p132,2022_Apr_05_1430,training+cueing,2021.1.4,59.94125756688776,
Self.png,Friend,Self ,m,2.1,16,26,96,,,,,0,0,0,0,,,,,7,0,84,1,,,,,,,,,,,,,,,,,,,,,1.439,1.526,331.21140620019287,None,,,,,,,,,,,,,,,,,,,,331.7509689000435,332.25656900019385,0.5099371499381959,1.0102262499276549,332.2398918000981,332.35661920020357,332.2398918000981,332.35661920020357,332.3399618000258,None,m,1,0.8388829999603331,332.3399618000258,None,,,,,,,p132,2022_Apr_05_1430,training+cueing,2021.1.4,59.94125756688776,
Stranger.png,Stranger,Stranger,c,3,13,23,93,,,,,0,0,0,0,,,,,7,1,85,11,,,,,,,,,,,,,,,,,,,,,1.488,1.284,333.31409180001356,None,,,,,,,,,,,,,,,,,,,,333.8553232999984,334.3580847000703,0.504673850024119,1.0049811501521617,334.3413492999971,334.4581484000664,334.3413492999971,334.4581484000664,334.4414537001867,None,c,1,0.8814891998190433,334.4414537001867,None,,,,,,,p132,2022_Apr_05_1430,training+cueing,2021.1.4,59.94125756688776,
Stranger.png,Stranger,Stranger,c,3,13,23,93,,,,,0,0,0,0,,,,,7,2,86,8,,,,,,,,,,,,,,,,,,,,,1.537,1.668,335.44837930006906,None,,,,,,,,,,,,,,,,,,,,335.98666719999164,336.4929510001093,0.5101238498464227,1.0103537498507649,336.47632160014473,336.5929948000703,336.47632160014473,336.5929948000703,336.57630630000494,None,None,0,,336.57630630000494,None,,,,,,,p132,2022_Apr_05_1430,training+cueing,2021.1.4,59.94125756688776,
Self.png,You,Self ,c,1,11,21,91,,,,,0,0,0,0,,,,,7,3,87,0,,,,,,,,,,,,,,,,,,,,,1.489,1.752,338.23179310001433,None,,,,,,,,,,,,,,,,,,,,338.7742205001414,339.27831279998645,0.5077941499184817,1.0079906499013305,339.26171350013465,339.3616935000755,339.26171350013465,339.3616935000755,339.3616935000755,None,c,1,0.5692377998493612,339.3616935000755,None,,,,,,,p132,2022_Apr_05_1430,training+cueing,2021.1.4,59.94125756688776,
Self.png,You,Self ,c,1,11,21,91,,,,,0,0,0,0,,,,,7,4,88,9,,,,,,,,,,,,,,,,,,,,,1.488,1.658,340.0686477001291,None,,,,,,,,,,,,,,,,,,,,340.60683960001916,341.11297530005686,0.5100079497788101,1.0103281498886645,341.09624480013736,341.19634710019454,341.09624480013736,341.19634710019454,341.19634710019454,None,c,1,0.7507877999451011,341.19634710019454,None,,,,,,,p132,2022_Apr_05_1430,training+cueing,2021.1.4,59.94125756688776,
Friend.png,You,Friend,m,1.2,14,24,94,,,,,0,0,0,0,,,,,7,5,89,3,,,,,,,,,,,,,,,,,,,,,1.596,1.82,342.06986510008574,None,,,,,,,,,,,,,,,,,,,,342.6232503000647,343.1311288001016,0.4991871996317059,0.9994796996470541,343.0977421000134,343.1978017000947,343.0977421000134,343.1978017000947,343.1978017000947,None,m,1,1.1174010001122952,343.1978017000947,None,,,,,,,p132,2022_Apr_05_1430,training+cueing,2021.1.4,59.94125756688776,
Self.png,Stranger,Self ,m,3.1,18,28,98,,,,,0,0,0,0,,,,,7,6,90,2,,,,,,,,,,,,,,,,,,,,,1.464,1.547,344.4415590001736,None,,,,,,,,,,,,,,,,,,,,344.98294310015626,345.48296430008486,0.5001934503670782,1.0004763503093272,345.46614630008116,345.58287100004964,345.46614630008116,345.58287100004964,345.58287100004964,None,m,1,0.8760806999634951,345.58287100004964,None,,,,,,,p132,2022_Apr_05_1430,training+cueing,2021.1.4,59.94125756688776,
Stranger.png,You,Stranger,m,1.3,15,25,95,,,,,0,0,0,0,,,,,7,7,91,6,,,,,,,,,,,,,,,,,,,,,1.579,2.289,346.5900692001451,None,,,,,,,,,,,,,,,,,,,,347.1293827001937,347.6343603001442,0.508039350155741,1.0082976501435041,347.617727200035,347.7177500000689,347.617727200035,347.7177500000689,347.7177500000689,None,m,1,1.0452765999361873,347.7177500000689,None,,,,,,,p132,2022_Apr_05_1430,training+cueing,2021.1.4,59.94125756688776,
Friend.png,Friend,Friend,c,2,12,22,92,,,,,0,0,0,0,,,,,7,8,92,4,,,,,,,,,,,,,,,,,,,,,1.408,1.604,348.8914224000182,None,,,,,,,,,,,,,,,,,,,,349.43436360009946,349.9360364000313,0.504706250037998,1.0050232498906553,349.9193711001426,350.03610670007765,349.9193711001426,350.03610670007765,350.01940250000916,None,c,1,0.7594475999940187,350.01940250000916,None,,,,,,,p132,2022_Apr_05_1430,training+cueing,2021.1.4,59.94125756688776,
Friend.png,Stranger,Friend,m,3.2,19,29,99,,,,,0,0,0,0,,,,,7,9,93,5,,,,,,,,,,,,,,,,,,,,,1.766,1.677,350.9097204999998,None,,,,,,,,,,,,,,,,,,,,351.4519719001837,351.9541685001459,0.5039432502817363,1.0042418502271175,351.93750070012175,352.0542182000354,351.93750070012175,352.0542182000354,352.037533499999,None,m,1,1.0294561001937836,352.037533499999,None,,,,,,,p132,2022_Apr_05_1430,training+cueing,2021.1.4,59.94125756688776,
Stranger.png,Friend,Stranger,m,2.3,17,27,97,,,,,0,0,0,0,,,,,7,10,94,7,,,,,,,,,,,,,,,,,,,,,1.526,1.338,353.1944922001567,None,,,,,,,,,,,,,,,,,,,,353.73453220003285,354.2394646999892,0.508219650015235,1.0083964499644935,354.2226195000112,354.33923560008407,354.2226195000112,354.33923560008407,354.32255300018005,None,m,1,0.8085328999441117,354.32255300018005,None,,,,,,,p132,2022_Apr_05_1430,training+cueing,2021.1.4,59.94125756688776,
Friend.png,Friend,Friend,c,2,12,22,92,,,,,0,0,0,0,,,,,7,11,95,10,,,,,,,,,,,,,,,,,,,,,1.634,1.412,355.26239940011874,None,,,,,,,,,,,,,,,,,,,,355.802198600024,356.3075061000418,0.5093130501918495,1.0098906501661986,356.2906382000074,356.40739270020276,356.2906382000074,356.40739270020276,356.39062820002437,None,m,0,0.5803733000066131,356.39062820002437,None,,,,,,,p132,2022_Apr_05_1430,training+cueing,2021.1.4,59.94125756688776,
Self.png,Friend,Self ,m,2.1,16,26,96,,,,,0,0,0,0,,,,,8,0,96,1,,,,,,,,,,,,,,,,,,,,,1.596,1.2,357.09895000001416,None,,,,,,,,,,,,,,,,,,,,357.63715710002,358.1419717001263,0.5077537500765175,1.0080432500690222,358.1253068000078,358.2420241001528,358.1253068000078,358.2420241001528,358.2253374001011,None,m,1,0.7136471997946501,358.2253374001011,None,,,,,,,p132,2022_Apr_05_1430,training+cueing,2021.1.4,59.94125756688776,
Friend.png,Friend,Friend,c,2,12,22,92,,,,,0,0,0,0,,,,,8,1,97,4,,,,,,,,,,,,,,,,,,,,,1.401,2.197,359.0659225001,None,,,,,,,,,,,,,,,,,,,,359.60843620006926,360.1100620001089,0.5030518500134349,1.0033715500030667,360.09339470020495,360.21012030006386,360.09339470020495,360.21012030006386,360.1934415001888,None,m,0,0.7775679999031126,360.1934415001888,None,,,,,,,p132,2022_Apr_05_1430,training+cueing,2021.1.4,59.94125756688776,
Self.png,You,Self ,c,1,11,21,91,,,,,0,0,0,0,,,,,8,2,98,9,,,,,,,,,,,,,,,,,,,,,1.605,1.721,361.1004976001568,None,,,,,,,,,,,,,,,,,,,,361.64278190000914,362.14489960018545,0.5044958498328924,1.0048065499868244,362.12818380002864,362.2282352000475,362.12818380002864,362.2282352000475,362.2282352000475,None,c,1,0.6467814999632537,362.2282352000475,None,,,,,,,p132,2022_Apr_05_1430,training+cueing,2021.1.4,59.94125756688776,
Stranger.png,Stranger,Stranger,c,3,13,23,93,,,,,0,0,0,0,,,,,8,3,99,8,,,,,,,,,,,,,,,,,,,,,1.593,1.738,363.0020988001488,None,,,,,,,,,,,,,,,,,,,,363.54638410010375,364.0462372000329,0.5139133501797915,1.0148251501377672,364.0462372000329,364.14630480017513,364.0462372000329,364.14630480017513,364.14630480017513,None,c,1,0.7447956998366863,364.14630480017513,None,,,,,,,p132,2022_Apr_05_1430,training+cueing,2021.1.4,59.94125756688776,
Self.png,Stranger,Self ,m,3.1,18,28,98,,,,,0,0,0,0,,,,,8,4,100,2,,,,,,,,,,,,,,,,,,,,,1.45,1.354,365.0207530001644,None,,,,,,,,,,,,,,,,,,,,365.56118010007776,366.0644030000549,0.5061337500810623,1.0064269499853253,366.0477179000154,366.16443490004167,366.0477179000154,366.16443490004167,366.14774660021067,None,m,1,0.8551630999427289,366.14774660021067,None,,,,,,,p132,2022_Apr_05_1430,training+cueing,2021.1.4,59.94125756688776,
Self.png,You,Self ,c,1,11,21,91,,,,,0,0,0,0,,,,,8,5,101,0,,,,,,,,,,,,,,,,,,,,,1.57,1.603,367.1382272001356,None,,,,,,,,,,,,,,,,,,,,367.6796161001548,368.1825781001244,0.5056009497493505,1.0059135498013347,368.1659003000241,368.26597350020893,368.1659003000241,368.26597350020893,368.26597350020893,None,c,1,0.9130041999742389,368.26597350020893,None,,,,,,,p132,2022_Apr_05_1430,training+cueing,2021.1.4,59.94125756688776,
Stranger.png,Friend,Stranger,m,2.3,17,27,97,,,,,0,0,0,0,,,,,8,6,102,7,,,,,,,,,,,,,,,,,,,,,1.6,1.256,369.30600870004855,None,,,,,,,,,,,,,,,,,,,,369.84607840003446,370.3508502000477,0.5075407498516142,1.0078474499750882,370.3341418001801,370.45092290011235,370.3341418001801,370.45092290011235,370.4341578001622,None,m,1,1.0487633000593632,370.4341578001622,None,,,,,,,p132,2022_Apr_05_1430,training+cueing,2021.1.4,59.94125756688776,
Stranger.png,Stranger,Stranger,c,3,13,23,93,,,,,0,0,0,0,,,,,8,7,103,11,,,,,,,,,,,,,,,,,,,,,1.418,1.212,371.60777990007773,None,,,,,,,,,,,,,,,,,,,,372.15086630010046,372.6524957001675,0.5034502500202507,1.0043343498837203,372.6357959001325,372.75257520005107,372.6357959001325,372.75257520005107,372.73588430020027,None,c,1,0.8752724998630583,372.73588430020027,None,,,,,,,p132,2022_Apr_05_1430,training+cueing,2021.1.4,59.94125756688776,
Friend.png,Friend,Friend,c,2,12,22,92,,,,,0,0,0,0,,,,,8,8,104,10,,,,,,,,,,,,,,,,,,,,,1.607,2.069,373.74477210012265,None,,,,,,,,,,,,,,,,,,,,374.2853136002086,374.7873981001321,0.5023827499244362,1.003300649812445,374.77072100015357,374.8880108001176,374.77072100015357,374.8880108001176,374.8712418000214,None,c,1,1.0117767001502216,374.8712418000214,None,,,,,,,p132,2022_Apr_05_1430,training+cueing,2021.1.4,59.94125756688776,
Friend.png,Stranger,Friend,m,3.2,19,29,99,,,,,0,0,0,0,,,,,8,9,105,5,,,,,,,,,,,,,,,,,,,,,1.608,2.47,376.01110000000335,None,,,,,,,,,,,,,,,,,,,,376.5541934000794,377.0556966001168,0.5034526500385255,1.0203343501780182,377.03903470002115,377.1557285001036,377.03903470002115,377.1557285001036,377.13905680016614,None,m,1,0.775884100003168,377.13905680016614,None,,,,,,,p132,2022_Apr_05_1430,training+cueing,2021.1.4,59.94125756688776,
Stranger.png,You,Stranger,m,1.3,15,25,95,,,,,0,0,0,0,,,,,8,10,106,6,,,,,,,,,,,,,,,,,,,,,1.721,1.848,378.04611580003984,None,,,,,,,,,,,,,,,,,,,,378.5888722001109,379.0905108000152,0.5042789501603693,1.0045564500615,379.0738243001979,379.17386320000514,379.0738243001979,379.17386320000514,379.17386320000514,None,m,1,0.7892545000649989,379.17386320000514,None,,,,,,,p132,2022_Apr_05_1430,training+cueing,2021.1.4,59.94125756688776,
Friend.png,You,Friend,m,1.2,14,24,94,,,,,0,0,0,0,,,,,8,11,107,3,,,,,,,,,,,,,,,,,,,,,1.796,1.761,380.0976342000067,None,,,,,,,,,,,,,,,,,,,,380.642783400137,381.1419916001614,0.5126465500798076,1.0129330500494689,381.1419916001614,381.24207250005566,381.1419916001614,381.24207250005566,381.24207250005566,None,m,1,1.1849094000644982,381.24207250005566,None,,,,,,,p132,2022_Apr_05_1430,training+cueing,2021.1.4,59.94125756688776,
Self.png,Stranger,Self ,m,3.1,18,28,98,,,,,0,0,0,0,,,,,9,0,108,2,,,,,,,,,,,,,,,,,,,,,1.468,1.914,382.5492201000452,None,,,,,,,,,,,,,,,,,,,,383.098618700169,383.6105129001662,0.5078150499612093,1.0081052500754595,383.59388850000687,383.710608900059,383.59388850000687,383.710608900059,383.6940644001588,None,m,1,0.8289123000577092,383.6940644001588,None,,,,,,,p132,2022_Apr_05_1430,training+cueing,2021.1.4,59.94125756688776,
Self.png,You,Self ,c,1,11,21,91,,,,,0,0,0,0,,,,,9,1,109,9,,,,,,,,,,,,,,,,,,,,,1.439,1.547,384.6509821000509,None,,,,,,,,,,,,,,,,,,,,385.19035160006024,385.69529679999687,0.5093200500123203,1.0096124499104917,385.67862970009446,385.7786788002122,385.67862970009446,385.7786788002122,385.7786788002122,None,c,1,0.6642543999478221,385.7786788002122,None,,,,,,,p132,2022_Apr_05_1430,training+cueing,2021.1.4,59.94125756688776,
Friend.png,Friend,Friend,c,2,12,22,92,,,,,0,0,0,0,,,,,9,2,110,4,,,,,,,,,,,,,,,,,,,,,1.565,2.169,386.5694513001945,None,,,,,,,,,,,,,,,,,,,,387.10955240018666,387.6133542000316,0.5048236500006169,1.0050644499715418,387.59674150007777,387.71338440012187,387.59674150007777,387.71338440012187,387.69670050009154,None,c,1,0.8263634999748319,387.69670050009154,None,,,,,,,p132,2022_Apr_05_1430,training+cueing,2021.1.4,59.94125756688776,
Stranger.png,Stranger,Stranger,c,3,13,23,93,,,,,0,0,0,0,,,,,9,3,111,11,,,,,,,,,,,,,,,,,,,,,1.798,2.086,388.65371570014395,None,,,,,,,,,,,,,,,,,,,,389.19677829998545,389.69821430020966,0.5036239500623196,1.0039221500046551,389.68150110007264,389.7982660001144,389.68150110007264,389.7982660001144,389.781614900101,None,c,1,1.1895700998138636,389.781614900101,None,,,,,,,p132,2022_Apr_05_1430,training+cueing,2021.1.4,59.94125756688776,
Stranger.png,Friend,Stranger,m,2.3,17,27,97,,,,,0,0,0,0,,,,,9,4,112,7,,,,,,,,,,,,,,,,,,,,,1.479,1.768,391.1060017000418,None,,,,,,,,,,,,,,,,,,,,391.65231030015275,392.16666830005124,0.5098286501597613,1.010086450027302,392.1499752001837,392.2667237999849,392.1499752001837,392.2667237999849,392.2500002000015,None,m,1,0.8015777000691742,392.2500002000015,None,,,,,,,p132,2022_Apr_05_1430,training+cueing,2021.1.4,59.94125756688776,
Friend.png,You,Friend,m,1.2,14,24,94,,,,,0,0,0,0,,,,,9,5,113,3,,,,,,,,,,,,,,,,,,,,,1.687,2.38,393.1775243000593,None,,,,,,,,,,,,,,,,,,,,393.71649770019576,394.21812450001016,0.5029351501725614,1.0032390502747148,394.2014578001108,394.3015246000141,394.2014578001108,394.3015246000141,394.3015246000141,None,m,1,0.8454857999458909,394.3015246000141,None,,,,,,,p132,2022_Apr_05_1430,training+cueing,2021.1.4,59.94125756688776,
Self.png,You,Self ,c,1,11,21,91,,,,,0,0,0,0,,,,,9,6,114,0,,,,,,,,,,,,,,,,,,,,,1.521,1.823,395.2751447001938,None,,,,,,,,,,,,,,,,,,,,395.8145453000907,396.3196561001241,0.5090318499132991,1.009288749890402,396.3030244000256,396.40309210005216,396.3030244000256,396.40309210005216,396.40309210005216,None,c,1,0.6318699999246746,396.40309210005216,None,,,,,,,p132,2022_Apr_05_1430,training+cueing,2021.1.4,59.94125756688776,
Friend.png,Stranger,Friend,m,3.2,19,29,99,,,,,0,0,0,0,,,,,9,7,115,5,,,,,,,,,,,,,,,,,,,,,1.564,1.699,397.15960530005395,None,,,,,,,,,,,,,,,,,,,,397.70152600016445,398.20438640005887,0.5043639498762786,1.0046528498642147,398.187658400042,398.3044298000168,398.187658400042,398.3044298000168,398.287696500076,None,m,1,1.4832482000347227,398.287696500076,None,,,,,,,p132,2022_Apr_05_1430,training+cueing,2021.1.4,59.94125756688776,
Friend.png,Friend,Friend,c,2,12,22,92,,,,,0,0,0,0,,,,,9,8,116,10,,,,,,,,,,,,,,,,,,,,,1.417,1.66,399.8950824001804,None,,,,,,,,,,,,,,,,,,,,400.4345815000124,400.9397236001678,0.5093287501949817,1.0096246500033885,400.9230126000475,401.0398617000319,400.9230126000475,401.0398617000319,401.0230311001651,None,None,0,,401.0230311001651,None,,,,,,,p132,2022_Apr_05_1430,training+cueing,2021.1.4,59.94125756688776,
Stranger.png,Stranger,Stranger,c,3,13,23,93,,,,,0,0,0,0,,,,,9,9,117,8,,,,,,,,,,,,,,,,,,,,,1.67,1.632,402.5451031001285,None,,,,,,,,,,,,,,,,,,,,403.0901643000543,403.5916081001051,0.503414650214836,1.003902150085196,403.5749341000337,403.6922526000999,403.5749341000337,403.6922526000999,403.6749691001605,None,c,1,1.0720110998954624,403.6749691001605,None,,,,,,,p132,2022_Apr_05_1430,training+cueing,2021.1.4,59.94125756688776,
Stranger.png,You,Stranger,m,1.3,15,25,95,,,,,0,0,0,0,,,,,9,10,118,6,,,,,,,,,,,,,,,,,,,,,1.647,1.987,404.8832027001772,None,,,,,,,,,,,,,,,,,,,,405.4297898001969,405.94336030003615,0.5091140500735492,1.0093659500125796,405.926653200062,406.0266573000699,405.926653200062,406.0266573000699,406.0266573000699,None,m,1,0.832317000022158,406.0266573000699,None,,,,,,,p132,2022_Apr_05_1430,training+cueing,2021.1.4,59.94125756688776,
Self.png,Friend,Self ,m,2.1,16,26,96,,,,,0,0,0,0,,,,,9,11,119,1,,,,,,,,,,,,,,,,,,,,,1.636,2.311,406.9835326001048,None,,,,,,,,,,,,,,,,,,,,407.5243007000536,408.0281500001438,0.5065377501305193,1.0068062501959503,408.0114804999903,408.12818220001645,408.0114804999903,408.12818220001645,408.1114871001337,None,None,0,,408.1114871001337,None,,,,,,,p132,2022_Apr_05_1430,training+cueing,2021.1.4,59.94125756688776,
,,,,,,,,,,,,0,0,0,0,,,,,,,,,,,,,,,,,,,,,,,,,,,,,,,,,,,,,,,,,,,,,,,,,,,,,,,,,,,,,,,,,,,0.0028244499117136,None,,,,,p132,2022_Apr_05_1430,training+cueing,2021.1.4,59.94125756688776,
Friend.png,Stranger,Friend,m,3.2,19,29,99,,,,,1,0,1,0,0,0,0,5,,,,,,,,,,,,,,,,,410.3805089001544,None,space,5.166280999779701,2.0136516499333084,None,417.55329470010474,None,1.667,1.886,420.56783870002255,None,421.1016031000763,421.6046364000067,421.58798860013485,421.7047798000276,421.58798860013485,421.7047798000276,421.68802820006385,None,None,0,421.68802820006385,None,423.35520740016364,None,,,,,,,,,,,,,,,,,,,,,,,,,,,p132,2022_Apr_05_1430,training+cueing,2021.1.4,59.94125756688776,
Stranger.png,You,Stranger,m,1.3,15,25,95,,,,,1,0,1,0,0,1,1,6,,,,,,,,,,,,,,,,,,,,,,,,,1.586,2.176,423.7564662999939,None,424.2940474001225,424.8069765002001,424.79031720012426,424.8903656001203,424.79031720012426,424.8903656001203,424.8903656001203,None,None,0,424.8903656001203,None,426.4917131999973,None,,,,,,,,,,,,,,,,,,,,,,,,,,,p132,2022_Apr_05_1430,training+cueing,2021.1.4,59.94125756688776,
Friend.png,Friend,Friend,c,2,12,22,92,,,,,1,0,1,0,0,2,2,4,,,,,,,,,,,,,,,,,,,,,,,,,1.667,1.263,426.8920408000704,None,427.42523060017265,427.9258595001884,427.90923250000924,428.0259303001221,427.90923250000924,428.0259303001221,428.009256800171,None,c,1,428.009256800171,None,428.89169370010495,None,0.8657054000068456,,,,,,,,,,,,,,,,,,,,,,,,,,p132,2022_Apr_05_1430,training+cueing,2021.1.4,59.94125756688776,
Self.png,You,Self ,c,1,11,21,91,,,,,1,0,1,0,0,3,3,0,,,,,,,,,,,,,,,,,,,,,,,,,1.721,1.885,429.2937450001482,None,429.82596809999086,430.3276515000034,430.3109852001071,430.41102800006047,430.3109852001071,430.41102800006047,430.41102800006047,None,c,1,430.41102800006047,None,431.0782810000237,None,0.6399403000250459,,,,,,,,,,,,,,,,,,,,,,,,,,p132,2022_Apr_05_1430,training+cueing,2021.1.4,59.94125756688776,
Stranger.png,Friend,Stranger,m,2.3,17,27,97,,,,,1,0,1,0,0,4,4,7,,,,,,,,,,,,,,,,,,,,,,,,,1.467,1.315,431.47905110009015,None,432.0204094001092,432.52921970002353,432.49587600002997,432.59592600003816,432.49587600002997,432.59592600003816,432.59592600003816,None,m,1,432.59592600003816,None,433.39654790004715,None,0.7750660001765937,,,,,,,,,,,,,,,,,,,,,,,,,,p132,2022_Apr_05_1430,training+cueing,2021.1.4,59.94125756688776,
Self.png,Friend,Self ,m,2.1,16,26,96,,,,,1,0,1,0,0,5,5,1,,,,,,,,,,,,,,,,,,,,,,,,,1.639,1.379,433.79680720018223,None,434.326759400079,434.83088580006734,434.8142473001499,434.9309321001638,434.8142473001499,434.9309321001638,434.91425280016847,None,m,1,434.91425280016847,None,435.76494650007226,None,0.8246593000367284,,,,,,,,,,,,,,,,,,,,,,,,,,p132,2022_Apr_05_1430,training+cueing,2021.1.4,59.94125756688776,
Stranger.png,Stranger,Stranger,c,3,13,23,93,,,,,1,0,1,0,0,6,6,8,,,,,,,,,,,,,,,,,,,,,,,,,1.534,1.966,436.16520830010995,None,436.6984511001501,437.19930330011994,437.18261130014434,437.29956800001673,437.18261130014434,437.29956800001673,437.29956800001673,None,c,1,437.29956800001673,None,438.0999478001613,None,0.7754150000400841,,,,,,,,,,,,,,,,,,,,,,,,,,p132,2022_Apr_05_1430,training+cueing,2021.1.4,59.94125756688776,
Self.png,You,Self ,c,1,11,21,91,,,,,1,0,1,0,0,7,7,9,,,,,,,,,,,,,,,,,,,,,,,,,1.674,1.974,438.50027990015224,None,439.03264500014484,439.5343094000127,439.51766050001606,439.6176985001657,439.51766050001606,439.6176985001657,439.6176985001657,None,c,1,439.6176985001657,None,440.23486650013365,None,0.5853250999934971,,,,,,,,,,,,,,,,,,,,,,,,,,p132,2022_Apr_05_1430,training+cueing,2021.1.4,59.94125756688776,
Stranger.png,Stranger,Stranger,c,3,13,23,93,,,,,1,0,1,0,0,8,8,11,,,,,,,,,,,,,,,,,,,,,,,,,1.645,2.174,440.6351025002077,None,441.1682167002,441.6692052001599,441.65254520019516,441.7692659001332,441.65254520019516,441.7692659001332,441.7692659001332,None,c,1,441.7692659001332,None,442.9201858001761,None,1.1217521000653505,,,,,,,,,,,,,,,,,,,,,,,,,,p132,2022_Apr_05_1430,training+cueing,2021.1.4,59.94125756688776,
Friend.png,Friend,Friend,c,2,12,22,92,,,,,1,0,1,0,0,9,9,10,,,,,,,,,,,,,,,,,,,,,,,,,1.537,2.36,443.32044590008445,None,443.8531174000818,444.35450570005924,444.3378117000684,444.45455280016176,444.3378117000684,444.45455280016176,444.43781350017525,None,m,0,444.43781350017525,None,445.2389641001355,None,0.7730799000710249,,,,,,,,,,,,,,,,,,,,,,,,,,p132,2022_Apr_05_1430,training+cueing,2021.1.4,59.94125756688776,
Self.png,Stranger,Self ,m,3.1,18,28,98,,,,,1,0,1,0,0,10,10,2,,,,,,,,,,,,,,,,,,,,,,,,,1.667,1.352,445.6387453000061,None,446.1729213001672,446.6728404001333,446.6561328000389,446.7731732001994,446.6561328000389,446.7731732001994,446.7731732001994,None,m,1,446.7731732001994,None,447.7771666001063,None,0.9818345999810845,,,,,,,,,,,,,,,,,,,,,,,,,,p132,2022_Apr_05_1430,training+cueing,2021.1.4,59.94125756688776,
Friend.png,You,Friend,m,1.2,14,24,94,,,,,1,0,1,0,0,11,11,3,,,,,,,,,,,,,,,,,,,,,,,,,1.455,1.323,448.19082450005226,None,448.7325984002091,449.24139149999246,449.2246726001613,449.32471620012075,449.2246726001613,449.32471620012075,449.32471620012075,None,m,1,449.32471620012075,None,450.45893720001914,None,1.1182949000503868,,,,,,,,,,,,,,,,,,,,,,,,,,p132,2022_Apr_05_1430,training+cueing,2021.1.4,59.94125756688776,
Stranger.png,Stranger,Stranger,c,3,13,23,93,,,,,1,0,1,0,,,,,0,0,0,8,,,,,,,,,,,,,,,,,,,454.7120736001525,None,1.56,2.063,458.2282380000688,None,,,,,,,,,,,,,,,,450.8597250999883,None,0.014955750200897455,0.5135366502217948,458.7667855999898,459.2821066000033,0.5135069501120597,1.0139343501068652,459.2652936000377,459.38204060005955,459.2652936000377,459.38204060005955,459.3653244001325,None,c,1,0.9496007000561804,459.3653244001325,None,,,,,,,p132,2022_Apr_05_1430,training+cueing,2021.1.4,59.94125756688776,
Stranger.png,Friend,Stranger,m,2.3,17,27,97,,,,,1,0,1,0,,,,,0,1,1,7,,,,,,,,,,,,,,,,,,,,,1.411,1.398,460.43984990008175,None,,,,,,,,,,,,,,,,,,,,460.98228230001405,461.4835748001933,0.5018200499471277,1.0021210499107838,461.4668958000839,461.56694950000383,461.4668958000839,461.56694950000383,461.56694950000383,None,m,1,0.6841642002109438,461.56694950000383,None,,,,,,,p132,2022_Apr_05_1430,training+cueing,2021.1.4,59.94125756688776,
Self.png,Friend,Self ,m,2.1,16,26,96,,,,,1,0,1,0,,,,,0,2,2,1,,,,,,,,,,,,,,,,,,,,,1.467,2.145,462.37384370015934,None,,,,,,,,,,,,,,,,,,,,462.9141823002137,463.41830580006354,0.5071371502708644,1.0074328500777483,463.4016573000699,463.5183590000961,463.4016573000699,463.5183590000961,463.5016748001799,None,m,1,0.7332981999497861,463.5016748001799,None,,,,,,,p132,2022_Apr_05_1430,training+cueing,2021.1.4,59.94125756688776,
Friend.png,Friend,Friend,c,2,12,22,92,,,,,1,0,1,0,,,,,0,3,3,4,,,,,,,,,,,,,,,,,,,,,1.479,1.647,464.3585054001305,None,,,,,,,,,,,,,,,,,,,,464.8986552001443,465.40310150012374,0.5088146498892456,1.0091002499684691,465.386402200209,465.50315060000867,465.386402200209,465.50315060000867,465.4864249001257,None,c,1,0.8125829000491649,465.4864249001257,None,,,,,,,p132,2022_Apr_05_1430,training+cueing,2021.1.4,59.94125756688776,
Stranger.png,You,Stranger,m,1.3,15,25,95,,,,,1,0,1,0,,,,,0,4,4,6,,,,,,,,,,,,,,,,,,,,,1.731,1.4,466.42634280002676,None,,,,,,,,,,,,,,,,,,,,466.9677739001345,467.4712638000492,0.5054463499691337,1.0057380499783903,467.4545450999867,467.55460050003603,467.4545450999867,467.55460050003603,467.55460050003603,None,m,1,0.7763853999786079,467.55460050003603,None,,,,,,,p132,2022_Apr_05_1430,training+cueing,2021.1.4,59.94125756688776,
Self.png,You,Self ,c,1,11,21,91,,,,,1,0,1,0,,,,,0,5,5,9,,,,,,,,,,,,,,,,,,,,,1.608,1.752,468.4621168000158,None,,,,,,,,,,,,,,,,,,,,469.0003806001041,469.5060751000419,0.5108487498946488,1.0111287499312311,469.4893923001364,469.58944520005025,469.4893923001364,469.58944520005025,469.58944520005025,None,c,1,0.6295111000072211,469.58944520005025,None,,,,,,,p132,2022_Apr_05_1430,training+cueing,2021.1.4,59.94125756688776,
Friend.png,Stranger,Friend,m,3.2,19,29,99,,,,,1,0,1,0,,,,,0,6,6,5,,,,,,,,,,,,,,,,,,,,,1.623,1.502,470.34591650008224,None,,,,,,,,,,,,,,,,,,,,470.8871242001187,471.3907570000738,0.5072143501602113,1.0074976501055062,471.37408530013636,471.4908057001885,471.37408530013636,471.4908057001885,471.4741124000866,None,m,1,0.7128799001220614,471.4741124000866,None,,,,,,,p132,2022_Apr_05_1430,training+cueing,2021.1.4,59.94125756688776,
Stranger.png,Stranger,Stranger,c,3,13,23,93,,,,,1,0,1,0,,,,,0,7,7,11,,,,,,,,,,,,,,,,,,,,,1.417,1.972,472.314670199994,None,,,,,,,,,,,,,,,,,,,,472.85321050020866,473.3588728001341,0.5099415499716997,1.0102070500142872,473.34220549999736,473.4589178999886,473.34220549999736,473.4589178999886,473.4422475001775,None,c,1,0.8087575000245124,473.4422475001775,None,,,,,,,p132,2022_Apr_05_1430,training+cueing,2021.1.4,59.94125756688776,
Self.png,Stranger,Self ,m,3.1,18,28,98,,,,,1,0,1,0,,,,,0,8,8,2,,,,,,,,,,,,,,,,,,,,,1.592,1.377,474.381925099995,None,,,,,,,,,,,,,,,,,,,,474.92159630008973,475.4269936000928,0.5103787498082966,1.0106875498313457,475.41033590002917,475.52703890018165,475.41033590002917,475.52703890018165,475.51038230000995,None,m,1,0.6926784000825137,475.51038230000995,None,,,,,,,p132,2022_Apr_05_1430,training+cueing,2021.1.4,59.94125756688776,
Self.png,You,Self ,c,1,11,21,91,,,,,1,0,1,0,,,,,0,9,9,0,,,,,,,,,,,,,,,,,,,,,1.519,1.71,476.33417080016807,None,,,,,,,,,,,,,,,,,,,,476.87422030000016,477.37842730013654,0.5081739500164986,1.0090609500184655,477.36178930010647,477.4618138000369,477.36178930010647,477.4618138000369,477.4618138000369,None,c,1,0.5179170998744667,477.4618138000369,None,,,,,,,p132,2022_Apr_05_1430,training+cueing,2021.1.4,59.94125756688776,
Friend.png,Friend,Friend,c,2,12,22,92,,,,,1,0,1,0,,,,,0,10,10,10,,,,,,,,,,,,,,,,,,,,,1.44,1.705,478.1058496001642,None,,,,,,,,,,,,,,,,,,,,478.6430552001111,479.14660280011594,0.5041840500198305,1.004419150063768,479.1299422001466,479.24664060003124,479.1299422001466,479.24664060003124,479.2299583000131,None,c,1,0.7650874999817461,479.2299583000131,None,,,,,,,p132,2022_Apr_05_1430,training+cueing,2021.1.4,59.94125756688776,
Friend.png,You,Friend,m,1.2,14,24,94,,,,,1,0,1,0,,,,,0,11,11,3,,,,,,,,,,,,,,,,,,,,,1.474,1.61,480.12152370018885,None,,,,,,,,,,,,,,,,,,,,480.6609803000465,481.1644807001576,0.5061032501980662,1.0063834500033408,481.14784990018234,481.24788270005956,481.14784990018234,481.24788270005956,481.24788270005956,None,m,1,0.8591030000243336,481.24788270005956,None,,,,,,,p132,2022_Apr_05_1430,training+cueing,2021.1.4,59.94125756688776,
Self.png,Friend,Self ,m,2.1,16,26,96,,,,,1,0,1,0,,,,,1,0,12,1,,,,,,,,,,,,,,,,,,,,,1.426,1.944,482.2377646001987,None,,,,,,,,,,,,,,,,,,,,482.77877910016105,483.28276010020636,0.5065806498751044,1.0068418497685343,483.2660493000876,483.3827846001368,483.2660493000876,483.3827846001368,483.36606840020977,None,m,1,0.7729098999407142,483.36606840020977,None,,,,,,,p132,2022_Apr_05_1430,training+cueing,2021.1.4,59.94125756688776,
Stranger.png,You,Stranger,m,1.3,15,25,95,,,,,1,0,1,0,,,,,1,1,13,6,,,,,,,,,,,,,,,,,,,,,1.709,2.392,484.27294150018133,None,,,,,,,,,,,,,,,,,,,,484.8123717000708,485.317530100001,0.5095371501520276,1.009641950018704,485.3009927000385,485.4008836001158,485.3009927000385,485.4008836001158,485.4008836001158,None,m,1,0.8660823001991957,485.4008836001158,None,,,,,,,p132,2022_Apr_05_1430,training+cueing,2021.1.4,59.94125756688776,
Stranger.png,Friend,Stranger,m,2.3,17,27,97,,,,,1,0,1,0,,,,,1,2,14,7,,,,,,,,,,,,,,,,,,,,,1.511,2.227,486.3911288001109,None,,,,,,,,,,,,,,,,,,,,486.93329710001126,487.435665700119,0.5059243501164019,1.00620475015603,487.4190645001363,487.5357594001107,487.4190645001363,487.5357594001107,487.51908920006827,None,m,1,1.035929000005126,487.51908920006827,None,,,,,,,p132,2022_Apr_05_1430,training+cueing,2021.1.4,59.94125756688776,
Self.png,Stranger,Self ,m,3.1,18,28,98,,,,,1,0,1,0,,,,,1,3,15,2,,,,,,,,,,,,,,,,,,,,,1.537,2.312,488.6923788001295,None,,,,,,,,,,,,,,,,,,,,489.2330587999895,489.7375028000679,0.5058009498752654,1.0060919499956071,489.7208853000775,489.8375747001264,489.7208853000775,489.8375747001264,489.8209096000064,None,m,1,0.8460770000237972,489.8209096000064,None,,,,,,,p132,2022_Apr_05_1430,training+cueing,2021.1.4,59.94125756688776,
Friend.png,You,Friend,m,1.2,14,24,94,,,,,1,0,1,0,,,,,1,4,16,3,,,,,,,,,,,,,,,,,,,,,1.645,1.56,490.7955698000733,None,,,,,,,,,,,,,,,,,,,,491.3406171000097,491.8556423999835,0.5135678499937057,1.013826149981469,491.8389351000078,491.93896710011177,491.8389351000078,491.93896710011177,491.93896710011177,None,m,1,0.8399704999756068,491.93896710011177,None,,,,,,,p132,2022_Apr_05_1430,training+cueing,2021.1.4,59.94125756688776,
Friend.png,Stranger,Friend,m,3.2,19,29,99,,,,,1,0,1,0,,,,,1,5,17,5,,,,,,,,,,,,,,,,,,,,,1.51,1.934,492.91277450020425,None,,,,,,,,,,,,,,,,,,,,493.4545214001555,493.9571231000591,0.505152849946171,1.0054428498260677,493.9404620002024,494.0571918000933,493.9404620002024,494.0571918000933,494.04049749998376,None,m,1,0.8664450999349356,494.04049749998376,None,,,,,,,p132,2022_Apr_05_1430,training+cueing,2021.1.4,59.94125756688776,
Stranger.png,Stranger,Stranger,c,3,13,23,93,,,,,1,0,1,0,,,,,1,6,18,11,,,,,,,,,,,,,,,,,,,,,1.655,1.453,495.03019840014167,None,,,,,,,,,,,,,,,,,,,,495.5671807001345,496.0753144000191,0.5144797498360276,1.0147952500265092,496.05861850013025,496.1753583000973,496.05861850013025,496.1753583000973,496.1586854001507,None,c,1,0.7003308001440018,496.1586854001507,None,,,,,,,p132,2022_Apr_05_1430,training+cueing,2021.1.4,59.94125756688776,
Friend.png,Friend,Friend,c,2,12,22,92,,,,,1,0,1,0,,,,,1,7,19,10,,,,,,,,,,,,,,,,,,,,,1.51,1.685,496.98183190007694,None,,,,,,,,,,,,,,,,,,,,497.5245469000656,498.0267562000081,0.5054921500850469,1.0056833501439542,498.01012700004503,498.1267858000938,498.01012700004503,498.1267858000938,498.1100953000132,None,c,1,0.6688496000133455,498.1100953000132,None,,,,,,,p132,2022_Apr_05_1430,training+cueing,2021.1.4,59.94125756688776,
Friend.png,Friend,Friend,c,2,12,22,92,,,,,1,0,1,0,,,,,1,8,20,4,,,,,,,,,,,,,,,,,,,,,1.638,2.015,498.91681990004145,None,,,,,,,,,,,,,,,,,,,,499.455584899988,499.96147940005176,0.5096072498708963,1.0099818499293178,499.9447782000061,500.06153380009346,499.9447782000061,500.06153380009346,500.0448187000584,None,c,1,0.638190699974075,500.0448187000584,None,,,,,,,p132,2022_Apr_05_1430,training+cueing,2021.1.4,59.94125756688776,
Stranger.png,Stranger,Stranger,c,3,13,23,93,,,,,1,0,1,0,,,,,1,9,21,8,,,,,,,,,,,,,,,,,,,,,1.478,1.543,500.8178836000152,None,,,,,,,,,,,,,,,,,,,,501.3591971001588,501.86284600012004,0.5078089500311762,1.0080994500312954,501.84618190000765,501.96286650002,501.84618190000765,501.96286650002,501.9462396001909,None,m,0,0.5447217000182718,501.9462396001909,None,,,,,,,p132,2022_Apr_05_1430,training+cueing,2021.1.4,59.94125756688776,
Self.png,You,Self ,c,1,11,21,91,,,,,1,0,1,0,,,,,1,10,22,9,,,,,,,,,,,,,,,,,,,,,1.522,2.206,502.6202094000764,None,,,,,,,,,,,,,,,,,,,,503.16071870015,503.664152600104,0.507488549919799,1.0078061500098556,503.6475002001971,503.7475548000075,503.6475002001971,503.7475548000075,503.7475548000075,None,c,1,0.5674632999580353,503.7475548000075,None,,,,,,,p132,2022_Apr_05_1430,training+cueing,2021.1.4,59.94125756688776,
Self.png,You,Self ,c,1,11,21,91,,,,,1,0,1,0,,,,,1,11,23,0,,,,,,,,,,,,,,,,,,,,,1.579,2.023,504.4374190000817,None,,,,,,,,,,,,,,,,,,,,504.974773199996,505.48217110009864,0.5119600500911474,1.012044349918142,505.46564340009354,505.56552340020426,505.46564340009354,505.56552340020426,505.56552340020426,None,c,1,0.46146819996647537,505.56552340020426,None,,,,,,,p132,2022_Apr_05_1430,training+cueing,2021.1.4,59.94125756688776,
Self.png,Stranger,Self ,m,3.1,18,28,98,,,,,1,0,1,0,,,,,2,0,24,2,,,,,,,,,,,,,,,,,,,,,1.506,2.255,506.1555277002044,None,,,,,,,,,,,,,,,,,,,,506.6972476001829,507.2000638002064,0.5068106499966234,1.0070937499403954,507.18337139999494,507.30029370007105,507.18337139999494,507.30029370007105,507.2834627002012,None,m,1,0.5674835999961942,507.2834627002012,None,,,,,,,p132,2022_Apr_05_1430,training+cueing,2021.1.4,59.94125756688776,
Stranger.png,Friend,Stranger,m,2.3,17,27,97,,,,,1,0,1,0,,,,,2,1,25,7,,,,,,,,,,,,,,,,,,,,,1.758,1.768,507.9728543001693,None,,,,,,,,,,,,,,,,,,,,508.5149927001912,509.01799220009707,0.505748150171712,1.006068950286135,509.00133880018257,509.11806060001254,509.00133880018257,509.11806060001254,509.10138390003704,None,m,1,0.8938562001567334,509.10138390003704,None,,,,,,,p132,2022_Apr_05_1430,training+cueing,2021.1.4,59.94125756688776,
Friend.png,Friend,Friend,c,2,12,22,92,,,,,1,0,1,0,,,,,2,2,26,10,,,,,,,,,,,,,,,,,,,,,1.635,1.208,510.12895350018516,None,,,,,,,,,,,,,,,,,,,,510.6646596000064,511.1696070001926,0.5080933501012623,1.0083570501301438,511.15294900001027,511.26964160008356,511.15294900001027,511.26964160008356,511.2529560001567,None,c,1,0.854118200019002,511.2529560001567,None,,,,,,,p132,2022_Apr_05_1430,training+cueing,2021.1.4,59.94125756688776,
Self.png,You,Self ,c,1,11,21,91,,,,,1,0,1,0,,,,,2,3,27,0,,,,,,,,,,,,,,,,,,,,,1.747,1.578,512.2421954001766,None,,,,,,,,,,,,,,,,,,,,512.7838698001578,513.2880186000839,0.5065090500283986,1.0068219499662519,513.2711079001892,513.3711574000772,513.2711079001892,513.3711574000772,513.3711574000772,None,c,1,0.5118112999480218,513.3711574000772,None,,,,,,,p132,2022_Apr_05_1430,training+cueing,2021.1.4,59.94125756688776,
Friend.png,You,Friend,m,1.2,14,24,94,,,,,1,0,1,0,,,,,2,4,28,3,,,,,,,,,,,,,,,,,,,,,1.685,1.226,514.0114266001619,None,,,,,,,,,,,,,,,,,,,,514.5492964000441,515.055755100213,0.5101867499761283,1.0104514500126243,515.0391044002026,515.1391374000814,515.0391044002026,515.1391374000814,515.1391374000814,None,c,0,0.45605270005762577,515.1391374000814,None,,,,,,,p132,2022_Apr_05_1430,training+cueing,2021.1.4,59.94125756688776,
Stranger.png,Stranger,Stranger,c,3,13,23,93,,,,,1,0,1,0,,,,,2,5,29,8,,,,,,,,,,,,,,,,,,,,,1.551,2.357,515.7291283002123,None,,,,,,,,,,,,,,,,,,,,516.2710838001221,516.7736676000059,0.5061504498589784,1.0063698498997837,516.7570466001052,516.873732100008,516.7570466001052,516.873732100008,516.8570263001602,None,c,1,0.8499769999179989,516.8570263001602,None,,,,,,,p132,2022_Apr_05_1430,training+cueing,2021.1.4,59.94125756688776,
Stranger.png,Stranger,Stranger,c,3,13,23,93,,,,,1,0,1,0,,,,,2,6,30,11,,,,,,,,,,,,,,,,,,,,,1.478,1.747,517.8299982000608,None,,,,,,,,,,,,,,,,,,,,518.3695794001687,518.8751842000056,0.5109093501232564,1.0112554500810802,518.858482300071,518.975243500201,518.858482300071,518.975243500201,518.9585613000672,None,c,1,0.620460000121966,518.9585613000672,None,,,,,,,p132,2022_Apr_05_1430,training+cueing,2021.1.4,59.94125756688776,
Friend.png,Friend,Friend,c,2,12,22,92,,,,,1,0,1,0,,,,,2,7,31,4,,,,,,,,,,,,,,,,,,,,,1.412,1.735,519.7154256000649,None,,,,,,,,,,,,,,,,,,,,520.2543364001904,520.7599520001095,0.5083487499505281,1.0086145498789847,520.7433166999836,520.8599533000961,520.7433166999836,520.8599533000961,520.8432245000731,None,c,1,0.7998250999953598,520.8432245000731,None,,,,,,,p132,2022_Apr_05_1430,training+cueing,2021.1.4,59.94125756688776,
Friend.png,Stranger,Friend,m,3.2,19,29,99,,,,,1,0,1,0,,,,,2,8,32,5,,,,,,,,,,,,,,,,,,,,,1.637,1.675,521.767654000083,None,,,,,,,,,,,,,,,,,,,,522.3095689001493,522.8113874001428,0.5051242499612272,1.0056361500173807,522.7947074000258,522.9114161999896,522.7947074000258,522.9114161999896,522.8947197000962,None,c,0,0.6363547998480499,522.8947197000962,None,,,,,,,p132,2022_Apr_05_1430,training+cueing,2021.1.4,59.94125756688776,
Self.png,You,Self ,c,1,11,21,91,,,,,1,0,1,0,,,,,2,9,33,9,,,,,,,,,,,,,,,,,,,,,1.775,1.388,523.6682945000939,None,,,,,,,,,,,,,,,,,,,,524.2095956001431,524.7127511000726,0.5066781500354409,1.006981150014326,524.6960814001504,524.7961504000705,524.6960814001504,524.7961504000705,524.7961504000705,None,c,1,0.5588288998696953,524.7961504000705,None,,,,,,,p132,2022_Apr_05_1430,training+cueing,2021.1.4,59.94125756688776,
Stranger.png,You,Stranger,m,1.3,15,25,95,,,,,1,0,1,0,,,,,2,10,34,6,,,,,,,,,,,,,,,,,,,,,1.717,2.308,525.4856534001883,None,,,,,,,,,,,,,,,,,,,,526.0236151001882,526.5307448001113,0.5128901500720531,1.0137597499415278,526.5140717001632,526.6141106002033,526.5140717001632,526.6141106002033,526.6141106002033,None,m,1,0.773251699982211,526.6141106002033,None,,,,,,,p132,2022_Apr_05_1430,training+cueing,2021.1.4,59.94125756688776,
Self.png,Friend,Self ,m,2.1,16,26,96,,,,,1,0,1,0,,,,,2,11,35,1,,,,,,,,,,,,,,,,,,,,,1.474,1.287,527.5209637000225,None,,,,,,,,,,,,,,,,,,,,528.062254599994,528.5655425000004,0.5071185498964041,1.0073358500376344,528.5488772999961,528.6656166000757,528.5488772999961,528.6656166000757,528.6488690001424,None,m,1,0.6903659000527114,528.6488690001424,None,,,,,,,p132,2022_Apr_05_1430,training+cueing,2021.1.4,59.94125756688776,
Self.png,You,Self ,c,1,11,21,91,,,,,1,0,1,0,,,,,3,0,36,9,,,,,,,,,,,,,,,,,,,,,1.424,2.23,529.4727549001109,None,,,,,,,,,,,,,,,,,,,,530.0116295001935,530.516970800003,0.5088860502000898,1.009185050148517,530.5002768000122,530.6003374999855,530.5002768000122,530.6003374999855,530.6003374999855,None,c,1,0.5467173999641091,530.6003374999855,None,,,,,,,p132,2022_Apr_05_1430,training+cueing,2021.1.4,59.94125756688776,
Self.png,Stranger,Self ,m,3.1,18,28,98,,,,,1,0,1,0,,,,,3,1,37,2,,,,,,,,,,,,,,,,,,,,,1.41,1.59,531.27370970021,None,,,,,,,,,,,,,,,,,,,,531.8144992000889,532.3182425000705,0.5073612499982119,1.0076397501397878,532.3016047000419,532.4182836001273,532.3016047000419,532.4182836001273,532.4016258001793,None,m,1,0.6174143999814987,532.4016258001793,None,,,,,,,p132,2022_Apr_05_1430,training+cueing,2021.1.4,59.94125756688776,
Stranger.png,Friend,Stranger,m,2.3,17,27,97,,,,,1,0,1,0,,,,,3,2,38,7,,,,,,,,,,,,,,,,,,,,,1.426,2.28,533.1417130001355,None,,,,,,,,,,,,,,,,,,,,533.683674900094,534.1862743000966,0.5057669500820339,1.0060748499818146,534.1696137001272,534.286312900018,534.1696137001272,534.286312900018,534.269641000079,None,c,0,0.781274699838832,534.269641000079,None,,,,,,,p132,2022_Apr_05_1430,training+cueing,2021.1.4,59.94125756688776,
Stranger.png,Stranger,Stranger,c,3,13,23,93,,,,,1,0,1,0,,,,,3,3,39,8,,,,,,,,,,,,,,,,,,,,,1.505,2.082,535.1761426001322,None,,,,,,,,,,,,,,,,,,,,535.7280292999931,536.2377734000329,0.5008449498564005,1.0011299499310553,536.221117899986,536.3378252000548,536.221117899986,536.3378252000548,536.3378252000548,None,c,1,0.7451644998509437,536.3378252000548,None,,,,,,,p132,2022_Apr_05_1430,training+cueing,2021.1.4,59.94125756688776,
Stranger.png,Stranger,Stranger,c,3,13,23,93,,,,,1,0,1,0,,,,,3,4,40,11,,,,,,,,,,,,,,,,,,,,,1.705,2.065,537.2110380001832,None,,,,,,,,,,,,,,,,,,,,537.7503557000309,538.2558850001078,0.5099839500617236,1.0105191499460489,538.2392109001521,538.3561062000226,538.2392109001521,538.3561062000226,538.3394077999983,None,c,1,0.7117139999754727,538.3394077999983,None,,,,,,,p132,2022_Apr_05_1430,training+cueing,2021.1.4,59.94125756688776,
Self.png,Friend,Self ,m,2.1,16,26,96,,,,,1,0,1,0,,,,,3,5,41,1,,,,,,,,,,,,,,,,,,,,,1.511,1.317,539.1809819000773,None,,,,,,,,,,,,,,,,,,,,539.7223516001832,540.2240603000391,0.5031155501492321,1.00338245020248,540.2073409000877,540.324035000056,540.2073409000877,540.324035000056,540.3073397001717,None,m,1,0.6475923999678344,540.3073397001717,None,,,,,,,p132,2022_Apr_05_1430,training+cueing,2021.1.4,59.94125756688776,
Friend.png,Friend,Friend,c,2,12,22,92,,,,,1,0,1,0,,,,,3,6,42,10,,,,,,,,,,,,,,,,,,,,,1.419,1.719,541.08036550018,None,,,,,,,,,,,,,,,,,,,,541.6219433001243,542.1253680000082,0.5046201499644667,1.004948450019583,542.1087003999855,542.2255153001752,542.1087003999855,542.2255153001752,542.2087486002129,None,c,1,0.8103283001109958,542.2087486002129,None,,,,,,,p132,2022_Apr_05_1430,training+cueing,2021.1.4,59.94125756688776,
Stranger.png,You,Stranger,m,1.3,15,25,95,,,,,1,0,1,0,,,,,3,7,43,6,,,,,,,,,,,,,,,,,,,,,1.623,1.598,543.1488370001316,None,,,,,,,,,,,,,,,,,,,,543.7033844999969,544.2102084001526,0.5139154999051243,1.0141784998122603,544.1935506002046,544.2936072000302,544.1935506002046,544.2936072000302,544.2936072000302,None,m,1,0.725356100127101,544.2936072000302,None,,,,,,,p132,2022_Apr_05_1430,training+cueing,2021.1.4,59.94125756688776,
Self.png,You,Self ,c,1,11,21,91,,,,,1,0,1,0,,,,,3,8,44,0,,,,,,,,,,,,,,,,,,,,,1.712,2.233,545.1500599000137,None,,,,,,,,,,,,,,,,,,,,545.6875179000199,546.194997300161,0.512691950192675,1.0129990500863642,546.1783220001962,546.278389000101,546.1783220001962,546.278389000101,546.278389000101,None,c,1,0.628608699887991,546.278389000101,None,,,,,,,p132,2022_Apr_05_1430,training+cueing,2021.1.4,59.94125756688776,
Friend.png,Friend,Friend,c,2,12,22,92,,,,,1,0,1,0,,,,,3,9,45,4,,,,,,,,,,,,,,,,,,,,,1.634,2.139,547.0350136000197,None,,,,,,,,,,,,,,,,,,,,547.5778850000352,548.079810500145,0.5049643500242382,1.0052728499285877,548.0630144001916,548.1797545000445,548.0630144001916,548.1797545000445,548.1630465001799,None,c,1,0.7920015000272542,548.1630465001799,None,,,,,,,p132,2022_Apr_05_1430,training+cueing,2021.1.4,59.94125756688776,
Friend.png,Stranger,Friend,m,3.2,19,29,99,,,,,1,0,1,0,,,,,3,10,46,5,,,,,,,,,,,,,,,,,,,,,1.665,1.436,549.0866602000315,None,,,,,,,,,,,,,,,,,,,,549.6386404000223,550.1478472000454,0.5020397501066327,1.0023110501933843,550.131203400204,550.2479003001936,550.131203400204,550.2479003001936,550.2312977002002,None,m,1,1.0916365999728441,550.2312977002002,None,,,,,,,p132,2022_Apr_05_1430,training+cueing,2021.1.4,59.94125756688776,
Friend.png,You,Friend,m,1.2,14,24,94,,,,,1,0,1,0,,,,,3,11,47,3,,,,,,,,,,,,,,,,,,,,,1.521,1.245,551.4548710000236,None,,,,,,,,,,,,,,,,,,,,551.9950186000206,552.4995667000767,0.5074403502512723,1.007722350070253,552.4829109001439,552.5829433000181,552.4829109001439,552.5829433000181,552.5829433000181,None,c,0,0.6440326999872923,552.5829433000181,None,,,,,,,p132,2022_Apr_05_1430,training+cueing,2021.1.4,59.94125756688776,
Self.png,Friend,Self ,m,2.1,16,26,96,,,,,1,0,1,0,,,,,4,0,48,1,,,,,,,,,,,,,,,,,,,,,1.681,2.207,553.3566148001701,None,,,,,,,,,,,,,,,,,,,,553.8972020000219,554.4009384000674,0.5086862500756979,1.0089823501184583,554.3842794001102,554.5010060002096,554.3842794001102,554.5010060002096,554.4843574999832,None,m,1,0.7266256001312286,554.4843574999832,None,,,,,,,p132,2022_Apr_05_1430,training+cueing,2021.1.4,59.94125756688776,
Self.png,Stranger,Self ,m,3.1,18,28,98,,,,,1,0,1,0,,,,,4,1,49,2,,,,,,,,,,,,,,,,,,,,,1.547,2.386,555.3410107002128,None,,,,,,,,,,,,,,,,,,,,555.8823490000796,556.3856882001273,0.5060458502266556,1.0062938502524048,556.3690495002083,556.4857622000854,556.3690495002083,556.4857622000854,556.4690811000764,None,m,1,0.7899037001188844,556.4690811000764,None,,,,,,,p132,2022_Apr_05_1430,training+cueing,2021.1.4,59.94125756688776,
Friend.png,Friend,Friend,c,2,12,22,92,,,,,1,0,1,0,,,,,4,2,50,10,,,,,,,,,,,,,,,,,,,,,1.429,1.888,557.3923260001466,None,,,,,,,,,,,,,,,,,,,,557.9325622001197,558.437213000143,0.5072705501224846,1.0075834500603378,558.4205096000805,558.5372686001938,558.4205096000805,558.5372686001938,558.5205409000628,None,c,1,0.7704279001336545,558.5205409000628,None,,,,,,,p132,2022_Apr_05_1430,training+cueing,2021.1.4,59.94125756688776,
Friend.png,Friend,Friend,c,2,12,22,92,,,,,1,0,1,0,,,,,4,3,51,4,,,,,,,,,,,,,,,,,,,,,1.492,2.069,559.4280170002021,None,,,,,,,,,,,,,,,,,,,,559.9831447000615,560.4886988000944,0.5124893998727202,1.012782899895683,560.4720178002026,560.5887486999854,560.4720178002026,560.5887486999854,560.5720501001924,None,c,1,1.0069839998614043,560.5720501001924,None,,,,,,,p132,2022_Apr_05_1430,training+cueing,2021.1.4,59.94125756688776,
Self.png,You,Self ,c,1,11,21,91,,,,,1,0,1,0,,,,,4,4,52,0,,,,,,,,,,,,,,,,,,,,,1.417,1.795,561.7124612000771,None,,,,,,,,,,,,,,,,,,,,562.2519641001709,562.75701140007,0.50862145004794,1.008880249923095,562.7403379001189,562.8403769000433,562.7403379001189,562.8403769000433,562.8403769000433,None,c,1,0.6106070999521762,562.8403769000433,None,,,,,,,p132,2022_Apr_05_1430,training+cueing,2021.1.4,59.94125756688776,
Stranger.png,You,Stranger,m,1.3,15,25,95,,,,,1,0,1,0,,,,,4,5,53,6,,,,,,,,,,,,,,,,,,,,,1.781,2.499,563.5803826001938,None,,,,,,,,,,,,,,,,,,,,564.1195400001016,564.6250333001371,0.5108792500104755,1.0111803498584777,564.6083312002011,564.7083988001104,564.6083312002011,564.7083988001104,564.7083988001104,None,m,1,0.6305259999353439,564.7083988001104,None,,,,,,,p132,2022_Apr_05_1430,training+cueing,2021.1.4,59.94125756688776,
Stranger.png,Stranger,Stranger,c,3,13,23,93,,,,,1,0,1,0,,,,,4,6,54,11,,,,,,,,,,,,,,,,,,,,,1.731,2.386,565.4648897000588,None,,,,,,,,,,,,,,,,,,,,566.0223155000713,566.5263990000822,0.5092103998176754,1.0094948997721076,566.5097304000519,566.6264439001679,566.5097304000519,566.6264439001679,566.6097782000434,None,c,1,0.8092682999558747,566.6097782000434,None,,,,,,,p132,2022_Apr_05_1430,training+cueing,2021.1.4,59.94125756688776,
Friend.png,You,Friend,m,1.2,14,24,94,,,,,1,0,1,0,,,,,4,7,55,3,,,,,,,,,,,,,,,,,,,,,1.452,1.831,567.5499959001318,None,,,,,,,,,,,,,,,,,,,,568.0909975999966,568.5945625000168,0.5048026498407125,1.0050768500659615,568.5779084002133,568.6779404000845,568.5779084002133,568.6779404000845,568.6779404000845,None,m,1,0.7250688998028636,568.6779404000845,None,,,,,,,p132,2022_Apr_05_1430,training+cueing,2021.1.4,59.94125756688776,
Self.png,You,Self ,c,1,11,21,91,,,,,1,0,1,0,,,,,4,8,56,9,,,,,,,,,,,,,,,,,,,,,1.512,2.377,569.5348998000845,None,,,,,,,,,,,,,,,,,,,,570.0744030000642,570.5793552000541,0.5098063498735428,1.010095349745825,570.5626900000498,570.6627313999925,570.5626900000498,570.6627313999925,570.6627313999925,None,c,1,0.6602014999371022,570.6627313999925,None,,,,,,,p132,2022_Apr_05_1430,training+cueing,2021.1.4,59.94125756688776,
Stranger.png,Friend,Stranger,m,2.3,17,27,97,,,,,1,0,1,0,,,,,4,9,57,7,,,,,,,,,,,,,,,,,,,,,1.464,2.107,571.4528263001703,None,,,,,,,,,,,,,,,,,,,,571.993555800058,572.4973823002074,0.5084699501749128,1.0087431501597166,572.4807161001954,572.597438900033,572.4807161001954,572.597438900033,572.5807587001473,None,m,1,0.7582895001396537,572.5807587001473,None,,,,,,,p132,2022_Apr_05_1430,training+cueing,2021.1.4,59.94125756688776,
Stranger.png,Stranger,Stranger,c,3,13,23,93,,,,,1,0,1,0,,,,,4,10,58,8,,,,,,,,,,,,,,,,,,,,,1.502,1.956,573.471464100061,None,,,,,,,,,,,,,,,,,,,,574.0121442000382,574.5155427001882,0.5044147500302643,1.0046781501732767,574.4988732000347,574.6155786002055,574.4988732000347,574.6155786002055,574.5988955001812,None,c,1,0.5480581999290735,574.5988955001812,None,,,,,,,p132,2022_Apr_05_1430,training+cueing,2021.1.4,59.94125756688776,
Friend.png,Stranger,Friend,m,3.2,19,29,99,,,,,1,0,1,0,,,,,4,11,59,5,,,,,,,,,,,,,,,,,,,,,1.547,2.068,575.2728423001245,None,,,,,,,,,,,,,,,,,,,,575.8151970000472,576.3168271000031,0.5035734500270337,1.00387414987199,576.3001652001403,576.4168861000799,576.3001652001403,576.4168861000799,576.400200900156,None,None,0,,576.400200900156,None,,,,,,,p132,2022_Apr_05_1430,training+cueing,2021.1.4,59.94125756688776,
Friend.png,You,Friend,m,1.2,14,24,94,,,,,1,0,1,0,,,,,5,0,60,3,,,,,,,,,,,,,,,,,,,,,1.572,2.406,578.0555218001828,None,,,,,,,,,,,,,,,,,,,,578.5970616000704,579.1022060001269,0.5086913502309471,1.0089793500956148,579.0854925999884,579.1855735001154,579.0854925999884,579.1855735001154,579.1855735001154,None,m,1,0.8094965000636876,579.1855735001154,None,,,,,,,p132,2022_Apr_05_1430,training+cueing,2021.1.4,59.94125756688776,
Friend.png,Stranger,Friend,m,3.2,19,29,99,,,,,1,0,1,0,,,,,5,1,61,5,,,,,,,,,,,,,,,,,,,,,1.746,2.187,580.1267697000876,None,,,,,,,,,,,,,,,,,,,,580.6701881000772,581.1703778000083,0.5009903500322253,1.0012530500534922,581.1537007000297,581.2704158001579,581.1537007000297,581.2704158001579,581.2704158001579,None,m,1,0.804629199905321,581.2704158001579,None,,,,,,,p132,2022_Apr_05_1430,training+cueing,2021.1.4,59.94125756688776,
Friend.png,Friend,Friend,c,2,12,22,92,,,,,1,0,1,0,,,,,5,2,62,4,,,,,,,,,,,,,,,,,,,,,1.501,1.692,582.2106338001322,None,,,,,,,,,,,,,,,,,,,,582.7549699000083,583.2553681000136,0.5011338500771672,1.001998950028792,583.2385360000189,583.3552562000696,583.2385360000189,583.3552562000696,583.3552562000696,None,m,0,0.6717768998350948,583.3552562000696,None,,,,,,,p132,2022_Apr_05_1430,training+cueing,2021.1.4,59.94125756688776,
Self.png,You,Self ,c,1,11,21,91,,,,,1,0,1,0,,,,,5,3,63,0,,,,,,,,,,,,,,,,,,,,,1.539,1.542,584.1616325001232,None,,,,,,,,,,,,,,,,,,,,584.7161733000539,585.2233220001217,0.5120332997757941,1.0123092997819185,585.2066434000153,585.3067493000999,585.2066434000153,585.3067493000999,585.3067493000999,None,c,1,0.6881887998897582,585.3067493000999,None,,,,,,,p132,2022_Apr_05_1430,training+cueing,2021.1.4,59.94125756688776,
Self.png,Friend,Self ,m,2.1,16,26,96,,,,,1,0,1,0,,,,,5,4,64,1,,,,,,,,,,,,,,,,,,,,,1.491,2.435,586.1303139000665,None,,,,,,,,,,,,,,,,,,,,586.671718900092,587.1747140001971,0.5065088500268757,1.0067796499934047,587.1580304000527,587.2747755001765,587.1580304000527,587.2747755001765,587.2580394002143,None,m,1,0.6249355000909418,587.2580394002143,None,,,,,,,p132,2022_Apr_05_1430,training+cueing,2021.1.4,59.94125756688776,
Friend.png,Friend,Friend,c,2,12,22,92,,,,,1,0,1,0,,,,,5,5,65,10,,,,,,,,,,,,,,,,,,,,,1.785,1.474,588.014905200107,None,,,,,,,,,,,,,,,,,,,,588.5523276000749,589.0593954001088,0.5134566500782967,1.013749049976468,589.0427534000482,589.1594541000668,589.0427534000482,589.1594541000668,589.1427615000866,None,c,1,0.8362273999955505,589.1427615000866,None,,,,,,,p132,2022_Apr_05_1430,training+cueing,2021.1.4,59.94125756688776,
Stranger.png,Stranger,Stranger,c,3,13,23,93,,,,,1,0,1,0,,,,,5,6,66,8,,,,,,,,,,,,,,,,,,,,,1.693,1.479,590.1162835999858,None,,,,,,,,,,,,,,,,,,,,590.6575253000483,591.1609377001878,0.5041779500897974,1.004327850183472,591.1443998999894,591.2610013000667,591.1443998999894,591.2610013000667,591.2443260999862,None,c,1,0.7508324000518769,591.2443260999862,None,,,,,,,p132,2022_Apr_05_1430,training+cueing,2021.1.4,59.94125756688776,
Stranger.png,Stranger,Stranger,c,3,13,23,93,,,,,1,0,1,0,,,,,5,7,67,11,,,,,,,,,,,,,,,,,,,,,1.702,1.535,592.1173524002079,None,,,,,,,,,,,,,,,,,,,,592.6552777001634,593.1624198001809,0.5139328499790281,1.0142237499821931,593.1457380000502,593.2624359000474,593.1457380000502,593.2624359000474,593.2457515001297,None,c,1,0.5892692999914289,593.2457515001297,None,,,,,,,p132,2022_Apr_05_1430,training+cueing,2021.1.4,59.94125756688776,
Stranger.png,Friend,Stranger,m,2.3,17,27,97,,,,,1,0,1,0,,,,,5,8,68,7,,,,,,,,,,,,,,,,,,,,,1.618,2.321,593.9691840000451,None,,,,,,,,,,,,,,,,,,,,594.5101420001592,595.0137383001857,0.505400950089097,1.0057096502278,594.9970267000608,595.1137961000204,594.9970267000608,595.1137961000204,595.0970551001374,None,m,1,0.5459871999919415,595.0970551001374,None,,,,,,,p132,2022_Apr_05_1430,training+cueing,2021.1.4,59.94125756688776,
Stranger.png,You,Stranger,m,1.3,15,25,95,,,,,1,0,1,0,,,,,5,9,69,6,,,,,,,,,,,,,,,,,,,,,1.501,2.462,595.7699317000806,None,,,,,,,,,,,,,,,,,,,,596.3103681001812,596.8150767001789,0.5089097500313073,1.0093715500552207,596.7983812000602,596.8984006000683,596.7983812000602,596.8984006000683,596.8984006000683,None,m,1,0.5685780998319387,596.8984006000683,None,,,,,,,p132,2022_Apr_05_1430,training+cueing,2021.1.4,59.94125756688776,
Self.png,You,Self ,c,1,11,21,91,,,,,1,0,1,0,,,,,5,10,70,9,,,,,,,,,,,,,,,,,,,,,1.527,1.32,597.6053746000398,None,,,,,,,,,,,,,,,,,,,,598.141452500131,598.6496987000573,0.4991579500492662,0.999451549956575,598.6163569001947,598.7164059001952,598.6163569001947,598.7164059001952,598.7164059001952,None,c,1,0.5586608999874443,598.7164059001952,None,,,,,,,p132,2022_Apr_05_1430,training+cueing,2021.1.4,59.94125756688776,
Self.png,Stranger,Self ,m,3.1,18,28,98,,,,,1,0,1,0,,,,,5,11,71,2,,,,,,,,,,,,,,,,,,,,,1.677,2.282,599.4066035000142,None,,,,,,,,,,,,,,,,,,,,599.9481727001257,600.4510206000414,0.5042708504479378,1.0045846502762288,600.4343625002075,600.5510612002108,600.4343625002075,600.5510612002108,600.5343844001181,None,m,1,0.7406699999701232,600.5343844001181,None,,,,,,,p132,2022_Apr_05_1430,training+cueing,2021.1.4,59.94125756688776,
Self.png,Friend,Self ,m,2.1,16,26,96,,,,,1,0,1,0,,,,,6,0,72,1,,,,,,,,,,,,,,,,,,,,,1.462,2.281,601.4082898001652,None,,,,,,,,,,,,,,,,,,,,601.9487422001548,602.4524874000344,0.5080693501513451,1.0083599502686411,602.4357518001925,602.5525353001431,602.4357518001925,602.5525353001431,602.5358049999923,None,m,1,0.49918179982341826,602.5358049999923,None,,,,,,,p132,2022_Apr_05_1430,training+cueing,2021.1.4,59.94125756688776,
Friend.png,You,Friend,m,1.2,14,24,94,,,,,1,0,1,0,,,,,6,1,73,3,,,,,,,,,,,,,,,,,,,,,1.605,1.704,603.158424800029,None,,,,,,,,,,,,,,,,,,,,603.6993668000214,604.2038061001804,0.507929049897939,1.0082250500563532,604.1870303000323,604.2870718000922,604.1870303000323,604.2870718000922,604.2870718000922,None,c,0,0.5080053999554366,604.2870718000922,None,,,,,,,p132,2022_Apr_05_1430,training+cueing,2021.1.4,59.94125756688776,
Stranger.png,You,Stranger,m,1.3,15,25,95,,,,,1,0,1,0,,,,,6,2,74,6,,,,,,,,,,,,,,,,,,,,,1.573,1.568,604.927434500074,None,,,,,,,,,,,,,,,,,,,,605.4662023000419,605.9717006999999,0.508991050068289,1.0092704501003027,605.9550287001766,606.0550601000432,605.9550287001766,606.0550601000432,606.0550601000432,None,m,1,0.7079187999479473,606.0550601000432,None,,,,,,,p132,2022_Apr_05_1430,training+cueing,2021.1.4,59.94125756688776,
Self.png,You,Self ,c,1,11,21,91,,,,,1,0,1,0,,,,,6,3,75,9,,,,,,,,,,,,,,,,,,,,,1.649,2.19,606.8952659000643,None,,,,,,,,,,,,,,,,,,,,607.4326199002098,607.9397821000312,0.5130601499695331,1.0133472501765937,607.923094100086,608.0231626001187,607.923094100086,608.0231626001187,608.0231626001187,None,c,1,0.5798552001360804,608.0231626001187,None,,,,,,,p132,2022_Apr_05_1430,training+cueing,2021.1.4,59.94125756688776,
Stranger.png,Friend,Stranger,m,2.3,17,27,97,,,,,1,0,1,0,,,,,6,4,76,7,,,,,,,,,,,,,,,,,,,,,1.499,1.303,608.7298668001313,None,,,,,,,,,,,,,,,,,,,,609.2700564002153,609.7744301001076,0.5073263498488814,1.0076226498931646,609.7577802001033,609.8745033000596,609.7577802001033,609.8745033000596,609.8578032001387,None,m,1,0.48917649989016354,609.8578032001387,None,,,,,,,p132,2022_Apr_05_1430,training+cueing,2021.1.4,59.94125756688776,
Stranger.png,Stranger,Stranger,c,3,13,23,93,,,,,1,0,1,0,,,,,6,5,77,8,,,,,,,,,,,,,,,,,,,,,1.591,2.056,610.4808730999939,None,,,,,,,,,,,,,,,,,,,,611.0223244000226,611.5257189001422,0.5067606498487294,1.0076508498750627,611.5090241001453,611.625769500155,611.5090241001453,611.625769500155,611.6090516000986,None,c,1,0.5781580999027938,611.6090516000986,None,,,,,,,p132,2022_Apr_05_1430,training+cueing,2021.1.4,59.94125756688776,
Self.png,You,Self ,c,1,11,21,91,,,,,1,0,1,0,,,,,6,6,78,0,,,,,,,,,,,,,,,,,,,,,1.583,1.845,612.3196686999872,None,,,,,,,,,,,,,,,,,,,,612.8673877001274,613.3770344001241,0.5033574500121176,1.0036262499634176,613.3603984999936,613.4604144000914,613.3603984999936,613.4604144000914,613.4604144000914,None,c,1,0.598524599801749,613.4604144000914,None,,,,,,,p132,2022_Apr_05_1430,training+cueing,2021.1.4,59.94125756688776,
Friend.png,Friend,Friend,c,2,12,22,92,,,,,1,0,1,0,,,,,6,7,79,4,,,,,,,,,,,,,,,,,,,,,1.68,1.494,614.1837778000627,None,,,,,,,,,,,,,,,,,,,,614.724361800123,615.2283750001807,0.5052062498871237,1.0055095497518778,615.2117191001307,615.3284202001523,615.2117191001307,615.3284202001523,615.3117677001283,None,c,1,0.7472667000256479,615.3117677001283,None,,,,,,,p132,2022_Apr_05_1430,training+cueing,2021.1.4,59.94125756688776,
Stranger.png,Stranger,Stranger,c,3,13,23,93,,,,,1,0,1,0,,,,,6,8,80,11,,,,,,,,,,,,,,,,,,,,,1.523,2.179,616.1849346000236,None,,,,,,,,,,,,,,,,,,,,616.7258927000221,617.2298706001602,0.5072351500857621,1.0075138499960303,617.2131769000553,617.3298952002078,617.2131769000553,617.3298952002078,617.3132194001228,None,c,1,0.6337257002014667,617.3132194001228,None,,,,,,,p132,2022_Apr_05_1430,training+cueing,2021.1.4,59.94125756688776,
Self.png,Stranger,Self ,m,3.1,18,28,98,,,,,1,0,1,0,,,,,6,9,81,2,,,,,,,,,,,,,,,,,,,,,1.416,2.14,618.0699089001864,None,,,,,,,,,,,,,,,,,,,,618.6078832000494,619.1145885000005,0.5129085499793291,1.0131925500463694,619.0978856000584,619.2146147000603,619.0978856000584,619.2146147000603,619.1978669001255,None,m,1,0.6851178000215441,619.1978669001255,None,,,,,,,p132,2022_Apr_05_1430,training+cueing,2021.1.4,59.94125756688776,
Friend.png,Friend,Friend,c,2,12,22,92,,,,,1,0,1,0,,,,,6,10,82,10,,,,,,,,,,,,,,,,,,,,,1.607,1.814,620.0045729000121,None,,,,,,,,,,,,,,,,,,,,620.5439434000291,621.0492889999878,0.5080566501710564,1.0083657503128052,621.0325826001354,621.149352400098,621.0325826001354,621.149352400098,621.1326102002058,None,c,1,0.6864760001190007,621.1326102002058,None,,,,,,,p132,2022_Apr_05_1430,training+cueing,2021.1.4,59.94125756688776,
Friend.png,Stranger,Friend,m,3.2,19,29,99,,,,,1,0,1,0,,,,,6,11,83,5,,,,,,,,,,,,,,,,,,,,,1.571,2.324,621.956035700161,None,,,,,,,,,,,,,,,,,,,,622.4974881000817,623.0006811001804,0.5065263498108834,1.0068333498202264,622.9840034001973,623.1007193000987,622.9840034001973,623.1007193000987,623.0840584000107,None,c,0,0.76691780006513,623.0840584000107,None,,,,,,,p132,2022_Apr_05_1430,training+cueing,2021.1.4,59.94125756688776,
