Image,Name,Face,CorrAns,Match,Face_onset,CResponse_onset,IResponse_onset,Match.thisRepN,Match.thisTrialN,Match.thisN,Match.thisIndex,Blocks.thisRepN,Blocks.thisTrialN,Blocks.thisN,Blocks.thisIndex,trials.thisRepN,trials.thisTrialN,trials.thisN,trials.thisIndex,trials_2.thisRepN,trials_2.thisTrialN,trials_2.thisN,trials_2.thisIndex,text.started,text.stopped,p1.started,p1.stopped,MatchInstructions.started,MatchInstructions.stopped,Name1.started,Name1.stopped,Face_Relevance.started,Face_Relevance.stopped,MismatchInstructions.started,MismatchInstructions.stopped,Rest_trainingInstruct.started,Rest_trainingInstruct.stopped,next8.keys,next8.rt,next8.started,next8.stopped,Ready.started,Ready.stopped,delay_one_picked,delay_two_picked,blank0.started,blank0.stopped,FixationCross1.started,FixationCross1.stopped,Name3.started,Name3.stopped,Face_Relevance3.started,Face_Relevance3.stopped,responseTime.started,responseTime.stopped,resp.keys,resp.corr,resp.rt,resp.started,resp.stopped,Accuracy.started,Accuracy.stopped,questions.started,questions.stopped,p2.started,p2.stopped,FixationCross3.started,FixationCross3.stopped,port_Face_onset.started,port_Face_onset.stopped,Name4.started,Name4.stopped,Face_Relevance4.started,Face_Relevance4.stopped,responseTime2.started,responseTime2.stopped,Response.keys,Response.corr,Response.rt,Response.started,Response.stopped,p3.started,p3.stopped,Finish.started,Finish.stopped,gender,age,participant,date,expName,psychopyVersion,frameRate,
Self.png,You,,,,,,,0,0,0,0,,,,,,,,,,,,,27.50478579999981,None,0.0037628799946105573,0.5230033799962257,29.511152999999467,None,31.634276599997975,None,31.634276599997975,None,,,,,,,,,,,,,,,,,,,,,,,,,,,,,,,,,,,,,,,,,,,,,,,,,,,,,,,p152,2022_Apr_13_0918,training+cueing,2021.1.4,59.937305578945185,
Stranger.png,Stranger,,,,,,,0,1,1,2,,,,,,,,,,,,,,,,,,,51.543747599997005,None,51.543747599997005,None,,,,,,,,,,,,,,,,,,,,,,,,,,,,,,,,,,,,,,,,,,,,,,,,,,,,,,,p152,2022_Apr_13_0918,training+cueing,2021.1.4,59.937305578945185,
Friend.png,Friend,,,,,,,0,2,2,1,,,,,,,,,,,,,,,,,,,71.54875030000039,None,71.54875030000039,None,,,,,,,,,,,,,,,,,,,,,,,,,,,,,,,,,,,,,,,,,,,,,,,,,,,,,,,p152,2022_Apr_13_0918,training+cueing,2021.1.4,59.937305578945185,
Friend.png,Friend,Friend,c,2,12,22,92,,,,,0,0,0,0,0,0,0,10,,,,,,,,,,,,,,,91.50517839999884,None,97.29227349999928,None,space,-0.5181940000002214,2.009204440000758,None,99.29413399999976,None,1.793,1.936,102.30009449999852,None,102.93099419999999,103.4303364999978,103.4303364999978,103.53038229999947,103.4303364999978,103.53038229999947,103.53038229999947,None,m,0,1.0336972999975842,103.53038229999947,None,104.58217299999887,None,,,,,,,,,,,,,,,,,,,,,,,,,,p152,2022_Apr_13_0918,training+cueing,2021.1.4,59.937305578945185,
Friend.png,You,Friend,m,1.2,14,24,94,,,,,0,0,0,0,0,1,1,3,,,,,,,,,,,,,,,,,,,,,,,,,1.445,2.005,104.98146979999729,None,105.50994209999772,106.0155844999972,105.9988689999991,106.09890809999706,105.9988689999991,106.09890809999706,106.09890809999706,None,c,0,0.8810230999988562,106.09890809999706,None,106.99962199999936,None,,,,,,,,,,,,,,,,,,,,,,,,,,p152,2022_Apr_13_0918,training+cueing,2021.1.4,59.937305578945185,
Self.png,Stranger,Self ,m,3.1,18,28,98,,,,,0,0,0,0,0,2,2,2,,,,,,,,,,,,,,,,,,,,,,,,,1.719,2.005,107.39986479999789,None,107.93013029999929,108.43394899999839,108.41722909999953,108.53399189999982,108.41722909999953,108.53399189999982,108.51730379999935,None,c,0,1.006999099998211,108.51730379999935,None,109.55139950000012,None,,,,,,,,,,,,,,,,,,,,,,,,,,p152,2022_Apr_13_0918,training+cueing,2021.1.4,59.937305578945185,
Stranger.png,You,Stranger,m,1.3,15,25,95,,,,,0,0,0,0,0,3,3,6,,,,,,,,,,,,,,,,,,,,,,,,,1.669,1.975,109.95168089999788,None,110.48001889999796,110.9859308999985,110.9692776999982,111.06929499999751,110.9692776999982,111.06929499999751,111.06929499999751,None,m,1,1.574640200000431,111.06929499999751,None,112.66922189999968,None,,,,,,,,,,,,,,,,,,,,,,,,,,p152,2022_Apr_13_0918,training+cueing,2021.1.4,59.937305578945185,
Self.png,You,Self ,c,1,11,21,91,,,,,0,0,0,0,0,4,4,0,,,,,,,,,,,,,,,,,,,,,,,,,1.58,1.927,113.07063269999708,None,113.59951799999908,114.10467749999953,114.08803819999957,114.18806829999812,114.08803819999957,114.18806829999812,114.18806829999812,None,c,1,0.9040170999978727,114.18806829999812,None,115.12279449999915,None,,,,,,,,,,,,,,,,,,,,,,,,,,p152,2022_Apr_13_0918,training+cueing,2021.1.4,59.937305578945185,
Stranger.png,Stranger,Stranger,c,3,13,23,93,,,,,0,0,0,0,0,5,5,11,,,,,,,,,,,,,,,,,,,,,,,,,1.614,2.005,115.52259699999922,None,116.0525619,116.55648499999734,116.53978559999814,116.65649750000011,116.53978559999814,116.65649750000011,116.63982269999906,None,c,1,0.9160401999979513,116.63982269999906,None,117.57390870000017,None,,,,,,,,,,,,,,,,,,,,,,,,,,p152,2022_Apr_13_0918,training+cueing,2021.1.4,59.937305578945185,
Stranger.png,Friend,Stranger,m,2.3,17,27,97,,,,,0,0,0,0,0,6,6,7,,,,,,,,,,,,,,,,,,,,,,,,,1.46,2.144,117.97466449999774,None,118.5032046999986,119.00826379999853,118.99157759999798,119.10829249999733,118.99157759999798,119.10829249999733,119.09161279999898,None,c,0,0.9445435000016005,119.09161279999898,None,120.05959619999703,None,,,,,,,,,,,,,,,,,,,,,,,,,,p152,2022_Apr_13_0918,training+cueing,2021.1.4,59.937305578945185,
Friend.png,Stranger,Friend,m,3.2,19,29,99,,,,,0,0,0,0,0,7,7,5,,,,,,,,,,,,,,,,,,,,,,,,,1.68,1.252,120.45984029999818,None,120.98955980000028,121.49338689999786,121.47669379999934,121.59341759999734,121.47669379999934,121.59341759999734,121.57672289999755,None,c,0,1.2920387000012852,121.57672289999755,None,122.89593930000046,None,,,,,,,,,,,,,,,,,,,,,,,,,,p152,2022_Apr_13_0918,training+cueing,2021.1.4,59.937305578945185,
Self.png,You,Self ,c,1,11,21,91,,,,,0,0,0,0,0,8,8,9,,,,,,,,,,,,,,,,,,,,,,,,,1.69,1.453,123.31140549999691,None,123.838171899999,124.34543949999716,124.32873709999694,124.42879709999761,124.32873709999694,124.42879709999761,124.42879709999761,None,m,0,0.9033824000034656,124.42879709999761,None,125.36284129999694,None,,,,,,,,,,,,,,,,,,,,,,,,,,p152,2022_Apr_13_0918,training+cueing,2021.1.4,59.937305578945185,
Friend.png,Friend,Friend,c,2,12,22,92,,,,,0,0,0,0,0,9,9,4,,,,,,,,,,,,,,,,,,,,,,,,,1.485,1.296,125.76313049999953,None,126.2928288999974,126.79720479999742,126.7805206999983,126.8972947000002,126.7805206999983,126.8972947000002,126.88058119999914,None,None,0,,126.88058119999914,None,128.36513649999688,None,,,,,,,,,,,,,,,,,,,,,,,,,,p152,2022_Apr_13_0918,training+cueing,2021.1.4,59.937305578945185,
Stranger.png,Stranger,Stranger,c,3,13,23,93,,,,,0,0,0,0,0,10,10,8,,,,,,,,,,,,,,,,,,,,,,,,,1.767,1.678,128.7655866999994,None,129.29828219999763,129.7993779999997,129.7826970999995,129.89945479999733,129.7826970999995,129.89945479999733,129.89945479999733,None,c,1,0.9044556000008015,129.89945479999733,None,130.83198619999894,None,,,,,,,,,,,,,,,,,,,,,,,,,,p152,2022_Apr_13_0918,training+cueing,2021.1.4,59.937305578945185,
Self.png,Friend,Self ,m,2.1,16,26,96,,,,,0,0,0,0,0,11,11,1,,,,,,,,,,,,,,,,,,,,,,,,,1.638,1.997,131.2338413999969,None,131.76221529999748,132.26781299999857,132.2511717999987,132.36787719999847,132.2511717999987,132.36787719999847,132.3511851000003,None,c,0,0.9166417999986152,132.3511851000003,None,133.28541499999847,None,,,,,,,,,,,,,,,,,,,,,,,,,,p152,2022_Apr_13_0918,training+cueing,2021.1.4,59.937305578945185,
Stranger.png,Friend,Stranger,m,2.3,17,27,97,,,,,0,0,0,0,,,,,0,0,0,7,,,,,,,,,,,,,,,,,,,153.69996719999835,None,1.528,1.242,157.2318067999986,None,,,,,,,,,,,,,,,,133.68562969999766,None,0.014266440000938019,0.5128592400033085,157.84113859999707,158.35363439999855,0.5049253200013482,1.0048398200015072,158.33697109999775,158.4534105999992,158.33697109999775,158.4534105999992,158.43667119999736,None,c,0,0.9912598000009893,158.43667119999736,None,,,,,,,p152,2022_Apr_13_0918,training+cueing,2021.1.4,59.937305578945185,
Self.png,You,Self ,c,1,11,21,91,,,,,0,0,0,0,,,,,0,1,1,9,,,,,,,,,,,,,,,,,,,,,1.695,1.349,159.56351509999877,None,,,,,,,,,,,,,,,,,,,,160.0981116999974,160.60497620000024,0.5091897199999948,1.009503119999863,160.588276399998,160.68832829999883,160.588276399998,160.68832829999883,160.68832829999883,None,c,1,0.7236515000004147,160.68832829999883,None,,,,,,,p152,2022_Apr_13_0918,training+cueing,2021.1.4,59.937305578945185,
Self.png,Stranger,Self ,m,3.1,18,28,98,,,,,0,0,0,0,,,,,0,2,2,2,,,,,,,,,,,,,,,,,,,,,1.589,1.937,161.54514089999793,None,,,,,,,,,,,,,,,,,,,,162.08395579999706,162.589690599998,0.5108228200006124,1.0112710200010042,162.57309129999703,162.68993649999902,162.57309129999703,162.68993649999902,162.67329099999915,None,m,1,1.0264975000027334,162.67329099999915,None,,,,,,,p152,2022_Apr_13_0918,training+cueing,2021.1.4,59.937305578945185,
Stranger.png,Stranger,Stranger,c,3,13,23,93,,,,,0,0,0,0,,,,,0,3,3,11,,,,,,,,,,,,,,,,,,,,,1.613,2.391,163.83397879999757,None,,,,,,,,,,,,,,,,,,,,164.3786564999973,164.89142549999815,0.5068750200043723,1.0071649200035608,164.87473279999904,164.9914613999972,164.87473279999904,164.9914613999972,164.97475639999902,None,c,1,0.9810971000006248,164.97475639999902,None,,,,,,,p152,2022_Apr_13_0918,training+cueing,2021.1.4,59.937305578945185,
Friend.png,Friend,Friend,c,2,12,22,92,,,,,0,0,0,0,,,,,0,4,4,4,,,,,,,,,,,,,,,,,,,,,1.427,1.224,166.08165709999957,None,,,,,,,,,,,,,,,,,,,,166.61963319999995,167.1263411999971,0.5123608200010494,1.012677620001341,167.1096469999975,167.22638359999837,167.1096469999975,167.22638359999837,167.20969709999918,None,c,1,0.9383029999989958,167.20969709999918,None,,,,,,,p152,2022_Apr_13_0918,training+cueing,2021.1.4,59.937305578945185,
Self.png,You,Self ,c,1,11,21,91,,,,,0,0,0,0,,,,,0,5,5,0,,,,,,,,,,,,,,,,,,,,,1.563,1.804,168.28299939999852,None,,,,,,,,,,,,,,,,,,,,168.82832129999952,169.32795219999753,0.515228019998176,1.01558501999898,169.32795219999753,169.42797520000022,169.32795219999753,169.42797520000022,169.42797520000022,None,c,1,1.1521040000006906,169.42797520000022,None,,,,,,,p152,2022_Apr_13_0918,training+cueing,2021.1.4,59.937305578945185,
Friend.png,Stranger,Friend,m,3.2,19,29,99,,,,,0,0,0,0,,,,,0,6,6,5,,,,,,,,,,,,,,,,,,,,,1.611,1.715,170.70198759999766,None,,,,,,,,,,,,,,,,,,,,171.24008169999797,171.74635879999914,0.5107274200017855,1.0110078200013959,171.72967269999936,171.84641519999786,171.72967269999936,171.84641519999786,171.8296988000002,None,m,1,1.0543338999996195,171.8296988000002,None,,,,,,,p152,2022_Apr_13_0918,training+cueing,2021.1.4,59.937305578945185,
Stranger.png,You,Stranger,m,1.3,15,25,95,,,,,0,0,0,0,,,,,0,7,7,6,,,,,,,,,,,,,,,,,,,,,1.532,2.454,173.02026660000047,None,,,,,,,,,,,,,,,,,,,,173.5585921999991,174.06471919999967,0.51266681999914,1.012961219999852,174.04802799999743,174.14806859999953,174.04802799999743,174.14806859999953,174.14806859999953,None,m,1,0.8797687999976915,174.14806859999953,None,,,,,,,p152,2022_Apr_13_0918,training+cueing,2021.1.4,59.937305578945185,
Friend.png,You,Friend,m,1.2,14,24,94,,,,,0,0,0,0,,,,,0,8,8,3,,,,,,,,,,,,,,,,,,,,,1.635,1.305,175.15450810000038,None,,,,,,,,,,,,,,,,,,,,175.68960929999957,176.19957809999687,0.5009570799993526,1.0012381800006551,176.18287489999784,176.28291479999825,176.18287489999784,176.28291479999825,176.28291479999825,None,m,1,0.808853899998212,176.28291479999825,None,,,,,,,p152,2022_Apr_13_0918,training+cueing,2021.1.4,59.937305578945185,
Friend.png,Friend,Friend,c,2,12,22,92,,,,,0,0,0,0,,,,,0,9,9,10,,,,,,,,,,,,,,,,,,,,,1.51,2.36,177.2232323999997,None,,,,,,,,,,,,,,,,,,,,177.76145969999925,178.2677436999984,0.51230432000375,1.012587720000738,178.25106179999784,178.36779279999973,178.25106179999784,178.36779279999973,178.3510929999975,None,c,1,0.8528110000006563,178.3510929999975,None,,,,,,,p152,2022_Apr_13_0918,training+cueing,2021.1.4,59.937305578945185,
Self.png,Friend,Self ,m,2.1,16,26,96,,,,,0,0,0,0,,,,,0,10,10,1,,,,,,,,,,,,,,,,,,,,,1.63,2.245,179.3411860999986,None,,,,,,,,,,,,,,,,,,,,179.87782890000017,180.3860113999981,0.5004783200056409,1.0006724200029566,180.35256879999724,180.45270339999843,180.35256879999724,180.45270339999843,180.45270339999843,None,m,1,1.0393602999974973,180.45270339999843,None,,,,,,,p152,2022_Apr_13_0918,training+cueing,2021.1.4,59.937305578945185,
Stranger.png,Stranger,Stranger,c,3,13,23,93,,,,,0,0,0,0,,,,,0,11,11,8,,,,,,,,,,,,,,,,,,,,,1.595,1.34,181.62693229999786,None,,,,,,,,,,,,,,,,,,,,182.1638329999987,182.67090809999718,0.5110308199982683,1.011319219996949,182.65422359999866,182.7709634999992,182.65422359999866,182.7709634999992,182.75427819999823,None,c,1,1.0418630999993184,182.75427819999823,None,,,,,,,p152,2022_Apr_13_0918,training+cueing,2021.1.4,59.937305578945185,
Stranger.png,You,Stranger,m,1.3,15,25,95,,,,,0,0,0,0,,,,,1,0,12,6,,,,,,,,,,,,,,,,,,,,,1.448,1.549,183.92808009999862,None,,,,,,,,,,,,,,,,,,,,184.4929912999978,185.0059263999974,0.5145569600026647,1.0148305600014282,184.98925269999745,185.08930829999736,184.98925269999745,185.08930829999736,185.08930829999736,None,m,1,0.8665489999984857,185.08930829999736,None,,,,,,,p152,2022_Apr_13_0918,training+cueing,2021.1.4,59.937305578945185,
Friend.png,Friend,Friend,c,2,12,22,92,,,,,0,0,0,0,,,,,1,1,13,4,,,,,,,,,,,,,,,,,,,,,1.66,1.788,186.0795545999972,None,,,,,,,,,,,,,,,,,,,,186.62527879999834,187.1408303999997,0.5147209200003999,1.014982320000854,187.12416549999762,187.24087549999967,187.12416549999762,187.24087549999967,187.2241458999997,None,c,1,0.7156767000014952,187.2241458999997,None,,,,,,,p152,2022_Apr_13_0918,training+cueing,2021.1.4,59.937305578945185,
Stranger.png,Stranger,Stranger,c,3,13,23,93,,,,,0,0,0,0,,,,,1,2,14,11,,,,,,,,,,,,,,,,,,,,,1.611,2.284,188.06483989999833,None,,,,,,,,,,,,,,,,,,,,188.60250280000037,189.1088908999991,0.5115618200034078,1.0117808200011496,189.09228439999788,189.20895389999714,189.09228439999788,189.20895389999714,189.19227129999854,None,m,0,1.1315818999973999,189.19227129999854,None,,,,,,,p152,2022_Apr_13_0918,training+cueing,2021.1.4,59.937305578945185,
Friend.png,Stranger,Friend,m,3.2,19,29,99,,,,,0,0,0,0,,,,,1,3,15,5,,,,,,,,,,,,,,,,,,,,,1.737,1.565,190.44933079999828,None,,,,,,,,,,,,,,,,,,,,190.98526239999774,191.493971099997,0.5007025800041447,1.000988680003502,191.47730229999797,191.59402399999817,191.47730229999797,191.59402399999817,191.59402399999817,None,m,1,1.098136800002976,191.59402399999817,None,,,,,,,p152,2022_Apr_13_0918,training+cueing,2021.1.4,59.937305578945185,
Self.png,Friend,Self ,m,2.1,16,26,96,,,,,0,0,0,0,,,,,1,4,16,1,,,,,,,,,,,,,,,,,,,,,1.779,1.349,192.82159039999897,None,,,,,,,,,,,,,,,,,,,,193.3572615999983,193.86241879999943,0.5073911199979193,1.0076033199948142,193.84572939999998,193.96238529999755,193.84572939999998,193.96238529999755,193.9457110000003,None,m,1,0.9062873000002583,193.9457110000003,None,,,,,,,p152,2022_Apr_13_0918,training+cueing,2021.1.4,59.937305578945185,
Stranger.png,Friend,Stranger,m,2.3,17,27,97,,,,,0,0,0,0,,,,,1,5,17,7,,,,,,,,,,,,,,,,,,,,,1.732,1.883,194.98568890000024,None,,,,,,,,,,,,,,,,,,,,195.52890099999786,196.03054809999958,0.5042673200005083,1.0045567199995276,196.0139006999998,196.13058629999796,196.0139006999998,196.13058629999796,196.11393589999716,None,c,0,0.7218579000000318,196.11393589999716,None,,,,,,,p152,2022_Apr_13_0918,training+cueing,2021.1.4,59.937305578945185,
Self.png,Stranger,Self ,m,3.1,18,28,98,,,,,0,0,0,0,,,,,1,6,18,2,,,,,,,,,,,,,,,,,,,,,1.729,1.328,196.97033259999807,None,,,,,,,,,,,,,,,,,,,,197.5101813000001,198.0153395999987,0.5111186200010707,1.0113914200010186,197.99865849999696,198.1153923999991,197.99865849999696,198.1153923999991,198.0986817999983,None,m,1,0.7851254000015615,198.0986817999983,None,,,,,,,p152,2022_Apr_13_0918,training+cueing,2021.1.4,59.937305578945185,
Friend.png,You,Friend,m,1.2,14,24,94,,,,,0,0,0,0,,,,,1,7,19,3,,,,,,,,,,,,,,,,,,,,,1.506,2.381,199.00528399999894,None,,,,,,,,,,,,,,,,,,,,199.54268969999976,200.05014010000014,0.5128888200015354,1.0132117200009816,200.0334718999984,200.1335040999984,200.0334718999984,200.1335040999984,200.1335040999984,None,c,0,0.7982321999988926,200.1335040999984,None,,,,,,,p152,2022_Apr_13_0918,training+cueing,2021.1.4,59.937305578945185,
Self.png,You,Self ,c,1,11,21,91,,,,,0,0,0,0,,,,,1,8,20,0,,,,,,,,,,,,,,,,,,,,,1.6,1.441,201.0564921999976,None,,,,,,,,,,,,,,,,,,,,201.59275759999946,202.101585299999,0.5005098799992993,1.0007187800001702,202.08500099999947,202.18502009999793,202.08500099999947,202.18502009999793,202.18502009999793,None,c,1,0.8107793999988644,202.18502009999793,None,,,,,,,p152,2022_Apr_13_0918,training+cueing,2021.1.4,59.937305578945185,
Friend.png,Friend,Friend,c,2,12,22,92,,,,,0,0,0,0,,,,,1,9,21,10,,,,,,,,,,,,,,,,,,,,,1.532,1.46,203.1245334999985,None,,,,,,,,,,,,,,,,,,,,203.66341999999713,204.16978449999806,0.5125848200004839,1.0128930200007744,204.15308059999734,204.26982750000025,204.15308059999734,204.26982750000025,204.2531240999997,None,c,1,0.7909218999993755,204.2531240999997,None,,,,,,,p152,2022_Apr_13_0918,training+cueing,2021.1.4,59.937305578945185,
Self.png,You,Self ,c,1,11,21,91,,,,,0,0,0,0,,,,,1,10,22,9,,,,,,,,,,,,,,,,,,,,,1.469,1.309,205.18215710000004,None,,,,,,,,,,,,,,,,,,,,205.7140722999975,206.22129569999743,0.5129665200001909,1.013475820000167,206.20458769999823,206.30462739999712,206.20458769999823,206.30462739999712,206.30462739999712,None,c,1,1.0911656999996922,206.30462739999712,None,,,,,,,p152,2022_Apr_13_0918,training+cueing,2021.1.4,59.937305578945185,
Stranger.png,Stranger,Stranger,c,3,13,23,93,,,,,0,0,0,0,,,,,1,11,23,8,,,,,,,,,,,,,,,,,,,,,1.52,1.959,207.52855049999926,None,,,,,,,,,,,,,,,,,,,,208.06687260000035,208.57297449999896,0.5109176199985086,1.011228420000407,208.55628769999748,208.67300869999963,208.55628769999748,208.67300869999963,208.65630659999806,None,m,0,1.3314417000001413,208.65630659999806,None,,,,,,,p152,2022_Apr_13_0918,training+cueing,2021.1.4,59.937305578945185,
Friend.png,You,Friend,m,1.2,14,24,94,,,,,0,0,0,0,,,,,2,0,24,3,,,,,,,,,,,,,,,,,,,,,1.701,1.376,210.11349459999838,None,,,,,,,,,,,,,,,,,,,,210.64991269999882,211.15817400000014,0.5131357200007187,1.0134173200021905,211.14148699999714,211.24153060000026,211.14148699999714,211.24153060000026,211.24153060000026,None,m,1,0.730474799998774,211.24153060000026,None,,,,,,,p152,2022_Apr_13_0918,training+cueing,2021.1.4,59.937305578945185,
Friend.png,Friend,Friend,c,2,12,22,92,,,,,0,0,0,0,,,,,2,1,25,4,,,,,,,,,,,,,,,,,,,,,1.702,2.253,212.0977552000004,None,,,,,,,,,,,,,,,,,,,,212.63891809999768,213.1429212999974,0.5123891199982609,1.0126573199995619,213.12628259999838,213.24300749999747,213.12628259999838,213.24300749999747,213.22628909999912,None,c,1,0.6814274000025762,213.22628909999912,None,,,,,,,p152,2022_Apr_13_0918,training+cueing,2021.1.4,59.937305578945185,
Self.png,You,Self ,c,1,11,21,91,,,,,0,0,0,0,,,,,2,2,26,0,,,,,,,,,,,,,,,,,,,,,1.581,1.389,214.03356749999875,None,,,,,,,,,,,,,,,,,,,,214.58706059999895,215.0943621999977,0.4995154599964735,0.9997062599977653,215.06105289999687,215.16106450000007,215.06105289999687,215.16106450000007,215.16106450000007,None,c,1,0.6027716000025976,215.16106450000007,None,,,,,,,p152,2022_Apr_13_0918,training+cueing,2021.1.4,59.937305578945185,
Self.png,You,Self ,c,1,11,21,91,,,,,0,0,0,0,,,,,2,3,27,9,,,,,,,,,,,,,,,,,,,,,1.621,1.864,215.90146079999977,None,,,,,,,,,,,,,,,,,,,,216.43725959999938,216.94568739999886,0.4991356200007431,0.9992203200017684,216.91252739999982,217.01237989999936,216.91252739999982,217.01237989999936,217.02903119999974,None,m,0,0.7827398999979778,217.02903119999974,None,,,,,,,p152,2022_Apr_13_0918,training+cueing,2021.1.4,59.937305578945185,
Stranger.png,Stranger,Stranger,c,3,13,23,93,,,,,0,0,0,0,,,,,2,4,28,11,,,,,,,,,,,,,,,,,,,,,1.767,1.993,217.93633049999698,None,,,,,,,,,,,,,,,,,,,,218.47464639999816,218.9804656999986,0.5111049199986155,1.0113511199997447,218.96385219999866,219.08053149999978,218.96385219999866,219.08053149999978,219.06384499999695,None,m,0,1.051899099998991,219.06384499999695,None,,,,,,,p152,2022_Apr_13_0918,training+cueing,2021.1.4,59.937305578945185,
Self.png,Stranger,Self ,m,3.1,18,28,98,,,,,0,0,0,0,,,,,2,5,29,2,,,,,,,,,,,,,,,,,,,,,1.446,2.491,220.23765469999853,None,,,,,,,,,,,,,,,,,,,,220.7737735999981,221.2821327999991,0.500574379999307,1.0007977799978107,221.2655236999999,221.3821747999973,221.2655236999999,221.3821747999973,221.3821747999973,None,c,0,0.7815226999991864,221.3821747999973,None,,,,,,,p152,2022_Apr_13_0918,training+cueing,2021.1.4,59.937305578945185,
Self.png,Friend,Self ,m,2.1,16,26,96,,,,,0,0,0,0,,,,,2,6,30,1,,,,,,,,,,,,,,,,,,,,,1.46,1.716,222.28945889999886,None,,,,,,,,,,,,,,,,,,,,222.82690419999926,223.3336543999976,0.5121202200025436,1.012970520001545,223.31699559999834,223.43369080000048,223.31699559999834,223.43369080000048,223.41697019999992,None,m,1,1.098757800002204,223.41697019999992,None,,,,,,,p152,2022_Apr_13_0918,training+cueing,2021.1.4,59.937305578945185,
Friend.png,Friend,Friend,c,2,12,22,92,,,,,0,0,0,0,,,,,2,7,31,10,,,,,,,,,,,,,,,,,,,,,1.498,2.417,224.64225989999977,None,,,,,,,,,,,,,,,,,,,,225.17901669999992,225.68533509999907,0.5132128200020816,1.013485719999153,225.66867060000004,225.78536339999846,225.66867060000004,225.78536339999846,225.76870549999876,None,c,1,0.7309515000015381,225.76870549999876,None,,,,,,,p152,2022_Apr_13_0918,training+cueing,2021.1.4,59.937305578945185,
Friend.png,Stranger,Friend,m,3.2,19,29,99,,,,,0,0,0,0,,,,,2,8,32,5,,,,,,,,,,,,,,,,,,,,,1.763,2.475,226.62571439999738,None,,,,,,,,,,,,,,,,,,,,227.16291160000037,227.67025619999913,0.5112347200010845,1.0113409200021124,227.6535718999985,227.77031519999946,227.6535718999985,227.77031519999946,227.75384750000012,None,m,1,0.6977988999969966,227.75384750000012,None,,,,,,,p152,2022_Apr_13_0918,training+cueing,2021.1.4,59.937305578945185,
Stranger.png,Friend,Stranger,m,2.3,17,27,97,,,,,0,0,0,0,,,,,2,9,33,7,,,,,,,,,,,,,,,,,,,,,1.515,1.703,228.57668179999746,None,,,,,,,,,,,,,,,,,,,,229.1146435999981,229.62164800000028,0.5127877199993236,1.0130623200020636,229.60484799999904,229.72156939999695,229.60484799999904,229.72156939999695,229.70486449999953,None,m,1,0.8588739000006171,229.70486449999953,None,,,,,,,p152,2022_Apr_13_0918,training+cueing,2021.1.4,59.937305578945185,
Stranger.png,Stranger,Stranger,c,3,13,23,93,,,,,0,0,0,0,,,,,2,10,34,8,,,,,,,,,,,,,,,,,,,,,1.601,2.166,230.69460499999695,None,,,,,,,,,,,,,,,,,,,,231.25939319999816,231.77300769999783,0.4996013599957223,0.9995975599958911,231.73992530000032,231.83980410000004,231.73992530000032,231.83980410000004,231.83980410000004,None,m,0,0.8205173999995168,231.83980410000004,None,,,,,,,p152,2022_Apr_13_0918,training+cueing,2021.1.4,59.937305578945185,
Stranger.png,You,Stranger,m,1.3,15,25,95,,,,,0,0,0,0,,,,,2,11,35,6,,,,,,,,,,,,,,,,,,,,,1.677,1.66,232.79974389999916,None,,,,,,,,,,,,,,,,,,,,233.33513929999754,233.84125009999843,0.5090942200040445,1.0094014200039965,233.8245418999977,233.92457399999694,233.8245418999977,233.92457399999694,233.92457399999694,None,m,1,0.8315942999979598,233.92457399999694,None,,,,,,,p152,2022_Apr_13_0918,training+cueing,2021.1.4,59.937305578945185,
Self.png,Stranger,Self ,m,3.1,18,28,98,,,,,0,0,0,0,,,,,3,0,36,2,,,,,,,,,,,,,,,,,,,,,1.629,2.32,234.88557159999982,None,,,,,,,,,,,,,,,,,,,,235.42187189999822,235.92604909999864,0.5081147199998668,1.0083945199985465,235.9094069999992,236.0261079999982,235.9094069999992,236.0261079999982,236.00943449999977,None,m,1,0.970506599998771,236.00943449999977,None,,,,,,,p152,2022_Apr_13_0918,training+cueing,2021.1.4,59.937305578945185,
Stranger.png,Stranger,Stranger,c,3,13,23,93,,,,,0,0,0,0,,,,,3,1,37,11,,,,,,,,,,,,,,,,,,,,,1.747,2.121,237.11691129999963,None,,,,,,,,,,,,,,,,,,,,237.6521049999974,238.1609998999993,0.5004885800008196,1.0007670800005144,238.14433909999934,238.26109089999954,238.14433909999934,238.26109089999954,238.26109089999954,None,m,0,1.0067927000018244,238.26109089999954,None,,,,,,,p152,2022_Apr_13_0918,training+cueing,2021.1.4,59.937305578945185,
Friend.png,You,Friend,m,1.2,14,24,94,,,,,0,0,0,0,,,,,3,2,38,3,,,,,,,,,,,,,,,,,,,,,1.675,1.306,239.40107999999964,None,,,,,,,,,,,,,,,,,,,,239.95178579999993,240.46268729999792,0.5041160199980368,1.004406320000271,240.4459965999995,240.5460342999977,240.4459965999995,240.5460342999977,240.5460342999977,None,m,1,0.9618641999986721,240.5460342999977,None,,,,,,,p152,2022_Apr_13_0918,training+cueing,2021.1.4,59.937305578945185,
Friend.png,Stranger,Friend,m,3.2,19,29,99,,,,,0,0,0,0,,,,,3,3,39,5,,,,,,,,,,,,,,,,,,,,,1.667,1.218,241.6394877999992,None,,,,,,,,,,,,,,,,,,,,242.17683479999687,242.68096669999795,0.5086304200012819,1.0089552200006437,242.66423980000036,242.7810060999982,242.66423980000036,242.7810060999982,242.76430299999993,None,c,0,1.1914794000003894,242.76430299999993,None,,,,,,,p152,2022_Apr_13_0918,training+cueing,2021.1.4,59.937305578945185,
Stranger.png,You,Stranger,m,1.3,15,25,95,,,,,0,0,0,0,,,,,3,4,40,6,,,,,,,,,,,,,,,,,,,,,1.734,1.285,244.087572299999,None,,,,,,,,,,,,,,,,,,,,244.64382489999844,245.14943829999902,0.509143959996436,1.0093876599967189,245.1327672999978,245.2328099999977,245.1327672999978,245.2328099999977,245.2328099999977,None,m,1,1.0432526000004145,245.2328099999977,None,,,,,,,p152,2022_Apr_13_0918,training+cueing,2021.1.4,59.937305578945185,
Friend.png,Friend,Friend,c,2,12,22,92,,,,,0,0,0,0,,,,,3,5,41,4,,,,,,,,,,,,,,,,,,,,,1.551,1.875,246.40634069999942,None,,,,,,,,,,,,,,,,,,,,246.94541179999942,247.45110089999798,0.5100716200031457,1.010353120000218,247.4343979999976,247.55112599999848,247.4343979999976,247.55112599999848,247.53440449999835,None,c,1,0.8053624000021955,247.53440449999835,None,,,,,,,p152,2022_Apr_13_0918,training+cueing,2021.1.4,59.937305578945185,
Self.png,You,Self ,c,1,11,21,91,,,,,0,0,0,0,,,,,3,6,42,9,,,,,,,,,,,,,,,,,,,,,1.627,1.614,248.47597979999773,None,,,,,,,,,,,,,,,,,,,,249.01390139999785,249.51924449999933,0.5103419200022472,1.0106350200003362,249.50254779999887,249.60260539999945,249.50254779999887,249.60260539999945,249.60260539999945,None,c,1,0.7213064999996277,249.60260539999945,None,,,,,,,p152,2022_Apr_13_0918,training+cueing,2021.1.4,59.937305578945185,
Friend.png,Friend,Friend,c,2,12,22,92,,,,,0,0,0,0,,,,,3,7,43,10,,,,,,,,,,,,,,,,,,,,,1.697,1.651,250.4591623999986,None,,,,,,,,,,,,,,,,,,,,250.99705829999948,251.5040040999993,0.5126168199967651,1.0128287199986516,251.48737439999968,251.60408789999929,251.48737439999968,251.60408789999929,251.5873363999999,None,c,1,0.6243245999976352,251.5873363999999,None,,,,,,,p152,2022_Apr_13_0918,training+cueing,2021.1.4,59.937305578945185,
Self.png,Friend,Self ,m,2.1,16,26,96,,,,,0,0,0,0,,,,,3,8,44,1,,,,,,,,,,,,,,,,,,,,,1.543,1.309,252.34437679999974,None,,,,,,,,,,,,,,,,,,,,252.88050049999947,253.38873579999927,0.5003870799955621,1.0006848799966974,253.37199749999854,253.48889629999758,253.37199749999854,253.48889629999758,253.48889629999758,None,m,1,0.6758405000000494,253.48889629999758,None,,,,,,,p152,2022_Apr_13_0918,training+cueing,2021.1.4,59.937305578945185,
Self.png,You,Self ,c,1,11,21,91,,,,,0,0,0,0,,,,,3,9,45,0,,,,,,,,,,,,,,,,,,,,,1.712,1.808,254.2992180000001,None,,,,,,,,,,,,,,,,,,,,254.83466439999756,255.3401015999989,0.5110837200008973,1.0113669200000004,255.32340850000037,255.42346239999824,255.32340850000037,255.42346239999824,255.42346239999824,None,c,1,0.7721854999981588,255.42346239999824,None,,,,,,,p152,2022_Apr_13_0918,training+cueing,2021.1.4,59.937305578945185,
Stranger.png,Stranger,Stranger,c,3,13,23,93,,,,,0,0,0,0,,,,,3,10,46,8,,,,,,,,,,,,,,,,,,,,,1.697,1.285,256.33096509999814,None,,,,,,,,,,,,,,,,,,,,256.8849521999982,257.3915660999992,0.5114691599992511,1.0117855600001349,257.37491109999974,257.4916439999979,257.37491109999974,257.4916439999979,257.47505660000024,None,c,1,0.8486202999993111,257.47505660000024,None,,,,,,,p152,2022_Apr_13_0918,training+cueing,2021.1.4,59.937305578945185,
Stranger.png,Friend,Stranger,m,2.3,17,27,97,,,,,0,0,0,0,,,,,3,11,47,7,,,,,,,,,,,,,,,,,,,,,1.635,1.46,258.44776009999987,None,,,,,,,,,,,,,,,,,,,,259.00253529999827,259.5100255999969,0.5134934599991539,1.0135055600003398,259.49333059999844,259.6100349999979,259.49333059999844,259.6100349999979,259.59336110000004,None,m,1,0.9705468000029214,259.59336110000004,None,,,,,,,p152,2022_Apr_13_0918,training+cueing,2021.1.4,59.937305578945185,
Friend.png,Stranger,Friend,m,3.2,19,29,99,,,,,0,0,0,0,,,,,4,0,48,5,,,,,,,,,,,,,,,,,,,,,1.684,1.608,260.70336139999927,None,,,,,,,,,,,,,,,,,,,,261.23899919999894,261.7447608000002,0.5084536200010916,1.0085012200033816,261.7282387999985,261.8447969999979,261.7282387999985,261.8447969999979,261.8281066999989,None,m,1,0.9437981999981275,261.8281066999989,None,,,,,,,p152,2022_Apr_13_0918,training+cueing,2021.1.4,59.937305578945185,
Stranger.png,Friend,Stranger,m,2.3,17,27,97,,,,,0,0,0,0,,,,,4,1,49,7,,,,,,,,,,,,,,,,,,,,,1.609,2.446,262.9016847999992,None,,,,,,,,,,,,,,,,,,,,263.4399193999998,263.9463336999979,0.5122112200006086,1.0124893200008955,263.92964909999864,264.0463684999995,263.92964909999864,264.0463684999995,264.0296758000004,None,m,1,0.7420567000008305,264.0296758000004,None,,,,,,,p152,2022_Apr_13_0918,training+cueing,2021.1.4,59.937305578945185,
Friend.png,Friend,Friend,c,2,12,22,92,,,,,0,0,0,0,,,,,4,2,50,10,,,,,,,,,,,,,,,,,,,,,1.473,1.335,264.90312189999895,None,,,,,,,,,,,,,,,,,,,,265.43884909999906,265.947742999997,0.5003509199996188,1.0006341199987219,265.91437569999835,266.01443540000037,265.91437569999835,266.01443540000037,266.01443540000037,None,c,1,1.1736897000009776,266.01443540000037,None,,,,,,,p152,2022_Apr_13_0918,training+cueing,2021.1.4,59.937305578945185,
Friend.png,You,Friend,m,1.2,14,24,94,,,,,0,0,0,0,,,,,4,3,51,3,,,,,,,,,,,,,,,,,,,,,1.769,2.323,267.32157279999956,None,,,,,,,,,,,,,,,,,,,,267.8581377999981,268.36619529999734,0.5135504200006835,1.0138433200008876,268.3495038999972,268.449526299999,268.3495038999972,268.449526299999,268.449526299999,None,m,1,1.0264074000006076,268.449526299999,None,,,,,,,p152,2022_Apr_13_0918,training+cueing,2021.1.4,59.937305578945185,
Self.png,You,Self ,c,1,11,21,91,,,,,0,0,0,0,,,,,4,4,52,0,,,,,,,,,,,,,,,,,,,,,1.699,2.22,269.60659569999916,None,,,,,,,,,,,,,,,,,,,,270.1430478999973,270.651168999997,0.4996276200035936,0.9998957200041332,270.61779059999753,270.7178399999975,270.61779059999753,270.7178399999975,270.7178399999975,None,c,1,0.7259279999998398,270.7178399999975,None,,,,,,,p152,2022_Apr_13_0918,training+cueing,2021.1.4,59.937305578945185,
Stranger.png,Stranger,Stranger,c,3,13,23,93,,,,,0,0,0,0,,,,,4,5,53,11,,,,,,,,,,,,,,,,,,,,,1.736,1.664,271.57467619999807,None,,,,,,,,,,,,,,,,,,,,272.12815059999775,272.63590979999935,0.49997892000101274,1.0002481200026523,272.6192869999977,272.73596989999714,272.6192869999977,272.73596989999714,272.73596989999714,None,c,1,0.9477795000020706,272.73596989999714,None,,,,,,,p152,2022_Apr_13_0918,training+cueing,2021.1.4,59.937305578945185,
Stranger.png,You,Stranger,m,1.3,15,25,95,,,,,0,0,0,0,,,,,4,6,54,6,,,,,,,,,,,,,,,,,,,,,1.749,1.261,273.80963679999695,None,,,,,,,,,,,,,,,,,,,,274.3468326999973,274.85419399999955,0.5126579200004926,1.0129548199984129,274.83751199999824,274.9377091999995,274.83751199999824,274.9377091999995,274.9377091999995,None,m,1,0.7623128000013821,274.9377091999995,None,,,,,,,p152,2022_Apr_13_0918,training+cueing,2021.1.4,59.937305578945185,
Self.png,You,Self ,c,1,11,21,91,,,,,0,0,0,0,,,,,4,7,55,9,,,,,,,,,,,,,,,,,,,,,1.577,2.12,275.82761089999985,None,,,,,,,,,,,,,,,,,,,,276.36325020000004,276.87232589999985,0.5009998799978348,1.0011980799972662,276.85574859999906,276.9556914999994,276.85574859999906,276.9556914999994,276.9556914999994,None,c,1,0.632030400000076,276.9556914999994,None,,,,,,,p152,2022_Apr_13_0918,training+cueing,2021.1.4,59.937305578945185,
Friend.png,Friend,Friend,c,2,12,22,92,,,,,0,0,0,0,,,,,4,8,56,4,,,,,,,,,,,,,,,,,,,,,1.5,1.898,277.71264299999893,None,,,,,,,,,,,,,,,,,,,,278.249860099997,278.7570704999998,0.5121007199995802,1.0124895199987805,278.74039419999826,278.8570843999987,278.74039419999826,278.8570843999987,278.8403591999995,None,c,1,0.7312827999994624,278.8403591999995,None,,,,,,,p152,2022_Apr_13_0918,training+cueing,2021.1.4,59.937305578945185,
Stranger.png,Stranger,Stranger,c,3,13,23,93,,,,,0,0,0,0,,,,,4,9,57,8,,,,,,,,,,,,,,,,,,,,,1.532,2.225,279.6967396999971,None,,,,,,,,,,,,,,,,,,,,280.235580499997,280.7417932999997,0.5111725200004003,1.0114447200030554,280.7251440999971,280.8418227000002,280.7251440999971,280.8418227000002,280.82516679999753,None,m,0,0.76282689999789,280.82516679999753,None,,,,,,,p152,2022_Apr_13_0918,training+cueing,2021.1.4,59.937305578945185,
Self.png,Stranger,Self ,m,3.1,18,28,98,,,,,0,0,0,0,,,,,4,10,58,2,,,,,,,,,,,,,,,,,,,,,1.785,2.483,281.7156123999994,None,,,,,,,,,,,,,,,,,,,,282.25081409999984,282.75994100000025,0.5008017799991649,1.0011337799987814,282.74319059999834,282.8604979999982,282.74319059999834,282.8604979999982,282.8604979999982,None,c,0,0.7274379999980738,282.8604979999982,None,,,,,,,p152,2022_Apr_13_0918,training+cueing,2021.1.4,59.937305578945185,
Self.png,Friend,Self ,m,2.1,16,26,96,,,,,0,0,0,0,,,,,4,11,59,1,,,,,,,,,,,,,,,,,,,,,1.726,2.265,283.71677329999875,None,,,,,,,,,,,,,,,,,,,,284.25431129999924,284.76136620000034,0.5108248200012895,1.0111082199982775,284.7446936999986,284.8614080999978,284.7446936999986,284.8614080999978,284.84472169999935,None,m,1,0.9829644999990705,284.84472169999935,None,,,,,,,p152,2022_Apr_13_0918,training+cueing,2021.1.4,59.937305578945185,
Friend.png,Friend,Friend,c,2,12,22,92,,,,,0,0,0,0,,,,,5,0,60,10,,,,,,,,,,,,,,,,,,,,,1.466,1.59,285.95139859999836,None,,,,,,,,,,,,,,,,,,,,286.4875389999979,286.99626569999964,0.5001726200061967,1.0004839200046263,286.9629556999971,287.0630154999999,286.9629556999971,287.0630154999999,287.0630154999999,None,c,1,0.684943000000203,287.0630154999999,None,,,,,,,p152,2022_Apr_13_0918,training+cueing,2021.1.4,59.937305578945185,
Self.png,You,Self ,c,1,11,21,91,,,,,0,0,0,0,,,,,5,1,61,9,,,,,,,,,,,,,,,,,,,,,1.768,1.686,287.8698392999977,None,,,,,,,,,,,,,,,,,,,,288.40843809999933,288.9143740999971,0.5120203200021933,1.0123154200009594,288.8976808999978,288.99773920000007,288.8976808999978,288.99773920000007,288.99773920000007,None,c,1,0.8619097000009788,288.99773920000007,None,,,,,,,p152,2022_Apr_13_0918,training+cueing,2021.1.4,59.937305578945185,
Friend.png,Friend,Friend,c,2,12,22,92,,,,,0,0,0,0,,,,,5,2,62,4,,,,,,,,,,,,,,,,,,,,,1.457,1.954,289.98849749999863,None,,,,,,,,,,,,,,,,,,,,290.5369776999978,291.04921599999943,0.5060077200032538,1.0062968200036266,291.0325754999976,291.1492866999979,291.0325754999976,291.1492866999979,291.1326470999993,None,c,1,0.839022300002398,291.1326470999993,None,,,,,,,p152,2022_Apr_13_0918,training+cueing,2021.1.4,59.937305578945185,
Stranger.png,Friend,Stranger,m,2.3,17,27,97,,,,,0,0,0,0,,,,,5,3,63,7,,,,,,,,,,,,,,,,,,,,,1.443,1.409,292.1072959999983,None,,,,,,,,,,,,,,,,,,,,292.64727180000045,293.15076709999994,0.5068503199981933,1.007150619996537,293.1340612999993,293.25081209999917,293.1340612999993,293.25081209999917,293.23412819999794,None,c,0,0.8177665000002889,293.23412819999794,None,,,,,,,p152,2022_Apr_13_0918,training+cueing,2021.1.4,59.937305578945185,
Stranger.png,Stranger,Stranger,c,3,13,23,93,,,,,0,0,0,0,,,,,5,4,64,8,,,,,,,,,,,,,,,,,,,,,1.594,1.246,294.17493869999817,None,,,,,,,,,,,,,,,,,,,,294.71186379999926,295.21893739999723,0.5109896200010553,1.0115767200004484,295.2022889,295.3190966999973,295.2022889,295.3190966999973,295.30244839999796,None,m,0,0.7176936000032583,295.30244839999796,None,,,,,,,p152,2022_Apr_13_0918,training+cueing,2021.1.4,59.937305578945185,
Friend.png,Stranger,Friend,m,3.2,19,29,99,,,,,0,0,0,0,,,,,5,5,65,5,,,,,,,,,,,,,,,,,,,,,1.643,1.593,296.14403369999854,None,,,,,,,,,,,,,,,,,,,,296.67959770000016,297.1850085999977,0.5151320200020564,1.0154119200014975,297.1703162999984,297.28706229999807,297.1703162999984,297.28706229999807,297.2703846000004,None,c,0,0.7492720000009285,297.2703846000004,None,,,,,,,p152,2022_Apr_13_0918,training+cueing,2021.1.4,59.937305578945185,
Self.png,Friend,Self ,m,2.1,16,26,96,,,,,0,0,0,0,,,,,5,6,66,1,,,,,,,,,,,,,,,,,,,,,1.505,2.021,298.14350170000034,None,,,,,,,,,,,,,,,,,,,,298.68217469999945,299.18846289999783,0.5124725200003013,1.0127599199986435,299.1718026999988,299.2885045999974,299.1718026999988,299.2885045999974,299.2718146999978,None,m,1,0.8600262999971164,299.2718146999978,None,,,,,,,p152,2022_Apr_13_0918,training+cueing,2021.1.4,59.937305578945185,
Friend.png,You,Friend,m,1.2,14,24,94,,,,,0,0,0,0,,,,,5,7,67,3,,,,,,,,,,,,,,,,,,,,,1.657,1.87,300.26174609999725,None,,,,,,,,,,,,,,,,,,,,300.7987039999971,301.3066734999993,0.5129750200030685,1.0134331200024462,301.2899671999985,301.39010749999943,301.2899671999985,301.39010749999943,301.39010749999943,None,c,0,0.8057677999968291,301.39010749999943,None,,,,,,,p152,2022_Apr_13_0918,training+cueing,2021.1.4,59.937305578945185,
Stranger.png,Stranger,Stranger,c,3,13,23,93,,,,,0,0,0,0,,,,,5,8,68,11,,,,,,,,,,,,,,,,,,,,,1.423,1.325,302.3335675999988,None,,,,,,,,,,,,,,,,,,,,302.8709936999985,303.3748670999994,0.5075743200031866,1.007841720002034,303.3581606999978,303.4748768999998,303.3581606999978,303.4748768999998,303.4581772999991,None,m,0,0.849524700002803,303.4581772999991,None,,,,,,,p152,2022_Apr_13_0918,training+cueing,2021.1.4,59.937305578945185,
Self.png,Stranger,Self ,m,3.1,18,28,98,,,,,0,0,0,0,,,,,5,9,69,2,,,,,,,,,,,,,,,,,,,,,1.569,1.237,304.43157040000006,None,,,,,,,,,,,,,,,,,,,,304.96727329999703,305.4763255999969,0.5011383799974283,1.0014240799973777,305.4596547999972,305.57653310000023,305.4596547999972,305.57653310000023,305.57653310000023,None,m,1,0.8591161000003922,305.57653310000023,None,,,,,,,p152,2022_Apr_13_0918,training+cueing,2021.1.4,59.937305578945185,
Stranger.png,You,Stranger,m,1.3,15,25,95,,,,,0,0,0,0,,,,,5,10,70,6,,,,,,,,,,,,,,,,,,,,,1.55,2.087,306.566105599999,None,,,,,,,,,,,,,,,,,,,,307.11204240000006,307.611191699998,0.5050257200018677,1.0053066200016474,307.5945716999995,307.69455209999796,307.5945716999995,307.69455209999796,307.69455209999796,None,m,1,0.8210092999979679,307.69455209999796,None,,,,,,,p152,2022_Apr_13_0918,training+cueing,2021.1.4,59.937305578945185,
Self.png,You,Self ,c,1,11,21,91,,,,,0,0,0,0,,,,,5,11,71,0,,,,,,,,,,,,,,,,,,,,,1.517,2.499,308.65126659999805,None,,,,,,,,,,,,,,,,,,,,309.191813999998,309.6960461999988,0.500178420003067,1.0004712200025097,309.6626777999991,309.7627494999979,309.6626777999991,309.7627494999979,309.7627494999979,None,c,1,0.6251908999984153,309.7627494999979,None,,,,,,,p152,2022_Apr_13_0918,training+cueing,2021.1.4,59.937305578945185,
Self.png,Stranger,Self ,m,3.1,18,28,98,,,,,0,0,0,0,,,,,6,0,72,2,,,,,,,,,,,,,,,,,,,,,1.521,2.367,310.51958379999996,None,,,,,,,,,,,,,,,,,,,,311.0575205999994,311.56405249999807,0.5100286200031405,1.0102959200012265,311.5474213999987,311.6641290999978,311.5474213999987,311.6641290999978,311.6474240999996,None,m,1,0.7882185999987996,311.6474240999996,None,,,,,,,p152,2022_Apr_13_0918,training+cueing,2021.1.4,59.937305578945185,
Stranger.png,Stranger,Stranger,c,3,13,23,93,,,,,0,0,0,0,,,,,6,1,73,8,,,,,,,,,,,,,,,,,,,,,1.669,2.266,312.57129729999724,None,,,,,,,,,,,,,,,,,,,,313.10637549999956,313.6155078999982,0.5004297199993744,1.0007374199994956,313.58221109999795,313.6822080999991,313.58221109999795,313.6822080999991,313.6822080999991,None,m,0,0.8813223000033759,313.6822080999991,None,,,,,,,p152,2022_Apr_13_0918,training+cueing,2021.1.4,59.937305578945185,
Self.png,You,Self ,c,1,11,21,91,,,,,0,0,0,0,,,,,6,2,74,9,,,,,,,,,,,,,,,,,,,,,1.565,2.239,314.6898207999984,None,,,,,,,,,,,,,,,,,,,,315.22772780000014,315.7339003999987,0.5120107200054917,1.0121784200055117,315.7171524000005,315.8171005999975,315.7171524000005,315.8171005999975,315.8171005999975,None,c,1,0.5068778000022576,315.8171005999975,None,,,,,,,p152,2022_Apr_13_0918,training+cueing,2021.1.4,59.937305578945185,
Stranger.png,You,Stranger,m,1.3,15,25,95,,,,,0,0,0,0,,,,,6,3,75,6,,,,,,,,,,,,,,,,,,,,,1.749,1.841,316.4566976999995,None,,,,,,,,,,,,,,,,,,,,317.0049319999998,317.51840489999813,0.5081436199980089,1.0084641199973703,317.5017769999977,317.601764199997,317.5017769999977,317.601764199997,317.601764199997,None,m,1,0.7701258999986749,317.601764199997,None,,,,,,,p152,2022_Apr_13_0918,training+cueing,2021.1.4,59.937305578945185,
Friend.png,Friend,Friend,c,2,12,22,92,,,,,0,0,0,0,,,,,6,4,76,10,,,,,,,,,,,,,,,,,,,,,1.611,1.504,318.5087108999978,None,,,,,,,,,,,,,,,,,,,,319.04700559999765,319.55320559999745,0.5121447200035618,1.0124692200042773,319.5364652999997,319.65321810000023,319.5364652999997,319.65321810000023,319.63651799999934,None,c,1,0.6550214999988384,319.63651799999934,None,,,,,,,p152,2022_Apr_13_0918,training+cueing,2021.1.4,59.937305578945185,
Stranger.png,Friend,Stranger,m,2.3,17,27,97,,,,,0,0,0,0,,,,,6,5,77,7,,,,,,,,,,,,,,,,,,,,,1.555,1.681,320.4268032999971,None,,,,,,,,,,,,,,,,,,,,320.97504219999973,321.4880379999995,0.5086376199978986,1.0089406199986115,321.47134129999904,321.58807549999983,321.47134129999904,321.58807549999983,321.5713689000004,None,m,1,0.6243322000009357,321.5713689000004,None,,,,,,,p152,2022_Apr_13_0918,training+cueing,2021.1.4,59.937305578945185,
Self.png,You,Self ,c,1,11,21,91,,,,,0,0,0,0,,,,,6,6,78,0,,,,,,,,,,,,,,,,,,,,,1.401,2.04,322.3276939999996,None,,,,,,,,,,,,,,,,,,,,322.8650121999999,323.3726069999975,0.5127442199991492,1.0130583200007095,323.3558994999985,323.45594549999805,323.3558994999985,323.45594549999805,323.45594549999805,None,c,1,0.7078059000014036,323.45594549999805,None,,,,,,,p152,2022_Apr_13_0918,training+cueing,2021.1.4,59.937305578945185,
Stranger.png,Stranger,Stranger,c,3,13,23,93,,,,,0,0,0,0,,,,,6,7,79,11,,,,,,,,,,,,,,,,,,,,,1.649,2.116,324.2974321999973,None,,,,,,,,,,,,,,,,,,,,324.85018059999857,325.3573985000003,0.5155708599959326,1.0158526599952893,325.3407092999987,325.45744790000026,325.3407092999987,325.45744790000026,325.4407465999975,None,m,0,0.7868304000003263,325.4407465999975,None,,,,,,,p152,2022_Apr_13_0918,training+cueing,2021.1.4,59.937305578945185,
Friend.png,You,Friend,m,1.2,14,24,94,,,,,0,0,0,0,,,,,6,8,80,3,,,,,,,,,,,,,,,,,,,,,1.78,1.489,326.36417169999913,None,,,,,,,,,,,,,,,,,,,,326.90072999999757,327.40901179999855,0.5130658199959726,1.0132364199962467,327.3923071999998,327.4922289999995,327.3923071999998,327.4922289999995,327.4922289999995,None,m,1,1.1515704999983427,327.4922289999995,None,,,,,,,p152,2022_Apr_13_0918,training+cueing,2021.1.4,59.937305578945185,
Friend.png,Stranger,Friend,m,3.2,19,29,99,,,,,0,0,0,0,,,,,6,9,81,5,,,,,,,,,,,,,,,,,,,,,1.447,1.781,328.7659141000004,None,,,,,,,,,,,,,,,,,,,,329.3194192999981,329.82729219999965,0.5148113599934732,1.0150879599932523,329.8106071000002,329.9273355000005,329.8106071000002,329.9273355000005,329.910637099998,None,m,1,0.5890433999993547,329.910637099998,None,,,,,,,p152,2022_Apr_13_0918,training+cueing,2021.1.4,59.937305578945185,
Friend.png,Friend,Friend,c,2,12,22,92,,,,,0,0,0,0,,,,,6,10,82,4,,,,,,,,,,,,,,,,,,,,,1.464,2.36,330.63357410000026,None,,,,,,,,,,,,,,,,,,,,331.1716729,331.6786562999987,0.5129080199985765,1.0131685199994536,331.6619673999994,331.7786629999973,331.6619673999994,331.7786629999973,331.7619808999989,None,c,1,0.6095927999995183,331.7619808999989,None,,,,,,,p152,2022_Apr_13_0918,training+cueing,2021.1.4,59.937305578945185,
Self.png,Friend,Self ,m,2.1,16,26,96,,,,,0,0,0,0,,,,,6,11,83,1,,,,,,,,,,,,,,,,,,,,,1.522,1.847,332.50235109999994,None,,,,,,,,,,,,,,,,,,,,333.0476022999974,333.5468712999973,0.5122952199999418,1.0123057199998584,333.5468712999973,333.64669039999717,333.5468712999973,333.64669039999717,333.64669039999717,None,m,1,0.8528943000019353,333.64669039999717,None,,,,,,,p152,2022_Apr_13_0918,training+cueing,2021.1.4,59.937305578945185,
Friend.png,Friend,Friend,c,2,12,22,92,,,,,0,0,0,0,,,,,7,0,84,4,,,,,,,,,,,,,,,,,,,,,1.546,2.344,334.636902299997,None,,,,,,,,,,,,,,,,,,,,335.1723921999983,335.68150930000047,0.5004183800010651,1.0010498800002097,335.6647927999984,335.78160809999827,335.6647927999984,335.78160809999827,335.78160809999827,None,c,1,0.765941900001053,335.78160809999827,None,,,,,,,p152,2022_Apr_13_0918,training+cueing,2021.1.4,59.937305578945185,
Self.png,Stranger,Self ,m,3.1,18,28,98,,,,,0,0,0,0,,,,,7,1,85,2,,,,,,,,,,,,,,,,,,,,,1.681,1.247,336.67174089999753,None,,,,,,,,,,,,,,,,,,,,337.2102049999994,337.7163123999999,0.5114348200004315,1.0123015200006193,337.69964640000035,337.8168931,337.69964640000035,337.8168931,337.80017640000005,None,m,1,0.811741699999402,337.80017640000005,None,,,,,,,p152,2022_Apr_13_0918,training+cueing,2021.1.4,59.937305578945185,
Stranger.png,You,Stranger,m,1.3,15,25,95,,,,,0,0,0,0,,,,,7,2,86,6,,,,,,,,,,,,,,,,,,,,,1.517,1.989,338.74125959999947,None,,,,,,,,,,,,,,,,,,,,339.2785466999994,339.78445689999717,0.5094631200008735,1.0097709199981182,339.76777129999755,339.86777599999914,339.76777129999755,339.86777599999914,339.86777599999914,None,m,1,0.6639248999999836,339.86777599999914,None,,,,,,,p152,2022_Apr_13_0918,training+cueing,2021.1.4,59.937305578945185,
Stranger.png,Friend,Stranger,m,2.3,17,27,97,,,,,0,0,0,0,,,,,7,3,87,7,,,,,,,,,,,,,,,,,,,,,1.609,1.525,340.6578961999985,None,,,,,,,,,,,,,,,,,,,,341.2054513999974,341.71920279999904,0.5099975200027984,1.0102628200038453,341.7025455999974,341.8192629999976,341.7025455999974,341.8192629999976,341.80255939999915,None,c,0,0.7449522000024444,341.80255939999915,None,,,,,,,p152,2022_Apr_13_0918,training+cueing,2021.1.4,59.937305578945185,
Friend.png,Stranger,Friend,m,3.2,19,29,99,,,,,0,0,0,0,,,,,7,4,88,5,,,,,,,,,,,,,,,,,,,,,1.44,1.696,342.67573059999995,None,,,,,,,,,,,,,,,,,,,,343.21359519999896,343.7206778999971,0.5111434199970972,1.0114622199980658,343.70395169999756,343.8207031999991,343.70395169999756,343.8207031999991,343.80401359999814,None,m,1,1.1758178999989468,343.80401359999814,None,,,,,,,p152,2022_Apr_13_0918,training+cueing,2021.1.4,59.937305578945185,
Friend.png,You,Friend,m,1.2,14,24,94,,,,,0,0,0,0,,,,,7,5,89,3,,,,,,,,,,,,,,,,,,,,,1.59,1.304,345.1114200999982,None,,,,,,,,,,,,,,,,,,,,345.6486546999986,346.155772099999,0.5127450199979648,1.013606919997983,346.1390543999987,346.23910819999946,346.1390543999987,346.23910819999946,346.23910819999946,None,m,1,0.5484257999996771,346.23910819999946,None,,,,,,,p152,2022_Apr_13_0918,training+cueing,2021.1.4,59.937305578945185,
Self.png,Friend,Self ,m,2.1,16,26,96,,,,,0,0,0,0,,,,,7,6,90,1,,,,,,,,,,,,,,,,,,,,,1.732,1.733,346.9124808999986,None,,,,,,,,,,,,,,,,,,,,347.45072419999997,347.9570232999977,0.5118776200033608,1.0121367200008535,347.94040049999967,348.05710759999783,347.94040049999967,348.05710759999783,348.04042859999754,None,m,1,0.7471048000006704,348.04042859999754,None,,,,,,,p152,2022_Apr_13_0918,training+cueing,2021.1.4,59.937305578945185,
Stranger.png,Stranger,Stranger,c,3,13,23,93,,,,,0,0,0,0,,,,,7,7,91,8,,,,,,,,,,,,,,,,,,,,,1.447,2.132,348.91335809999873,None,,,,,,,,,,,,,,,,,,,,349.4517022,349.95848009999827,0.5113532200011832,1.0117744199997105,349.94183580000026,350.0585422000004,349.94183580000026,350.0585422000004,350.0418634999987,None,m,0,0.6816107999984524,350.0418634999987,None,,,,,,,p152,2022_Apr_13_0918,training+cueing,2021.1.4,59.937305578945185,
Self.png,You,Self ,c,1,11,21,91,,,,,0,0,0,0,,,,,7,8,92,0,,,,,,,,,,,,,,,,,,,,,1.416,1.781,350.8482148000003,None,,,,,,,,,,,,,,,,,,,,351.4012616999971,351.90996189999714,0.5005999200002407,1.000923520001379,351.8932513,351.99333169999954,351.8932513,351.99333169999954,351.99333169999954,None,c,1,0.8265717000031145,351.99333169999954,None,,,,,,,p152,2022_Apr_13_0918,training+cueing,2021.1.4,59.937305578945185,
Friend.png,Friend,Friend,c,2,12,22,92,,,,,0,0,0,0,,,,,7,9,93,10,,,,,,,,,,,,,,,,,,,,,1.526,1.501,352.9496705999991,None,,,,,,,,,,,,,,,,,,,,353.4889329999969,353.99477079999997,0.5126107200012484,1.0127734199995757,353.9781368999975,354.09480279999843,353.9781368999975,354.09480279999843,354.0780952999994,None,c,1,0.6777928999981668,354.0780952999994,None,,,,,,,p152,2022_Apr_13_0918,training+cueing,2021.1.4,59.937305578945185,
Self.png,You,Self ,c,1,11,21,91,,,,,0,0,0,0,,,,,7,10,94,9,,,,,,,,,,,,,,,,,,,,,1.509,2.13,354.8848775999977,None,,,,,,,,,,,,,,,,,,,,355.4215922999974,355.9294852999992,0.5130774200006272,1.0132327200008149,355.9129398999976,356.01286919999984,355.9129398999976,356.01286919999984,356.01286919999984,None,m,0,0.8547551000010571,356.01286919999984,None,,,,,,,p152,2022_Apr_13_0918,training+cueing,2021.1.4,59.937305578945185,
Stranger.png,Stranger,Stranger,c,3,13,23,93,,,,,0,0,0,0,,,,,7,11,95,11,,,,,,,,,,,,,,,,,,,,,1.654,2.08,357.0042321000001,None,,,,,,,,,,,,,,,,,,,,357.5444559999996,358.0476842999997,0.5074256200023228,1.0077797200028726,358.03106099999786,358.1477258999985,358.03106099999786,358.1477258999985,358.13103599999886,None,c,1,0.9448035000023083,358.13103599999886,None,,,,,,,p152,2022_Apr_13_0918,training+cueing,2021.1.4,59.937305578945185,
Friend.png,You,Friend,m,1.2,14,24,94,,,,,0,0,0,0,,,,,8,0,96,3,,,,,,,,,,,,,,,,,,,,,1.424,1.973,359.20461459999933,None,,,,,,,,,,,,,,,,,,,,359.7416674999986,360.2492507999996,0.5124344200012274,1.0127094199997373,360.23261889999776,360.33263729999817,360.23261889999776,360.33263729999817,360.33263729999817,None,m,1,0.8869868000001588,360.33263729999817,None,,,,,,,p152,2022_Apr_13_0918,training+cueing,2021.1.4,59.937305578945185,
Self.png,You,Self ,c,1,11,21,91,,,,,0,0,0,0,,,,,8,1,97,9,,,,,,,,,,,,,,,,,,,,,1.777,1.68,361.3562344999991,None,,,,,,,,,,,,,,,,,,,,361.90133609999975,362.4008324999995,0.4991014199986239,0.9993825199999264,362.38416629999847,362.48422500000015,362.38416629999847,362.48422500000015,362.48422500000015,None,c,1,0.6398009000004095,362.48422500000015,None,,,,,,,p152,2022_Apr_13_0918,training+cueing,2021.1.4,59.937305578945185,
Friend.png,Stranger,Friend,m,3.2,19,29,99,,,,,0,0,0,0,,,,,8,2,98,5,,,,,,,,,,,,,,,,,,,,,1.517,1.98,363.257896799998,None,,,,,,,,,,,,,,,,,,,,363.7972723999992,364.3022060000003,0.5101041199995962,1.0104081200006476,364.28553049999755,364.40226619999885,364.28553049999755,364.40226619999885,364.38555449999694,None,c,0,0.914104600000428,364.38555449999694,None,,,,,,,p152,2022_Apr_13_0918,training+cueing,2021.1.4,59.937305578945185,
Self.png,Friend,Self ,m,2.1,16,26,96,,,,,0,0,0,0,,,,,8,3,99,1,,,,,,,,,,,,,,,,,,,,,1.512,1.986,365.42574749999767,None,,,,,,,,,,,,,,,,,,,,365.963404099999,366.47042409999995,0.5117558200036001,1.0120433200027037,366.4537715999977,366.57047149999926,366.4537715999977,366.57047149999926,366.5538271000005,None,m,1,0.8417937000012898,366.5538271000005,None,,,,,,,p152,2022_Apr_13_0918,training+cueing,2021.1.4,59.937305578945185,
Friend.png,Friend,Friend,c,2,12,22,92,,,,,0,0,0,0,,,,,8,4,100,4,,,,,,,,,,,,,,,,,,,,,1.606,1.336,367.5275656999984,None,,,,,,,,,,,,,,,,,,,,368.06354629999987,368.57186029999866,0.4996513199985202,0.9998773199986317,368.5386307999979,368.6386492999991,368.5386307999979,368.6386492999991,368.6386492999991,None,c,1,0.4848392000021704,368.6386492999991,None,,,,,,,p152,2022_Apr_13_0918,training+cueing,2021.1.4,59.937305578945185,
Self.png,You,Self ,c,1,11,21,91,,,,,0,0,0,0,,,,,8,5,101,0,,,,,,,,,,,,,,,,,,,,,1.421,2.233,369.2453612999998,None,,,,,,,,,,,,,,,,,,,,369.78315909999947,370.289875399998,0.5128649200014479,1.013135119999788,370.2731830999983,370.3732364999996,370.2731830999983,370.3732364999996,370.3732364999996,None,c,1,0.5581836000019393,370.3732364999996,None,,,,,,,p152,2022_Apr_13_0918,training+cueing,2021.1.4,59.937305578945185,
Stranger.png,Stranger,Stranger,c,3,13,23,93,,,,,0,0,0,0,,,,,8,6,102,8,,,,,,,,,,,,,,,,,,,,,1.736,2.236,371.0640308999973,None,,,,,,,,,,,,,,,,,,,,371.6144280999979,372.124526399999,0.5018518200013204,1.0021140200005902,372.107863199999,372.2251314999994,372.107863199999,372.2251314999994,372.20842619999894,None,m,0,0.8350963000011689,372.20842619999894,None,,,,,,,p152,2022_Apr_13_0918,training+cueing,2021.1.4,59.937305578945185,
Stranger.png,Friend,Stranger,m,2.3,17,27,97,,,,,0,0,0,0,,,,,8,7,103,7,,,,,,,,,,,,,,,,,,,,,1.612,2.161,373.1651853999974,None,,,,,,,,,,,,,,,,,,,,373.70542879999994,374.2093948999973,0.507680620001338,1.0081398199981777,374.19266659999994,374.30993979999766,374.19266659999994,374.30993979999766,374.29269099999874,None,c,0,1.24685369999861,374.29269099999874,None,,,,,,,p152,2022_Apr_13_0918,training+cueing,2021.1.4,59.937305578945185,
Self.png,Stranger,Self ,m,3.1,18,28,98,,,,,0,0,0,0,,,,,8,8,104,2,,,,,,,,,,,,,,,,,,,,,1.456,1.303,375.66687699999966,None,,,,,,,,,,,,,,,,,,,,376.20535929999824,376.7111789999981,0.5089098199969158,1.0092220199949224,376.6944533999995,376.81121319999875,376.6944533999995,376.81121319999875,376.7945054999982,None,c,0,0.47355610000158777,376.7945054999982,None,,,,,,,p152,2022_Apr_13_0918,training+cueing,2021.1.4,59.937305578945185,
Friend.png,Friend,Friend,c,2,12,22,92,,,,,0,0,0,0,,,,,8,9,105,10,,,,,,,,,,,,,,,,,,,,,1.691,1.912,377.4017535999992,None,,,,,,,,,,,,,,,,,,,,377.95266609999817,378.4624245999985,0.5034986200007552,1.0037803200029884,378.44577749999735,378.56247099999746,378.44577749999735,378.56247099999746,378.54583739999725,None,c,1,0.8338234000002558,378.54583739999725,None,,,,,,,p152,2022_Apr_13_0918,training+cueing,2021.1.4,59.937305578945185,
Stranger.png,Stranger,Stranger,c,3,13,23,93,,,,,0,0,0,0,,,,,8,10,106,11,,,,,,,,,,,,,,,,,,,,,1.676,2.373,379.5029194999988,None,,,,,,,,,,,,,,,,,,,,380.042053899997,380.54731489999904,0.509106219997193,1.009524919998512,380.53062370000043,380.64786099999765,380.53062370000043,380.64786099999765,380.630649499999,None,m,0,0.9567902000017057,380.630649499999,None,,,,,,,p152,2022_Apr_13_0918,training+cueing,2021.1.4,59.937305578945185,
Stranger.png,You,Stranger,m,1.3,15,25,95,,,,,0,0,0,0,,,,,8,11,107,6,,,,,,,,,,,,,,,,,,,,,1.663,2.319,381.72460429999774,None,,,,,,,,,,,,,,,,,,,,382.26060179999695,382.7655573999982,0.5075899199982814,1.007868820001022,382.74889149999944,382.84893569999986,382.74889149999944,382.84893569999986,382.84893569999986,None,c,0,0.7384936000016751,382.84893569999986,None,,,,,,,p152,2022_Apr_13_0918,training+cueing,2021.1.4,59.937305578945185,
Stranger.png,Stranger,Stranger,c,3,13,23,93,,,,,0,0,0,0,,,,,9,0,108,11,,,,,,,,,,,,,,,,,,,,,1.569,2.262,383.72261309999885,None,,,,,,,,,,,,,,,,,,,,384.26083669999935,384.76699169999847,0.5113323199984734,1.0116135200005374,384.7503347999991,384.86704089999694,384.7503347999991,384.86704089999694,384.85034449999876,None,c,1,0.9612634000004618,384.85034449999876,None,,,,,,,p152,2022_Apr_13_0918,training+cueing,2021.1.4,59.937305578945185,
Stranger.png,Friend,Stranger,m,2.3,17,27,97,,,,,0,0,0,0,,,,,9,1,109,7,,,,,,,,,,,,,,,,,,,,,1.595,2.391,385.9402200000004,None,,,,,,,,,,,,,,,,,,,,386.47918930000014,386.9853022999996,0.5117228199960664,1.0119725199983804,386.96860209999795,387.0853171999988,386.96860209999795,387.0853171999988,387.0686074999976,None,c,0,0.7751803999999538,387.0686074999976,None,,,,,,,p152,2022_Apr_13_0918,training+cueing,2021.1.4,59.937305578945185,
Stranger.png,You,Stranger,m,1.3,15,25,95,,,,,0,0,0,0,,,,,9,2,110,6,,,,,,,,,,,,,,,,,,,,,1.421,1.757,387.97582469999907,None,,,,,,,,,,,,,,,,,,,,388.5130272999995,389.02010179999706,0.5127883200038923,1.013017020002735,389.0034268999989,389.10345609999786,389.0034268999989,389.10345609999786,389.10345609999786,None,m,1,1.0121809000011126,389.10345609999786,None,,,,,,,p152,2022_Apr_13_0918,training+cueing,2021.1.4,59.937305578945185,
Friend.png,You,Friend,m,1.2,14,24,94,,,,,0,0,0,0,,,,,9,3,111,3,,,,,,,,,,,,,,,,,,,,,1.498,2.36,390.24418349999905,None,,,,,,,,,,,,,,,,,,,,390.78000659999816,391.28839829999924,0.5005758799961768,1.0008735799965507,391.2716793999971,391.37175690000004,391.2716793999971,391.37175690000004,391.37175690000004,None,c,0,0.7280586000015319,391.37175690000004,None,,,,,,,p152,2022_Apr_13_0918,training+cueing,2021.1.4,59.937305578945185,
Self.png,You,Self ,c,1,11,21,91,,,,,0,0,0,0,,,,,9,4,112,9,,,,,,,,,,,,,,,,,,,,,1.432,1.702,392.22862669999813,None,,,,,,,,,,,,,,,,,,,,392.7732827999971,393.27314560000013,0.5155417200003285,1.0158278200033237,393.27314560000013,393.3731956999982,393.27314560000013,393.3731956999982,393.3731956999982,None,c,1,0.9344134000020858,393.3731956999982,None,,,,,,,p152,2022_Apr_13_0918,training+cueing,2021.1.4,59.937305578945185,
Stranger.png,Stranger,Stranger,c,3,13,23,93,,,,,0,0,0,0,,,,,9,5,113,8,,,,,,,,,,,,,,,,,,,,,1.555,1.899,394.4294474999988,None,,,,,,,,,,,,,,,,,,,,394.9685580000005,395.474718999998,0.5112572199977876,1.0115348199979053,395.4580704999971,395.5748012999975,395.4580704999971,395.5748012999975,395.5580829999999,None,m,0,0.6534024000029603,395.5580829999999,None,,,,,,,p152,2022_Apr_13_0918,training+cueing,2021.1.4,59.937305578945185,
Friend.png,Friend,Friend,c,2,12,22,92,,,,,0,0,0,0,,,,,9,6,114,4,,,,,,,,,,,,,,,,,,,,,1.498,1.92,396.34818769999765,None,,,,,,,,,,,,,,,,,,,,396.88661839999986,397.39281949999713,0.5125076199983596,1.0127779199974611,397.3761158999987,397.4928610999996,397.3761158999987,397.4928610999996,397.47611969999707,None,c,1,0.863661300001695,397.47611969999707,None,,,,,,,p152,2022_Apr_13_0918,training+cueing,2021.1.4,59.937305578945185,
Self.png,Friend,Self ,m,2.1,16,26,96,,,,,0,0,0,0,,,,,9,7,115,1,,,,,,,,,,,,,,,,,,,,,1.486,1.439,398.4666674,None,,,,,,,,,,,,,,,,,,,,399.005200399999,399.5110133999988,0.5091954200033797,1.009439220004424,399.49433560000034,399.61106259999724,399.49433560000034,399.61106259999724,399.59435250000024,None,m,1,1.0971509000009974,399.59435250000024,None,,,,,,,p152,2022_Apr_13_0918,training+cueing,2021.1.4,59.937305578945185,
Self.png,Stranger,Self ,m,3.1,18,28,98,,,,,0,0,0,0,,,,,9,8,116,2,,,,,,,,,,,,,,,,,,,,,1.744,1.412,400.8193183000003,None,,,,,,,,,,,,,,,,,,,,401.3593938999984,401.86269289999836,0.5060141199974169,1.0061972199982847,401.84607680000045,401.9627639999999,401.84607680000045,401.9627639999999,401.94602809999924,None,m,1,0.9055698999982269,401.94602809999924,None,,,,,,,p152,2022_Apr_13_0918,training+cueing,2021.1.4,59.937305578945185,
Friend.png,Friend,Friend,c,2,12,22,92,,,,,0,0,0,0,,,,,9,9,117,10,,,,,,,,,,,,,,,,,,,,,1.482,1.715,402.98649490000025,None,,,,,,,,,,,,,,,,,,,,403.5263469999991,404.03091819999827,0.5094754199999443,1.0097718200013333,404.0142655999989,404.1309483999976,404.0142655999989,404.1309483999976,404.11429169999974,None,c,1,1.2812402000017755,404.11429169999974,None,,,,,,,p152,2022_Apr_13_0918,training+cueing,2021.1.4,59.937305578945185,
Self.png,You,Self ,c,1,11,21,91,,,,,0,0,0,0,,,,,9,10,118,0,,,,,,,,,,,,,,,,,,,,,1.702,1.871,405.5215954999985,None,,,,,,,,,,,,,,,,,,,,406.0590252000002,406.5660833999973,0.5123841200002062,1.0126748200018483,406.5494194999992,406.6494781000001,406.5494194999992,406.6494781000001,406.6494781000001,None,c,1,0.6980059999987134,406.6494781000001,None,,,,,,,p152,2022_Apr_13_0918,training+cueing,2021.1.4,59.937305578945185,
Friend.png,Stranger,Friend,m,3.2,19,29,99,,,,,0,0,0,0,,,,,9,11,119,5,,,,,,,,,,,,,,,,,,,,,1.407,1.469,407.4726636999985,None,,,,,,,,,,,,,,,,,,,,408.01208659999975,408.51753299999837,0.5111144199981936,1.0114352199962013,408.5008392999989,408.6175581999996,408.5008392999989,408.6175581999996,408.60085489999983,None,m,1,1.0027353999976185,408.60085489999983,None,,,,,,,p152,2022_Apr_13_0918,training+cueing,2021.1.4,59.937305578945185,
,,,,,,,,,,,,0,0,0,0,,,,,,,,,,,,,,,,,,,,,,,,,,,,,,,,,,,,,,,,,,,,,,,,,,,,,,,,,,,,,,,,,,,0.0007136800013540778,None,,,,,p152,2022_Apr_13_0918,training+cueing,2021.1.4,59.937305578945185,
Friend.png,Stranger,Friend,m,3.2,19,29,99,,,,,1,0,1,0,0,0,0,5,,,,,,,,,,,,,,,,,410.2526416999972,None,space,4.598919500000193,2.0134961399999156,None,416.85686709999936,None,1.572,1.223,419.87331359999735,None,420.4125638000005,420.926481399998,420.90980809999746,421.026544999997,420.90980809999746,421.026544999997,421.00982060000024,None,m,1,1.0577124000010372,421.00982060000024,None,422.0937668999977,None,,,,,,,,,,,,,,,,,,,,,,,,,,p152,2022_Apr_13_0918,training+cueing,2021.1.4,59.937305578945185,
Friend.png,You,Friend,m,1.2,14,24,94,,,,,1,0,1,0,0,1,1,3,,,,,,,,,,,,,,,,,,,,,,,,,1.507,1.841,422.49437019999823,None,423.02310849999776,423.5284045999979,423.51170659999843,423.61173639999834,423.51170659999843,423.61173639999834,423.61173639999834,None,c,0,1.463878400001704,423.61173639999834,None,425.10485509999853,None,,,,,,,,,,,,,,,,,,,,,,,,,,p152,2022_Apr_13_0918,training+cueing,2021.1.4,59.937305578945185,
Friend.png,Friend,Friend,c,2,12,22,92,,,,,1,0,1,0,0,2,2,4,,,,,,,,,,,,,,,,,,,,,,,,,1.719,1.646,425.51310269999885,None,426.0478710999996,426.5473662999975,426.5473662999975,426.6474079999971,426.5473662999975,426.6474079999971,426.6474079999971,None,c,1,0.9240886000006867,426.6474079999971,None,427.5999555999988,None,,,,,,,,,,,,,,,,,,,,,,,,,,p152,2022_Apr_13_0918,training+cueing,2021.1.4,59.937305578945185,
Self.png,You,Self ,c,1,11,21,91,,,,,1,0,1,0,0,3,3,9,,,,,,,,,,,,,,,,,,,,,,,,,1.607,1.576,428.0149316999996,None,428.5417211999993,429.0490226999973,429.0324225999975,429.1323975999985,429.0324225999975,429.1323975999985,429.1323975999985,None,c,1,0.5191597000011825,429.1323975999985,None,429.6828041999979,None,,,,,,,,,,,,,,,,,,,,,,,,,,p152,2022_Apr_13_0918,training+cueing,2021.1.4,59.937305578945185,
Stranger.png,You,Stranger,m,1.3,15,25,95,,,,,1,0,1,0,0,4,4,6,,,,,,,,,,,,,,,,,,,,,,,,,1.624,1.61,430.0831600999991,None,430.6110314999969,431.1171770000001,431.1004823000003,431.2005401999995,431.1004823000003,431.2005401999995,431.2005401999995,None,m,1,0.6271987000000081,431.2005401999995,None,431.851047199998,None,,,,,,,,,,,,,,,,,,,,,,,,,,p152,2022_Apr_13_0918,training+cueing,2021.1.4,59.937305578945185,
Friend.png,Friend,Friend,c,2,12,22,92,,,,,1,0,1,0,0,5,5,10,,,,,,,,,,,,,,,,,,,,,,,,,1.687,2.118,432.25130369999897,None,432.7812898999982,433.28538969999863,433.26874379999936,433.38558719999855,433.26874379999936,433.38558719999855,433.3691841,None,c,1,0.7945914000010816,433.3691841,None,434.1860472999979,None,,,,,,,,,,,,,,,,,,,,,,,,,,p152,2022_Apr_13_0918,training+cueing,2021.1.4,59.937305578945185,
Stranger.png,Friend,Stranger,m,2.3,17,27,97,,,,,1,0,1,0,0,6,6,7,,,,,,,,,,,,,,,,,,,,,,,,,1.756,1.287,434.58630300000004,None,435.1123732999986,435.62036069999886,435.60374859999865,435.72046959999716,435.60374859999865,435.72046959999716,435.70378770000025,None,m,1,0.7156592999999702,435.70378770000025,None,436.43771600000036,None,,,,,,,,,,,,,,,,,,,,,,,,,,p152,2022_Apr_13_0918,training+cueing,2021.1.4,59.937305578945185,
Stranger.png,Stranger,Stranger,c,3,13,23,93,,,,,1,0,1,0,0,7,7,11,,,,,,,,,,,,,,,,,,,,,,,,,1.762,2.174,436.83795889999965,None,437.36974550000014,437.87206279999737,437.8553949999987,437.97210229999837,437.8553949999987,437.97210229999837,437.95541589999993,None,m,0,0.784187599998404,437.95541589999993,None,438.7566633999995,None,,,,,,,,,,,,,,,,,,,,,,,,,,p152,2022_Apr_13_0918,training+cueing,2021.1.4,59.937305578945185,
Self.png,Friend,Self ,m,2.1,16,26,96,,,,,1,0,1,0,0,8,8,1,,,,,,,,,,,,,,,,,,,,,,,,,1.448,1.564,439.15639499999816,None,439.69127579999986,440.19040529999984,440.19040529999984,440.2904450999995,440.19040529999984,440.2904450999995,440.2904450999995,None,m,1,0.8169793999986723,440.2904450999995,None,441.1248629999973,None,,,,,,,,,,,,,,,,,,,,,,,,,,p152,2022_Apr_13_0918,training+cueing,2021.1.4,59.937305578945185,
Self.png,Stranger,Self ,m,3.1,18,28,98,,,,,1,0,1,0,0,9,9,2,,,,,,,,,,,,,,,,,,,,,,,,,1.608,1.772,441.52480209999703,None,442.0606857999992,442.5754538000001,442.5587736999987,442.675562299999,442.5587736999987,442.675562299999,442.6587956999974,None,m,1,0.8486235999989731,442.6587956999974,None,443.52616750000016,None,,,,,,,,,,,,,,,,,,,,,,,,,,p152,2022_Apr_13_0918,training+cueing,2021.1.4,59.937305578945185,
Stranger.png,Stranger,Stranger,c,3,13,23,93,,,,,1,0,1,0,0,10,10,8,,,,,,,,,,,,,,,,,,,,,,,,,1.65,2.443,443.92657580000014,None,444.4623264999973,444.97734709999713,444.9606892999982,445.0775297,444.9606892999982,445.0775297,445.06066629999987,None,m,0,1.1029173000024457,445.06066629999987,None,446.19996399999945,None,,,,,,,,,,,,,,,,,,,,,,,,,,p152,2022_Apr_13_0918,training+cueing,2021.1.4,59.937305578945185,
Self.png,You,Self ,c,1,11,21,91,,,,,1,0,1,0,0,11,11,0,,,,,,,,,,,,,,,,,,,,,,,,,1.697,1.462,446.61178329999893,None,447.1409867000002,447.64597539999886,447.6290974000003,447.7291495999998,447.6290974000003,447.7291495999998,447.7291495999998,None,c,1,0.8343807000019297,447.7291495999998,None,448.5964767999976,None,,,,,,,,,,,,,,,,,,,,,,,,,,p152,2022_Apr_13_0918,training+cueing,2021.1.4,59.937305578945185,
Friend.png,Friend,Friend,c,2,12,22,92,,,,,1,0,1,0,,,,,0,0,0,10,,,,,,,,,,,,,,,,,,,451.99891319999733,None,1.411,1.388,455.51515319999817,None,,,,,,,,,,,,,,,,448.9967876999981,None,0.014182740003889194,0.5120498400028737,456.04579509999894,456.5522601999983,0.5116891200013924,1.0119687200021872,456.53556209999806,456.65230639999936,456.53556209999806,456.65230639999936,456.6355833999987,None,c,1,0.8079084000019066,456.6355833999987,None,,,,,,,p152,2022_Apr_13_0918,training+cueing,2021.1.4,59.937305578945185,
Stranger.png,Friend,Stranger,m,2.3,17,27,97,,,,,1,0,1,0,,,,,0,1,1,7,,,,,,,,,,,,,,,,,,,,,1.506,2.414,457.57825909999883,None,,,,,,,,,,,,,,,,,,,,458.11349189999964,458.62040200000047,0.5127527200020268,1.0129640199993446,458.60380379999697,458.72043499999927,458.60380379999697,458.72043499999927,458.7037531999995,None,m,1,0.8356886000001396,458.7037531999995,None,,,,,,,p152,2022_Apr_13_0918,training+cueing,2021.1.4,59.937305578945185,
Friend.png,You,Friend,m,1.2,14,24,94,,,,,1,0,1,0,,,,,0,2,2,3,,,,,,,,,,,,,,,,,,,,,1.572,2.114,459.66117739999754,None,,,,,,,,,,,,,,,,,,,,460.19732699999804,460.70523109999704,0.5134871199988993,1.0137403199987602,460.6885661999986,460.78860789999817,460.6885661999986,460.78860789999817,460.78860789999817,None,m,1,0.686787300001015,460.78860789999817,None,,,,,,,p152,2022_Apr_13_0918,training+cueing,2021.1.4,59.937305578945185,
Self.png,You,Self ,c,1,11,21,91,,,,,1,0,1,0,,,,,0,3,3,9,,,,,,,,,,,,,,,,,,,,,1.576,1.227,461.61197249999896,None,,,,,,,,,,,,,,,,,,,,462.1474414999975,462.65667199999734,0.5004351799980213,1.0007383799966192,462.63998009999705,462.74005939999915,462.63998009999705,462.74005939999915,462.74005939999915,None,c,1,0.7832864000010886,462.74005939999915,None,,,,,,,p152,2022_Apr_13_0918,training+cueing,2021.1.4,59.937305578945185,
Self.png,Stranger,Self ,m,3.1,18,28,98,,,,,1,0,1,0,,,,,0,4,4,2,,,,,,,,,,,,,,,,,,,,,1.584,1.478,463.6464374999996,None,,,,,,,,,,,,,,,,,,,,464.1845229999999,464.69144759999836,0.5104061199999705,1.012669920000917,464.67476650000026,464.79151289999936,464.67476650000026,464.79151289999936,464.7747581000003,None,m,1,0.8608390000008512,464.7747581000003,None,,,,,,,p152,2022_Apr_13_0918,training+cueing,2021.1.4,59.937305578945185,
Self.png,Friend,Self ,m,2.1,16,26,96,,,,,1,0,1,0,,,,,0,5,5,1,,,,,,,,,,,,,,,,,,,,,1.607,1.388,465.7646782999982,None,,,,,,,,,,,,,,,,,,,,466.3045151999977,466.8096743999995,0.5106627200002549,1.0109191200026544,466.7929762999993,466.90969199999745,466.7929762999993,466.90969199999745,466.8929924999975,None,m,1,0.8224129999980505,466.8929924999975,None,,,,,,,p152,2022_Apr_13_0918,training+cueing,2021.1.4,59.937305578945185,
Friend.png,Stranger,Friend,m,3.2,19,29,99,,,,,1,0,1,0,,,,,0,6,6,5,,,,,,,,,,,,,,,,,,,,,1.709,1.462,467.8500074000003,None,,,,,,,,,,,,,,,,,,,,468.3888767999997,468.8944703999987,0.5112754200017662,1.0121838200029742,468.8778103000004,468.99458779999986,468.8778103000004,468.99458779999986,468.9779149999995,None,c,0,0.9455578999986756,468.9779149999995,None,,,,,,,p152,2022_Apr_13_0918,training+cueing,2021.1.4,59.937305578945185,
Friend.png,Friend,Friend,c,2,12,22,92,,,,,1,0,1,0,,,,,0,7,7,4,,,,,,,,,,,,,,,,,,,,,1.694,2.361,470.0516177999998,None,,,,,,,,,,,,,,,,,,,,470.58843649999835,471.09609929999715,0.5122549199986679,1.0125331199997163,471.07943129999694,471.19613099999697,471.07943129999694,471.19613099999697,471.1794391000003,None,c,1,0.6319382999972731,471.1794391000003,None,,,,,,,p152,2022_Apr_13_0918,training+cueing,2021.1.4,59.937305578945185,
Self.png,You,Self ,c,1,11,21,91,,,,,1,0,1,0,,,,,0,8,8,0,,,,,,,,,,,,,,,,,,,,,1.574,1.272,471.93643849999717,None,,,,,,,,,,,,,,,,,,,,472.4738784000001,472.98079179999695,0.5130012199988414,1.0132676199973503,472.9641257000003,473.0642778000001,472.9641257000003,473.0642778000001,473.0642778000001,None,c,1,0.6510968000002322,473.0642778000001,None,,,,,,,p152,2022_Apr_13_0918,training+cueing,2021.1.4,59.937305578945185,
Stranger.png,Stranger,Stranger,c,3,13,23,93,,,,,1,0,1,0,,,,,0,9,9,8,,,,,,,,,,,,,,,,,,,,,1.413,1.212,473.83764359999986,None,,,,,,,,,,,,,,,,,,,,474.3762650999997,474.88232549999884,0.5119590200010862,1.0120399200022803,474.8656615999971,474.98249829999986,474.8656615999971,474.98249829999986,474.9656851,None,m,0,1.1656915999992634,474.9656851,None,,,,,,,p152,2022_Apr_13_0918,training+cueing,2021.1.4,59.937305578945185,
Stranger.png,Stranger,Stranger,c,3,13,23,93,,,,,1,0,1,0,,,,,0,10,10,11,,,,,,,,,,,,,,,,,,,,,1.641,1.935,476.25551579999956,None,,,,,,,,,,,,,,,,,,,,476.7912389999983,477.3005252999974,0.499392120000266,0.9999175199991441,477.2672492999991,477.3672525000002,477.2672492999991,477.3672525000002,477.3672525000002,None,m,0,0.9882698000001255,477.3672525000002,None,,,,,,,p152,2022_Apr_13_0918,training+cueing,2021.1.4,59.937305578945185,
Stranger.png,You,Stranger,m,1.3,15,25,95,,,,,1,0,1,0,,,,,0,11,11,6,,,,,,,,,,,,,,,,,,,,,1.666,2.292,478.4928027999995,None,,,,,,,,,,,,,,,,,,,,479.0299178999994,479.53552429999763,0.510289419995388,1.0106218199980503,479.5188175000003,479.6188758999997,479.5188175000003,479.6188758999997,479.6188758999997,None,c,0,0.6406126000001677,479.6188758999997,None,,,,,,,p152,2022_Apr_13_0918,training+cueing,2021.1.4,59.937305578945185,
Self.png,Stranger,Self ,m,3.1,18,28,98,,,,,1,0,1,0,,,,,1,0,12,2,,,,,,,,,,,,,,,,,,,,,1.522,1.831,480.39233909999894,None,,,,,,,,,,,,,,,,,,,,480.94767879999927,481.45371819999855,0.5103875599997991,1.0106681599972944,481.4370560999996,481.5537949999998,481.4370560999996,481.5537949999998,481.53710339999816,None,m,1,0.8665966999978991,481.53710339999816,None,,,,,,,p152,2022_Apr_13_0918,training+cueing,2021.1.4,59.937305578945185,
Self.png,You,Self ,c,1,11,21,91,,,,,1,0,1,0,,,,,1,1,13,0,,,,,,,,,,,,,,,,,,,,,1.579,1.35,482.5307721999998,None,,,,,,,,,,,,,,,,,,,,483.0661672999995,483.5718027999974,0.5098716200009221,1.010154119998333,483.5551204000003,483.6551538999993,483.5551204000003,483.6551538999993,483.6551538999993,None,c,1,0.8127289000003657,483.6551538999993,None,,,,,,,p152,2022_Apr_13_0918,training+cueing,2021.1.4,59.937305578945185,
Stranger.png,Stranger,Stranger,c,3,13,23,93,,,,,1,0,1,0,,,,,1,2,14,11,,,,,,,,,,,,,,,,,,,,,1.602,1.548,484.59896509999817,None,,,,,,,,,,,,,,,,,,,,485.13582680000036,485.639944999999,0.5075072199979331,1.0077917199960211,485.62324859999717,485.73998869999923,485.62324859999717,485.73998869999923,485.7232718999985,None,m,0,0.9361341000003449,485.7232718999985,None,,,,,,,p152,2022_Apr_13_0918,training+cueing,2021.1.4,59.937305578945185,
Friend.png,Friend,Friend,c,2,12,22,92,,,,,1,0,1,0,,,,,1,3,15,10,,,,,,,,,,,,,,,,,,,,,1.692,1.226,486.79702650000036,None,,,,,,,,,,,,,,,,,,,,487.3346132999977,487.84152259999973,0.5118619200002286,1.0121318199999223,487.82485819999783,487.941581199997,487.82485819999783,487.941581199997,487.92488519999824,None,c,1,0.7344689999990806,487.92488519999824,None,,,,,,,p152,2022_Apr_13_0918,training+cueing,2021.1.4,59.937305578945185,
Friend.png,Friend,Friend,c,2,12,22,92,,,,,1,0,1,0,,,,,1,4,16,4,,,,,,,,,,,,,,,,,,,,,1.638,2.111,488.781269799998,None,,,,,,,,,,,,,,,,,,,,489.3176577999984,489.8262666999981,0.5003178199985996,1.0005849199988006,489.7929632999985,489.8930048999973,489.7929632999985,489.8930048999973,489.8930048999973,None,c,1,0.750417600000219,489.8930048999973,None,,,,,,,p152,2022_Apr_13_0918,training+cueing,2021.1.4,59.937305578945185,
Stranger.png,Friend,Stranger,m,2.3,17,27,97,,,,,1,0,1,0,,,,,1,5,17,7,,,,,,,,,,,,,,,,,,,,,1.704,1.227,490.7660630999999,None,,,,,,,,,,,,,,,,,,,,491.301878899998,491.81101560000025,0.500407819999964,1.000698920001014,491.77771369999755,491.8777321999987,491.77771369999755,491.8777321999987,491.8777321999987,None,m,1,1.1335999999973865,491.8777321999987,None,,,,,,,p152,2022_Apr_13_0918,training+cueing,2021.1.4,59.937305578945185,
Stranger.png,You,Stranger,m,1.3,15,25,95,,,,,1,0,1,0,,,,,1,6,18,6,,,,,,,,,,,,,,,,,,,,,1.7,1.331,493.13439519999883,None,,,,,,,,,,,,,,,,,,,,493.67155060000005,494.17943659999946,0.5130118199995195,1.0133010200006538,494.16274279999925,494.2627966999971,494.16274279999925,494.2627966999971,494.2627966999971,None,c,0,0.7165763999983028,494.2627966999971,None,,,,,,,p152,2022_Apr_13_0918,training+cueing,2021.1.4,59.937305578945185,
Self.png,Friend,Self ,m,2.1,16,26,96,,,,,1,0,1,0,,,,,1,7,19,1,,,,,,,,,,,,,,,,,,,,,1.582,1.491,495.10310769999705,None,,,,,,,,,,,,,,,,,,,,495.6567756000004,496.16420469999866,0.5152547600009711,1.0155082599994785,496.14752959999896,496.26426779999747,496.14752959999896,496.26426779999747,496.247561199998,None,m,1,1.1801133000008122,496.247561199998,None,,,,,,,p152,2022_Apr_13_0918,training+cueing,2021.1.4,59.937305578945185,
Friend.png,Stranger,Friend,m,3.2,19,29,99,,,,,1,0,1,0,,,,,1,8,20,5,,,,,,,,,,,,,,,,,,,,,1.651,2.252,497.55585359999895,None,,,,,,,,,,,,,,,,,,,,498.09266149999894,498.5993450999995,0.5108918199985055,1.0112166199978674,498.5826485999969,498.69991559999835,498.5826485999969,498.69991559999835,498.6826782999997,None,m,1,1.0007208999995783,498.6826782999997,None,,,,,,,p152,2022_Apr_13_0918,training+cueing,2021.1.4,59.937305578945185,
Friend.png,You,Friend,m,1.2,14,24,94,,,,,1,0,1,0,,,,,1,9,21,3,,,,,,,,,,,,,,,,,,,,,1.562,2.125,499.80692519999866,None,,,,,,,,,,,,,,,,,,,,500.3442826999999,500.8509546999994,0.5121464199983166,1.012457019998692,500.8342585999999,500.93432259999827,500.8342585999999,500.93432259999827,500.93432259999827,None,m,1,1.085150099999737,500.93432259999827,None,,,,,,,p152,2022_Apr_13_0918,training+cueing,2021.1.4,59.937305578945185,
Stranger.png,Stranger,Stranger,c,3,13,23,93,,,,,1,0,1,0,,,,,1,10,22,8,,,,,,,,,,,,,,,,,,,,,1.763,2.114,502.14119429999846,None,,,,,,,,,,,,,,,,,,,,502.68139320000046,503.18595979999736,0.5088119200008805,1.00908112000252,503.16929179999715,503.2860127999993,503.16929179999715,503.2860127999993,503.26929290000044,None,m,0,1.0860460999974748,503.26929290000044,None,,,,,,,p152,2022_Apr_13_0918,training+cueing,2021.1.4,59.937305578945185,
Self.png,You,Self ,c,1,11,21,91,,,,,1,0,1,0,,,,,1,11,23,9,,,,,,,,,,,,,,,,,,,,,1.532,2.42,504.4936211999993,None,,,,,,,,,,,,,,,,,,,,505.0310009999994,505.5376604999983,0.5119380200012529,1.0122097200001008,505.52098599999954,505.6210448999991,505.52098599999954,505.6210448999991,505.6210448999991,None,c,1,0.5903184999988298,505.6210448999991,None,,,,,,,p152,2022_Apr_13_0918,training+cueing,2021.1.4,59.937305578945185,
Self.png,You,Self ,c,1,11,21,91,,,,,1,0,1,0,,,,,2,0,24,0,,,,,,,,,,,,,,,,,,,,,1.663,1.803,506.34396209999977,None,,,,,,,,,,,,,,,,,,,,506.8846836999983,507.3890173,0.507717219999904,1.007960520000779,507.37234559999706,507.47243030000027,507.37234559999706,507.47243030000027,507.47243030000027,None,c,1,0.5468741000004229,507.47243030000027,None,,,,,,,p152,2022_Apr_13_0918,training+cueing,2021.1.4,59.937305578945185,
Self.png,You,Self ,c,1,11,21,91,,,,,1,0,1,0,,,,,2,1,25,9,,,,,,,,,,,,,,,,,,,,,1.489,1.82,508.14619440000024,None,,,,,,,,,,,,,,,,,,,,508.6820738999995,509.1902756999989,0.5002770200007944,1.0172194199985825,509.1569657999971,509.2569977999992,509.1569657999971,509.2569977999992,509.2569977999992,None,c,1,0.44234829999913927,509.2569977999992,None,,,,,,,p152,2022_Apr_13_0918,training+cueing,2021.1.4,59.937305578945185,
Friend.png,Stranger,Friend,m,3.2,19,29,99,,,,,1,0,1,0,,,,,2,2,26,5,,,,,,,,,,,,,,,,,,,,,1.573,2.437,509.82973669999774,None,,,,,,,,,,,,,,,,,,,,510.3687573999996,510.8749465000001,0.5105486199972802,1.010846319997654,510.85827040000004,510.9750482999989,510.85827040000004,510.9750482999989,510.9584539999996,None,m,1,1.0129188999999315,510.9584539999996,None,,,,,,,p152,2022_Apr_13_0918,training+cueing,2021.1.4,59.937305578945185,
Self.png,Stranger,Self ,m,3.1,18,28,98,,,,,1,0,1,0,,,,,2,3,27,2,,,,,,,,,,,,,,,,,,,,,1.428,1.956,512.0980601999981,None,,,,,,,,,,,,,,,,,,,,512.6512589999984,513.1598268999987,0.5018571199980215,1.002212919996964,513.1431511999981,513.2598863999992,513.1431511999981,513.2598863999992,513.2431622000004,None,m,1,0.8084813999994367,513.2431622000004,None,,,,,,,p152,2022_Apr_13_0918,training+cueing,2021.1.4,59.937305578945185,
Friend.png,You,Friend,m,1.2,14,24,94,,,,,1,0,1,0,,,,,2,4,28,3,,,,,,,,,,,,,,,,,,,,,1.788,1.582,514.1868778999997,None,,,,,,,,,,,,,,,,,,,,514.7226147999972,515.2280799,0.5085482200011029,1.0090342200019222,515.2112863000002,515.3113730000005,515.2112863000002,515.3113730000005,515.3113730000005,None,m,1,0.9961370999990322,515.3113730000005,None,,,,,,,p152,2022_Apr_13_0918,training+cueing,2021.1.4,59.937305578945185,
Stranger.png,Friend,Stranger,m,2.3,17,27,97,,,,,1,0,1,0,,,,,2,5,29,7,,,,,,,,,,,,,,,,,,,,,1.654,1.539,516.4359559999975,None,,,,,,,,,,,,,,,,,,,,516.9752042,517.4796371999983,0.507864419996622,1.0081622199977573,517.4629204999983,517.5796663000001,517.4629204999983,517.5796663000001,517.5629563999973,None,m,1,0.680370000001858,517.5629563999973,None,,,,,,,p152,2022_Apr_13_0918,training+cueing,2021.1.4,59.937305578945185,
Self.png,Friend,Self ,m,2.1,16,26,96,,,,,1,0,1,0,,,,,2,6,30,1,,,,,,,,,,,,,,,,,,,,,1.48,2.175,518.3699020999993,None,,,,,,,,,,,,,,,,,,,,518.9058124000003,519.414334699999,0.500975679999101,1.001289479998377,519.397680799997,519.5144170999993,519.397680799997,519.5144170999993,519.5144170999993,None,c,0,0.8090018000002601,519.5144170999993,None,,,,,,,p152,2022_Apr_13_0918,training+cueing,2021.1.4,59.937305578945185,
Stranger.png,Stranger,Stranger,c,3,13,23,93,,,,,1,0,1,0,,,,,2,7,31,8,,,,,,,,,,,,,,,,,,,,,1.66,1.217,520.4550445999994,None,,,,,,,,,,,,,,,,,,,,520.9936474999995,521.4992345999999,0.510058920001029,1.0103471200018248,521.4825478999992,521.5992619999997,521.4825478999992,521.5992619999997,521.5825457999999,None,c,1,0.9486563999998907,521.5825457999999,None,,,,,,,p152,2022_Apr_13_0918,training+cueing,2021.1.4,59.937305578945185,
Stranger.png,Stranger,Stranger,c,3,13,23,93,,,,,1,0,1,0,,,,,2,8,32,11,,,,,,,,,,,,,,,,,,,,,1.432,2.222,522.6562989999984,None,,,,,,,,,,,,,,,,,,,,523.2060302999998,523.7174876999998,0.5050464200030547,1.0053981200035196,523.7007957999995,523.8175405999973,523.7007957999995,523.8175405999973,523.8008205999977,None,c,1,0.8585265000001527,523.8008205999977,None,,,,,,,p152,2022_Apr_13_0918,training+cueing,2021.1.4,59.937305578945185,
Friend.png,Friend,Friend,c,2,12,22,92,,,,,1,0,1,0,,,,,2,9,33,10,,,,,,,,,,,,,,,,,,,,,1.434,1.213,524.7913423999998,None,,,,,,,,,,,,,,,,,,,,525.3295972999986,525.8358059999991,0.5115282200022193,1.0116415200027404,525.8191832999983,525.9358471999985,525.8191832999983,525.9358471999985,525.9192114999969,None,c,1,1.1241222999997262,525.9192114999969,None,,,,,,,p152,2022_Apr_13_0918,training+cueing,2021.1.4,59.937305578945185,
Stranger.png,You,Stranger,m,1.3,15,25,95,,,,,1,0,1,0,,,,,2,10,34,6,,,,,,,,,,,,,,,,,,,,,1.658,2.236,527.175977699997,None,,,,,,,,,,,,,,,,,,,,527.7128859000004,528.2207312999999,0.5129117200012843,1.0132432200007315,528.2040345999994,528.3040887999996,528.2040345999994,528.3040887999996,528.3040887999996,None,c,0,0.7871005999986664,528.3040887999996,None,,,,,,,p152,2022_Apr_13_0918,training+cueing,2021.1.4,59.937305578945185,
Friend.png,Friend,Friend,c,2,12,22,92,,,,,1,0,1,0,,,,,2,11,35,4,,,,,,,,,,,,,,,,,,,,,1.716,2.035,529.2273886000003,None,,,,,,,,,,,,,,,,,,,,529.7663957999976,530.2722202999976,0.5123379200013005,1.0128071200015256,530.2555407,530.372276099999,530.2555407,530.372276099999,530.3555747999999,None,c,1,0.7678130000022065,530.3555747999999,None,,,,,,,p152,2022_Apr_13_0918,training+cueing,2021.1.4,59.937305578945185,
Friend.png,Friend,Friend,c,2,12,22,92,,,,,1,0,1,0,,,,,3,0,36,4,,,,,,,,,,,,,,,,,,,,,1.442,1.337,531.2459268999992,None,,,,,,,,,,,,,,,,,,,,531.780797899999,532.2903382999975,0.5008044799978961,1.0016624799973215,532.2736845,532.3908905999997,532.2736845,532.3908905999997,532.3908905999997,None,c,1,0.6525130000009085,532.3908905999997,None,,,,,,,p152,2022_Apr_13_0918,training+cueing,2021.1.4,59.937305578945185,
Self.png,You,Self ,c,1,11,21,91,,,,,1,0,1,0,,,,,3,1,37,0,,,,,,,,,,,,,,,,,,,,,1.7,2.286,533.1814293999996,None,,,,,,,,,,,,,,,,,,,,533.7196557999996,534.2250931999988,0.511663020002743,1.0119618200005789,534.2083710999977,534.3084488999993,534.2083710999977,534.3084488999993,534.3084488999993,None,c,1,0.7030776999999944,534.3084488999993,None,,,,,,,p152,2022_Apr_13_0918,training+cueing,2021.1.4,59.937305578945185,
Friend.png,Stranger,Friend,m,3.2,19,29,99,,,,,1,0,1,0,,,,,3,2,38,5,,,,,,,,,,,,,,,,,,,,,1.454,2.102,535.1526180000001,None,,,,,,,,,,,,,,,,,,,,535.7002351999981,536.2098125999983,0.5031030200007081,1.0035614200023701,536.1931860999975,536.3100104000005,536.1931860999975,536.3100104000005,536.2933194999969,None,c,0,0.7180884999979753,536.2933194999969,None,,,,,,,p152,2022_Apr_13_0918,training+cueing,2021.1.4,59.937305578945185,
Self.png,Friend,Self ,m,2.1,16,26,96,,,,,1,0,1,0,,,,,3,3,39,1,,,,,,,,,,,,,,,,,,,,,1.404,2.275,537.134774099999,None,,,,,,,,,,,,,,,,,,,,537.6861166999988,538.1951569999983,0.5149592599991593,1.0158132600008685,538.1773267999997,538.2947601999986,538.1773267999997,538.2947601999986,538.2780715999979,None,m,1,0.9252295000005688,538.2780715999979,None,,,,,,,p152,2022_Apr_13_0918,training+cueing,2021.1.4,59.937305578945185,
Friend.png,You,Friend,m,1.2,14,24,94,,,,,1,0,1,0,,,,,3,4,40,3,,,,,,,,,,,,,,,,,,,,,1.665,2.097,539.3353468999994,None,,,,,,,,,,,,,,,,,,,,539.8730868999992,540.3795606999993,0.5123374200047692,1.0126063200041244,540.3628747999974,540.4629055999976,540.3628747999974,540.4629055999976,540.4629055999976,None,m,1,0.8043538999991142,540.4629055999976,None,,,,,,,p152,2022_Apr_13_0918,training+cueing,2021.1.4,59.937305578945185,
Stranger.png,Stranger,Stranger,c,3,13,23,93,,,,,1,0,1,0,,,,,3,5,41,8,,,,,,,,,,,,,,,,,,,,,1.711,1.293,541.4029558000002,None,,,,,,,,,,,,,,,,,,,,541.9420880999969,542.4476805999984,0.510409520000394,1.0106806200019491,542.431029899999,542.5477203999981,542.431029899999,542.5477203999981,542.5310438999986,None,m,0,0.8803848999996262,542.5310438999986,None,,,,,,,p152,2022_Apr_13_0918,training+cueing,2021.1.4,59.937305578945185,
Self.png,Stranger,Self ,m,3.1,18,28,98,,,,,1,0,1,0,,,,,3,6,42,2,,,,,,,,,,,,,,,,,,,,,1.52,1.715,543.5388777999979,None,,,,,,,,,,,,,,,,,,,,544.0751363999989,544.5825909999985,0.5133674200005771,1.0136538199985807,544.5658900999988,544.6826148,544.5658900999988,544.6826148,544.6659242999995,None,m,1,0.8895935000000463,544.6659242999995,None,,,,,,,p152,2022_Apr_13_0918,training+cueing,2021.1.4,59.937305578945185,
Stranger.png,Friend,Stranger,m,2.3,17,27,97,,,,,1,0,1,0,,,,,3,7,43,7,,,,,,,,,,,,,,,,,,,,,1.445,1.543,545.6905693999979,None,,,,,,,,,,,,,,,,,,,,546.2299716999987,546.7341312999997,0.5071694200014463,1.0074420200035092,546.7174570999996,546.8342085000004,546.7174570999996,546.8342085000004,546.8176798999993,None,m,1,0.8335339000004751,546.8176798999993,None,,,,,,,p152,2022_Apr_13_0918,training+cueing,2021.1.4,59.937305578945185,
Stranger.png,Stranger,Stranger,c,3,13,23,93,,,,,1,0,1,0,,,,,3,8,44,11,,,,,,,,,,,,,,,,,,,,,1.443,1.919,547.7847918999978,None,,,,,,,,,,,,,,,,,,,,548.3140993999987,548.8189642999969,0.5066216199993505,1.0068748199992115,548.8023140000005,548.9190175000003,548.8023140000005,548.9190175000003,548.9023269999998,None,m,0,0.796977899997728,548.9023269999998,None,,,,,,,p152,2022_Apr_13_0918,training+cueing,2021.1.4,59.937305578945185,
Self.png,You,Self ,c,1,11,21,91,,,,,1,0,1,0,,,,,3,9,45,9,,,,,,,,,,,,,,,,,,,,,1.403,1.996,549.8259126999983,None,,,,,,,,,,,,,,,,,,,,550.3632595999989,550.8704392,0.512923120000778,1.0131830200007244,550.8538020999986,550.9538289999982,550.8538020999986,550.9538289999982,550.9538289999982,None,c,1,0.8737400999998499,550.9538289999982,None,,,,,,,p152,2022_Apr_13_0918,training+cueing,2021.1.4,59.937305578945185,
Friend.png,Friend,Friend,c,2,12,22,92,,,,,1,0,1,0,,,,,3,10,46,10,,,,,,,,,,,,,,,,,,,,,1.695,1.383,551.9605028999977,None,,,,,,,,,,,,,,,,,,,,552.4999271999986,553.0054092999999,0.5111074199994619,1.0114260200025456,552.9886114000001,553.1054019000003,552.9886114000001,553.1054019000003,553.088685499999,None,c,1,0.7386551999989024,553.088685499999,None,,,,,,,p152,2022_Apr_13_0918,training+cueing,2021.1.4,59.937305578945185,
Stranger.png,You,Stranger,m,1.3,15,25,95,,,,,1,0,1,0,,,,,3,11,47,6,,,,,,,,,,,,,,,,,,,,,1.411,1.209,553.9635613999999,None,,,,,,,,,,,,,,,,,,,,554.5107365999975,555.0234461,0.5070750199993199,1.008124019997922,555.0067784999992,555.1068548999974,555.0067784999992,555.1068548999974,555.1068548999974,None,m,1,1.2484183000015037,555.1068548999974,None,,,,,,,p152,2022_Apr_13_0918,training+cueing,2021.1.4,59.937305578945185,
Friend.png,Friend,Friend,c,2,12,22,92,,,,,1,0,1,0,,,,,4,0,48,4,,,,,,,,,,,,,,,,,,,,,1.587,1.294,556.481820099998,None,,,,,,,,,,,,,,,,,,,,557.076001399997,557.5753131999991,0.515172839997831,1.0154330400000617,557.5753131999991,557.675352299997,557.5753131999991,557.675352299997,557.675352299997,None,c,1,0.6478062999995018,557.675352299997,None,,,,,,,p152,2022_Apr_13_0918,training+cueing,2021.1.4,59.937305578945185,
Stranger.png,You,Stranger,m,1.3,15,25,95,,,,,1,0,1,0,,,,,4,1,49,6,,,,,,,,,,,,,,,,,,,,,1.447,1.513,558.4485891000004,None,,,,,,,,,,,,,,,,,,,,558.9865126999975,559.4933700000001,0.5127441199983878,1.013021419999859,559.4766767000001,559.5767234999985,559.4766767000001,559.5767234999985,559.5767234999985,None,c,0,0.7305942999992112,559.5767234999985,None,,,,,,,p152,2022_Apr_13_0918,training+cueing,2021.1.4,59.937305578945185,
Self.png,You,Self ,c,1,11,21,91,,,,,1,0,1,0,,,,,4,2,50,0,,,,,,,,,,,,,,,,,,,,,1.616,1.842,560.4335068,None,,,,,,,,,,,,,,,,,,,,560.9690666999995,561.4780936999996,0.4993116200021177,0.9999229200038826,561.4447393999981,561.5448652999985,561.4447393999981,561.5448652999985,561.5448652999985,None,c,1,0.7784338999990723,561.5448652999985,None,,,,,,,p152,2022_Apr_13_0918,training+cueing,2021.1.4,59.937305578945185,
Self.png,Stranger,Self ,m,3.1,18,28,98,,,,,1,0,1,0,,,,,4,3,51,2,,,,,,,,,,,,,,,,,,,,,1.73,1.846,562.4530343999977,None,,,,,,,,,,,,,,,,,,,,562.9921447999986,563.4964059999984,0.5077938200010976,1.0080642200009606,563.4797206999974,563.5964588999996,563.4797206999974,563.5964588999996,563.5797920000005,None,m,1,0.8554657999993651,563.5797920000005,None,,,,,,,p152,2022_Apr_13_0918,training+cueing,2021.1.4,59.937305578945185,
Self.png,Friend,Self ,m,2.1,16,26,96,,,,,1,0,1,0,,,,,4,4,52,1,,,,,,,,,,,,,,,,,,,,,1.707,2.222,564.5698830999972,None,,,,,,,,,,,,,,,,,,,,565.1083320999969,565.6144614000004,0.5104118199997174,1.0106853199977195,565.597776999999,565.7145299000003,565.597776999999,565.7145299000003,565.6980172999974,None,c,0,0.7052322000017739,565.6980172999974,None,,,,,,,p152,2022_Apr_13_0918,training+cueing,2021.1.4,59.937305578945185,
Friend.png,Stranger,Friend,m,3.2,19,29,99,,,,,1,0,1,0,,,,,4,5,53,5,,,,,,,,,,,,,,,,,,,,,1.676,2.193,566.5381214999979,None,,,,,,,,,,,,,,,,,,,,567.0766800999991,567.5829281999977,0.5115009199980705,1.0116129199996067,567.5660095999992,567.6825775999969,567.5660095999992,567.6825775999969,567.6658811999987,None,c,0,0.8653005000014673,567.6658811999987,None,,,,,,,p152,2022_Apr_13_0918,training+cueing,2021.1.4,59.937305578945185,
Stranger.png,Stranger,Stranger,c,3,13,23,93,,,,,1,0,1,0,,,,,4,6,54,11,,,,,,,,,,,,,,,,,,,,,1.706,1.856,568.6565262999975,None,,,,,,,,,,,,,,,,,,,,569.1924511999969,569.7007465999995,0.5155808199997409,1.0158345199997711,569.684077599999,569.8007904999977,569.684077599999,569.8007904999977,569.7840261999991,None,m,0,1.0832238999973924,569.7840261999991,None,,,,,,,p152,2022_Apr_13_0918,training+cueing,2021.1.4,59.937305578945185,
Friend.png,Friend,Friend,c,2,12,22,92,,,,,1,0,1,0,,,,,4,7,55,10,,,,,,,,,,,,,,,,,,,,,1.739,1.858,570.9919512999986,None,,,,,,,,,,,,,,,,,,,,571.530698999999,572.0357568,0.5080870200035861,1.0089624200008984,572.0190920999994,572.1357872999979,572.0190920999994,572.1357872999979,572.1191001999978,None,c,1,0.7480943000009574,572.1191001999978,None,,,,,,,p152,2022_Apr_13_0918,training+cueing,2021.1.4,59.937305578945185,
Self.png,You,Self ,c,1,11,21,91,,,,,1,0,1,0,,,,,4,8,56,9,,,,,,,,,,,,,,,,,,,,,1.713,2.036,572.9960721999996,None,,,,,,,,,,,,,,,,,,,,573.5329241,574.0372126000002,0.5089320199986105,1.0090754199991352,574.0206661999982,574.120573799999,574.0206661999982,574.120573799999,574.120573799999,None,c,1,0.7627560000000813,574.120573799999,None,,,,,,,p152,2022_Apr_13_0918,training+cueing,2021.1.4,59.937305578945185,
Stranger.png,Friend,Stranger,m,2.3,17,27,97,,,,,1,0,1,0,,,,,4,9,57,7,,,,,,,,,,,,,,,,,,,,,1.646,2.379,575.0116868999976,None,,,,,,,,,,,,,,,,,,,,575.5519253999992,576.0553054999982,0.5077836200034653,1.0080459200034966,576.0386653999994,576.1553684999999,576.0386653999994,576.1553684999999,576.1387034999971,None,m,1,1.1605216999996628,576.1387034999971,None,,,,,,,p152,2022_Apr_13_0918,training+cueing,2021.1.4,59.937305578945185,
Friend.png,You,Friend,m,1.2,14,24,94,,,,,1,0,1,0,,,,,4,10,58,3,,,,,,,,,,,,,,,,,,,,,1.747,2.386,577.4285194999975,None,,,,,,,,,,,,,,,,,,,,577.9661615999976,578.4738362999997,0.5129949200018018,1.0133002200018382,578.4571480999984,578.5573074999993,578.4571480999984,578.5573074999993,578.5573074999993,None,m,1,0.9658611999984714,578.5573074999993,None,,,,,,,p152,2022_Apr_13_0918,training+cueing,2021.1.4,59.937305578945185,
Stranger.png,Stranger,Stranger,c,3,13,23,93,,,,,1,0,1,0,,,,,4,11,59,8,,,,,,,,,,,,,,,,,,,,,1.401,2.163,579.6475529999989,None,,,,,,,,,,,,,,,,,,,,580.1868990999974,580.6920275999983,0.5088662199996179,1.009133119998296,580.6753710999983,580.7921776999974,580.6753710999983,580.7921776999974,580.7753722999987,None,c,1,1.0198376000007556,580.7753722999987,None,,,,,,,p152,2022_Apr_13_0918,training+cueing,2021.1.4,59.937305578945185,
Self.png,You,Self ,c,1,11,21,91,,,,,1,0,1,0,,,,,5,0,60,0,,,,,,,,,,,,,,,,,,,,,1.483,1.961,581.9327091999985,None,,,,,,,,,,,,,,,,,,,,582.4708941999997,582.9770080999988,0.5101260199990065,1.0103869199992914,582.9603282999997,583.0603711999975,582.9603282999997,583.0603711999975,583.0603711999975,None,c,1,0.7988296000003174,583.0603711999975,None,,,,,,,p152,2022_Apr_13_0918,training+cueing,2021.1.4,59.937305578945185,
Self.png,Friend,Self ,m,2.1,16,26,96,,,,,1,0,1,0,,,,,5,1,61,1,,,,,,,,,,,,,,,,,,,,,1.6,1.891,583.9838505999978,None,,,,,,,,,,,,,,,,,,,,584.5225613000002,585.0284578999999,0.5120642200017755,1.01238012000249,585.0117933000001,585.1285213999981,585.0117933000001,585.1285213999981,585.1118395999983,None,m,1,0.7633902000015951,585.1118395999983,None,,,,,,,p152,2022_Apr_13_0918,training+cueing,2021.1.4,59.937305578945185,
Self.png,Stranger,Self ,m,3.1,18,28,98,,,,,1,0,1,0,,,,,5,2,62,2,,,,,,,,,,,,,,,,,,,,,1.537,1.299,586.0019571999983,None,,,,,,,,,,,,,,,,,,,,586.5424681999975,587.0466175000001,0.5086852200001886,1.0089544199981901,587.0299401999982,587.1466651999981,587.0299401999982,587.1466651999981,587.1299556999984,None,c,0,0.9532508000011148,587.1299556999984,None,,,,,,,p152,2022_Apr_13_0918,training+cueing,2021.1.4,59.937305578945185,
Stranger.png,Stranger,Stranger,c,3,13,23,93,,,,,1,0,1,0,,,,,5,3,63,8,,,,,,,,,,,,,,,,,,,,,1.797,1.704,588.2204177999993,None,,,,,,,,,,,,,,,,,,,,588.7557863000002,589.2648416999982,0.4994337200005248,0.999729719998868,589.2315205999985,589.3315967999988,589.2315205999985,589.3315967999988,589.3315967999988,None,c,1,1.1037450000003446,589.3315967999988,None,,,,,,,p152,2022_Apr_13_0918,training+cueing,2021.1.4,59.937305578945185,
Friend.png,Stranger,Friend,m,3.2,19,29,99,,,,,1,0,1,0,,,,,5,4,64,5,,,,,,,,,,,,,,,,,,,,,1.578,1.594,590.5737833999992,None,,,,,,,,,,,,,,,,,,,,591.1094712999984,591.6165567999997,0.5132532200004789,1.0135185200015258,591.5999373999985,591.7166254000003,591.5999373999985,591.7166254000003,591.6999461999985,None,m,1,0.8632885000006354,591.6999461999985,None,,,,,,,p152,2022_Apr_13_0918,training+cueing,2021.1.4,59.937305578945185,
Friend.png,Friend,Friend,c,2,12,22,92,,,,,1,0,1,0,,,,,5,5,65,10,,,,,,,,,,,,,,,,,,,,,1.424,1.478,592.6898592999969,None,,,,,,,,,,,,,,,,,,,,593.2292282999988,593.7347526999984,0.5117801199994574,1.0120845199999167,593.7180830999969,593.8348377000002,593.7180830999969,593.8348377000002,593.8181172999975,None,c,1,0.5851624999995693,593.8181172999975,None,,,,,,,p152,2022_Apr_13_0918,training+cueing,2021.1.4,59.937305578945185,
Self.png,You,Self ,c,1,11,21,91,,,,,1,0,1,0,,,,,5,6,66,9,,,,,,,,,,,,,,,,,,,,,1.444,1.952,594.5247000999989,None,,,,,,,,,,,,,,,,,,,,595.0628211000003,595.5695272999983,0.5120395199992345,1.0120963199988182,595.5529632999969,595.652828899998,595.5529632999969,595.652828899998,595.652828899998,None,c,1,0.7343569999975443,595.652828899998,None,,,,,,,p152,2022_Apr_13_0918,training+cueing,2021.1.4,59.937305578945185,
Friend.png,Friend,Friend,c,2,12,22,92,,,,,1,0,1,0,,,,,5,7,67,4,,,,,,,,,,,,,,,,,,,,,1.441,1.491,596.509215799997,None,,,,,,,,,,,,,,,,,,,,597.0479094000002,597.5542105999994,0.5120948199983104,1.0124023199969088,597.5375413000002,597.654271899999,597.5375413000002,597.654271899999,597.6376085999982,None,c,1,0.5415358999998716,597.6376085999982,None,,,,,,,p152,2022_Apr_13_0918,training+cueing,2021.1.4,59.937305578945185,
Stranger.png,Stranger,Stranger,c,3,13,23,93,,,,,1,0,1,0,,,,,5,8,68,11,,,,,,,,,,,,,,,,,,,,,1.613,1.387,598.3109177999977,None,,,,,,,,,,,,,,,,,,,,598.8493738999969,599.3555466999969,0.5104151199993794,1.010769420001452,599.3388016999997,599.4555793999971,599.3388016999997,599.4555793999971,599.4388705999991,None,m,0,0.8363312000001315,599.4388705999991,None,,,,,,,p152,2022_Apr_13_0918,training+cueing,2021.1.4,59.937305578945185,
Friend.png,You,Friend,m,1.2,14,24,94,,,,,1,0,1,0,,,,,5,9,69,3,,,,,,,,,,,,,,,,,,,,,1.678,1.255,600.4116356999984,None,,,,,,,,,,,,,,,,,,,,600.9494825999973,601.4570528999975,0.5137298199988436,1.0140043200008222,601.4403712999992,601.5404324999981,601.4403712999992,601.5404324999981,601.5404324999981,None,None,0,,601.5404324999981,None,,,,,,,p152,2022_Apr_13_0918,training+cueing,2021.1.4,59.937305578945185,
Stranger.png,Friend,Stranger,m,2.3,17,27,97,,,,,1,0,1,0,,,,,5,10,70,7,,,,,,,,,,,,,,,,,,,,,1.591,1.57,603.3295714999986,None,,,,,,,,,,,,,,,,,,,,603.8696404000002,604.375850999997,0.5116558199988503,1.0120032199993148,604.3590968999997,604.4758537999987,604.3590968999997,604.4758537999987,604.4591798000001,None,m,1,0.8721601999968698,604.4591798000001,None,,,,,,,p152,2022_Apr_13_0918,training+cueing,2021.1.4,59.937305578945185,
Stranger.png,You,Stranger,m,1.3,15,25,95,,,,,1,0,1,0,,,,,5,11,71,6,,,,,,,,,,,,,,,,,,,,,1.636,1.537,605.4659986999977,None,,,,,,,,,,,,,,,,,,,,606.003681299997,606.5107243999992,0.512650519998715,1.0129395199983264,606.4940150000002,606.5940338999972,606.4940150000002,606.5940338999972,606.5940338999972,None,m,1,0.9611932000007073,606.5940338999972,None,,,,,,,p152,2022_Apr_13_0918,training+cueing,2021.1.4,59.937305578945185,
Friend.png,Stranger,Friend,m,3.2,19,29,99,,,,,1,0,1,0,,,,,6,0,72,5,,,,,,,,,,,,,,,,,,,,,1.766,2.01,607.6839526999975,None,,,,,,,,,,,,,,,,,,,,608.2245989000003,608.7289598999996,0.5089569199990365,1.0092258199983917,608.7123212999977,608.8289998,608.7123212999977,608.8289998,608.8123386999978,None,c,0,0.614747499999794,608.8123386999978,None,,,,,,,p152,2022_Apr_13_0918,training+cueing,2021.1.4,59.937305578945185,
Self.png,Stranger,Self ,m,3.1,18,28,98,,,,,1,0,1,0,,,,,6,1,73,2,,,,,,,,,,,,,,,,,,,,,1.53,1.295,609.5518992999969,None,,,,,,,,,,,,,,,,,,,,610.0877751999978,610.5969818999984,0.50063278000016,1.0015253800011124,610.5802828999986,610.6970116999983,610.5802828999986,610.6970116999983,610.6970116999983,None,m,1,1.0504123999999138,610.6970116999983,None,,,,,,,p152,2022_Apr_13_0918,training+cueing,2021.1.4,59.937305578945185,
Stranger.png,You,Stranger,m,1.3,15,25,95,,,,,1,0,1,0,,,,,6,2,74,6,,,,,,,,,,,,,,,,,,,,,1.63,1.361,611.8708578999976,None,,,,,,,,,,,,,,,,,,,,612.4095974999982,612.9154015999993,0.5092361200004234,1.0093031199976394,612.8988377999995,612.9986742000001,612.8988377999995,612.9986742000001,612.9986742000001,None,m,1,0.7005016000002797,612.9986742000001,None,,,,,,,p152,2022_Apr_13_0918,training+cueing,2021.1.4,59.937305578945185,
Stranger.png,Friend,Stranger,m,2.3,17,27,97,,,,,1,0,1,0,,,,,6,3,75,7,,,,,,,,,,,,,,,,,,,,,1.707,1.787,613.8225198,None,,,,,,,,,,,,,,,,,,,,614.3608894999998,614.8667543999982,0.5116710199981753,1.0122200199984945,614.850067299998,614.9670583999978,614.850067299998,614.9670583999978,614.9501051999978,None,m,1,0.9092307999999321,614.9501051999978,None,,,,,,,p152,2022_Apr_13_0918,training+cueing,2021.1.4,59.937305578945185,
Stranger.png,Stranger,Stranger,c,3,13,23,93,,,,,1,0,1,0,,,,,6,4,76,11,,,,,,,,,,,,,,,,,,,,,1.717,1.364,615.9911597999999,None,,,,,,,,,,,,,,,,,,,,616.5298398999985,617.0349610999983,0.5070348200024455,1.0073733200006245,617.018308499999,617.1350816999984,617.018308499999,617.1350816999984,617.1183913999994,None,c,1,0.9328789000028337,617.1183913999994,None,,,,,,,p152,2022_Apr_13_0918,training+cueing,2021.1.4,59.937305578945185,
Self.png,You,Self ,c,1,11,21,91,,,,,1,0,1,0,,,,,6,5,77,9,,,,,,,,,,,,,,,,,,,,,1.727,1.262,618.1763376999988,None,,,,,,,,,,,,,,,,,,,,618.714360599999,619.2199017999992,0.5099955200021213,1.0102768200013088,619.2032212999984,619.3032621999992,619.2032212999984,619.3032621999992,619.3032621999992,None,c,1,0.6998634000010497,619.3032621999992,None,,,,,,,p152,2022_Apr_13_0918,training+cueing,2021.1.4,59.937305578945185,
Self.png,You,Self ,c,1,11,21,91,,,,,1,0,1,0,,,,,6,6,78,0,,,,,,,,,,,,,,,,,,,,,1.574,2.373,620.1265562999979,None,,,,,,,,,,,,,,,,,,,,620.6664223999978,621.171285999997,0.509637119997933,1.0099210199987283,621.1546196999989,621.2546559000002,621.1546196999989,621.2546559000002,621.2546559000002,None,c,1,0.6365624999998545,621.2546559000002,None,,,,,,,p152,2022_Apr_13_0918,training+cueing,2021.1.4,59.937305578945185,
Friend.png,You,Friend,m,1.2,14,24,94,,,,,1,0,1,0,,,,,6,7,79,3,,,,,,,,,,,,,,,,,,,,,1.598,2.424,622.0281283999975,None,,,,,,,,,,,,,,,,,,,,622.5646631999989,623.0726891999984,0.5134852200026216,1.0137635200007935,623.0560160999994,623.1560557999983,623.0560160999994,623.1560557999983,623.1560557999983,None,m,1,0.8791983999981312,623.1560557999983,None,,,,,,,p152,2022_Apr_13_0918,training+cueing,2021.1.4,59.937305578945185,
Friend.png,Friend,Friend,c,2,12,22,92,,,,,1,0,1,0,,,,,6,8,80,10,,,,,,,,,,,,,,,,,,,,,1.538,2.19,624.1635404999979,None,,,,,,,,,,,,,,,,,,,,624.701872499998,625.208122,0.5098765199982154,1.0117427199984377,625.1893028999984,625.2914591999979,625.1893028999984,625.2914591999979,625.2914591999979,None,c,1,0.8077364999990095,625.2914591999979,None,,,,,,,p152,2022_Apr_13_0918,training+cueing,2021.1.4,59.937305578945185,
Friend.png,Friend,Friend,c,2,12,22,92,,,,,1,0,1,0,,,,,6,9,81,4,,,,,,,,,,,,,,,,,,,,,1.552,2.271,626.2318196999986,None,,,,,,,,,,,,,,,,,,,,626.767484,627.2756805999998,0.500352520000888,1.0012562199990498,627.242346199997,627.3424269999996,627.242346199997,627.3424269999996,627.3424269999996,None,c,1,0.4530496999977913,627.3424269999996,None,,,,,,,p152,2022_Apr_13_0918,training+cueing,2021.1.4,59.937305578945185,
Stranger.png,Stranger,Stranger,c,3,13,23,93,,,,,1,0,1,0,,,,,6,10,82,8,,,,,,,,,,,,,,,,,,,,,1.551,2.434,627.936362299999,None,,,,,,,,,,,,,,,,,,,,628.4720514999972,628.9769416999989,0.5069438199971046,1.0072627199988347,628.9602278999992,629.076979999998,628.9602278999992,629.076979999998,629.0602843999986,None,c,1,0.7028525999994599,629.0602843999986,None,,,,,,,p152,2022_Apr_13_0918,training+cueing,2021.1.4,59.937305578945185,
Self.png,Friend,Self ,m,2.1,16,26,96,,,,,1,0,1,0,,,,,6,11,83,1,,,,,,,,,,,,,,,,,,,,,1.73,2.445,629.9010718999998,None,,,,,,,,,,,,,,,,,,,,630.4411311999975,630.9450498999977,0.508175820003089,1.008464720001939,630.9283438999992,631.0450796999976,630.9283438999992,631.0450796999976,631.0283866999998,None,m,1,0.6708540999970865,631.0283866999998,None,,,,,,,p152,2022_Apr_13_0918,training+cueing,2021.1.4,59.937305578945185,
