Image,Name,Face,CorrAns,Match,Face_onset,CResponse_onset,IResponse_onset,Match.thisRepN,Match.thisTrialN,Match.thisN,Match.thisIndex,Blocks.thisRepN,Blocks.thisTrialN,Blocks.thisN,Blocks.thisIndex,trials.thisRepN,trials.thisTrialN,trials.thisN,trials.thisIndex,trials_2.thisRepN,trials_2.thisTrialN,trials_2.thisN,trials_2.thisIndex,text.started,text.stopped,p1.started,p1.stopped,MatchInstructions.started,MatchInstructions.stopped,Name1.started,Name1.stopped,Face_Relevance.started,Face_Relevance.stopped,MismatchInstructions.started,MismatchInstructions.stopped,Rest_trainingInstruct.started,Rest_trainingInstruct.stopped,next8.keys,next8.rt,next8.started,next8.stopped,Ready.started,Ready.stopped,delay_one_picked,delay_two_picked,blank0.started,blank0.stopped,FixationCross1.started,FixationCross1.stopped,Name3.started,Name3.stopped,Face_Relevance3.started,Face_Relevance3.stopped,responseTime.started,responseTime.stopped,resp.keys,resp.corr,resp.rt,resp.started,resp.stopped,Accuracy.started,Accuracy.stopped,questions.started,questions.stopped,p2.started,p2.stopped,FixationCross3.started,FixationCross3.stopped,port_Face_onset.started,port_Face_onset.stopped,Name4.started,Name4.stopped,Face_Relevance4.started,Face_Relevance4.stopped,responseTime2.started,responseTime2.stopped,Response.keys,Response.corr,Response.started,Response.stopped,Response.rt,p3.started,p3.stopped,Finish.started,Finish.stopped,gender,age,participant,date,expName,psychopyVersion,frameRate,
Self.png,You,,,,,,,0,0,0,0,,,,,,,,,,,,,19.177814299997408,None,0.002280029992107302,0.5217403299902799,21.166641500007245,None,23.324468000006163,None,23.324468000006163,None,,,,,,,,,,,,,,,,,,,,,,,,,,,,,,,,,,,,,,,,,,,,,,,,,,,,,,,p162,2022_Apr_14_1114,training+cueing,2021.1.4,59.720995452934794,
Friend.png,Friend,,,,,,,0,1,1,1,,,,,,,,,,,,,,,,,,,43.2217066000012,None,43.2217066000012,None,,,,,,,,,,,,,,,,,,,,,,,,,,,,,,,,,,,,,,,,,,,,,,,,,,,,,,,p162,2022_Apr_14_1114,training+cueing,2021.1.4,59.720995452934794,
Stranger.png,Stranger,,,,,,,0,2,2,2,,,,,,,,,,,,,,,,,,,63.22930259999703,None,63.22930259999703,None,,,,,,,,,,,,,,,,,,,,,,,,,,,,,,,,,,,,,,,,,,,,,,,,,,,,,,,p162,2022_Apr_14_1114,training+cueing,2021.1.4,59.720995452934794,
Self.png,Stranger,Self ,m,3.1,18,28,98,,,,,0,0,0,0,0,0,0,2,,,,,,,,,,,,,,,83.1780010000075,None,90.6665600999986,None,space,1.0319988999981433,2.0087653899972793,None,93.70202520000748,None,1.739,2.207,96.7182235000073,None,97.35172540000349,97.85520230000839,97.83849380000902,97.95526750000136,97.83849380000902,97.95526750000136,97.93855330000224,None,c,0,1.3100311000016518,97.93855330000224,None,99.2741107000038,None,,,,,,,,,,,,,,,,,,,,,,,,,,p162,2022_Apr_14_1114,training+cueing,2021.1.4,59.720995452934794,
Self.png,You,Self ,c,1,11,21,91,,,,,0,0,0,0,0,1,1,0,,,,,,,,,,,,,,,,,,,,,,,,,1.584,1.885,99.67335740000999,None,100.2123142000055,100.7239499999996,100.70725300000049,100.80730739999854,100.70725300000049,100.80730739999854,100.80730739999854,None,c,1,1.0651873000024352,100.80730739999854,None,101.8903699000075,None,,,,,,,,,,,,,,,,,,,,,,,,,,p162,2022_Apr_14_1114,training+cueing,2021.1.4,59.720995452934794,
Self.png,You,Self ,c,1,11,21,91,,,,,0,0,0,0,0,2,2,9,,,,,,,,,,,,,,,,,,,,,,,,,1.539,1.826,102.29173199999786,None,102.82166580000194,103.32582120000734,103.30921360000502,103.4092079000111,103.30921360000502,103.4092079000111,103.4092079000111,None,m,0,0.9753685999894515,103.4092079000111,None,104.40973310000845,None,,,,,,,,,,,,,,,,,,,,,,,,,,p162,2022_Apr_14_1114,training+cueing,2021.1.4,59.720995452934794,
Self.png,Friend,Self ,m,2.1,16,26,96,,,,,0,0,0,0,0,3,3,1,,,,,,,,,,,,,,,,,,,,,,,,,1.712,2.167,104.81078890000936,None,105.35297620001074,105.86105249999673,105.84432560000278,105.96105589999934,105.84432560000278,105.96105589999934,105.94436400000995,None,m,1,1.368172999995295,105.94436400000995,None,107.32736500000465,None,,,,,,,,,,,,,,,,,,,,,,,,,,p162,2022_Apr_14_1114,training+cueing,2021.1.4,59.720995452934794,
Friend.png,You,Friend,m,1.2,14,24,94,,,,,0,0,0,0,0,4,4,3,,,,,,,,,,,,,,,,,,,,,,,,,1.498,1.403,107.72899410000537,None,108.26093770000443,108.76308289999724,108.74649520000094,108.84639960000641,108.74649520000094,108.84639960000641,108.84639960000641,None,m,1,1.4102197000029264,108.84639960000641,None,110.2808698000008,None,,,,,,,,,,,,,,,,,,,,,,,,,,p162,2022_Apr_14_1114,training+cueing,2021.1.4,59.720995452934794,
Stranger.png,You,Stranger,m,1.3,15,25,95,,,,,0,0,0,0,0,5,5,6,,,,,,,,,,,,,,,,,,,,,,,,,1.501,1.532,110.68114480000804,None,111.21066240000073,111.71521160000702,111.69853490000241,111.79856910000672,111.69853490000241,111.79856910000672,111.79856910000672,None,m,1,1.0178578000050038,111.79856910000672,None,112.83276960000512,None,,,,,,,,,,,,,,,,,,,,,,,,,,p162,2022_Apr_14_1114,training+cueing,2021.1.4,59.720995452934794,
Stranger.png,Stranger,Stranger,c,3,13,23,93,,,,,0,0,0,0,0,6,6,8,,,,,,,,,,,,,,,,,,,,,,,,,1.405,1.278,113.2331780000095,None,113.77101180001046,114.28372300000046,114.26707020000322,114.3837910000002,114.26707020000322,114.3837910000002,114.36711930000456,None,m,0,1.1374660000001313,114.36711930000456,None,115.53486890000931,None,,,,,,,,,,,,,,,,,,,,,,,,,,p162,2022_Apr_14_1114,training+cueing,2021.1.4,59.720995452934794,
Friend.png,Stranger,Friend,m,3.2,19,29,99,,,,,0,0,0,0,0,7,7,5,,,,,,,,,,,,,,,,,,,,,,,,,1.611,1.407,115.93548300000839,None,116.46486700000241,116.969113500003,116.9524337000039,117.06907700000738,116.9524337000039,117.06907700000738,117.05241489999753,None,m,1,0.9641004000004614,117.05241489999753,None,118.03486650000559,None,,,,,,,,,,,,,,,,,,,,,,,,,,p162,2022_Apr_14_1114,training+cueing,2021.1.4,59.720995452934794,
Friend.png,Friend,Friend,c,2,12,22,92,,,,,0,0,0,0,0,8,8,10,,,,,,,,,,,,,,,,,,,,,,,,,1.671,1.486,118.43674230000761,None,118.96923800000513,119.47081720001006,119.45409140000993,119.57084400000167,119.45409140000993,119.57084400000167,119.55415480000374,None,c,1,1.1026629000116372,119.55415480000374,None,120.68841899999825,None,,,,,,,,,,,,,,,,,,,,,,,,,,p162,2022_Apr_14_1114,training+cueing,2021.1.4,59.720995452934794,
Friend.png,Friend,Friend,c,2,12,22,92,,,,,0,0,0,0,0,9,9,4,,,,,,,,,,,,,,,,,,,,,,,,,1.424,2.038,121.08870970000862,None,121.62662490000366,122.13939389999723,122.12272220000159,122.23948350000137,122.12272220000159,122.23948350000137,122.22278510000615,None,c,1,0.9137680999992881,122.22278510000615,None,123.15679470000032,None,,,,,,,,,,,,,,,,,,,,,,,,,,p162,2022_Apr_14_1114,training+cueing,2021.1.4,59.720995452934794,
Stranger.png,Stranger,Stranger,c,3,13,23,93,,,,,0,0,0,0,0,10,10,11,,,,,,,,,,,,,,,,,,,,,,,,,1.757,1.8,123.55709899999783,None,124.0965079000016,124.60785700000997,124.59118060000765,124.7079373000015,124.59118060000765,124.7079373000015,124.69121260000975,None,m,0,0.9893960000044899,124.69121260000975,None,125.71328380001069,None,,,,,,,,,,,,,,,,,,,,,,,,,,p162,2022_Apr_14_1114,training+cueing,2021.1.4,59.720995452934794,
Stranger.png,Friend,Stranger,m,2.3,17,27,97,,,,,0,0,0,0,0,11,11,7,,,,,,,,,,,,,,,,,,,,,,,,,1.633,2.462,126.12583630000881,None,126.66562040000281,127.1763598999969,127.15973369999847,127.27645070001017,127.15973369999847,127.27645070001017,127.25970330000564,None,c,0,1.2209265999990748,127.25970330000564,None,128.50932569999713,None,,,,,,,,,,,,,,,,,,,,,,,,,,p162,2022_Apr_14_1114,training+cueing,2021.1.4,59.720995452934794,
Self.png,Friend,Self ,m,2.1,16,26,96,,,,,0,0,0,0,,,,,0,0,0,1,,,,,,,,,,,,,,,,,,,132.46366419999686,None,1.536,1.763,135.97825790000206,None,,,,,,,,,,,,,,,,128.9111653,None,0.014560089985025115,0.5128751899901545,136.60527739999816,137.1169280000031,0.5031872199906502,1.0034250199969392,137.1002823000017,137.2169339000102,137.1002823000017,137.2169339000102,137.20027430000482,None,None,0,137.20027430000482,None,,,,,,,,p162,2022_Apr_14_1114,training+cueing,2021.1.4,59.720995452934794,
Friend.png,Friend,Friend,c,2,12,22,92,,,,,0,0,0,0,,,,,0,1,1,10,,,,,,,,,,,,,,,,,,,,,1.541,2.231,138.85689640000055,None,,,,,,,,,,,,,,,,,,,,139.39617340000405,139.9022554999974,0.511028869994334,1.0114362699969206,139.88553610000235,140.00285350000195,139.88553610000235,140.00285350000195,139.9855921999988,None,None,0,139.9855921999988,None,,,,,,,,p162,2022_Apr_14_1114,training+cueing,2021.1.4,59.720995452934794,
Friend.png,You,Friend,m,1.2,14,24,94,,,,,0,0,0,0,,,,,0,2,2,3,,,,,,,,,,,,,,,,,,,,,1.698,1.53,141.6407956000039,None,,,,,,,,,,,,,,,,,,,,142.1825286000094,142.687617100004,0.5101681700034533,1.0104039700090652,142.6709467000037,142.77093779999996,142.6709467000037,142.77093779999996,142.77093779999996,None,None,0,142.77093779999996,None,,,,,,,,p162,2022_Apr_14_1114,training+cueing,2021.1.4,59.720995452934794,
Stranger.png,Friend,Stranger,m,2.3,17,27,97,,,,,0,0,0,0,,,,,0,3,3,7,,,,,,,,,,,,,,,,,,,,,1.614,1.602,144.58003270000336,None,,,,,,,,,,,,,,,,,,,,145.12145810000948,145.62304479999875,0.5024672699946677,1.002756469984888,145.6063559000031,145.72322729999723,145.6063559000031,145.72322729999723,145.70639940000547,None,m,1,145.70639940000547,None,1.4621429999970132,,,,,,,p162,2022_Apr_14_1114,training+cueing,2021.1.4,59.720995452934794,
Stranger.png,Stranger,Stranger,c,3,13,23,93,,,,,0,0,0,0,,,,,0,4,4,8,,,,,,,,,,,,,,,,,,,,,1.573,1.6,147.29712420000578,None,,,,,,,,,,,,,,,,,,,,147.83961049999925,148.34183970000595,0.5048322700022254,1.0050206699961564,148.32510950000142,148.4417400000093,148.32510950000142,148.4417400000093,148.42503959999885,None,c,1,148.42503959999885,None,1.44747900000948,,,,,,,p162,2022_Apr_14_1114,training+cueing,2021.1.4,59.720995452934794,
Stranger.png,Stranger,Stranger,c,3,13,23,93,,,,,0,0,0,0,,,,,0,5,5,11,,,,,,,,,,,,,,,,,,,,,1.789,1.569,149.99898820000817,None,,,,,,,,,,,,,,,,,,,,150.55351209999935,151.06029039999703,0.5132392599916784,1.01372265999089,151.04360270001052,151.16035830001056,151.04360270001052,151.16035830001056,151.14363740000408,None,c,1,151.14363740000408,None,1.3370426000037696,,,,,,,p162,2022_Apr_14_1114,training+cueing,2021.1.4,59.720995452934794,
Self.png,You,Self ,c,1,11,21,91,,,,,0,0,0,0,,,,,0,6,6,9,,,,,,,,,,,,,,,,,,,,,1.77,2.413,152.61899660000927,None,,,,,,,,,,,,,,,,,,,,153.16004430000612,153.66218500000832,0.5024540700105717,1.002764870019746,153.64549999999872,153.74551970000903,153.64549999999872,153.74551970000903,153.74551970000903,None,c,1,153.74551970000903,None,1.727064299993799,,,,,,,p162,2022_Apr_14_1114,training+cueing,2021.1.4,59.720995452934794,
Friend.png,Friend,Friend,c,2,12,22,92,,,,,0,0,0,0,,,,,0,7,7,4,,,,,,,,,,,,,,,,,,,,,1.459,1.69,155.6031023000105,None,,,,,,,,,,,,,,,,,,,,156.14172549999785,156.64765080000507,0.5105471699935151,1.011373769986676,156.63099499999953,156.74768250000488,156.63099499999953,156.74768250000488,156.7310460000008,None,c,1,156.7310460000008,None,1.2695014999917476,,,,,,,p162,2022_Apr_14_1114,training+cueing,2021.1.4,59.720995452934794,
Friend.png,Stranger,Friend,m,3.2,19,29,99,,,,,0,0,0,0,,,,,0,8,8,5,,,,,,,,,,,,,,,,,,,,,1.421,2.284,158.13926910000737,None,,,,,,,,,,,,,,,,,,,,158.67771370000264,159.1828341000073,0.5078198699775385,1.0084038699860685,159.16615679999813,159.28286770000705,159.16615679999813,159.28286770000705,159.26618659999804,None,None,0,159.26618659999804,None,,,,,,,,p162,2022_Apr_14_1114,training+cueing,2021.1.4,59.720995452934794,
Stranger.png,You,Stranger,m,1.3,15,25,95,,,,,0,0,0,0,,,,,0,9,9,6,,,,,,,,,,,,,,,,,,,,,1.545,2.322,160.80592710000928,None,,,,,,,,,,,,,,,,,,,,161.34656240000913,161.85141850000946,0.508843670002534,1.0091591700038407,161.83472490000713,161.9347861999995,161.83472490000713,161.9347861999995,161.9347861999995,None,m,1,161.9347861999995,None,1.2336378000036348,,,,,,,p162,2022_Apr_14_1114,training+cueing,2021.1.4,59.720995452934794,
Self.png,Stranger,Self ,m,3.1,18,28,98,,,,,0,0,0,0,,,,,0,10,10,2,,,,,,,,,,,,,,,,,,,,,1.721,1.806,163.29199640000297,None,,,,,,,,,,,,,,,,,,,,163.8315874000109,164.33669100000407,0.5095853699895088,1.009973969994462,164.32003380000242,164.43658370000776,164.32003380000242,164.43658370000776,164.41987250000238,None,m,1,164.41987250000238,None,1.404508599996916,,,,,,,p162,2022_Apr_14_1114,training+cueing,2021.1.4,59.720995452934794,
Self.png,You,Self ,c,1,11,21,91,,,,,0,0,0,0,,,,,0,11,11,0,,,,,,,,,,,,,,,,,,,,,1.751,1.359,165.9607382999966,None,,,,,,,,,,,,,,,,,,,,166.50025930000993,167.00513859999774,0.5076080699800514,1.0078647699847352,166.98844010000175,167.08850430000166,166.98844010000175,167.08850430000166,167.08850430000166,None,c,1,167.08850430000166,None,1.0242156999884173,,,,,,,p162,2022_Apr_14_1114,training+cueing,2021.1.4,59.720995452934794,
Self.png,You,Self ,c,1,11,21,91,,,,,0,0,0,0,,,,,1,0,12,0,,,,,,,,,,,,,,,,,,,,,1.47,1.72,168.24890859999869,None,,,,,,,,,,,,,,,,,,,,168.80139269999927,169.30680600000778,0.5117202600085875,1.0126001600001473,169.29013829999894,169.3902087000024,169.29013829999894,169.3902087000024,169.3902087000024,None,c,1,169.3902087000024,None,0.6905832000047667,,,,,,,p162,2022_Apr_14_1114,training+cueing,2021.1.4,59.720995452934794,
Stranger.png,Friend,Stranger,m,2.3,17,27,97,,,,,0,0,0,0,,,,,1,1,13,7,,,,,,,,,,,,,,,,,,,,,1.74,2.414,170.2172045000043,None,,,,,,,,,,,,,,,,,,,,170.75647340000432,171.2582362000103,0.503950669997721,1.0048060699919006,171.24154879999696,171.3582851000101,171.24154879999696,171.3582851000101,171.34158049999678,None,m,1,171.34158049999678,None,1.091118500000448,,,,,,,p162,2022_Apr_14_1114,training+cueing,2021.1.4,59.720995452934794,
Self.png,You,Self ,c,1,11,21,91,,,,,0,0,0,0,,,,,1,2,14,9,,,,,,,,,,,,,,,,,,,,,1.505,1.772,172.5689398000104,None,,,,,,,,,,,,,,,,,,,,173.1070696000097,173.60990239999956,0.5033165700006066,1.0036442699929466,173.5932468000101,173.69326280000678,173.5932468000101,173.69326280000678,173.69326280000678,None,c,1,173.69326280000678,None,0.8831594000075711,,,,,,,p162,2022_Apr_14_1114,training+cueing,2021.1.4,59.720995452934794,
Self.png,Stranger,Self ,m,3.1,18,28,98,,,,,0,0,0,0,,,,,1,3,15,2,,,,,,,,,,,,,,,,,,,,,1.554,1.786,174.70033059999696,None,,,,,,,,,,,,,,,,,,,,175.2407693999994,175.74480960000074,0.507487669980037,1.0076742699748138,175.7281634000101,175.8448725000053,175.7281634000101,175.8448725000053,175.82817839999916,None,m,1,175.82817839999916,None,0.9722161999961827,,,,,,,p162,2022_Apr_14_1114,training+cueing,2021.1.4,59.720995452934794,
Stranger.png,Stranger,Stranger,c,3,13,23,93,,,,,0,0,0,0,,,,,1,4,16,11,,,,,,,,,,,,,,,,,,,,,1.688,1.639,176.93520340000396,None,,,,,,,,,,,,,,,,,,,,177.47265219999827,177.979831500008,0.5112985699961428,1.0114692699862644,177.96315320000576,178.07999930001097,177.96315320000576,178.07999930001097,178.0633119999984,None,c,1,178.0633119999984,None,1.58511770000041,,,,,,,p162,2022_Apr_14_1114,training+cueing,2021.1.4,59.720995452934794,
Friend.png,You,Friend,m,1.2,14,24,94,,,,,0,0,0,0,,,,,1,5,17,3,,,,,,,,,,,,,,,,,,,,,1.477,2.271,179.77026000000478,None,,,,,,,,,,,,,,,,,,,,180.3105280000018,180.8151085999998,0.5076425700244727,1.0079311700246762,180.7984712000034,180.8984935000044,180.7984712000034,180.8984935000044,180.8984935000044,None,m,1,180.8984935000044,None,1.2302697999984957,,,,,,,p162,2022_Apr_14_1114,training+cueing,2021.1.4,59.720995452934794,
Friend.png,Friend,Friend,c,2,12,22,92,,,,,0,0,0,0,,,,,1,6,18,4,,,,,,,,,,,,,,,,,,,,,1.62,2.074,182.25986710000143,None,,,,,,,,,,,,,,,,,,,,182.79875580000225,183.3002550000092,0.5032879699865589,1.0035141699772794,183.28361120000773,183.4002976000047,183.28361120000773,183.4002976000047,183.38372330000857,None,c,1,183.38372330000857,None,0.7128213999967556,,,,,,,p162,2022_Apr_14_1114,training+cueing,2021.1.4,59.720995452934794,
Stranger.png,You,Stranger,m,1.3,15,25,95,,,,,0,0,0,0,,,,,1,7,19,6,,,,,,,,,,,,,,,,,,,,,1.643,1.345,184.2255456999992,None,,,,,,,,,,,,,,,,,,,,184.76380090000748,185.26836060000642,0.5070527700008824,1.007567469991045,185.25164360000053,185.35170769999968,185.25164360000053,185.35170769999968,185.35170769999968,None,c,0,185.35170769999968,None,0.9527884999988601,,,,,,,p162,2022_Apr_14_1114,training+cueing,2021.1.4,59.720995452934794,
Self.png,Friend,Self ,m,2.1,16,26,96,,,,,0,0,0,0,,,,,1,8,20,1,,,,,,,,,,,,,,,,,,,,,1.641,1.876,186.4426613000105,None,,,,,,,,,,,,,,,,,,,,186.98412429999735,187.4866059000051,0.5048849700251594,1.0053785700147273,187.4699399000092,187.58663380000507,187.4699399000092,187.58663380000507,187.56995689999894,None,m,1,187.56995689999894,None,1.4064752999984194,,,,,,,p162,2022_Apr_14_1114,training+cueing,2021.1.4,59.720995452934794,
Friend.png,Stranger,Friend,m,3.2,19,29,99,,,,,0,0,0,0,,,,,1,9,21,5,,,,,,,,,,,,,,,,,,,,,1.781,1.737,189.1099516999966,None,,,,,,,,,,,,,,,,,,,,189.65118320001056,190.1551879000035,0.5078832699800842,1.0081947699800367,190.13852020000922,190.2552330000035,190.13852020000922,190.2552330000035,190.23857190000126,None,m,1,190.23857190000126,None,1.3778757999971276,,,,,,,p162,2022_Apr_14_1114,training+cueing,2021.1.4,59.720995452934794,
Friend.png,Friend,Friend,c,2,12,22,92,,,,,0,0,0,0,,,,,1,10,22,10,,,,,,,,,,,,,,,,,,,,,1.498,2.124,191.7505613000103,None,,,,,,,,,,,,,,,,,,,,192.28757909999695,192.79043400000955,0.5039062700088834,1.004489070008276,192.77374810000765,192.8910157000064,192.77374810000765,192.8910157000064,192.87378370000806,None,c,1,192.87378370000806,None,0.7911027999944054,,,,,,,p162,2022_Apr_14_1114,training+cueing,2021.1.4,59.720995452934794,
Stranger.png,Stranger,Stranger,c,3,13,23,93,,,,,0,0,0,0,,,,,1,11,23,8,,,,,,,,,,,,,,,,,,,,,1.635,1.738,193.79843650000112,None,,,,,,,,,,,,,,,,,,,,194.34060160000809,194.8419314000057,0.5024744699912844,1.0027969699876849,194.82523290000972,194.94197100000747,194.82523290000972,194.94197100000747,194.92528999999922,None,c,1,194.92528999999922,None,1.203121500002453,,,,,,,p162,2022_Apr_14_1114,training+cueing,2021.1.4,59.720995452934794,
Self.png,Friend,Self ,m,2.1,16,26,96,,,,,0,0,0,0,,,,,2,0,24,1,,,,,,,,,,,,,,,,,,,,,1.622,2.405,196.26553540000168,None,,,,,,,,,,,,,,,,,,,,196.80590050001047,197.31039730001066,0.5061102699983167,1.0063725700019859,197.29388560001098,197.4107581999997,197.29388560001098,197.4107581999997,197.39395860000513,None,m,1,197.39395860000513,None,1.0225263000029372,,,,,,,p162,2022_Apr_14_1114,training+cueing,2021.1.4,59.720995452934794,
Stranger.png,Friend,Stranger,m,2.3,17,27,97,,,,,0,0,0,0,,,,,2,1,25,7,,,,,,,,,,,,,,,,,,,,,1.413,1.608,198.55217200001061,None,,,,,,,,,,,,,,,,,,,,199.1022232999967,199.61259440000867,0.5032685700134607,1.0035395700106164,199.59537200001068,199.712116900002,199.59537200001068,199.712116900002,199.69540979999874,None,None,0,199.69540979999874,None,,,,,,,,p162,2022_Apr_14_1114,training+cueing,2021.1.4,59.720995452934794,
Self.png,You,Self ,c,1,11,21,91,,,,,0,0,0,0,,,,,2,2,26,0,,,,,,,,,,,,,,,,,,,,,1.543,2.061,201.21816519999993,None,,,,,,,,,,,,,,,,,,,,201.78482939999958,202.29779170000984,0.5072325599903706,1.0080970599810826,202.28008189999673,202.38075009999739,202.28008189999673,202.38075009999739,202.38075009999739,None,c,1,202.38075009999739,None,0.77170379999734,,,,,,,p162,2022_Apr_14_1114,training+cueing,2021.1.4,59.720995452934794,
Self.png,You,Self ,c,1,11,21,91,,,,,0,0,0,0,,,,,2,3,27,9,,,,,,,,,,,,,,,,,,,,,1.634,1.754,203.28762080000888,None,,,,,,,,,,,,,,,,,,,,203.82559410000977,204.3321305999998,0.5114691700000549,1.0117934699956095,204.31540649999806,204.4154772000038,204.31540649999806,204.4154772000038,204.4154772000038,None,c,1,204.4154772000038,None,0.6249915999942459,,,,,,,p162,2022_Apr_14_1114,training+cueing,2021.1.4,59.720995452934794,
Stranger.png,Stranger,Stranger,c,3,13,23,93,,,,,0,0,0,0,,,,,2,4,28,8,,,,,,,,,,,,,,,,,,,,,1.776,2.055,205.17241440000362,None,,,,,,,,,,,,,,,,,,,,205.7146483999968,206.21680550000747,0.5048857700021472,1.0051893700001528,206.20015299999795,206.31684539999696,206.20015299999795,206.31684539999696,206.30019530000573,None,c,1,206.30019530000573,None,1.3002297000057297,,,,,,,p162,2022_Apr_14_1114,training+cueing,2021.1.4,59.720995452934794,
Self.png,Stranger,Self ,m,3.1,18,28,98,,,,,0,0,0,0,,,,,2,5,29,2,,,,,,,,,,,,,,,,,,,,,1.646,1.862,207.72419350000564,None,,,,,,,,,,,,,,,,,,,,208.27918969999882,208.7853524000093,0.5121773599967128,1.0130122599948663,208.76869199999783,208.88537190000352,208.76869199999783,208.88537190000352,208.86870330000238,None,m,1,208.86870330000238,None,1.0038678999990225,,,,,,,p162,2022_Apr_14_1114,training+cueing,2021.1.4,59.720995452934794,
Friend.png,You,Friend,m,1.2,14,24,94,,,,,0,0,0,0,,,,,2,6,30,3,,,,,,,,,,,,,,,,,,,,,1.415,1.455,210.01063859999704,None,,,,,,,,,,,,,,,,,,,,210.5509280999977,211.05363809999835,0.5036518699926091,1.0039159699808806,211.03699150000466,211.13704339999822,211.03699150000466,211.13704339999822,211.13704339999822,None,m,1,211.13704339999822,None,1.1514308000041638,,,,,,,p162,2022_Apr_14_1114,training+cueing,2021.1.4,59.720995452934794,
Stranger.png,Stranger,Stranger,c,3,13,23,93,,,,,0,0,0,0,,,,,2,7,31,11,,,,,,,,,,,,,,,,,,,,,1.508,1.504,212.41058799999882,None,,,,,,,,,,,,,,,,,,,,212.96535009999934,213.47200190000876,0.5141783599974588,1.0144791600032477,213.45538670000678,213.57210810000834,213.45538670000678,213.57210810000834,213.55552130000433,None,c,1,213.55552130000433,None,1.1969564000028186,,,,,,,p162,2022_Apr_14_1114,training+cueing,2021.1.4,59.720995452934794,
Friend.png,Friend,Friend,c,2,12,22,92,,,,,0,0,0,0,,,,,2,8,32,4,,,,,,,,,,,,,,,,,,,,,1.551,1.67,214.88013900000078,None,,,,,,,,,,,,,,,,,,,,215.4197955999989,215.9238034000009,0.5062794699770166,1.0065775699767983,215.90716250000696,216.0238498000108,215.90716250000696,216.0238498000108,216.00719200000458,None,m,0,216.00719200000458,None,1.1612399000005098,,,,,,,p162,2022_Apr_14_1114,training+cueing,2021.1.4,59.720995452934794,
Friend.png,Friend,Friend,c,2,12,22,92,,,,,0,0,0,0,,,,,2,9,33,10,,,,,,,,,,,,,,,,,,,,,1.48,2.351,217.29756669999915,None,,,,,,,,,,,,,,,,,,,,217.8355950999976,218.34222669999872,0.5117345699982252,1.0120674700010568,218.32553950000147,218.44228000000294,218.32553950000147,218.44228000000294,218.42556400000467,None,c,1,218.42556400000467,None,0.5349406000023009,,,,,,,p162,2022_Apr_14_1114,training+cueing,2021.1.4,59.720995452934794,
Friend.png,Stranger,Friend,m,3.2,19,29,99,,,,,0,0,0,0,,,,,2,10,34,5,,,,,,,,,,,,,,,,,,,,,1.403,2.24,219.08249950000027,None,,,,,,,,,,,,,,,,,,,,219.62931509999908,220.14355410001008,0.5050729700014926,1.005326669997885,220.1102014000062,220.21022540000558,220.1102014000062,220.21022540000558,220.21022540000558,None,m,1,220.21022540000558,None,0.7182445000071311,,,,,,,p162,2022_Apr_14_1114,training+cueing,2021.1.4,59.720995452934794,
Stranger.png,You,Stranger,m,1.3,15,25,95,,,,,0,0,0,0,,,,,2,11,35,6,,,,,,,,,,,,,,,,,,,,,1.758,2.158,221.05113069999788,None,,,,,,,,,,,,,,,,,,,,221.58955160000187,222.09497250001004,0.5075075700151501,1.0076984700135654,222.0783381000074,222.17833840000094,222.0783381000074,222.17833840000094,222.17833840000094,None,c,0,222.17833840000094,None,0.6540988999913679,,,,,,,p162,2022_Apr_14_1114,training+cueing,2021.1.4,59.720995452934794,
Stranger.png,Stranger,Stranger,c,3,13,23,93,,,,,0,0,0,0,,,,,3,0,36,8,,,,,,,,,,,,,,,,,,,,,1.677,1.269,222.96821869999985,None,,,,,,,,,,,,,,,,,,,,223.5104652000009,224.01299680001102,0.5056746700138319,1.005891970009543,223.9963904000033,224.11305830000492,223.9963904000033,224.11305830000492,224.09637670000666,None,None,0,224.09637670000666,None,,,,,,,,p162,2022_Apr_14_1114,training+cueing,2021.1.4,59.720995452934794,
Stranger.png,Friend,Stranger,m,2.3,17,27,97,,,,,0,0,0,0,,,,,3,1,37,7,,,,,,,,,,,,,,,,,,,,,1.74,2.252,225.88523830000486,None,,,,,,,,,,,,,,,,,,,,226.4262899000023,226.9317660000088,0.5107620699855033,1.0110922699968796,226.91504420001002,227.0318169000093,226.91504420001002,227.0318169000093,227.0151113000029,None,c,0,227.0151113000029,None,1.4172260999912396,,,,,,,p162,2022_Apr_14_1114,training+cueing,2021.1.4,59.720995452934794,
Stranger.png,Stranger,Stranger,c,3,13,23,93,,,,,0,0,0,0,,,,,3,2,38,11,,,,,,,,,,,,,,,,,,,,,1.715,2.42,228.55555250000907,None,,,,,,,,,,,,,,,,,,,,229.09596970000712,229.60038810000697,0.5069057699874975,1.0072405699902447,229.5836483000021,229.70044260000577,229.5836483000021,229.70044260000577,229.6837142000004,None,m,0,229.6837142000004,None,1.1007542000006652,,,,,,,p162,2022_Apr_14_1114,training+cueing,2021.1.4,59.720995452934794,
Self.png,Friend,Self ,m,2.1,16,26,96,,,,,0,0,0,0,,,,,3,3,39,1,,,,,,,,,,,,,,,,,,,,,1.631,2.261,230.9081431000086,None,,,,,,,,,,,,,,,,,,,,231.44896110000263,231.95206619999954,0.5064080699812621,1.0067062699818052,231.93538049999916,232.05210339999758,231.93538049999916,232.05210339999758,232.03541930000938,None,m,1,232.03541930000938,None,0.957098999992013,,,,,,,p162,2022_Apr_14_1114,training+cueing,2021.1.4,59.720995452934794,
Self.png,You,Self ,c,1,11,21,91,,,,,0,0,0,0,,,,,3,4,40,9,,,,,,,,,,,,,,,,,,,,,1.606,1.312,233.12676260000444,None,,,,,,,,,,,,,,,,,,,,233.6669857000088,234.17034730000887,0.5029883699899074,1.0032893699972192,234.15364030000637,234.25371940000332,234.15364030000637,234.25371940000332,234.25371940000332,None,c,1,234.25371940000332,None,0.8346835000120336,,,,,,,p162,2022_Apr_14_1114,training+cueing,2021.1.4,59.720995452934794,
Self.png,You,Self ,c,1,11,21,91,,,,,0,0,0,0,,,,,3,5,41,0,,,,,,,,,,,,,,,,,,,,,1.775,1.944,235.21055879999767,None,,,,,,,,,,,,,,,,,,,,235.74832130000868,236.2551613000105,0.5143916699744295,1.0146908699825872,236.23849489999702,236.33856960000412,236.23849489999702,236.33856960000412,236.33856960000412,None,c,1,236.33856960000412,None,0.49386870001035277,,,,,,,p162,2022_Apr_14_1114,training+cueing,2021.1.4,59.720995452934794,
Friend.png,You,Friend,m,1.2,14,24,94,,,,,0,0,0,0,,,,,3,6,42,3,,,,,,,,,,,,,,,,,,,,,1.495,2.185,236.96499730000505,None,,,,,,,,,,,,,,,,,,,,237.50107150000986,238.00642340000195,0.5114426700165495,1.0117474700091407,237.9897701000009,238.089836500003,237.9897701000009,238.089836500003,238.089836500003,None,m,1,238.089836500003,None,1.0144748000020627,,,,,,,p162,2022_Apr_14_1114,training+cueing,2021.1.4,59.720995452934794,
Friend.png,Friend,Friend,c,2,12,22,92,,,,,0,0,0,0,,,,,3,7,43,4,,,,,,,,,,,,,,,,,,,,,1.668,1.204,239.22960570000578,None,,,,,,,,,,,,,,,,,,,,239.78022139999666,240.29158750000352,0.5039094699895941,1.0042066699970746,240.27485810000508,240.3916281999991,240.27485810000508,240.3916281999991,240.3749123000016,None,c,1,240.3749123000016,None,1.2734129000018584,,,,,,,p162,2022_Apr_14_1114,training+cueing,2021.1.4,59.720995452934794,
Friend.png,Stranger,Friend,m,3.2,19,29,99,,,,,0,0,0,0,,,,,3,8,44,5,,,,,,,,,,,,,,,,,,,,,1.765,1.68,241.781461400009,None,,,,,,,,,,,,,,,,,,,,242.3228369999997,242.82667540000693,0.5073245699895779,1.0082344699912937,242.80992010000045,242.9266612000065,242.80992010000045,242.9266612000065,242.90994019999926,None,m,1,242.90994019999926,None,1.1064293999952497,,,,,,,p162,2022_Apr_14_1114,training+cueing,2021.1.4,59.720995452934794,
Friend.png,Friend,Friend,c,2,12,22,92,,,,,0,0,0,0,,,,,3,9,45,10,,,,,,,,,,,,,,,,,,,,,1.532,1.702,244.1512453000032,None,,,,,,,,,,,,,,,,,,,,244.69011150000733,245.2074508000078,0.5278636700095376,1.0274036699993303,245.19581910000124,245.29519390000496,245.19581910000124,245.29519390000496,245.2784762000083,None,c,1,245.2784762000083,None,0.881923499997356,,,,,,,p162,2022_Apr_14_1114,training+cueing,2021.1.4,59.720995452934794,
Self.png,Stranger,Self ,m,3.1,18,28,98,,,,,0,0,0,0,,,,,3,10,46,2,,,,,,,,,,,,,,,,,,,,,1.402,2.189,246.28667050000513,None,,,,,,,,,,,,,,,,,,,,246.82851030000893,247.33002850000048,0.5009839699923759,1.0012870699865744,247.31332070000644,247.43006500000774,247.31332070000644,247.43006500000774,247.43006500000774,None,m,1,247.43006500000774,None,1.2424116000038339,,,,,,,p162,2022_Apr_14_1114,training+cueing,2021.1.4,59.720995452934794,
Stranger.png,You,Stranger,m,1.3,15,25,95,,,,,0,0,0,0,,,,,3,11,47,6,,,,,,,,,,,,,,,,,,,,,1.71,2.357,248.8054950000078,None,,,,,,,,,,,,,,,,,,,,249.34688520000782,249.84838270000182,0.5027994699921692,1.0030363699916052,249.83172200000263,249.931719900007,249.83172200000263,249.931719900007,249.931719900007,None,m,1,249.931719900007,None,0.9645963999937521,,,,,,,p162,2022_Apr_14_1114,training+cueing,2021.1.4,59.720995452934794,
Stranger.png,Friend,Stranger,m,2.3,17,27,97,,,,,0,0,0,0,,,,,4,0,48,7,,,,,,,,,,,,,,,,,,,,,1.402,2.172,251.0220549000078,None,,,,,,,,,,,,,,,,,,,,251.56156529999862,252.06658810000226,0.5071691699995426,1.0077269699977478,252.04993550000654,252.16670129999693,252.04993550000654,252.16670129999693,252.1501641000068,None,m,1,252.1501641000068,None,1.162355699998443,,,,,,,p162,2022_Apr_14_1114,training+cueing,2021.1.4,59.720995452934794,
Friend.png,Friend,Friend,c,2,12,22,92,,,,,0,0,0,0,,,,,4,1,49,10,,,,,,,,,,,,,,,,,,,,,1.514,2.074,253.44146380000166,None,,,,,,,,,,,,,,,,,,,,253.97986000000674,254.4850124000077,0.5089192699815612,1.0098318699747324,254.46829109999817,254.5850802000059,254.46829109999817,254.5850802000059,254.5683560000034,None,c,1,254.5683560000034,None,1.112044400011655,,,,,,,p162,2022_Apr_14_1114,training+cueing,2021.1.4,59.720995452934794,
Self.png,You,Self ,c,1,11,21,91,,,,,0,0,0,0,,,,,4,2,50,0,,,,,,,,,,,,,,,,,,,,,1.507,1.775,255.80994620001002,None,,,,,,,,,,,,,,,,,,,,256.3488757000014,256.8534292999975,0.5095524700009264,1.009787970004254,256.8367622000078,256.93676110000524,256.8367622000078,256.93676110000524,256.93676110000524,None,c,1,256.93676110000524,None,0.7435856999945827,,,,,,,p162,2022_Apr_14_1114,training+cueing,2021.1.4,59.720995452934794,
Friend.png,Stranger,Friend,m,3.2,19,29,99,,,,,0,0,0,0,,,,,4,3,51,5,,,,,,,,,,,,,,,,,,,,,1.484,2.275,257.81390130000364,None,,,,,,,,,,,,,,,,,,,,258.35116800000833,258.8550088000047,0.5046160699857865,1.0054658699809806,258.8381561999995,258.9548907999997,258.8381561999995,258.9548907999997,258.93819529999746,None,m,1,258.93819529999746,None,1.3501724999950966,,,,,,,p162,2022_Apr_14_1114,training+cueing,2021.1.4,59.720995452934794,
Self.png,Friend,Self ,m,2.1,16,26,96,,,,,0,0,0,0,,,,,4,4,52,1,,,,,,,,,,,,,,,,,,,,,1.564,2.039,260.4132845999993,None,,,,,,,,,,,,,,,,,,,,260.95487960000173,261.4567504000006,0.5034922699996969,1.0037630699953297,261.4400822000025,261.5567684999987,261.4400822000025,261.5567684999987,261.5400917000079,None,m,1,261.5400917000079,None,0.8763274000084493,,,,,,,p162,2022_Apr_14_1114,training+cueing,2021.1.4,59.720995452934794,
Self.png,Stranger,Self ,m,3.1,18,28,98,,,,,0,0,0,0,,,,,4,5,53,2,,,,,,,,,,,,,,,,,,,,,1.727,1.974,262.5468983000028,None,,,,,,,,,,,,,,,,,,,,263.09854360000463,263.60828780000156,0.5027759700024035,1.003171670003212,263.5915959999984,263.7083371000044,263.5915959999984,263.7083371000044,263.69179710000753,None,m,1,263.69179710000753,None,0.9647153999976581,,,,,,,p162,2022_Apr_14_1114,training+cueing,2021.1.4,59.720995452934794,
Friend.png,Friend,Friend,c,2,12,22,92,,,,,0,0,0,0,,,,,4,6,54,4,,,,,,,,,,,,,,,,,,,,,1.567,2.165,264.7860459000076,None,,,,,,,,,,,,,,,,,,,,265.324025000009,265.82659070000227,0.5031195699993987,1.003417569998419,265.80987409999943,265.92662720000953,265.80987409999943,265.92662720000953,265.9098923999991,None,c,1,265.9098923999991,None,0.9386522999993758,,,,,,,p162,2022_Apr_14_1114,training+cueing,2021.1.4,59.720995452934794,
Self.png,You,Self ,c,1,11,21,91,,,,,0,0,0,0,,,,,4,7,55,9,,,,,,,,,,,,,,,,,,,,,1.766,2.031,266.9870525000006,None,,,,,,,,,,,,,,,,,,,,267.5237858000037,268.0281632999977,0.5085252700082492,1.0088497700053267,268.0114043000067,268.11152440001024,268.0114043000067,268.11152440001024,268.11152440001024,None,c,1,268.11152440001024,None,1.0407238000043435,,,,,,,p162,2022_Apr_14_1114,training+cueing,2021.1.4,59.720995452934794,
Friend.png,You,Friend,m,1.2,14,24,94,,,,,0,0,0,0,,,,,4,8,56,3,,,,,,,,,,,,,,,,,,,,,1.765,1.433,269.28484380000737,None,,,,,,,,,,,,,,,,,,,,269.82078930000716,270.32980790000875,0.49912846997904126,0.9994480699824635,270.296408299997,270.3964859999978,270.296408299997,270.3964859999978,270.3964859999978,None,m,1,270.3964859999978,None,1.0758398000034504,,,,,,,p162,2022_Apr_14_1114,training+cueing,2021.1.4,59.720995452934794,
Stranger.png,Stranger,Stranger,c,3,13,23,93,,,,,0,0,0,0,,,,,4,9,57,8,,,,,,,,,,,,,,,,,,,,,1.795,2.378,271.6033349000063,None,,,,,,,,,,,,,,,,,,,,272.14592500000435,272.6481536000065,0.50498667001375,1.005304670019541,272.63143839999975,272.748221700007,272.63143839999975,272.748221700007,272.73151569999754,None,c,1,272.73151569999754,None,1.5729590999981156,,,,,,,p162,2022_Apr_14_1114,training+cueing,2021.1.4,59.720995452934794,
Stranger.png,Stranger,Stranger,c,3,13,23,93,,,,,0,0,0,0,,,,,4,10,58,11,,,,,,,,,,,,,,,,,,,,,1.546,2.058,274.4389011000021,None,,,,,,,,,,,,,,,,,,,,274.975600500009,275.483510799997,0.5143176700075855,1.0148020699998597,275.46681060000265,275.5836976999999,275.46681060000265,275.5836976999999,275.56703299999936,None,c,1,275.56703299999936,None,0.8013696999987587,,,,,,,p162,2022_Apr_14_1114,training+cueing,2021.1.4,59.720995452934794,
Stranger.png,You,Stranger,m,1.3,15,25,95,,,,,0,0,0,0,,,,,4,11,59,6,,,,,,,,,,,,,,,,,,,,,1.533,2.111,276.49174330000824,None,,,,,,,,,,,,,,,,,,,,277.03328450000845,277.5350124000106,0.502149370018742,1.0024200700136134,277.5183584000042,277.61840649999795,277.5183584000042,277.61840649999795,277.61840649999795,None,m,1,277.61840649999795,None,0.9424692000029609,,,,,,,p162,2022_Apr_14_1114,training+cueing,2021.1.4,59.720995452934794,
Self.png,You,Self ,c,1,11,21,91,,,,,0,0,0,0,,,,,5,0,60,0,,,,,,,,,,,,,,,,,,,,,1.624,2.345,278.69533539999975,None,,,,,,,,,,,,,,,,,,,,279.2315507000021,279.736593499998,0.5089089700049954,1.0092193700111238,279.7199260000052,279.81998909999675,279.7199260000052,279.81998909999675,279.81998909999675,None,c,1,279.81998909999675,None,0.5482553000038024,,,,,,,p162,2022_Apr_14_1114,training+cueing,2021.1.4,59.720995452934794,
Self.png,Stranger,Self ,m,3.1,18,28,98,,,,,0,0,0,0,,,,,5,1,61,2,,,,,,,,,,,,,,,,,,,,,1.708,2.421,280.49404330000107,None,,,,,,,,,,,,,,,,,,,,281.0348010000016,281.53794599999674,0.505605669983197,1.00587496998196,281.5212392000103,281.63796710000315,281.5212392000103,281.63796710000315,281.621264100002,None,m,1,281.621264100002,None,1.0193625999963842,,,,,,,p162,2022_Apr_14_1114,training+cueing,2021.1.4,59.720995452934794,
Friend.png,You,Friend,m,1.2,14,24,94,,,,,0,0,0,0,,,,,5,2,62,3,,,,,,,,,,,,,,,,,,,,,1.703,1.387,282.7657990000007,None,,,,,,,,,,,,,,,,,,,,283.3259793000034,283.83973390000756,0.508897360006813,1.0095266599964816,283.82307080000464,283.9231276000064,283.82307080000464,283.9231276000064,283.9231276000064,None,m,1,283.9231276000064,None,0.8612422000005608,,,,,,,p162,2022_Apr_14_1114,training+cueing,2021.1.4,59.720995452934794,
Self.png,You,Self ,c,1,11,21,91,,,,,0,0,0,0,,,,,5,3,63,9,,,,,,,,,,,,,,,,,,,,,1.523,2.198,284.9142722000106,None,,,,,,,,,,,,,,,,,,,,285.45349450000504,285.95775670000876,0.509169369994197,1.009462869988056,285.94108080001024,286.04116619999695,285.94108080001024,286.04116619999695,286.04116619999695,None,c,1,286.04116619999695,None,0.6791468000010354,,,,,,,p162,2022_Apr_14_1114,training+cueing,2021.1.4,59.720995452934794,
Friend.png,Friend,Friend,c,2,12,22,92,,,,,0,0,0,0,,,,,5,4,64,4,,,,,,,,,,,,,,,,,,,,,1.795,1.69,286.8483475000103,None,,,,,,,,,,,,,,,,,,,,287.3980642000097,287.9091455000016,0.5032809700205689,1.0035786700173048,287.89249030000065,288.0092221000086,287.89249030000065,288.0092221000086,287.9925493000046,None,c,1,287.9925493000046,None,0.743792699999176,,,,,,,p162,2022_Apr_14_1114,training+cueing,2021.1.4,59.720995452934794,
Self.png,Friend,Self ,m,2.1,16,26,96,,,,,0,0,0,0,,,,,5,5,65,1,,,,,,,,,,,,,,,,,,,,,1.623,2.094,288.8663661000028,None,,,,,,,,,,,,,,,,,,,,289.41993899999943,289.927360200003,0.5150869600038277,1.0151496600010432,289.91082469999674,290.0273126000102,289.91082469999674,290.0273126000102,290.0106705000071,None,m,1,290.0106705000071,None,0.9976058000029298,,,,,,,p162,2022_Apr_14_1114,training+cueing,2021.1.4,59.720995452934794,
Stranger.png,You,Stranger,m,1.3,15,25,95,,,,,0,0,0,0,,,,,5,6,66,6,,,,,,,,,,,,,,,,,,,,,1.753,1.918,291.1341611000098,None,,,,,,,,,,,,,,,,,,,,291.6774163000082,292.17893020001065,0.5069459700025618,1.0072498700028518,292.1622445000103,292.2622771000024,292.1622445000103,292.2622771000024,292.2622771000024,None,m,1,292.2622771000024,None,0.8581438999972306,,,,,,,p162,2022_Apr_14_1114,training+cueing,2021.1.4,59.720995452934794,
Stranger.png,Stranger,Stranger,c,3,13,23,93,,,,,0,0,0,0,,,,,5,7,67,8,,,,,,,,,,,,,,,,,,,,,1.525,1.825,293.25396139999793,None,,,,,,,,,,,,,,,,,,,,293.7955981999985,294.297152500003,0.5015482699964195,1.0018224700033898,294.28045000000566,294.39719650000916,294.28045000000566,294.39719650000916,294.39719650000916,None,c,1,294.39719650000916,None,1.0590904999990016,,,,,,,p162,2022_Apr_14_1114,training+cueing,2021.1.4,59.720995452934794,
Stranger.png,Stranger,Stranger,c,3,13,23,93,,,,,0,0,0,0,,,,,5,8,68,11,,,,,,,,,,,,,,,,,,,,,1.798,1.549,295.58810940000694,None,,,,,,,,,,,,,,,,,,,,296.1400913000107,296.64878640000825,0.4999311599822249,1.0001730599906296,296.6155140000046,296.7155223000009,296.6155140000046,296.7155223000009,296.7155223000009,None,c,1,296.7155223000009,None,0.5489448000007542,,,,,,,p162,2022_Apr_14_1114,training+cueing,2021.1.4,59.720995452934794,
Friend.png,Friend,Friend,c,2,12,22,92,,,,,0,0,0,0,,,,,5,9,69,10,,,,,,,,,,,,,,,,,,,,,1.782,1.298,297.3928414999973,None,,,,,,,,,,,,,,,,,,,,297.92977440000686,298.4334758000041,0.5065358700085199,1.0068583700049203,298.4167601000081,298.5335192000057,298.4167601000081,298.5335192000057,298.51679310000327,None,c,1,298.51679310000327,None,0.715439299994614,,,,,,,p162,2022_Apr_14_1114,training+cueing,2021.1.4,59.720995452934794,
Stranger.png,Friend,Stranger,m,2.3,17,27,97,,,,,0,0,0,0,,,,,5,10,70,7,,,,,,,,,,,,,,,,,,,,,1.52,1.497,299.35689520000597,None,,,,,,,,,,,,,,,,,,,,299.89518600000883,300.4016974999977,0.5109451699972851,1.0118142699939199,300.384876600001,300.50158969999757,300.384876600001,300.50158969999757,300.4848951000022,None,c,0,300.4848951000022,None,0.9074077000113903,,,,,,,p162,2022_Apr_14_1114,training+cueing,2021.1.4,59.720995452934794,
Friend.png,Stranger,Friend,m,3.2,19,29,99,,,,,0,0,0,0,,,,,5,11,71,5,,,,,,,,,,,,,,,,,,,,,1.629,2.379,301.52630189999763,None,,,,,,,,,,,,,,,,,,,,302.06882850000693,302.569743,0.5022425700008171,1.0027109700022265,302.55311410001013,302.66993810000713,302.55311410001013,302.66993810000713,302.65324830000463,None,m,1,302.65324830000463,None,0.9790818000037689,,,,,,,p162,2022_Apr_14_1114,training+cueing,2021.1.4,59.720995452934794,
Self.png,You,Self ,c,1,11,21,91,,,,,0,0,0,0,,,,,6,0,72,0,,,,,,,,,,,,,,,,,,,,,1.552,1.745,303.76119650001056,None,,,,,,,,,,,,,,,,,,,,304.29918180000095,304.8047254999983,0.509069069987163,1.0095884699840099,304.788037899998,304.8880984999996,304.788037899998,304.8880984999996,304.8880984999996,None,c,1,304.8880984999996,None,0.6480710000032559,,,,,,,p162,2022_Apr_14_1114,training+cueing,2021.1.4,59.720995452934794,
Friend.png,Friend,Friend,c,2,12,22,92,,,,,0,0,0,0,,,,,6,1,73,4,,,,,,,,,,,,,,,,,,,,,1.498,1.434,305.661703100006,None,,,,,,,,,,,,,,,,,,,,306.2032637000084,306.70609140000306,0.5069132700155023,1.0072197700210381,306.6894039000035,306.806150000004,306.6894039000035,306.806150000004,306.78941230000055,None,c,1,306.78941230000055,None,0.6988098000001628,,,,,,,p162,2022_Apr_14_1114,training+cueing,2021.1.4,59.720995452934794,
Self.png,Friend,Self ,m,2.1,16,26,96,,,,,0,0,0,0,,,,,6,2,74,1,,,,,,,,,,,,,,,,,,,,,1.402,2.189,307.61265399999684,None,,,,,,,,,,,,,,,,,,,,308.15175140000065,308.65748809999786,0.5115097699745093,1.0118048699805513,308.64082359999884,308.7575502000109,308.64082359999884,308.7575502000109,308.7408449000068,None,m,1,308.7408449000068,None,0.9874801999976626,,,,,,,p162,2022_Apr_14_1114,training+cueing,2021.1.4,59.720995452934794,
Friend.png,Stranger,Friend,m,3.2,19,29,99,,,,,0,0,0,0,,,,,6,3,75,5,,,,,,,,,,,,,,,,,,,,,1.545,2.495,309.86420320000616,None,,,,,,,,,,,,,,,,,,,,310.405700000003,310.909103900005,0.5050084700196749,1.0052770700131077,310.89250719999836,311.00916990000405,310.89250719999836,311.00916990000405,310.9925023000105,None,m,1,310.9925023000105,None,0.9756875000020955,,,,,,,p162,2022_Apr_14_1114,training+cueing,2021.1.4,59.720995452934794,
Stranger.png,Friend,Stranger,m,2.3,17,27,97,,,,,0,0,0,0,,,,,6,4,76,7,,,,,,,,,,,,,,,,,,,,,1.783,2.069,312.10050559999945,None,,,,,,,,,,,,,,,,,,,,312.640278699997,313.1440816999966,0.5075570699846139,1.007854169991333,313.1273974000069,313.2441239000036,313.1273974000069,313.2441239000036,313.22744100001,None,m,1,313.22744100001,None,0.9489941999927396,,,,,,,p162,2022_Apr_14_1114,training+cueing,2021.1.4,59.720995452934794,
Friend.png,You,Friend,m,1.2,14,24,94,,,,,0,0,0,0,,,,,6,5,77,3,,,,,,,,,,,,,,,,,,,,,1.659,1.844,314.30481640000653,None,,,,,,,,,,,,,,,,,,,,314.84523259999696,315.34565109999676,0.501355770000373,1.001651970000239,315.32897590000357,315.4290340000007,315.32897590000357,315.4290340000007,315.4290340000007,None,m,1,315.4290340000007,None,0.9231616999895778,,,,,,,p162,2022_Apr_14_1114,training+cueing,2021.1.4,59.720995452934794,
Stranger.png,You,Stranger,m,1.3,15,25,95,,,,,0,0,0,0,,,,,6,6,78,6,,,,,,,,,,,,,,,,,,,,,1.729,2.296,316.486138200009,None,,,,,,,,,,,,,,,,,,,,317.02466589999676,317.53054880000127,0.5102340699813794,1.010548669975833,317.51392060000217,317.6139586000063,317.51392060000217,317.6139586000063,317.6139586000063,None,m,1,317.6139586000063,None,1.0583339000004344,,,,,,,p162,2022_Apr_14_1114,training+cueing,2021.1.4,59.720995452934794,
Self.png,Stranger,Self ,m,3.1,18,28,98,,,,,0,0,0,0,,,,,6,7,79,2,,,,,,,,,,,,,,,,,,,,,1.51,1.905,318.80415530000755,None,,,,,,,,,,,,,,,,,,,,319.34489320000284,319.84893659999943,0.506878569998662,1.0071402699977625,319.8322693000082,319.9489770000073,319.8322693000082,319.9489770000073,319.9322700000048,None,m,1,319.9322700000048,None,0.9643945999996504,,,,,,,p162,2022_Apr_14_1114,training+cueing,2021.1.4,59.720995452934794,
Stranger.png,Stranger,Stranger,c,3,13,23,93,,,,,0,0,0,0,,,,,6,8,80,11,,,,,,,,,,,,,,,,,,,,,1.412,2.486,321.026102600008,None,,,,,,,,,,,,,,,,,,,,321.5616074999998,322.06723390000116,0.508166869985871,1.0084177699900465,322.05055189999985,322.16726480000943,322.05055189999985,322.16726480000943,322.150570400001,None,c,1,322.150570400001,None,1.0016717999969842,,,,,,,p162,2022_Apr_14_1114,training+cueing,2021.1.4,59.720995452934794,
Self.png,You,Self ,c,1,11,21,91,,,,,0,0,0,0,,,,,6,9,81,9,,,,,,,,,,,,,,,,,,,,,1.8,2.086,323.27455349999946,None,,,,,,,,,,,,,,,,,,,,323.8159679000091,324.3188305000076,0.5063185699982569,1.006622269997024,324.3021257000073,324.4021919000079,324.3021257000073,324.4021919000079,324.4021919000079,None,c,1,324.4021919000079,None,0.6861409999983152,,,,,,,p162,2022_Apr_14_1114,training+cueing,2021.1.4,59.720995452934794,
Friend.png,Friend,Friend,c,2,12,22,92,,,,,0,0,0,0,,,,,6,10,82,10,,,,,,,,,,,,,,,,,,,,,1.73,1.653,325.22526800000924,None,,,,,,,,,,,,,,,,,,,,325.76698680000845,326.2702624000085,0.5060018699878128,1.0064255699835485,326.2536009000032,326.3702728000062,326.2536009000032,326.3702728000062,326.3536029000097,None,c,1,326.3536029000097,None,0.9910257000010461,,,,,,,p162,2022_Apr_14_1114,training+cueing,2021.1.4,59.720995452934794,
Stranger.png,Stranger,Stranger,c,3,13,23,93,,,,,0,0,0,0,,,,,6,11,83,8,,,,,,,,,,,,,,,,,,,,,1.643,1.99,327.4788632999989,None,,,,,,,,,,,,,,,,,,,,328.02073139999993,328.52190659999906,0.500368469991372,1.0006158699980006,328.5052125000075,328.621962899997,328.5052125000075,328.621962899997,328.621962899997,None,c,1,328.621962899997,None,1.3143113999976777,,,,,,,p162,2022_Apr_14_1114,training+cueing,2021.1.4,59.720995452934794,
Stranger.png,Stranger,Stranger,c,3,13,23,93,,,,,0,0,0,0,,,,,7,0,84,11,,,,,,,,,,,,,,,,,,,,,1.725,2.236,330.0627045000001,None,,,,,,,,,,,,,,,,,,,,330.60782270001073,331.1070510999998,0.5154073700105073,1.0156943700130796,331.1070510999998,331.207209900007,331.1070510999998,331.207209900007,331.207209900007,None,c,1,331.207209900007,None,0.6330312000063714,,,,,,,p162,2022_Apr_14_1114,training+cueing,2021.1.4,59.720995452934794,
Stranger.png,Stranger,Stranger,c,3,13,23,93,,,,,0,0,0,0,,,,,7,1,85,8,,,,,,,,,,,,,,,,,,,,,1.57,2.109,331.9639212000038,None,,,,,,,,,,,,,,,,,,,,332.5010026000091,333.00838959999965,0.5146957700053463,1.0149829700094415,332.99179080000613,333.10849430000235,332.99179080000613,333.10849430000235,333.09180619999825,None,c,1,333.09180619999825,None,0.6043554000061704,,,,,,,p162,2022_Apr_14_1114,training+cueing,2021.1.4,59.720995452934794,
Friend.png,Friend,Friend,c,2,12,22,92,,,,,0,0,0,0,,,,,7,2,86,4,,,,,,,,,,,,,,,,,,,,,1.572,1.717,333.8323201000021,None,,,,,,,,,,,,,,,,,,,,334.3727865999972,334.87645510000584,0.5061192699795356,1.0064129699749174,334.8597943000059,334.97648460000346,334.8597943000059,334.97648460000346,334.9598226000089,None,c,1,334.9598226000089,None,0.7844530000002123,,,,,,,p162,2022_Apr_14_1114,training+cueing,2021.1.4,59.720995452934794,
Stranger.png,Friend,Stranger,m,2.3,17,27,97,,,,,0,0,0,0,,,,,7,3,87,7,,,,,,,,,,,,,,,,,,,,,1.622,1.734,335.86658570000145,None,,,,,,,,,,,,,,,,,,,,336.40441940000164,336.9112802000018,0.5143810700101312,1.0147272700123722,336.89456850000715,337.01131670000905,336.89456850000715,337.01131670000905,336.994606799999,None,m,1,336.994606799999,None,0.9576541999995243,,,,,,,p162,2022_Apr_14_1114,training+cueing,2021.1.4,59.720995452934794,
Self.png,Friend,Self ,m,2.1,16,26,96,,,,,0,0,0,0,,,,,7,4,88,1,,,,,,,,,,,,,,,,,,,,,1.564,1.846,338.0851085000031,None,,,,,,,,,,,,,,,,,,,,338.6229316000099,339.12955019999936,0.5105439699982526,1.0108110699948156,339.1128955000022,339.2295770000055,339.1128955000022,339.2295770000055,339.21292740000354,None,c,0,339.21292740000354,None,1.3472977000055835,,,,,,,p162,2022_Apr_14_1114,training+cueing,2021.1.4,59.720995452934794,
Self.png,You,Self ,c,1,11,21,91,,,,,0,0,0,0,,,,,7,5,89,9,,,,,,,,,,,,,,,,,,,,,1.733,2.305,340.68675380000786,None,,,,,,,,,,,,,,,,,,,,341.2447519999987,341.748125099999,0.5064694600005168,1.0067435599921737,341.7314505999966,341.83149520000734,341.7314505999966,341.83149520000734,341.83149520000734,None,c,1,341.83149520000734,None,0.7928494000079809,,,,,,,p162,2022_Apr_14_1114,training+cueing,2021.1.4,59.720995452934794,
Friend.png,You,Friend,m,1.2,14,24,94,,,,,0,0,0,0,,,,,7,6,90,3,,,,,,,,,,,,,,,,,,,,,1.413,2.408,342.7547595000069,None,,,,,,,,,,,,,,,,,,,,343.29345209999883,343.79959940000845,0.5124484699772438,1.0127706699859118,343.78287540000747,343.88294690000475,343.78287540000747,343.88294690000475,343.88294690000475,None,m,1,343.88294690000475,None,0.837261300010141,,,,,,,p162,2022_Apr_14_1114,training+cueing,2021.1.4,59.720995452934794,
Self.png,Stranger,Self ,m,3.1,18,28,98,,,,,0,0,0,0,,,,,7,7,91,2,,,,,,,,,,,,,,,,,,,,,1.798,1.554,344.8564284000022,None,,,,,,,,,,,,,,,,,,,,345.39762390000396,345.90113500000734,0.5040483700140612,1.0044742700119969,345.88442850000865,346.0013067000109,345.88442850000865,346.0013067000109,345.9845944999979,None,m,1,345.9845944999979,None,0.943660999997519,,,,,,,p162,2022_Apr_14_1114,training+cueing,2021.1.4,59.720995452934794,
Friend.png,Stranger,Friend,m,3.2,19,29,99,,,,,0,0,0,0,,,,,7,8,92,5,,,,,,,,,,,,,,,,,,,,,1.647,1.763,347.0599423000094,None,,,,,,,,,,,,,,,,,,,,347.5983208000107,348.1026913000096,0.5079843700077618,1.0083307700115256,348.0859838000033,348.2027308000106,348.0859838000033,348.2027308000106,348.18606710000313,None,m,1,348.18606710000313,None,0.8861512000003131,,,,,,,p162,2022_Apr_14_1114,training+cueing,2021.1.4,59.720995452934794,
Friend.png,Friend,Friend,c,2,12,22,92,,,,,0,0,0,0,,,,,7,9,93,10,,,,,,,,,,,,,,,,,,,,,1.675,1.754,349.20913570000266,None,,,,,,,,,,,,,,,,,,,,349.7508174000104,350.2542279000045,0.5075929699960398,1.0078859700006433,350.23758840000664,350.35429339999973,350.23758840000664,350.35429339999973,350.33780609999667,None,c,1,350.33780609999667,None,1.0543752999947174,,,,,,,p162,2022_Apr_14_1114,training+cueing,2021.1.4,59.720995452934794,
Self.png,You,Self ,c,1,11,21,91,,,,,0,0,0,0,,,,,7,10,94,0,,,,,,,,,,,,,,,,,,,,,1.468,2.066,351.52801790001104,None,,,,,,,,,,,,,,,,,,,,352.0682269000099,352.5725878000085,0.5069879700022284,1.0072877700004028,352.55588949999947,352.65593010000885,352.55588949999947,352.65593010000885,352.65593010000885,None,c,1,352.65593010000885,None,0.8163832999998704,,,,,,,p162,2022_Apr_14_1114,training+cueing,2021.1.4,59.720995452934794,
Stranger.png,You,Stranger,m,1.3,15,25,95,,,,,0,0,0,0,,,,,7,11,95,6,,,,,,,,,,,,,,,,,,,,,1.663,1.705,353.5991999000107,None,,,,,,,,,,,,,,,,,,,,354.15167310000106,354.6574194999994,0.5114475599984871,1.0117638600058854,354.6407146999991,354.7407893000054,354.6407146999991,354.7407893000054,354.7407893000054,None,None,0,354.7407893000054,None,,,,,,,,p162,2022_Apr_14_1114,training+cueing,2021.1.4,59.720995452934794,
Self.png,You,Self ,c,1,11,21,91,,,,,0,0,0,0,,,,,8,0,96,9,,,,,,,,,,,,,,,,,,,,,1.595,2.136,356.5132483000052,None,,,,,,,,,,,,,,,,,,,,357.05345550000493,357.55955430000904,0.5104707700083964,1.0107576700102072,357.5428511000064,357.64289740000095,357.5428511000064,357.64289740000095,357.64289740000095,None,None,0,357.64289740000095,None,,,,,,,,p162,2022_Apr_14_1114,training+cueing,2021.1.4,59.720995452934794,
Stranger.png,Stranger,Stranger,c,3,13,23,93,,,,,0,0,0,0,,,,,8,1,97,11,,,,,,,,,,,,,,,,,,,,,1.647,1.481,359.3484373000101,None,,,,,,,,,,,,,,,,,,,,359.8919297000102,360.394990300003,0.5048643699847162,1.0052071699901717,360.37836550000065,360.49501650000457,360.37836550000065,360.49501650000457,360.4783390000084,None,None,0,360.4783390000084,None,,,,,,,,p162,2022_Apr_14_1114,training+cueing,2021.1.4,59.720995452934794,
Friend.png,Friend,Friend,c,2,12,22,92,,,,,0,0,0,0,,,,,8,2,98,10,,,,,,,,,,,,,,,,,,,,,1.694,2.257,362.2342876000039,None,,,,,,,,,,,,,,,,,,,,362.78405600000406,363.2971242000058,0.5082833699998446,1.008556269996916,363.2804415999999,363.3971601000085,363.2804415999999,363.3971601000085,363.38046840000607,None,c,1,363.38046840000607,None,0.9076729999942472,,,,,,,p162,2022_Apr_14_1114,training+cueing,2021.1.4,59.720995452934794,
Stranger.png,Stranger,Stranger,c,3,13,23,93,,,,,0,0,0,0,,,,,8,3,99,8,,,,,,,,,,,,,,,,,,,,,1.765,2.175,364.4207860000024,None,,,,,,,,,,,,,,,,,,,,364.9657808000047,365.46529819999705,0.5136818699975265,1.0145010699925479,365.46529819999705,365.5652875000087,365.46529819999705,365.5652875000087,365.5652875000087,None,None,0,365.5652875000087,None,,,,,,,,p162,2022_Apr_14_1114,training+cueing,2021.1.4,59.720995452934794,
Stranger.png,You,Stranger,m,1.3,15,25,95,,,,,0,0,0,0,,,,,8,4,100,6,,,,,,,,,,,,,,,,,,,,,1.766,2.173,367.4387895000109,None,,,,,,,,,,,,,,,,,,,,367.98056409999845,368.4840763000102,0.5067939699802082,1.0071067699900595,368.4673885000084,368.56744870000693,368.4673885000084,368.56744870000693,368.56744870000693,None,m,1,368.56744870000693,None,1.0807332999975188,,,,,,,p162,2022_Apr_14_1114,training+cueing,2021.1.4,59.720995452934794,
Stranger.png,Friend,Stranger,m,2.3,17,27,97,,,,,0,0,0,0,,,,,8,5,101,7,,,,,,,,,,,,,,,,,,,,,1.554,2.244,369.77464699999837,None,,,,,,,,,,,,,,,,,,,,370.3135408000089,370.8191705000063,0.5099696699908236,1.0103032699989853,370.802414100006,370.91913770000974,370.802414100006,370.91913770000974,370.90245570000843,None,None,0,370.90245570000843,None,,,,,,,,p162,2022_Apr_14_1114,training+cueing,2021.1.4,59.720995452934794,
Self.png,Stranger,Self ,m,3.1,18,28,98,,,,,0,0,0,0,,,,,8,6,102,2,,,,,,,,,,,,,,,,,,,,,1.78,2.284,372.5739653000055,None,,,,,,,,,,,,,,,,,,,,373.1170923000027,373.62111740000546,0.5058926700003212,1.0063642700115452,373.6044554000109,373.7211937000102,373.6044554000109,373.7211937000102,373.70448490000854,None,m,1,373.70448490000854,None,0.9517093000031309,,,,,,,p162,2022_Apr_14_1114,training+cueing,2021.1.4,59.720995452934794,
Friend.png,Friend,Friend,c,2,12,22,92,,,,,0,0,0,0,,,,,8,7,103,4,,,,,,,,,,,,,,,,,,,,,1.617,1.734,374.77805340000486,None,,,,,,,,,,,,,,,,,,,,375.3193156000052,375.8227055000025,0.5056897700123955,1.0060070700128563,375.8060592000111,375.92276760000095,375.8060592000111,375.92276760000095,375.9061062999972,None,c,1,375.9061062999972,None,0.7500456000125268,,,,,,,p162,2022_Apr_14_1114,training+cueing,2021.1.4,59.720995452934794,
Friend.png,Stranger,Friend,m,3.2,19,29,99,,,,,0,0,0,0,,,,,8,8,104,5,,,,,,,,,,,,,,,,,,,,,1.415,2.259,376.7799651000096,None,,,,,,,,,,,,,,,,,,,,377.3207747999986,377.82418999999936,0.5040946700173663,1.0043560700141825,377.8075091000064,377.92423950000375,377.8075091000064,377.92423950000375,377.9075204999972,None,m,1,377.9075204999972,None,1.3087010000017472,,,,,,,p162,2022_Apr_14_1114,training+cueing,2021.1.4,59.720995452934794,
Friend.png,You,Friend,m,1.2,14,24,94,,,,,0,0,0,0,,,,,8,9,105,3,,,,,,,,,,,,,,,,,,,,,1.437,1.326,379.3482234999974,None,,,,,,,,,,,,,,,,,,,,379.89703870000085,380.4093709000008,0.506674069998553,1.007214869998279,380.3926994000067,380.49291130001075,380.3926994000067,380.49291130001075,380.49291130001075,None,m,1,380.49291130001075,None,0.8192507000057958,,,,,,,p162,2022_Apr_14_1114,training+cueing,2021.1.4,59.720995452934794,
Self.png,You,Self ,c,1,11,21,91,,,,,0,0,0,0,,,,,8,10,106,0,,,,,,,,,,,,,,,,,,,,,1.586,2.473,381.4504592000012,None,,,,,,,,,,,,,,,,,,,,381.988133699997,382.49424280000676,0.5114792700187536,1.0117675700166728,382.4775262000039,382.5776259999984,382.4775262000039,382.5776259999984,382.5776259999984,None,c,1,382.5776259999984,None,0.7185355999972671,,,,,,,p162,2022_Apr_14_1114,training+cueing,2021.1.4,59.720995452934794,
Self.png,Friend,Self ,m,2.1,16,26,96,,,,,0,0,0,0,,,,,8,11,107,1,,,,,,,,,,,,,,,,,,,,,1.625,1.747,383.4344994999992,None,,,,,,,,,,,,,,,,,,,,383.97525800000585,384.4789737000101,0.5059652700001607,1.0062369700026466,384.46233850000135,384.57901960000163,384.46233850000135,384.57901960000163,384.56236080000235,None,None,0,384.56236080000235,None,,,,,,,,p162,2022_Apr_14_1114,training+cueing,2021.1.4,59.720995452934794,
Friend.png,Friend,Friend,c,2,12,22,92,,,,,0,0,0,0,,,,,9,0,108,10,,,,,,,,,,,,,,,,,,,,,1.689,1.424,386.30249139999796,None,,,,,,,,,,,,,,,,,,,,386.8416237000056,387.34768360000453,0.5115619700081879,1.0118509699968854,387.3310330000095,387.44777949999843,387.3310330000095,387.44777949999843,387.43106960000296,None,None,0,387.43106960000296,None,,,,,,,,p162,2022_Apr_14_1114,training+cueing,2021.1.4,59.720995452934794,
Friend.png,Stranger,Friend,m,3.2,19,29,99,,,,,0,0,0,0,,,,,9,1,109,5,,,,,,,,,,,,,,,,,,,,,1.559,2.185,389.2375968999986,None,,,,,,,,,,,,,,,,,,,,389.78000389999943,390.2831817999977,0.5054395699989982,1.0057530699996278,390.266495200005,390.3832625000068,390.266495200005,390.3832625000068,390.36653240000305,None,m,1,390.36653240000305,None,0.8655918999866117,,,,,,,p162,2022_Apr_14_1114,training+cueing,2021.1.4,59.720995452934794,
Friend.png,Friend,Friend,c,2,12,22,92,,,,,0,0,0,0,,,,,9,2,110,4,,,,,,,,,,,,,,,,,,,,,1.407,1.611,391.35628140000335,None,,,,,,,,,,,,,,,,,,,,391.8966922999971,392.4014087000105,0.506726070001605,1.0075999700056855,392.3847264000069,392.50142539999797,392.3847264000069,392.50142539999797,392.484747399998,None,None,0,392.484747399998,None,,,,,,,,p162,2022_Apr_14_1114,training+cueing,2021.1.4,59.720995452934794,
Stranger.png,Friend,Stranger,m,2.3,17,27,97,,,,,0,0,0,0,,,,,9,3,111,7,,,,,,,,,,,,,,,,,,,,,1.495,1.446,394.00695560000895,None,,,,,,,,,,,,,,,,,,,,394.54529419999744,395.05335509999713,0.49987626999791246,1.0001760699960869,395.0200360000017,395.1200988000055,395.0200360000017,395.1200988000055,395.1200988000055,None,None,0,395.1200988000055,None,,,,,,,,p162,2022_Apr_14_1114,training+cueing,2021.1.4,59.720995452934794,
Stranger.png,You,Stranger,m,1.3,15,25,95,,,,,0,0,0,0,,,,,9,4,112,6,,,,,,,,,,,,,,,,,,,,,1.492,1.507,396.72537650000595,None,,,,,,,,,,,,,,,,,,,,397.27037969999947,397.77193040000566,0.5006124699866632,1.0009301699901698,397.7552483000036,397.8553202000039,397.7552483000036,397.8553202000039,397.8553202000039,None,m,1,397.8553202000039,None,0.6727596999990055,,,,,,,p162,2022_Apr_14_1114,training+cueing,2021.1.4,59.720995452934794,
Stranger.png,Stranger,Stranger,c,3,13,23,93,,,,,0,0,0,0,,,,,9,5,113,11,,,,,,,,,,,,,,,,,,,,,1.494,1.832,398.66268619999755,None,,,,,,,,,,,,,,,,,,,,399.20441440001014,399.7066835000005,0.5051171700179111,1.005383570023696,399.690015900007,399.80670519999694,399.690015900007,399.80670519999694,399.79001789999893,None,None,0,399.79001789999893,None,,,,,,,,p162,2022_Apr_14_1114,training+cueing,2021.1.4,59.720995452934794,
Stranger.png,Stranger,Stranger,c,3,13,23,93,,,,,0,0,0,0,,,,,9,6,114,8,,,,,,,,,,,,,,,,,,,,,1.574,1.575,401.3952078000002,None,,,,,,,,,,,,,,,,,,,,401.93640000000596,402.4419873000006,0.5105108699935954,1.0108091699949,402.4253147999989,402.54202220001025,402.4253147999989,402.54202220001025,402.52533630000835,None,None,0,402.52533630000835,None,,,,,,,,p162,2022_Apr_14_1114,training+cueing,2021.1.4,59.720995452934794,
Self.png,Stranger,Self ,m,3.1,18,28,98,,,,,0,0,0,0,,,,,9,7,115,2,,,,,,,,,,,,,,,,,,,,,1.609,1.342,404.21410100000503,None,,,,,,,,,,,,,,,,,,,,404.7617129999999,405.2773922000051,0.5121086700091837,1.012592470011441,405.260663699999,405.3779521999968,405.260663699999,405.3779521999968,405.36070720000134,None,None,0,405.36070720000134,None,,,,,,,,p162,2022_Apr_14_1114,training+cueing,2021.1.4,59.720995452934794,
Self.png,You,Self ,c,1,11,21,91,,,,,0,0,0,0,,,,,9,8,116,9,,,,,,,,,,,,,,,,,,,,,1.52,2.175,407.0846065000078,None,,,,,,,,,,,,,,,,,,,,407.62819879999734,408.1294084999972,0.509536069992464,1.009826069988776,408.1127489000064,408.21280839999963,408.1127489000064,408.21280839999963,408.21280839999963,None,c,1,408.21280839999963,None,0.7793235999997705,,,,,,,p162,2022_Apr_14_1114,training+cueing,2021.1.4,59.720995452934794,
Friend.png,You,Friend,m,1.2,14,24,94,,,,,0,0,0,0,,,,,9,9,117,3,,,,,,,,,,,,,,,,,,,,,1.504,1.776,409.1194001999975,None,,,,,,,,,,,,,,,,,,,,409.6583777000051,410.1642742999975,0.5112365700042574,1.0117763699963689,410.1475602999999,410.2476072999998,410.1475602999999,410.2476072999998,410.2476072999998,None,m,1,410.2476072999998,None,1.096653000000515,,,,,,,p162,2022_Apr_14_1114,training+cueing,2021.1.4,59.720995452934794,
Self.png,Friend,Self ,m,2.1,16,26,96,,,,,0,0,0,0,,,,,9,10,118,1,,,,,,,,,,,,,,,,,,,,,1.607,1.653,411.4727758000081,None,,,,,,,,,,,,,,,,,,,,412.0142560000095,412.51612850000674,0.5028140700014774,1.0030804699927103,412.499475900011,412.616202300007,412.499475900011,412.616202300007,412.59950630000094,None,m,1,412.59950630000094,None,1.160680200002389,,,,,,,p162,2022_Apr_14_1114,training+cueing,2021.1.4,59.720995452934794,
Self.png,You,Self ,c,1,11,21,91,,,,,0,0,0,0,,,,,9,11,119,0,,,,,,,,,,,,,,,,,,,,,1.459,1.978,413.88928339999984,None,,,,,,,,,,,,,,,,,,,,414.43092420000175,414.93435560000944,0.5061029699863866,1.006390669994289,414.91764900001,415.0177248999971,414.91764900001,415.0177248999971,415.0177248999971,None,c,1,415.0177248999971,None,0.7106686999904923,,,,,,,p162,2022_Apr_14_1114,training+cueing,2021.1.4,59.720995452934794,
,,,,,,,,,,,,0,0,0,0,,,,,,,,,,,,,,,,,,,,,,,,,,,,,,,,,,,,,,,,,,,,,,,,,,,,,,,,,,,,,,,,,,,0.013986819991259836,0.5120122199878097,,,,,p162,2022_Apr_14_1114,training+cueing,2021.1.4,59.720995452934794,
Stranger.png,Stranger,Stranger,c,3,13,23,93,,,,,1,0,1,0,0,0,0,11,,,,,,,,,,,,,,,,,416.3679182000051,None,space,6.750507100005052,2.0102974899928086,None,425.1252223000047,None,1.438,2.011,428.1409416000097,None,428.6750619000086,429.17798429999675,429.1613792999997,429.2780200999987,429.1613792999997,429.2780200999987,429.26135470000736,None,c,1,1.2986275000002934,429.26135470000736,None,430.5788700999983,None,,,,,,,,,,,,,,,,,,,,,,,,,,p162,2022_Apr_14_1114,training+cueing,2021.1.4,59.720995452934794,
Friend.png,Friend,Friend,c,2,12,22,92,,,,,1,0,1,0,0,1,1,10,,,,,,,,,,,,,,,,,,,,,,,,,1.586,1.332,430.97928080000565,None,431.5124852000008,432.0133586000011,431.99668750001,432.11341320000065,431.99668750001,432.11341320000065,432.11341320000065,None,c,1,1.1346570000023348,432.11341320000065,None,433.26427660000627,None,,,,,,,,,,,,,,,,,,,,,,,,,,p162,2022_Apr_14_1114,training+cueing,2021.1.4,59.720995452934794,
Self.png,Stranger,Self ,m,3.1,18,28,98,,,,,1,0,1,0,0,2,2,2,,,,,,,,,,,,,,,,,,,,,,,,,1.436,1.392,433.66471330000786,None,434.19953800000076,434.6986631000036,434.6986631000036,434.7986777000042,434.6986631000036,434.7986777000042,434.7986777000042,None,m,1,1.361461100008455,434.7986777000042,None,436.18306900000607,None,,,,,,,,,,,,,,,,,,,,,,,,,,p162,2022_Apr_14_1114,training+cueing,2021.1.4,59.720995452934794,
Stranger.png,Stranger,Stranger,c,3,13,23,93,,,,,1,0,1,0,0,3,3,8,,,,,,,,,,,,,,,,,,,,,,,,,1.639,1.276,436.5833483000024,None,437.12277470000845,437.634097800008,437.6174212000042,437.73416170000564,437.6174212000042,437.73416170000564,437.717435700004,None,c,1,0.9546850000042468,437.717435700004,None,438.70005830000446,None,,,,,,,,,,,,,,,,,,,,,,,,,,p162,2022_Apr_14_1114,training+cueing,2021.1.4,59.720995452934794,
Stranger.png,You,Stranger,m,1.3,15,25,95,,,,,1,0,1,0,0,4,4,6,,,,,,,,,,,,,,,,,,,,,,,,,1.697,2.196,439.1020114999992,None,439.6396706000087,440.1525859000103,440.11921350000193,440.2192752999981,440.11921350000193,440.2192752999981,440.2192752999981,None,m,1,0.7727977000031387,440.2192752999981,None,441.0199225000106,None,,,,,,,,,,,,,,,,,,,,,,,,,,p162,2022_Apr_14_1114,training+cueing,2021.1.4,59.720995452934794,
Self.png,Friend,Self ,m,2.1,16,26,96,,,,,1,0,1,0,0,5,5,1,,,,,,,,,,,,,,,,,,,,,,,,,1.782,2.004,441.4201852999977,None,441.95127070001035,442.4542802000069,442.43759370000043,442.5543248000031,442.43759370000043,442.5543248000031,442.53759880000143,None,m,1,0.9343885999987833,442.53759880000143,None,443.48835379999946,None,,,,,,,,,,,,,,,,,,,,,,,,,,p162,2022_Apr_14_1114,training+cueing,2021.1.4,59.720995452934794,
Self.png,You,Self ,c,1,11,21,91,,,,,1,0,1,0,0,6,6,0,,,,,,,,,,,,,,,,,,,,,,,,,1.699,1.773,443.88857650000136,None,444.4190224000049,444.9226800000033,444.90605289999803,445.00609560000885,444.90605289999803,445.00609560000885,445.00609560000885,None,c,1,0.5939505999995163,445.00609560000885,None,445.6231856000086,None,,,,,,,,,,,,,,,,,,,,,,,,,,p162,2022_Apr_14_1114,training+cueing,2021.1.4,59.720995452934794,
Self.png,You,Self ,c,1,11,21,91,,,,,1,0,1,0,0,7,7,9,,,,,,,,,,,,,,,,,,,,,,,,,1.527,2.32,446.0236719000095,None,446.56087470000784,447.07426330000453,447.0575935000088,447.1576628000039,447.0575935000088,447.1576628000039,447.1576628000039,None,c,1,0.5863742999936221,447.1576628000039,None,447.7747403000103,None,,,,,,,,,,,,,,,,,,,,,,,,,,p162,2022_Apr_14_1114,training+cueing,2021.1.4,59.720995452934794,
Stranger.png,Friend,Stranger,m,2.3,17,27,97,,,,,1,0,1,0,0,8,8,7,,,,,,,,,,,,,,,,,,,,,,,,,1.512,2.443,448.1753011999972,None,448.71285830000124,449.22575090000464,449.20915320000495,449.3258683000022,449.20915320000495,449.3258683000022,449.30919220000214,None,m,1,0.9147761000058381,449.30919220000214,None,450.24323659999936,None,,,,,,,,,,,,,,,,,,,,,,,,,,p162,2022_Apr_14_1114,training+cueing,2021.1.4,59.720995452934794,
Friend.png,Friend,Friend,c,2,12,22,92,,,,,1,0,1,0,0,9,9,4,,,,,,,,,,,,,,,,,,,,,,,,,1.689,1.228,450.64364580000984,None,451.1795112999971,451.69428589999734,451.67756710000685,451.79431759999716,451.67756710000685,451.79431759999716,451.7776012000104,None,c,1,0.6384680999908596,451.7776012000104,None,452.44487110000046,None,,,,,,,,,,,,,,,,,,,,,,,,,,p162,2022_Apr_14_1114,training+cueing,2021.1.4,59.720995452934794,
Friend.png,You,Friend,m,1.2,14,24,94,,,,,1,0,1,0,0,10,10,3,,,,,,,,,,,,,,,,,,,,,,,,,1.498,1.913,452.84515079999983,None,453.38809819999733,453.8958999000024,453.8791848999972,453.97921750000387,453.8791848999972,453.97921750000387,453.97921750000387,None,m,1,0.7088928000011947,453.97921750000387,None,454.7131577000109,None,,,,,,,,,,,,,,,,,,,,,,,,,,p162,2022_Apr_14_1114,training+cueing,2021.1.4,59.720995452934794,
Friend.png,Stranger,Friend,m,3.2,19,29,99,,,,,1,0,1,0,0,11,11,5,,,,,,,,,,,,,,,,,,,,,,,,,1.55,1.905,455.1134091999993,None,455.6469153000071,456.1474898000015,456.1474898000015,456.2475504000031,456.1474898000015,456.2475504000031,456.2475504000031,None,None,0,,456.2475504000031,None,457.7968215000001,None,,,,,,,,,,,,,,,,,,,,,,,,,,p162,2022_Apr_14_1114,training+cueing,2021.1.4,59.720995452934794,
Friend.png,You,Friend,m,1.2,14,24,94,,,,,1,0,1,0,,,,,0,0,0,3,,,,,,,,,,,,,,,,,,,461.2008427999972,None,1.568,1.536,464.7234635000059,None,,,,,,,,,,,,,,,,458.1989684,None,0.014477390010142699,0.5133175900118658,465.2493380000087,465.7544232000073,0.508881570000085,1.0091463700082386,465.73776790000557,465.83783630000835,465.73776790000557,465.83783630000835,465.83783630000835,None,m,1,465.83783630000835,None,0.7221456999977818,,,,,,,p162,2022_Apr_14_1114,training+cueing,2021.1.4,59.720995452934794,
Self.png,You,Self ,c,1,11,21,91,,,,,1,0,1,0,,,,,0,1,1,9,,,,,,,,,,,,,,,,,,,,,1.517,2.329,466.6957189000095,None,,,,,,,,,,,,,,,,,,,,467.2340872000059,467.7391967000003,0.5091625700006261,1.0095692699978827,467.722563000003,467.8225906000007,467.722563000003,467.8225906000007,467.8225906000007,None,c,1,467.8225906000007,None,0.5615937999973539,,,,,,,p162,2022_Apr_14_1114,training+cueing,2021.1.4,59.720995452934794,
Friend.png,Friend,Friend,c,2,12,22,92,,,,,1,0,1,0,,,,,0,2,2,10,,,,,,,,,,,,,,,,,,,,,1.578,1.87,468.51575170000433,None,,,,,,,,,,,,,,,,,,,,469.055852999998,469.5571789000096,0.501460470011807,1.0017248700023629,469.5405475000007,469.6572301999986,469.5405475000007,469.6572301999986,469.6572301999986,None,c,1,469.6572301999986,None,0.9027727000066079,,,,,,,p162,2022_Apr_14_1114,training+cueing,2021.1.4,59.720995452934794,
Friend.png,Stranger,Friend,m,3.2,19,29,99,,,,,1,0,1,0,,,,,0,3,3,5,,,,,,,,,,,,,,,,,,,,,1.626,2.172,470.69739060000575,None,,,,,,,,,,,,,,,,,,,,471.2404802000092,471.7420996000001,0.5041559700039215,1.0046665699919686,471.7254590000084,471.8421670000098,471.7254590000084,471.8421670000098,471.8254394999967,None,m,1,471.8254394999967,None,0.718661399994744,,,,,,,p162,2022_Apr_14_1114,training+cueing,2021.1.4,59.720995452934794,
Stranger.png,Stranger,Stranger,c,3,13,23,93,,,,,1,0,1,0,,,,,0,4,4,8,,,,,,,,,,,,,,,,,,,,,1.528,1.414,472.66649270000926,None,,,,,,,,,,,,,,,,,,,,473.2040940000006,473.71020880001015,0.5099700699938694,1.0102722699957667,473.69350540000596,473.81026179999753,473.69350540000596,473.81026179999753,473.793551499999,None,c,1,473.793551499999,None,1.1024693000072148,,,,,,,p162,2022_Apr_14_1114,training+cueing,2021.1.4,59.720995452934794,
Stranger.png,You,Stranger,m,1.3,15,25,95,,,,,1,0,1,0,,,,,0,5,5,6,,,,,,,,,,,,,,,,,,,,,1.508,1.653,475.01764250000997,None,,,,,,,,,,,,,,,,,,,,475.5578285000083,476.06192120000196,0.5068194699852029,1.0072764699871186,476.04520890000276,476.1452560000034,476.04520890000276,476.1452560000034,476.1452560000034,None,m,1,476.1452560000034,None,0.7348448999982793,,,,,,,p162,2022_Apr_14_1114,training+cueing,2021.1.4,59.720995452934794,
Self.png,Stranger,Self ,m,3.1,18,28,98,,,,,1,0,1,0,,,,,0,6,6,2,,,,,,,,,,,,,,,,,,,,,1.457,2.023,477.00150640000356,None,,,,,,,,,,,,,,,,,,,,477.5448211000039,478.0466540000052,0.5046100699837552,1.0049043699837057,478.02999710000586,478.1467469000054,478.02999710000586,478.1467469000054,478.13003300000855,None,m,1,478.13003300000855,None,0.958087599996361,,,,,,,p162,2022_Apr_14_1114,training+cueing,2021.1.4,59.720995452934794,
Self.png,Friend,Self ,m,2.1,16,26,96,,,,,1,0,1,0,,,,,0,7,7,1,,,,,,,,,,,,,,,,,,,,,1.687,1.519,479.2205152000097,None,,,,,,,,,,,,,,,,,,,,479.76045230000454,480.26491320000787,0.5062698700057808,1.006572270009201,480.2482461000036,480.36499880001065,480.2482461000036,480.36499880001065,480.3483198000031,None,m,1,480.3483198000031,None,0.9476600000052713,,,,,,,p162,2022_Apr_14_1114,training+cueing,2021.1.4,59.720995452934794,
Stranger.png,Stranger,Stranger,c,3,13,23,93,,,,,1,0,1,0,,,,,0,8,8,11,,,,,,,,,,,,,,,,,,,,,1.698,1.945,481.42209930000536,None,,,,,,,,,,,,,,,,,,,,481.962074199997,482.46663609999814,0.5082679699989967,1.0085590699891327,482.44986710000376,482.56657870000345,482.44986710000376,482.56657870000345,482.54984800000966,None,c,1,482.54984800000966,None,0.7941740999958711,,,,,,,p162,2022_Apr_14_1114,training+cueing,2021.1.4,59.720995452934794,
Stranger.png,Friend,Stranger,m,2.3,17,27,97,,,,,1,0,1,0,,,,,0,9,9,7,,,,,,,,,,,,,,,,,,,,,1.731,1.595,483.47316039999714,None,,,,,,,,,,,,,,,,,,,,484.01496890001,484.517992699999,0.5047373699926538,1.004986869986169,484.50137130000803,484.61807480000425,484.50137130000803,484.61807480000425,484.6013882999978,None,m,1,484.6013882999978,None,0.9345653999916976,,,,,,,p162,2022_Apr_14_1114,training+cueing,2021.1.4,59.720995452934794,
Friend.png,Friend,Friend,c,2,12,22,92,,,,,1,0,1,0,,,,,0,10,10,4,,,,,,,,,,,,,,,,,,,,,1.547,2.473,485.6586951000063,None,,,,,,,,,,,,,,,,,,,,486.19663800000853,486.70293860000675,0.5097451699839439,1.010049769989564,486.68624100000306,486.8032649000088,486.68624100000306,486.8032649000088,486.7862560000067,None,c,1,486.7862560000067,None,0.6697686000115937,,,,,,,p162,2022_Apr_14_1114,training+cueing,2021.1.4,59.720995452934794,
Self.png,You,Self ,c,1,11,21,91,,,,,1,0,1,0,,,,,0,11,11,0,,,,,,,,,,,,,,,,,,,,,1.651,2.005,487.59316509999917,None,,,,,,,,,,,,,,,,,,,,488.13224099999934,488.6376406000054,0.5107566700025927,1.0116228700062493,488.62098900000274,488.72102480000467,488.62098900000274,488.72102480000467,488.72102480000467,None,c,1,488.72102480000467,None,0.7349844999989728,,,,,,,p162,2022_Apr_14_1114,training+cueing,2021.1.4,59.720995452934794,
Stranger.png,Stranger,Stranger,c,3,13,23,93,,,,,1,0,1,0,,,,,1,0,12,8,,,,,,,,,,,,,,,,,,,,,1.447,1.488,489.5787907000049,None,,,,,,,,,,,,,,,,,,,,490.1184288000077,490.6224169000052,0.5049309700116282,1.0052518700103974,490.6057548000099,490.7224786000006,490.6057548000099,490.7224786000006,490.70598850000533,None,c,1,490.70598850000533,None,0.9901047000021208,,,,,,,p162,2022_Apr_14_1114,training+cueing,2021.1.4,59.720995452934794,
Stranger.png,Stranger,Stranger,c,3,13,23,93,,,,,1,0,1,0,,,,,1,1,13,11,,,,,,,,,,,,,,,,,,,,,1.619,1.532,491.8294431999966,None,,,,,,,,,,,,,,,,,,,,492.3679506000044,492.8740562000021,0.5116636699822266,1.0119204699876718,492.85741260000214,492.97409220000554,492.85741260000214,492.97409220000554,492.9574309000018,None,c,1,492.9574309000018,None,0.6105683999921894,,,,,,,p162,2022_Apr_14_1114,training+cueing,2021.1.4,59.720995452934794,
Stranger.png,You,Stranger,m,1.3,15,25,95,,,,,1,0,1,0,,,,,1,2,14,6,,,,,,,,,,,,,,,,,,,,,1.495,1.46,493.6976689000003,None,,,,,,,,,,,,,,,,,,,,494.23916420000023,494.7420517999999,0.5066960700060008,1.0070057700067991,494.7254036000086,494.8256593999977,494.7254036000086,494.8256593999977,494.8256593999977,None,m,1,494.8256593999977,None,0.7744116999965627,,,,,,,p162,2022_Apr_14_1114,training+cueing,2021.1.4,59.720995452934794,
Friend.png,Friend,Friend,c,2,12,22,92,,,,,1,0,1,0,,,,,1,3,15,10,,,,,,,,,,,,,,,,,,,,,1.509,1.959,495.7320674000075,None,,,,,,,,,,,,,,,,,,,,496.2709909999976,496.7768847999978,0.5092195699835429,1.009510069983662,496.7602016000019,496.87694850000844,496.7602016000019,496.87694850000844,496.86023560000467,None,None,0,496.86023560000467,None,,,,,,,,p162,2022_Apr_14_1114,training+cueing,2021.1.4,59.720995452934794,
Self.png,You,Self ,c,1,11,21,91,,,,,1,0,1,0,,,,,1,4,16,0,,,,,,,,,,,,,,,,,,,,,1.734,1.404,498.48344570001063,None,,,,,,,,,,,,,,,,,,,,499.02972930000396,499.52890620000835,0.5149495700025,1.0153148700046586,499.52890620000835,499.62888920000114,499.52890620000835,499.62888920000114,499.62888920000114,None,c,1,499.62888920000114,None,0.8353581999981543,,,,,,,p162,2022_Apr_14_1114,training+cueing,2021.1.4,59.720995452934794,
Friend.png,Stranger,Friend,m,3.2,19,29,99,,,,,1,0,1,0,,,,,1,5,17,5,,,,,,,,,,,,,,,,,,,,,1.418,1.542,500.6035532000096,None,,,,,,,,,,,,,,,,,,,,501.14577770000324,501.6470583000046,0.5017523700080346,1.0020698700100183,501.63034800000605,501.7470813000109,501.63034800000605,501.7470813000109,501.7470813000109,None,m,1,501.7470813000109,None,1.1010458999953698,,,,,,,p162,2022_Apr_14_1114,training+cueing,2021.1.4,59.720995452934794,
Self.png,You,Self ,c,1,11,21,91,,,,,1,0,1,0,,,,,1,6,18,9,,,,,,,,,,,,,,,,,,,,,1.613,1.952,502.97079980000854,None,,,,,,,,,,,,,,,,,,,,503.5117248000024,504.01544030000514,0.5055425699974876,1.0058427699987078,503.99874300000374,504.0988071000029,503.99874300000374,504.0988071000029,504.0988071000029,None,c,1,504.0988071000029,None,0.6052905999968061,,,,,,,p162,2022_Apr_14_1114,training+cueing,2021.1.4,59.720995452934794,
Self.png,Friend,Self ,m,2.1,16,26,96,,,,,1,0,1,0,,,,,1,7,19,1,,,,,,,,,,,,,,,,,,,,,1.543,1.77,504.83826260000933,None,,,,,,,,,,,,,,,,,,,,505.3801292999997,505.8834705000045,0.5064767699950607,1.0069308700039983,505.86679770000046,505.98349650000455,505.86679770000046,505.98349650000455,505.9667940000072,None,m,1,505.9667940000072,None,1.2014081999950577,,,,,,,p162,2022_Apr_14_1114,training+cueing,2021.1.4,59.720995452934794,
Friend.png,Friend,Friend,c,2,12,22,92,,,,,1,0,1,0,,,,,1,8,20,4,,,,,,,,,,,,,,,,,,,,,1.413,1.969,507.29125490000297,None,,,,,,,,,,,,,,,,,,,,507.82815200000186,508.3352469000092,0.5121934700000565,1.0124925700074527,508.3185385000106,508.43529770000896,508.3185385000106,508.43529770000896,508.4185697000066,None,c,1,508.4185697000066,None,0.6854841000022134,,,,,,,p162,2022_Apr_14_1114,training+cueing,2021.1.4,59.720995452934794,
Self.png,Stranger,Self ,m,3.1,18,28,98,,,,,1,0,1,0,,,,,1,9,21,2,,,,,,,,,,,,,,,,,,,,,1.513,2.368,509.2253697999986,None,,,,,,,,,,,,,,,,,,,,509.7674862999993,510.270136799998,0.5053390700049931,1.005564270002651,510.25347850000253,510.3701948000089,510.25347850000253,510.3701948000089,510.3534595000092,None,m,1,510.3534595000092,None,1.2145753999939188,,,,,,,p162,2022_Apr_14_1114,training+cueing,2021.1.4,59.720995452934794,
Stranger.png,Friend,Stranger,m,2.3,17,27,97,,,,,1,0,1,0,,,,,1,10,22,7,,,,,,,,,,,,,,,,,,,,,1.705,2.053,511.69494630000554,None,,,,,,,,,,,,,,,,,,,,512.237294999999,512.7384547000111,0.5022592700115638,1.0025057700113393,512.7217865999992,512.8384959999967,512.7217865999992,512.8384959999967,512.8217898000003,None,m,1,512.8217898000003,None,1.0181881000025896,,,,,,,p162,2022_Apr_14_1114,training+cueing,2021.1.4,59.720995452934794,
Friend.png,You,Friend,m,1.2,14,24,94,,,,,1,0,1,0,,,,,1,11,23,3,,,,,,,,,,,,,,,,,,,,,1.728,2.452,513.9617893999966,None,,,,,,,,,,,,,,,,,,,,514.5027265000099,515.0067067000055,0.5048380700027337,1.0052930700039724,514.9900702000014,515.0903267000103,514.9900702000014,515.0903267000103,515.0903267000103,None,m,1,515.0903267000103,None,1.533708500006469,,,,,,,p162,2022_Apr_14_1114,training+cueing,2021.1.4,59.720995452934794,
Stranger.png,Stranger,Stranger,c,3,13,23,93,,,,,1,0,1,0,,,,,2,0,24,8,,,,,,,,,,,,,,,,,,,,,1.676,2.412,516.7486532000039,None,,,,,,,,,,,,,,,,,,,,517.2919466000021,517.7920845000044,0.5008868699951563,1.0011550700000953,517.7753975000087,517.8921376000071,517.7753975000087,517.8921376000071,517.8921376000071,None,c,1,517.8921376000071,None,1.003846200008411,,,,,,,p162,2022_Apr_14_1114,training+cueing,2021.1.4,59.720995452934794,
Stranger.png,Friend,Stranger,m,2.3,17,27,97,,,,,1,0,1,0,,,,,2,1,25,7,,,,,,,,,,,,,,,,,,,,,1.578,1.496,519.0325284999999,None,,,,,,,,,,,,,,,,,,,,519.5742054000002,520.0770909999992,0.5059193699999014,1.0062518699996872,520.0603718000057,520.177136600003,520.0603718000057,520.177136600003,520.1604219000001,None,m,1,520.1604219000001,None,0.8314756999898236,,,,,,,p162,2022_Apr_14_1114,training+cueing,2021.1.4,59.720995452934794,
Self.png,Stranger,Self ,m,3.1,18,28,98,,,,,1,0,1,0,,,,,2,2,26,2,,,,,,,,,,,,,,,,,,,,,1.784,1.224,521.1188031000056,None,,,,,,,,,,,,,,,,,,,,521.6588837000018,522.1619139000104,0.5049813699879451,1.0050861699855886,522.1454148000048,522.2619429000042,522.1454148000048,522.2619429000042,522.2452764000045,None,m,1,522.2452764000045,None,1.1467148000083398,,,,,,,p162,2022_Apr_14_1114,training+cueing,2021.1.4,59.720995452934794,
Stranger.png,You,Stranger,m,1.3,15,25,95,,,,,1,0,1,0,,,,,2,3,27,6,,,,,,,,,,,,,,,,,,,,,1.505,1.389,523.5186354000034,None,,,,,,,,,,,,,,,,,,,,524.0620482000086,524.5636405999976,0.5038340699975379,1.0041283699974883,524.5469579000055,524.647008400003,524.5469579000055,524.647008400003,524.647008400003,None,m,1,524.647008400003,None,0.7929580999916652,,,,,,,p162,2022_Apr_14_1114,training+cueing,2021.1.4,59.720995452934794,
Self.png,Friend,Self ,m,2.1,16,26,96,,,,,1,0,1,0,,,,,2,4,28,1,,,,,,,,,,,,,,,,,,,,,1.716,2.496,525.5700534000061,None,,,,,,,,,,,,,,,,,,,,526.1110289000062,526.6151573000097,0.5047712699888507,1.00551686999097,526.5985629000061,526.7151926000079,526.5985629000061,526.7151926000079,526.6984908000013,None,m,1,526.6984908000013,None,1.0134327000123449,,,,,,,p162,2022_Apr_14_1114,training+cueing,2021.1.4,59.720995452934794,
Friend.png,You,Friend,m,1.2,14,24,94,,,,,1,0,1,0,,,,,2,5,29,3,,,,,,,,,,,,,,,,,,,,,1.557,2.303,527.8405069,None,,,,,,,,,,,,,,,,,,,,528.3819188000052,528.8834122999979,0.5033989699877566,1.0037045699864393,528.8667437999975,528.9669804000005,528.8667437999975,528.9669804000005,528.9669804000005,None,m,1,528.9669804000005,None,0.9209602000046289,,,,,,,p162,2022_Apr_14_1114,training+cueing,2021.1.4,59.720995452934794,
Stranger.png,Stranger,Stranger,c,3,13,23,93,,,,,1,0,1,0,,,,,2,6,30,11,,,,,,,,,,,,,,,,,,,,,1.575,2.217,530.023815499997,None,,,,,,,,,,,,,,,,,,,,530.565073100006,531.0684894000005,0.5076119700097479,1.0077443700138247,531.051847499999,531.1685603000078,531.051847499999,531.1685603000078,531.1518871000007,None,c,1,531.1518871000007,None,0.7840494999982184,,,,,,,p162,2022_Apr_14_1114,training+cueing,2021.1.4,59.720995452934794,
Self.png,You,Self ,c,1,11,21,91,,,,,1,0,1,0,,,,,2,7,31,9,,,,,,,,,,,,,,,,,,,,,1.4,1.466,532.05853200001,None,,,,,,,,,,,,,,,,,,,,532.5964688000095,533.1031664000038,0.5109812699956819,1.0113022699952126,533.0864634000027,533.1865268999973,533.0864634000027,533.1865268999973,533.1865268999973,None,c,1,533.1865268999973,None,0.893411199998809,,,,,,,p162,2022_Apr_14_1114,training+cueing,2021.1.4,59.720995452934794,
Friend.png,Friend,Friend,c,2,12,22,92,,,,,1,0,1,0,,,,,2,8,32,10,,,,,,,,,,,,,,,,,,,,,1.644,2.42,534.2106034000026,None,,,,,,,,,,,,,,,,,,,,534.7527993999975,535.254718199998,0.5053461700008484,1.0056485699897166,535.2380169000098,535.3549554000056,535.2380169000098,535.3549554000056,535.3380401000031,None,c,1,535.3380401000031,None,0.8379272999882232,,,,,,,p162,2022_Apr_14_1114,training+cueing,2021.1.4,59.720995452934794,
Friend.png,Stranger,Friend,m,3.2,19,29,99,,,,,1,0,1,0,,,,,2,9,33,5,,,,,,,,,,,,,,,,,,,,,1.639,1.282,536.3112111000082,None,,,,,,,,,,,,,,,,,,,,536.8532937999989,537.3562112000072,0.5050552699976834,1.005925470002694,537.3395861000026,537.4562773000071,537.3395861000026,537.4562773000071,537.4396078999998,None,None,0,537.4396078999998,None,,,,,,,,p162,2022_Apr_14_1114,training+cueing,2021.1.4,59.720995452934794,
Self.png,You,Self ,c,1,11,21,91,,,,,1,0,1,0,,,,,2,10,34,0,,,,,,,,,,,,,,,,,,,,,1.43,2.335,539.1964204999967,None,,,,,,,,,,,,,,,,,,,,539.7377599000029,540.2416692999977,0.506122270016931,1.0063092700147536,540.2250292000099,540.3250131000095,540.2250292000099,540.3250131000095,540.3250131000095,None,c,1,540.3250131000095,None,0.6509096000081627,,,,,,,p162,2022_Apr_14_1114,training+cueing,2021.1.4,59.720995452934794,
Friend.png,Friend,Friend,c,2,12,22,92,,,,,1,0,1,0,,,,,2,11,35,4,,,,,,,,,,,,,,,,,,,,,1.595,1.882,541.0982575000089,None,,,,,,,,,,,,,,,,,,,,541.658422499997,542.1596509000083,0.5033266599930357,1.0036443599965423,542.143009899999,542.2597606000054,542.143009899999,542.2597606000054,542.2430459000025,None,c,1,542.2430459000025,None,0.9088705999893136,,,,,,,p162,2022_Apr_14_1114,training+cueing,2021.1.4,59.720995452934794,
Self.png,Stranger,Self ,m,3.1,18,28,98,,,,,1,0,1,0,,,,,3,0,36,2,,,,,,,,,,,,,,,,,,,,,1.674,2.056,543.2830340000073,None,,,,,,,,,,,,,,,,,,,,543.8248291000054,544.327927300008,0.5029064699920127,1.0034665699786274,544.3112320000073,544.4287155000056,544.3112320000073,544.4287155000056,544.4112849000085,None,m,1,544.4112849000085,None,1.2688223000004655,,,,,,,p162,2022_Apr_14_1114,training+cueing,2021.1.4,59.720995452934794,
Stranger.png,Stranger,Stranger,c,3,13,23,93,,,,,1,0,1,0,,,,,3,1,37,11,,,,,,,,,,,,,,,,,,,,,1.668,1.762,545.8055641000101,None,,,,,,,,,,,,,,,,,,,,546.3403356000053,546.846444499999,0.5123708699975396,1.0126204700063681,546.8297874999989,546.9464943000057,546.8297874999989,546.9464943000057,546.9297929000022,None,c,1,546.9297929000022,None,0.8140723000105936,,,,,,,p162,2022_Apr_14_1114,training+cueing,2021.1.4,59.720995452934794,
Friend.png,Friend,Friend,c,2,12,22,92,,,,,1,0,1,0,,,,,3,2,38,4,,,,,,,,,,,,,,,,,,,,,1.685,1.464,547.8700293000002,None,,,,,,,,,,,,,,,,,,,,548.4113666000048,548.914604000005,0.5055544700153405,1.0058483700122451,548.897907000006,549.0146797000052,548.897907000006,549.0146797000052,548.9979472999985,None,c,1,548.9979472999985,None,0.714068600005703,,,,,,,p162,2022_Apr_14_1114,training+cueing,2021.1.4,59.720995452934794,
Friend.png,Friend,Friend,c,2,12,22,92,,,,,1,0,1,0,,,,,3,3,39,10,,,,,,,,,,,,,,,,,,,,,1.457,2.387,549.8378929000028,None,,,,,,,,,,,,,,,,,,,,550.3737180000026,550.8826333000034,0.49946936999913305,0.999740870000096,550.8493279000104,550.9493648000062,550.8493279000104,550.9493648000062,550.9493648000062,None,c,1,550.9493648000062,None,1.3390864999964833,,,,,,,p162,2022_Apr_14_1114,training+cueing,2021.1.4,59.720995452934794,
Stranger.png,Stranger,Stranger,c,3,13,23,93,,,,,1,0,1,0,,,,,3,4,40,8,,,,,,,,,,,,,,,,,,,,,1.492,2.071,552.426655400006,None,,,,,,,,,,,,,,,,,,,,552.9649027999985,553.4678619000042,0.505216269986704,1.005541569989873,553.4511912000016,553.5679174000106,553.4511912000016,553.5679174000106,553.5512481000042,None,c,1,553.5512481000042,None,1.2806498000136344,,,,,,,p162,2022_Apr_14_1114,training+cueing,2021.1.4,59.720995452934794,
Stranger.png,You,Stranger,m,1.3,15,25,95,,,,,1,0,1,0,,,,,3,5,41,6,,,,,,,,,,,,,,,,,,,,,1.408,1.333,554.9585907000001,None,,,,,,,,,,,,,,,,,,,,555.4994656000054,556.0030776000058,0.5062169699958758,1.0071042700001271,555.9863696000102,556.0863769999996,555.9863696000102,556.0863769999996,556.0863769999996,None,m,1,556.0863769999996,None,0.9055377000040608,,,,,,,p162,2022_Apr_14_1114,training+cueing,2021.1.4,59.720995452934794,
Self.png,You,Self ,c,1,11,21,91,,,,,1,0,1,0,,,,,3,6,42,9,,,,,,,,,,,,,,,,,,,,,1.783,1.642,557.1266463000065,None,,,,,,,,,,,,,,,,,,,,557.6655799,558.1713103000075,0.5096797699952731,1.009994669992011,558.1545890999987,558.2546970999974,558.1545890999987,558.2546970999974,558.2546970999974,None,c,1,558.2546970999974,None,0.6092162999993889,,,,,,,p162,2022_Apr_14_1114,training+cueing,2021.1.4,59.720995452934794,
Self.png,Friend,Self ,m,2.1,16,26,96,,,,,1,0,1,0,,,,,3,7,43,1,,,,,,,,,,,,,,,,,,,,,1.553,1.827,558.9947495000088,None,,,,,,,,,,,,,,,,,,,,559.5396444000071,560.03931990001,0.5006710699817631,1.0011587699846132,560.0226101000007,560.139508200009,560.0226101000007,560.139508200009,560.139508200009,None,m,1,560.139508200009,None,0.9323899000009988,,,,,,,p162,2022_Apr_14_1114,training+cueing,2021.1.4,59.720995452934794,
Friend.png,You,Friend,m,1.2,14,24,94,,,,,1,0,1,0,,,,,3,8,44,3,,,,,,,,,,,,,,,,,,,,,1.779,2.294,561.1974151000031,None,,,,,,,,,,,,,,,,,,,,561.7392409000022,562.2408913000108,0.5023129699984565,1.0033067699987441,562.2241810999985,562.32426020001,562.2241810999985,562.32426020001,562.32426020001,None,m,1,562.32426020001,None,0.9716992999892682,,,,,,,p162,2022_Apr_14_1114,training+cueing,2021.1.4,59.720995452934794,
Stranger.png,Friend,Stranger,m,2.3,17,27,97,,,,,1,0,1,0,,,,,3,9,45,7,,,,,,,,,,,,,,,,,,,,,1.681,1.619,563.4330847000092,None,,,,,,,,,,,,,,,,,,,,563.9857126999996,564.4924959000055,0.5126295599911828,1.0129650599992601,564.4758352000063,564.5925521000026,564.4758352000063,564.5925521000026,564.5758978000085,None,m,1,564.5758978000085,None,0.991936699996586,,,,,,,p162,2022_Apr_14_1114,training+cueing,2021.1.4,59.720995452934794,
Self.png,You,Self ,c,1,11,21,91,,,,,1,0,1,0,,,,,3,10,46,0,,,,,,,,,,,,,,,,,,,,,1.778,2.285,565.7004287000018,None,,,,,,,,,,,,,,,,,,,,566.2395834000054,566.7441435000073,0.5084082700050203,1.0086550700070802,566.7275286000076,566.8275641000073,566.7275286000076,566.8275641000073,566.8275641000073,None,c,1,566.8275641000073,None,1.0444268999999622,,,,,,,p162,2022_Apr_14_1114,training+cueing,2021.1.4,59.720995452934794,
Friend.png,Stranger,Friend,m,3.2,19,29,99,,,,,1,0,1,0,,,,,3,11,47,5,,,,,,,,,,,,,,,,,,,,,1.762,1.686,568.0011945000006,None,,,,,,,,,,,,,,,,,,,,568.5570006000053,569.0624854000052,0.5078684600011911,1.008175159993698,569.0458412000007,569.1625503999967,569.0458412000007,569.1625503999967,569.145869800006,None,m,1,569.145869800006,None,1.2059171000000788,,,,,,,p162,2022_Apr_14_1114,training+cueing,2021.1.4,59.720995452934794,
Stranger.png,Friend,Stranger,m,2.3,17,27,97,,,,,1,0,1,0,,,,,4,0,48,7,,,,,,,,,,,,,,,,,,,,,1.791,2.483,570.4863992000028,None,,,,,,,,,,,,,,,,,,,,571.028888300003,571.5310388000071,0.5044812700070906,1.0047672700166004,571.5144008000061,571.6324361000006,571.5144008000061,571.6324361000006,571.6144341000036,None,m,1,571.6144341000036,None,1.4735082999977749,,,,,,,p162,2022_Apr_14_1114,training+cueing,2021.1.4,59.720995452934794,
Self.png,You,Self ,c,1,11,21,91,,,,,1,0,1,0,,,,,4,1,49,0,,,,,,,,,,,,,,,,,,,,,1.628,2.245,573.2236261000071,None,,,,,,,,,,,,,,,,,,,,573.7616896000109,574.2662710000004,0.5077741699788021,1.0080550699785817,574.2495826000086,574.349627100004,574.2495826000086,574.349627100004,574.349627100004,None,c,1,574.349627100004,None,0.6421883000002708,,,,,,,p162,2022_Apr_14_1114,training+cueing,2021.1.4,59.720995452934794,
Self.png,Stranger,Self ,m,3.1,18,28,98,,,,,1,0,1,0,,,,,4,2,50,2,,,,,,,,,,,,,,,,,,,,,1.786,2.149,575.1234032000066,None,,,,,,,,,,,,,,,,,,,,575.6890093000111,576.2010300999973,0.5046316599909915,1.004954159987392,576.1843121999991,576.3010861000075,576.1843121999991,576.3010861000075,576.284364200008,None,m,1,576.284364200008,None,0.88353819999611,,,,,,,p162,2022_Apr_14_1114,training+cueing,2021.1.4,59.720995452934794,
Friend.png,Friend,Friend,c,2,12,22,92,,,,,1,0,1,0,,,,,4,3,51,10,,,,,,,,,,,,,,,,,,,,,1.711,2.039,577.3473636999988,None,,,,,,,,,,,,,,,,,,,,577.8332337000029,578.3358260000095,0.5060771699936595,1.0064029700006358,578.3192105000053,578.4359185000067,578.3192105000053,578.4359185000067,578.4192484000087,None,c,1,578.4192484000087,None,0.6527365000074496,,,,,,,p162,2022_Apr_14_1114,training+cueing,2021.1.4,59.720995452934794,
Friend.png,Stranger,Friend,m,3.2,19,29,99,,,,,1,0,1,0,,,,,4,4,52,5,,,,,,,,,,,,,,,,,,,,,1.423,1.273,579.2092495999968,None,,,,,,,,,,,,,,,,,,,,579.7511244000052,580.2539572000096,0.5028869700036012,1.0031896700093057,580.2372673000064,580.3539646999998,580.2372673000064,580.3539646999998,580.3372961999994,None,m,1,580.3372961999994,None,0.7346306999970693,,,,,,,p162,2022_Apr_14_1114,training+cueing,2021.1.4,59.720995452934794,
Self.png,You,Self ,c,1,11,21,91,,,,,1,0,1,0,,,,,4,5,53,9,,,,,,,,,,,,,,,,,,,,,1.44,1.741,581.1934660999977,None,,,,,,,,,,,,,,,,,,,,581.7354791999969,582.2387132000003,0.5054748699913034,1.0057770699932007,582.2220076000085,582.3220225999976,582.2220076000085,582.3220225999976,582.3220225999976,None,c,1,582.3220225999976,None,0.590209700007108,,,,,,,p162,2022_Apr_14_1114,training+cueing,2021.1.4,59.720995452934794,
Friend.png,Friend,Friend,c,2,12,22,92,,,,,1,0,1,0,,,,,4,6,54,4,,,,,,,,,,,,,,,,,,,,,1.511,2.439,583.0453077999991,None,,,,,,,,,,,,,,,,,,,,583.603230400011,584.1067261999997,0.5079637599992566,1.0082512599910842,584.0900542000018,584.2067549000058,584.0900542000018,584.2067549000058,584.1900969999988,None,c,1,584.1900969999988,None,0.8178464000084205,,,,,,,p162,2022_Apr_14_1114,training+cueing,2021.1.4,59.720995452934794,
Stranger.png,You,Stranger,m,1.3,15,25,95,,,,,1,0,1,0,,,,,4,7,55,6,,,,,,,,,,,,,,,,,,,,,1.726,1.738,585.1305265999981,None,,,,,,,,,,,,,,,,,,,,585.6708968000021,586.1748680000019,0.5064051700028358,1.0067356700019445,586.1581843000022,586.258242099997,586.1581843000022,586.258242099997,586.258242099997,None,m,1,586.258242099997,None,0.8295707999932347,,,,,,,p162,2022_Apr_14_1114,training+cueing,2021.1.4,59.720995452934794,
Self.png,Friend,Self ,m,2.1,16,26,96,,,,,1,0,1,0,,,,,4,8,56,1,,,,,,,,,,,,,,,,,,,,,1.498,1.494,587.2147266000102,None,,,,,,,,,,,,,,,,,,,,587.7572887999995,588.2597374000034,0.5051306700042915,1.0053851700067753,588.2430678000092,588.3597899000015,588.2430678000092,588.3597899000015,588.3431081000017,None,c,0,588.3431081000017,None,0.728732100003981,,,,,,,p162,2022_Apr_14_1114,training+cueing,2021.1.4,59.720995452934794,
Stranger.png,Stranger,Stranger,c,3,13,23,93,,,,,1,0,1,0,,,,,4,9,57,11,,,,,,,,,,,,,,,,,,,,,1.446,1.467,589.2005897000054,None,,,,,,,,,,,,,,,,,,,,589.7428194000095,590.2444808,0.504684970001108,1.0049623700033408,590.2278493000049,590.344551800008,590.2278493000049,590.344551800008,590.3278575000004,None,c,1,590.3278575000004,None,0.9523377000004984,,,,,,,p162,2022_Apr_14_1114,training+cueing,2021.1.4,59.720995452934794,
Stranger.png,Stranger,Stranger,c,3,13,23,93,,,,,1,0,1,0,,,,,4,10,58,8,,,,,,,,,,,,,,,,,,,,,1.697,1.658,591.4053738000075,None,,,,,,,,,,,,,,,,,,,,591.9412258000084,592.4460895000084,0.5074604699766496,1.007740869987174,592.4294363000081,592.546131199997,592.4294363000081,592.546131199997,592.5294491000095,None,c,1,592.5294491000095,None,0.6223428000084823,,,,,,,p162,2022_Apr_14_1114,training+cueing,2021.1.4,59.720995452934794,
Friend.png,You,Friend,m,1.2,14,24,94,,,,,1,0,1,0,,,,,4,11,59,3,,,,,,,,,,,,,,,,,,,,,1.784,1.698,593.2857337000023,None,,,,,,,,,,,,,,,,,,,,593.8337596000056,594.3475047000102,0.5103852699976414,1.0106637699936982,594.3308047000028,594.4308438000007,594.3308047000028,594.4308438000007,594.4308438000007,None,m,1,594.4308438000007,None,0.9610238000022946,,,,,,,p162,2022_Apr_14_1114,training+cueing,2021.1.4,59.720995452934794,
Friend.png,Friend,Friend,c,2,12,22,92,,,,,1,0,1,0,,,,,5,0,60,10,,,,,,,,,,,,,,,,,,,,,1.403,2.187,595.5209370000084,None,,,,,,,,,,,,,,,,,,,,596.0617777000007,596.5657052000024,0.5053851699922234,1.0057080699916696,596.5490448000055,596.6657533000107,596.5490448000055,596.6657533000107,596.6491327999975,None,c,1,596.6491327999975,None,0.6146426999912364,,,,,,,p162,2022_Apr_14_1114,training+cueing,2021.1.4,59.720995452934794,
Friend.png,Stranger,Friend,m,3.2,19,29,99,,,,,1,0,1,0,,,,,5,1,61,5,,,,,,,,,,,,,,,,,,,,,1.485,2.166,597.3887497000105,None,,,,,,,,,,,,,,,,,,,,597.9322551000078,598.4337309999974,0.5039312700100709,1.0042345700057922,598.4170797999977,598.53376820001,598.4170797999977,598.53376820001,598.5171187000087,None,m,1,598.5171187000087,None,0.7146478000067873,,,,,,,p162,2022_Apr_14_1114,training+cueing,2021.1.4,59.720995452934794,
Self.png,Stranger,Self ,m,3.1,18,28,98,,,,,1,0,1,0,,,,,5,2,62,2,,,,,,,,,,,,,,,,,,,,,1.668,2.287,599.3573710000055,None,,,,,,,,,,,,,,,,,,,,599.895783400003,600.4018555000075,0.5109761699859519,1.0112794699816732,600.3851460000005,600.5018876000104,600.3851460000005,600.5018876000104,600.4851993000048,None,m,1,600.4851993000048,None,0.8747015000117244,,,,,,,p162,2022_Apr_14_1114,training+cueing,2021.1.4,59.720995452934794,
Stranger.png,Stranger,Stranger,c,3,13,23,93,,,,,1,0,1,0,,,,,5,3,63,8,,,,,,,,,,,,,,,,,,,,,1.714,1.495,601.4940561999974,None,,,,,,,,,,,,,,,,,,,,602.0296259000024,602.5366930000018,0.5117140700021992,1.0119574700074736,602.5200678999972,602.6367625999992,602.5200678999972,602.6367625999992,602.620095899998,None,c,1,602.620095899998,None,0.8197656999982428,,,,,,,p162,2022_Apr_14_1114,training+cueing,2021.1.4,59.720995452934794,
Stranger.png,Friend,Stranger,m,2.3,17,27,97,,,,,1,0,1,0,,,,,5,4,64,7,,,,,,,,,,,,,,,,,,,,,1.427,2.206,603.577085900004,None,,,,,,,,,,,,,,,,,,,,604.1181339000032,604.6215831000009,0.5057783699885476,1.0061988699890207,604.6049021000072,604.7217709000106,604.6049021000072,604.7217709000106,604.7050712000055,None,m,1,604.7050712000055,None,0.942869000005885,,,,,,,p162,2022_Apr_14_1114,training+cueing,2021.1.4,59.720995452934794,
Self.png,You,Self ,c,1,11,21,91,,,,,1,0,1,0,,,,,5,5,65,9,,,,,,,,,,,,,,,,,,,,,1.585,1.213,605.7802038000082,None,,,,,,,,,,,,,,,,,,,,606.3301075000054,606.8398319999978,0.5016385700000683,1.0020636699919123,606.8231926000008,606.9231903000036,606.8231926000008,606.9231903000036,606.9231903000036,None,c,1,606.9231903000036,None,0.5805429999891203,,,,,,,p162,2022_Apr_14_1114,training+cueing,2021.1.4,59.720995452934794,
Stranger.png,Stranger,Stranger,c,3,13,23,93,,,,,1,0,1,0,,,,,5,6,66,11,,,,,,,,,,,,,,,,,,,,,1.48,2.107,607.6346575000061,None,,,,,,,,,,,,,,,,,,,,608.1743743999978,608.6745127000031,0.4995750700181816,0.999884570017457,608.6577908000036,608.7745663000096,608.6577908000036,608.7745663000096,608.7745663000096,None,c,1,608.7745663000096,None,1.1292749999993248,,,,,,,p162,2022_Apr_14_1114,training+cueing,2021.1.4,59.720995452934794,
Self.png,Friend,Self ,m,2.1,16,26,96,,,,,1,0,1,0,,,,,5,7,67,1,,,,,,,,,,,,,,,,,,,,,1.542,1.339,610.031317800007,None,,,,,,,,,,,,,,,,,,,,610.5861335000081,611.0929223999992,0.5142871599964565,1.0151223599968944,611.0762346999982,611.192999699997,611.0762346999982,611.192999699997,611.1762786000036,None,m,1,611.1762786000036,None,1.2715889000101015,,,,,,,p162,2022_Apr_14_1114,training+cueing,2021.1.4,59.720995452934794,
Stranger.png,You,Stranger,m,1.3,15,25,95,,,,,1,0,1,0,,,,,5,8,68,6,,,,,,,,,,,,,,,,,,,,,1.475,1.585,612.5836170999974,None,,,,,,,,,,,,,,,,,,,,613.1236159999971,613.6280441999988,0.5057496700173942,1.0062303700105986,613.6114147000044,613.7115218000108,613.6114147000044,613.7115218000108,613.7115218000108,None,m,1,613.7115218000108,None,0.9123235000006389,,,,,,,p162,2022_Apr_14_1114,training+cueing,2021.1.4,59.720995452934794,
Self.png,You,Self ,c,1,11,21,91,,,,,1,0,1,0,,,,,5,9,69,0,,,,,,,,,,,,,,,,,,,,,1.546,2.291,614.7533859000105,None,,,,,,,,,,,,,,,,,,,,615.291532400006,615.7963062000053,0.5079682699870318,1.0082680699852062,615.7796168000059,615.8796315000072,615.7796168000059,615.8796315000072,615.8796315000072,None,c,1,615.8796315000072,None,0.6161647999979323,,,,,,,p162,2022_Apr_14_1114,training+cueing,2021.1.4,59.720995452934794,
Friend.png,You,Friend,m,1.2,14,24,94,,,,,1,0,1,0,,,,,5,10,70,3,,,,,,,,,,,,,,,,,,,,,1.603,1.669,616.6200710999983,None,,,,,,,,,,,,,,,,,,,,617.1585799000022,617.6643470999988,0.5103776700125309,1.0106557700200938,617.647656000001,617.7476976000034,617.647656000001,617.7476976000034,617.7476976000034,None,m,1,617.7476976000034,None,0.8440340000088327,,,,,,,p162,2022_Apr_14_1114,training+cueing,2021.1.4,59.720995452934794,
Friend.png,Friend,Friend,c,2,12,22,92,,,,,1,0,1,0,,,,,5,11,71,4,,,,,,,,,,,,,,,,,,,,,1.637,2.303,618.721252400006,None,,,,,,,,,,,,,,,,,,,,619.2618912000034,619.7658211000089,0.5059054700104753,1.0062129700090736,619.7491674000048,619.8659205000004,619.7491674000048,619.8659205000004,619.8492081000004,None,c,1,619.8492081000004,None,0.8385281999944709,,,,,,,p162,2022_Apr_14_1114,training+cueing,2021.1.4,59.720995452934794,
Stranger.png,You,Stranger,m,1.3,15,25,95,,,,,1,0,1,0,,,,,6,0,72,6,,,,,,,,,,,,,,,,,,,,,1.663,2.348,620.822447700004,None,,,,,,,,,,,,,,,,,,,,621.3602958999982,621.8673931000085,0.5133720700105187,1.013654670008691,621.8506723000028,621.9507387000049,621.8506723000028,621.9507387000049,621.9507387000049,None,m,1,621.9507387000049,None,0.7531244999991031,,,,,,,p162,2022_Apr_14_1114,training+cueing,2021.1.4,59.720995452934794,
Self.png,Stranger,Self ,m,3.1,18,28,98,,,,,1,0,1,0,,,,,6,1,73,2,,,,,,,,,,,,,,,,,,,,,1.728,1.773,622.841081400009,None,,,,,,,,,,,,,,,,,,,,623.3954767000105,623.9021603000001,0.5128648599929875,1.013854459990398,623.8855066999968,624.0022413999977,623.8855066999968,624.0022413999977,623.9855335000029,None,m,1,623.9855335000029,None,0.8784485999931348,,,,,,,p162,2022_Apr_14_1114,training+cueing,2021.1.4,59.720995452934794,
Self.png,You,Self ,c,1,11,21,91,,,,,1,0,1,0,,,,,6,2,74,9,,,,,,,,,,,,,,,,,,,,,1.524,2.2,624.9955100000079,None,,,,,,,,,,,,,,,,,,,,625.5372912000021,626.0370607000077,0.5138636699994095,1.0143438700033585,626.0370607000077,626.1371020000079,626.0370607000077,626.1371020000079,626.1371020000079,None,c,1,626.1371020000079,None,0.7268392999976641,,,,,,,p162,2022_Apr_14_1114,training+cueing,2021.1.4,59.720995452934794,
Stranger.png,Friend,Stranger,m,2.3,17,27,97,,,,,1,0,1,0,,,,,6,3,75,7,,,,,,,,,,,,,,,,,,,,,1.72,1.235,626.9953328999982,None,,,,,,,,,,,,,,,,,,,,627.5383221000084,628.0385100999993,0.5008847699937178,1.001157869992312,628.0218732000067,628.1385327000025,628.0218732000067,628.1385327000025,628.1385327000025,None,m,1,628.1385327000025,None,0.8692578000045614,,,,,,,p162,2022_Apr_14_1114,training+cueing,2021.1.4,59.720995452934794,
Self.png,Friend,Self ,m,2.1,16,26,96,,,,,1,0,1,0,,,,,6,4,76,1,,,,,,,,,,,,,,,,,,,,,1.624,2.243,629.1455990999966,None,,,,,,,,,,,,,,,,,,,,629.6834786999971,630.1900084000081,0.5103771700087236,1.0107210700080032,630.1733666000073,630.2900932000048,630.1733666000073,630.2900932000048,630.2734203,None,m,1,630.2734203,None,0.9744537999940803,,,,,,,p162,2022_Apr_14_1114,training+cueing,2021.1.4,59.720995452934794,
Self.png,You,Self ,c,1,11,21,91,,,,,1,0,1,0,,,,,6,5,77,0,,,,,,,,,,,,,,,,,,,,,1.774,1.844,631.3805076999997,None,,,,,,,,,,,,,,,,,,,,631.9193960999983,632.4250644999993,0.5106938700046157,1.0110245700052474,632.4083918000106,632.5084314999986,632.4083918000106,632.5084314999986,632.5084314999986,None,c,1,632.5084314999986,None,0.7232556999952067,,,,,,,p162,2022_Apr_14_1114,training+cueing,2021.1.4,59.720995452934794,
Friend.png,You,Friend,m,1.2,14,24,94,,,,,1,0,1,0,,,,,6,6,78,3,,,,,,,,,,,,,,,,,,,,,1.481,1.362,633.3646735000075,None,,,,,,,,,,,,,,,,,,,,633.9046235999995,634.409793400002,0.5097983700106852,1.0100915700022597,634.3930947000044,634.4931531000038,634.3930947000044,634.4931531000038,634.4931531000038,None,m,1,634.4931531000038,None,0.9785986000060802,,,,,,,p162,2022_Apr_14_1114,training+cueing,2021.1.4,59.720995452934794,
Friend.png,Friend,Friend,c,2,12,22,92,,,,,1,0,1,0,,,,,6,7,79,4,,,,,,,,,,,,,,,,,,,,,1.491,1.734,635.6002896999998,None,,,,,,,,,,,,,,,,,,,,636.1503517000092,636.6614616000006,0.5041793700074777,1.0043166700052097,636.6448774000019,636.7614690000046,636.6448774000019,636.7614690000046,636.7447730999993,None,c,1,636.7447730999993,None,0.6950119999964954,,,,,,,p162,2022_Apr_14_1114,training+cueing,2021.1.4,59.720995452934794,
Stranger.png,Stranger,Stranger,c,3,13,23,93,,,,,1,0,1,0,,,,,6,8,80,8,,,,,,,,,,,,,,,,,,,,,1.783,1.373,637.5685515000077,None,,,,,,,,,,,,,,,,,,,,638.1067260999989,638.612833799998,0.5112817699991865,1.0115040700038662,638.5961665000068,638.7128798000049,638.5961665000068,638.7128798000049,638.6961806000036,None,c,1,638.6961806000036,None,0.855825199992978,,,,,,,p162,2022_Apr_14_1114,training+cueing,2021.1.4,59.720995452934794,
Stranger.png,Stranger,Stranger,c,3,13,23,93,,,,,1,0,1,0,,,,,6,9,81,11,,,,,,,,,,,,,,,,,,,,,1.482,1.438,639.6902469000051,None,,,,,,,,,,,,,,,,,,,,640.2271822000039,640.7310200000065,0.5069162699801382,1.0071985699760262,640.7143718000007,640.8311219000025,640.7143718000007,640.8311219000025,640.8143854000082,None,c,1,640.8143854000082,None,0.4812969000049634,,,,,,,p162,2022_Apr_14_1114,training+cueing,2021.1.4,59.720995452934794,
Friend.png,Friend,Friend,c,2,12,22,92,,,,,1,0,1,0,,,,,6,10,82,10,,,,,,,,,,,,,,,,,,,,,1.582,1.317,641.4205864000105,None,,,,,,,,,,,,,,,,,,,,641.9596981000068,642.4656271999993,0.5100935700029368,1.0103789700078778,642.4489289000048,642.565671400007,642.4489289000048,642.565671400007,642.5489675999997,None,c,1,642.5489675999997,None,0.7147324999968987,,,,,,,p162,2022_Apr_14_1114,training+cueing,2021.1.4,59.720995452934794,
Friend.png,Stranger,Friend,m,3.2,19,29,99,,,,,1,0,1,0,,,,,6,11,83,5,,,,,,,,,,,,,,,,,,,,,1.79,1.467,643.3892990000022,None,,,,,,,,,,,,,,,,,,,,643.932075100005,644.4337214999978,0.5046911700046621,1.00491637000232,644.4172186000069,644.534330800001,644.4172186000069,644.534330800001,644.5170606000029,None,m,1,644.5170606000029,None,0.9868796999944607,,,,,,,p162,2022_Apr_14_1114,training+cueing,2021.1.4,59.720995452934794,
