Image,Name,Face,CorrAns,Match,Face_onset,CResponse_onset,IResponse_onset,Match.thisRepN,Match.thisTrialN,Match.thisN,Match.thisIndex,Blocks.thisRepN,Blocks.thisTrialN,Blocks.thisN,Blocks.thisIndex,trials.thisRepN,trials.thisTrialN,trials.thisN,trials.thisIndex,trials_2.thisRepN,trials_2.thisTrialN,trials_2.thisN,trials_2.thisIndex,text.started,text.stopped,p1.started,p1.stopped,MatchInstructions.started,MatchInstructions.stopped,Name1.started,Name1.stopped,Face_Relevance.started,Face_Relevance.stopped,MismatchInstructions.started,MismatchInstructions.stopped,Rest_trainingInstruct.started,Rest_trainingInstruct.stopped,next8.keys,next8.rt,next8.started,next8.stopped,Ready.started,Ready.stopped,delay_one_picked,delay_two_picked,blank0.started,blank0.stopped,FixationCross1.started,FixationCross1.stopped,Name3.started,Name3.stopped,Face_Relevance3.started,Face_Relevance3.stopped,responseTime.started,responseTime.stopped,resp.keys,resp.corr,resp.started,resp.stopped,Accuracy.started,Accuracy.stopped,resp.rt,questions.started,questions.stopped,p2.started,p2.stopped,FixationCross3.started,FixationCross3.stopped,port_Face_onset.started,port_Face_onset.stopped,Name4.started,Name4.stopped,Face_Relevance4.started,Face_Relevance4.stopped,responseTime2.started,responseTime2.stopped,Response.keys,Response.corr,Response.started,Response.stopped,Response.rt,p3.started,p3.stopped,Finish.started,Finish.stopped,gender,age,participant,date,expName,psychopyVersion,frameRate,
Friend.png,Friend,,,,,,,0,0,0,1,,,,,,,,,,,,,21.5706689999206,None,0.0058187001850456,0.5255819002632052,30.180204599979334,None,44.41707289998885,None,44.41707289998885,None,,,,,,,,,,,,,,,,,,,,,,,,,,,,,,,,,,,,,,,,,,,,,,,,,,,,,,,p17,2022_Apr_19_1054,training+cueing,2021.1.4,59.95394339292472,
Self.png,You,,,,,,,0,1,1,0,,,,,,,,,,,,,,,,,,,64.30987369990908,None,64.30987369990908,None,,,,,,,,,,,,,,,,,,,,,,,,,,,,,,,,,,,,,,,,,,,,,,,,,,,,,,,p17,2022_Apr_19_1054,training+cueing,2021.1.4,59.95394339292472,
Stranger.png,Stranger,,,,,,,0,2,2,2,,,,,,,,,,,,,,,,,,,84.30938240000978,None,84.30938240000978,None,,,,,,,,,,,,,,,,,,,,,,,,,,,,,,,,,,,,,,,,,,,,,,,,,,,,,,,p17,2022_Apr_19_1054,training+cueing,2021.1.4,59.95394339292472,
Self.png,You,Self ,c,1,11,21,91,,,,,0,0,0,0,0,0,0,0,,,,,,,,,,,,,,,104.26920749992132,None,153.58809489989653,None,space,0.3614408998982981,2.0087661599973217,None,155.95650719990954,None,1.55,2.143,158.97339289996307,None,159.59980969992466,160.10936609993223,160.09274359990377,160.1927412999794,160.09274359990377,160.1927412999794,160.1927412999794,None,None,0,160.1927412999794,None,161.74599169997964,None,,,,,,,,,,,,,,,,,,,,,,,,,,,p17,2022_Apr_19_1054,training+cueing,2021.1.4,59.95394339292472,
Stranger.png,Stranger,Stranger,c,3,13,23,93,,,,,0,0,0,0,0,1,1,11,,,,,,,,,,,,,,,,,,,,,,,,,1.559,2.175,162.16086659999564,None,162.69362589996308,163.1948904999299,163.17826789990067,163.2951158999931,163.17826789990067,163.2951158999931,163.2784538998967,None,m,0,163.2784538998967,None,164.1276208999334,None,0.829354300047271,,,,,,,,,,,,,,,,,,,,,,,,,,p17,2022_Apr_19_1054,training+cueing,2021.1.4,59.95394339292472,
Self.png,You,Self ,c,1,11,21,91,,,,,0,0,0,0,0,2,2,9,,,,,,,,,,,,,,,,,,,,,,,,,1.711,2.171,164.52938189997803,None,165.0678188999882,165.5801380999619,165.56345549994148,165.6638086999301,165.56345549994148,165.6638086999301,165.6638086999301,None,c,1,165.6638086999301,None,166.44734189996962,None,0.7477567000314593,,,,,,,,,,,,,,,,,,,,,,,,,,p17,2022_Apr_19_1054,training+cueing,2021.1.4,59.95394339292472,
Friend.png,You,Friend,m,1.2,14,24,94,,,,,0,0,0,0,0,3,3,3,,,,,,,,,,,,,,,,,,,,,,,,,1.743,2.063,166.84829899994656,None,167.38158269994892,167.88159559993073,167.86500260001048,167.96517219999805,167.86500260001048,167.96517219999805,167.96517219999805,None,m,1,167.96517219999805,None,168.6989682998974,None,0.7184895999962464,,,,,,,,,,,,,,,,,,,,,,,,,,p17,2022_Apr_19_1054,training+cueing,2021.1.4,59.95394339292472,
Friend.png,Friend,Friend,c,2,12,22,92,,,,,0,0,0,0,0,4,4,4,,,,,,,,,,,,,,,,,,,,,,,,,1.523,1.418,169.09933939995244,None,169.63645889994223,170.15004459989723,170.13297559996136,170.2500153000001,170.13297559996136,170.2500153000001,170.233314699959,None,c,1,170.233314699959,None,170.99950619996525,None,0.738351900014095,,,,,,,,,,,,,,,,,,,,,,,,,,p17,2022_Apr_19_1054,training+cueing,2021.1.4,59.95394339292472,
Friend.png,Friend,Friend,c,2,12,22,92,,,,,0,0,0,0,0,5,5,10,,,,,,,,,,,,,,,,,,,,,,,,,1.499,2.22,171.40110809996258,None,171.93942499998957,172.45175389992073,172.43508719990496,172.55184500000905,172.43508719990496,172.55184500000905,172.53508009994403,None,c,1,172.53508009994403,None,173.25089689996094,None,0.6927041000453755,,,,,,,,,,,,,,,,,,,,,,,,,,p17,2022_Apr_19_1054,training+cueing,2021.1.4,59.95394339292472,
Stranger.png,Stranger,Stranger,c,3,13,23,93,,,,,0,0,0,0,0,6,6,8,,,,,,,,,,,,,,,,,,,,,,,,,1.541,1.754,173.65263309993315,None,174.19147339998744,174.70321969990619,174.68654339993373,174.80327699996997,174.68654339993373,174.80327699996997,174.78656459995545,None,m,0,174.78656459995545,None,175.430293399957,None,0.6172475999919698,,,,,,,,,,,,,,,,,,,,,,,,,,p17,2022_Apr_19_1054,training+cueing,2021.1.4,59.95394339292472,
Self.png,Stranger,Self ,m,3.1,18,28,98,,,,,0,0,0,0,0,7,7,2,,,,,,,,,,,,,,,,,,,,,,,,,1.501,2.137,175.83754249999765,None,176.37453459994867,176.8881308999844,176.8714750999352,176.9884622999234,176.8714750999352,176.9884622999234,176.97160930000246,None,m,1,176.97160930000246,None,177.7723016999662,None,0.7842117000836879,,,,,,,,,,,,,,,,,,,,,,,,,,p17,2022_Apr_19_1054,training+cueing,2021.1.4,59.95394339292472,
Stranger.png,Friend,Stranger,m,2.3,17,27,97,,,,,0,0,0,0,0,8,8,7,,,,,,,,,,,,,,,,,,,,,,,,,1.412,2.462,178.17250539991073,None,178.71136630000547,179.22313579998445,179.20647249999456,179.323182299966,179.20647249999456,179.323182299966,179.30652609991375,None,c,0,179.30652609991375,None,180.25379569991492,None,0.9133650999283418,,,,,,,,,,,,,,,,,,,,,,,,,,p17,2022_Apr_19_1054,training+cueing,2021.1.4,59.95394339292472,
Friend.png,Stranger,Friend,m,3.2,19,29,99,,,,,0,0,0,0,0,9,9,5,,,,,,,,,,,,,,,,,,,,,,,,,1.459,1.525,180.6575456999708,None,181.1912680999376,181.69159209995996,181.6749348999001,181.79163609992247,181.6749348999001,181.79163609992247,181.79163609992247,None,m,1,181.79163609992247,None,182.58577359991614,None,0.7644294999772683,,,,,,,,,,,,,,,,,,,,,,,,,,p17,2022_Apr_19_1054,training+cueing,2021.1.4,59.95394339292472,
Self.png,Friend,Self ,m,2.1,16,26,96,,,,,0,0,0,0,0,10,10,1,,,,,,,,,,,,,,,,,,,,,,,,,1.704,1.656,182.99326549994294,None,183.52645149989985,184.02661529998295,184.00994819996413,184.12666869990062,184.00994819996413,184.12666869990062,184.12666869990062,None,m,1,184.12666869990062,None,185.52772499993443,None,1.3729186001000926,,,,,,,,,,,,,,,,,,,,,,,,,,p17,2022_Apr_19_1054,training+cueing,2021.1.4,59.95394339292472,
Stranger.png,You,Stranger,m,1.3,15,25,95,,,,,0,0,0,0,0,11,11,6,,,,,,,,,,,,,,,,,,,,,,,,,1.724,1.518,185.9282367998967,None,186.466375399963,186.97875069989823,186.962074299925,187.06213199999183,186.962074299925,187.06213199999183,187.06213199999183,None,m,1,187.06213199999183,None,187.9651321999263,None,0.8857690000440925,,,,,,,,,,,,,,,,,,,,,,,,,,p17,2022_Apr_19_1054,training+cueing,2021.1.4,59.95394339292472,
Self.png,You,Self ,c,1,11,21,91,,,,,0,0,0,0,,,,,0,0,0,0,,,,,,,,,,,,,,,,,,,212.88087200000882,None,1.402,1.891,216.41073429991957,None,,,,,,,,,,,,,,,,188.37995679990854,None,0.014831859967671335,None,217.00862029998098,217.51744699990377,0.5157019399339333,1.0161927399458364,217.50082799990196,217.60081729991361,217.50082799990196,217.60081729991361,217.60081729991361,None,None,0,217.60081729991361,None,,,,,,,,p17,2022_Apr_19_1054,training+cueing,2021.1.4,59.95394339292472,
Friend.png,Stranger,Friend,m,3.2,19,29,99,,,,,0,0,0,0,,,,,0,1,1,5,,,,,,,,,,,,,,,,,,,,,1.499,1.227,219.10988819994964,None,,,,,,,,,,,,,,,,,,,,219.65147809998598,220.15269419993274,0.5015280800871551,1.0018261800287291,220.1360162999481,220.25275159999728,220.1360162999481,220.25275159999728,220.25275159999728,None,c,0,220.25275159999728,None,1.3268564000027254,,,,,,,p17,2022_Apr_19_1054,training+cueing,2021.1.4,59.95394339292472,
Stranger.png,Stranger,Stranger,c,3,13,23,93,,,,,0,0,0,0,,,,,0,2,2,11,,,,,,,,,,,,,,,,,,,,,1.607,1.68,221.7101868999889,None,,,,,,,,,,,,,,,,,,,,222.24918229994364,222.75457939994521,0.5113237799378112,1.0123733798973262,222.73792429990135,222.85464379994664,222.73792429990135,222.85464379994664,222.83792049996555,None,c,1,222.83792049996555,None,0.9017683999845758,,,,,,,p17,2022_Apr_19_1054,training+cueing,2021.1.4,59.95394339292472,
Friend.png,Friend,Friend,c,2,12,22,92,,,,,0,0,0,0,,,,,0,3,3,4,,,,,,,,,,,,,,,,,,,,,1.688,1.326,223.86290670000017,None,,,,,,,,,,,,,,,,,,,,224.40446639992297,224.90610449993983,0.5019905801163986,1.0022819801233709,224.88946440001018,225.00616469990928,224.88946440001018,225.00616469990928,224.98947739996947,None,c,1,224.98947739996947,None,0.9262285999720916,,,,,,,p17,2022_Apr_19_1054,training+cueing,2021.1.4,59.95394339292472,
Stranger.png,You,Stranger,m,1.3,15,25,95,,,,,0,0,0,0,,,,,0,4,4,6,,,,,,,,,,,,,,,,,,,,,1.727,1.718,226.0479633999057,None,,,,,,,,,,,,,,,,,,,,226.58860949997324,227.0910290000029,0.5056465800153092,1.0059371800161898,227.0743661999004,227.17438419989776,227.0743661999004,227.17438419989776,227.17438419989776,None,m,1,227.17438419989776,None,0.8052040000911802,,,,,,,p17,2022_Apr_19_1054,training+cueing,2021.1.4,59.95394339292472,
Stranger.png,Stranger,Stranger,c,3,13,23,93,,,,,0,0,0,0,,,,,0,5,5,8,,,,,,,,,,,,,,,,,,,,,1.767,2.042,228.1145631999243,None,,,,,,,,,,,,,,,,,,,,228.6573311999673,229.15936419996433,0.5056974799372256,1.0059462799690664,229.14270629989915,229.25942559994292,229.14270629989915,229.25942559994292,229.2427139999345,None,c,1,229.2427139999345,None,0.8489876999519765,,,,,,,p17,2022_Apr_19_1054,training+cueing,2021.1.4,59.95394339292472,
Self.png,Stranger,Self ,m,3.1,18,28,98,,,,,0,0,0,0,,,,,0,6,6,2,,,,,,,,,,,,,,,,,,,,,1.681,1.598,230.22037459991407,None,,,,,,,,,,,,,,,,,,,,230.75677259999793,231.26070909993723,0.5066218799911439,1.007141979993321,231.24405849992763,231.36074479995295,231.24405849992763,231.36074479995295,231.3440585999051,None,m,1,231.3440585999051,None,0.9875046999659389,,,,,,,p17,2022_Apr_19_1054,training+cueing,2021.1.4,59.95394339292472,
Self.png,Friend,Self ,m,2.1,16,26,96,,,,,0,0,0,0,,,,,0,7,7,1,,,,,,,,,,,,,,,,,,,,,1.476,1.589,232.46747899998445,None,,,,,,,,,,,,,,,,,,,,233.0154898999026,233.52901699999347,0.509884380036965,1.0101641800720245,233.51234579994343,233.62926159997005,233.51234579994343,233.62926159997005,233.61235119996127,None,m,1,233.61235119996127,None,0.8151957000372931,,,,,,,p17,2022_Apr_19_1054,training+cueing,2021.1.4,59.95394339292472,
Friend.png,You,Friend,m,1.2,14,24,94,,,,,0,0,0,0,,,,,0,8,8,3,,,,,,,,,,,,,,,,,,,,,1.668,1.364,234.55309519998264,None,,,,,,,,,,,,,,,,,,,,235.10580989997834,235.61385929991957,0.5144181401701644,1.0154852401465178,235.59720600000583,235.69723229994997,235.59720600000583,235.69723229994997,235.69723229994997,None,m,1,235.69723229994997,None,0.6504847999894992,,,,,,,p17,2022_Apr_19_1054,training+cueing,2021.1.4,59.95394339292472,
Self.png,You,Self ,c,1,11,21,91,,,,,0,0,0,0,,,,,0,9,9,9,,,,,,,,,,,,,,,,,,,,,1.406,1.941,236.47163669997826,None,,,,,,,,,,,,,,,,,,,,237.01325329998508,237.51541269989684,0.5049505799543113,1.00523897993844,237.49871219997294,237.59876809990965,237.49871219997294,237.59876809990965,237.59876809990965,None,c,1,237.59876809990965,None,0.6528254000004381,,,,,,,p17,2022_Apr_19_1054,training+cueing,2021.1.4,59.95394339292472,
Stranger.png,Friend,Stranger,m,2.3,17,27,97,,,,,0,0,0,0,,,,,0,10,10,7,,,,,,,,,,,,,,,,,,,,,1.449,2.149,238.3897403998999,None,,,,,,,,,,,,,,,,,,,,238.94832859991584,239.44995759997983,0.5050716400146484,1.0053748399950564,239.43328449991532,239.55004349991214,239.43328449991532,239.55004349991214,239.53347119991668,None,m,1,239.53347119991668,None,0.8620578000554815,,,,,,,p17,2022_Apr_19_1054,training+cueing,2021.1.4,59.95394339292472,
Friend.png,Friend,Friend,c,2,12,22,92,,,,,0,0,0,0,,,,,0,11,11,10,,,,,,,,,,,,,,,,,,,,,1.576,1.415,240.52402589994017,None,,,,,,,,,,,,,,,,,,,,241.0607369999634,241.56814190000296,0.5120211801258847,1.0123385800980031,241.5514911999926,241.66833149990998,241.5514911999926,241.66833149990998,241.6515162999276,None,c,1,241.6515162999276,None,0.7120793000794947,,,,,,,p17,2022_Apr_19_1054,training+cueing,2021.1.4,59.95394339292472,
Stranger.png,You,Stranger,m,1.3,15,25,95,,,,,0,0,0,0,,,,,1,0,12,6,,,,,,,,,,,,,,,,,,,,,1.42,1.721,242.49154519999865,None,,,,,,,,,,,,,,,,,,,,243.0323849999113,243.53625519992784,0.507713979925029,1.0080049799289554,243.5195834999904,243.6196233999217,243.5195834999904,243.6196233999217,243.6196233999217,None,m,1,243.6196233999217,None,0.7279535999987274,,,,,,,p17,2022_Apr_19_1054,training+cueing,2021.1.4,59.95394339292472,
Stranger.png,Stranger,Stranger,c,3,13,23,93,,,,,0,0,0,0,,,,,1,1,13,8,,,,,,,,,,,,,,,,,,,,,1.675,1.776,244.47645349998493,None,,,,,,,,,,,,,,,,,,,,245.01706859993283,245.5209945999086,0.5067395800724626,1.0070574800483882,245.50435579998884,245.62102590000723,245.50435579998884,245.62102590000723,245.6043851999566,None,m,0,245.6043851999566,None,0.6631953000323847,,,,,,,p17,2022_Apr_19_1054,training+cueing,2021.1.4,59.95394339292472,
Friend.png,Stranger,Friend,m,3.2,19,29,99,,,,,0,0,0,0,,,,,1,2,14,5,,,,,,,,,,,,,,,,,,,,,1.668,1.286,246.3947099999059,None,,,,,,,,,,,,,,,,,,,,246.93233819992747,247.4390569999814,0.5115422799717635,1.0126027798978612,247.42241799994372,247.5391074999934,247.42241799994372,247.5391074999934,247.52243329992052,None,m,1,247.52243329992052,None,0.6975359000498429,,,,,,,p17,2022_Apr_19_1054,training+cueing,2021.1.4,59.95394339292472,
Stranger.png,Friend,Stranger,m,2.3,17,27,97,,,,,0,0,0,0,,,,,1,3,15,7,,,,,,,,,,,,,,,,,,,,,1.5,1.236,248.34963809989858,None,,,,,,,,,,,,,,,,,,,,248.88748619996477,249.39057679998223,0.5054124799789861,1.0056532800663263,249.3739391999552,249.49063079990447,249.3739391999552,249.49063079990447,249.47394179995172,None,m,1,249.47394179995172,None,0.7936611999757588,,,,,,,p17,2022_Apr_19_1054,training+cueing,2021.1.4,59.95394339292472,
Self.png,Friend,Self ,m,2.1,16,26,96,,,,,0,0,0,0,,,,,1,4,16,1,,,,,,,,,,,,,,,,,,,,,1.578,2.447,250.39761569991242,None,,,,,,,,,,,,,,,,,,,,250.93565030000173,251.44193309999537,0.5113742799730971,1.011662380071357,251.42531520000193,251.54200189991388,251.42531520000193,251.54200189991388,251.52531579998322,None,m,1,251.52531579998322,None,0.6622643999289721,,,,,,,p17,2022_Apr_19_1054,training+cueing,2021.1.4,59.95394339292472,
Friend.png,You,Friend,m,1.2,14,24,94,,,,,0,0,0,0,,,,,1,5,17,3,,,,,,,,,,,,,,,,,,,,,1.702,2.226,252.3150675999932,None,,,,,,,,,,,,,,,,,,,,252.86493819998577,253.37667619995773,0.5062402799958363,1.0065414799610153,253.36000489990693,253.46005879994482,253.36000489990693,253.46005879994482,253.46005879994482,None,m,1,253.46005879994482,None,0.6795348000014201,,,,,,,p17,2022_Apr_19_1054,training+cueing,2021.1.4,59.95394339292472,
Self.png,Stranger,Self ,m,3.1,18,28,98,,,,,0,0,0,0,,,,,1,6,18,2,,,,,,,,,,,,,,,,,,,,,1.525,1.287,254.2666176999919,None,,,,,,,,,,,,,,,,,,,,254.80797029996756,255.31144369998947,0.5058148800162598,1.006051880074665,255.29477769997902,255.41148929996416,255.29477769997902,255.41148929996416,255.39475360000506,None,m,1,255.39475360000506,None,0.9848479999927804,,,,,,,p17,2022_Apr_19_1054,training+cueing,2021.1.4,59.95394339292472,
Friend.png,Friend,Friend,c,2,12,22,92,,,,,0,0,0,0,,,,,1,7,19,4,,,,,,,,,,,,,,,,,,,,,1.468,1.364,256.50290899991523,None,,,,,,,,,,,,,,,,,,,,257.0581686999649,257.56308479991276,0.507937140064314,1.008237240021117,257.5463789999485,257.66308639990166,257.5463789999485,257.66308639990166,257.64640460000373,None,c,1,257.64640460000373,None,1.1171312999213114,,,,,,,p17,2022_Apr_19_1054,training+cueing,2021.1.4,59.95394339292472,
Self.png,You,Self ,c,1,11,21,91,,,,,0,0,0,0,,,,,1,8,20,0,,,,,,,,,,,,,,,,,,,,,1.422,2.401,258.88702049991116,None,,,,,,,,,,,,,,,,,,,,259.42608869995456,259.93140709993895,0.5094852800248191,1.0097812799504027,259.9147473999765,260.0147830999922,259.9147473999765,260.0147830999922,260.0147830999922,None,c,1,260.0147830999922,None,0.7808554999064654,,,,,,,p17,2022_Apr_19_1054,training+cueing,2021.1.4,59.95394339292472,
Self.png,You,Self ,c,1,11,21,91,,,,,0,0,0,0,,,,,1,9,21,9,,,,,,,,,,,,,,,,,,,,,1.403,2.145,260.92201149999164,None,,,,,,,,,,,,,,,,,,,,261.4605517999735,261.96630849991925,0.5115069800522178,1.0123579800128937,261.9497363999253,262.0496014999226,261.9497363999253,262.0496014999226,262.0496014999226,None,c,1,262.0496014999226,None,0.8901618999661878,,,,,,,p17,2022_Apr_19_1054,training+cueing,2021.1.4,59.95394339292472,
Friend.png,Friend,Friend,c,2,12,22,92,,,,,0,0,0,0,,,,,1,10,22,10,,,,,,,,,,,,,,,,,,,,,1.555,2.213,263.07768220000435,None,,,,,,,,,,,,,,,,,,,,263.6152410999639,264.1177592999302,0.5030504800379276,1.004098579986021,264.1011161999777,264.21779669995885,264.1011161999777,264.21779669995885,264.2011265999172,None,c,1,264.2011265999172,None,1.090658700093627,,,,,,,p17,2022_Apr_19_1054,training+cueing,2021.1.4,59.95394339292472,
Stranger.png,Stranger,Stranger,c,3,13,23,93,,,,,0,0,0,0,,,,,1,11,23,11,,,,,,,,,,,,,,,,,,,,,1.747,2.241,265.4264262999641,None,,,,,,,,,,,,,,,,,,,,265.97557819995563,266.4861234999262,0.5039142798632383,1.0042196798603982,266.4694712999044,266.5861785999732,266.4694712999044,266.5861785999732,266.56950179999694,None,c,1,266.56950179999694,None,0.8180491999955848,,,,,,,p17,2022_Apr_19_1054,training+cueing,2021.1.4,59.95394339292472,
Friend.png,Stranger,Friend,m,3.2,19,29,99,,,,,0,0,0,0,,,,,2,0,24,5,,,,,,,,,,,,,,,,,,,,,1.53,2.414,267.50995929993223,None,,,,,,,,,,,,,,,,,,,,268.0484412999358,268.55432489991654,0.5101693799952045,1.0112059799721465,268.53764479991514,268.65512649994344,268.53764479991514,268.65512649994344,268.63837419997435,None,m,1,268.63837419997435,None,1.0692260999931023,,,,,,,p17,2022_Apr_19_1054,training+cueing,2021.1.4,59.95394339292472,
Stranger.png,Stranger,Stranger,c,3,13,23,93,,,,,0,0,0,0,,,,,2,1,25,8,,,,,,,,,,,,,,,,,,,,,1.605,1.712,269.8456618000055,None,,,,,,,,,,,,,,,,,,,,270.3834069999866,270.88929349998944,0.5115618800045922,1.0118830800056458,270.8726559999632,270.989367299946,270.8726559999632,270.989367299946,270.97270889999345,None,c,1,270.97270889999345,None,0.7347987999673933,,,,,,,p17,2022_Apr_19_1054,training+cueing,2021.1.4,59.95394339292472,
Self.png,You,Self ,c,1,11,21,91,,,,,0,0,0,0,,,,,2,2,26,0,,,,,,,,,,,,,,,,,,,,,1.577,2.168,271.82938069989905,None,,,,,,,,,,,,,,,,,,,,272.36786239990033,272.87407339992933,0.5129397800192237,1.0131880800472572,272.85744219995104,272.9575476999162,272.85744219995104,272.9575476999162,272.9575476999162,None,c,1,272.9575476999162,None,0.6699508000165224,,,,,,,p17,2022_Apr_19_1054,training+cueing,2021.1.4,59.95394339292472,
Self.png,Friend,Self ,m,2.1,16,26,96,,,,,0,0,0,0,,,,,2,3,27,1,,,,,,,,,,,,,,,,,,,,,1.486,2.452,273.76490690000355,None,,,,,,,,,,,,,,,,,,,,274.30456209997647,274.8088321000105,0.506834680098109,1.007154680090025,274.7921505999984,274.908867299906,274.7921505999984,274.908867299906,274.89214949996676,None,m,1,274.89214949996676,None,0.6233628999907523,,,,,,,p17,2022_Apr_19_1054,training+cueing,2021.1.4,59.95394339292472,
Friend.png,Friend,Friend,c,2,12,22,92,,,,,0,0,0,0,,,,,2,4,28,4,,,,,,,,,,,,,,,,,,,,,1.586,2.374,275.6492039998993,None,,,,,,,,,,,,,,,,,,,,276.1874916999368,276.6935161999427,0.5117244799621403,1.0119728799909353,276.67685970000457,276.79354499990586,276.67685970000457,276.79354499990586,276.7768753999844,None,c,1,276.7768753999844,None,0.7706264000153169,,,,,,,p17,2022_Apr_19_1054,training+cueing,2021.1.4,59.95394339292472,
Self.png,Stranger,Self ,m,3.1,18,28,98,,,,,0,0,0,0,,,,,2,5,29,2,,,,,,,,,,,,,,,,,,,,,1.64,1.356,277.6834909999743,None,,,,,,,,,,,,,,,,,,,,278.2251999999862,278.7284835999599,0.5062895800219849,1.0064215800957754,278.7117907999782,278.8285419999156,278.7117907999782,278.8285419999156,278.81182770000305,None,m,1,278.81182770000305,None,0.6396030000178143,,,,,,,p17,2022_Apr_19_1054,training+cueing,2021.1.4,59.95394339292472,
Friend.png,You,Friend,m,1.2,14,24,94,,,,,0,0,0,0,,,,,2,6,30,3,,,,,,,,,,,,,,,,,,,,,1.602,2.307,279.585322799976,None,,,,,,,,,,,,,,,,,,,,280.1256234999746,280.6296790000051,0.5067491800291464,1.0070473799714819,280.61302159994375,280.71304649999365,280.61302159994375,280.71304649999365,280.71304649999365,None,m,1,280.71304649999365,None,0.9304671999998391,,,,,,,p17,2022_Apr_19_1054,training+cueing,2021.1.4,59.95394339292472,
Stranger.png,Friend,Stranger,m,2.3,17,27,97,,,,,0,0,0,0,,,,,2,7,31,7,,,,,,,,,,,,,,,,,,,,,1.678,1.351,281.7702180999331,None,,,,,,,,,,,,,,,,,,,,282.32567729998846,282.8313261999283,0.5112831400474533,1.011546240071766,282.8146848999895,282.93135119997896,282.8146848999895,282.93135119997896,282.9145976,None,m,1,282.9145976,None,1.0807747999206185,,,,,,,p17,2022_Apr_19_1054,training+cueing,2021.1.4,59.95394339292472,
Friend.png,Friend,Friend,c,2,12,22,92,,,,,0,0,0,0,,,,,2,8,32,10,,,,,,,,,,,,,,,,,,,,,1.693,1.988,284.1211508999113,None,,,,,,,,,,,,,,,,,,,,284.65973329998087,285.16632129997015,0.5112933799391612,1.011591579997912,285.1496547999559,285.2663491999265,285.1496547999559,285.2663491999265,285.2496674999129,None,c,1,285.2496674999129,None,0.8259074001107365,,,,,,,p17,2022_Apr_19_1054,training+cueing,2021.1.4,59.95394339292472,
Stranger.png,You,Stranger,m,1.3,15,25,95,,,,,0,0,0,0,,,,,2,9,33,6,,,,,,,,,,,,,,,,,,,,,1.527,1.685,286.2068358999677,None,,,,,,,,,,,,,,,,,,,,286.74782769999,287.25113359990064,0.507346980040893,1.0076174800051376,287.2344859999139,287.33451739989687,287.2344859999139,287.33451739989687,287.33451739989687,None,m,1,287.33451739989687,None,0.661018899991177,,,,,,,p17,2022_Apr_19_1054,training+cueing,2021.1.4,59.95394339292472,
Stranger.png,Stranger,Stranger,c,3,13,23,93,,,,,0,0,0,0,,,,,2,10,34,11,,,,,,,,,,,,,,,,,,,,,1.565,2.305,288.125395399984,None,,,,,,,,,,,,,,,,,,,,288.6661017999286,289.1692874999717,0.5059078800259158,1.0063057800289243,289.1525364998961,289.2693532999838,289.1525364998961,289.2693532999838,289.25266030000057,None,m,0,289.25266030000057,None,0.7108848999487236,,,,,,,p17,2022_Apr_19_1054,training+cueing,2021.1.4,59.95394339292472,
Self.png,You,Self ,c,1,11,21,91,,,,,0,0,0,0,,,,,2,11,35,9,,,,,,,,,,,,,,,,,,,,,1.509,2.065,290.0928982999176,None,,,,,,,,,,,,,,,,,,,,290.6294922999805,291.1372905999888,0.512857379973866,1.0131608799565583,291.1205917999614,291.2206315000076,291.1205917999614,291.2206315000076,291.2206315000076,None,c,1,291.2206315000076,None,0.7428720000898466,,,,,,,p17,2022_Apr_19_1054,training+cueing,2021.1.4,59.95394339292472,
Stranger.png,Stranger,Stranger,c,3,13,23,93,,,,,0,0,0,0,,,,,3,0,36,8,,,,,,,,,,,,,,,,,,,,,1.66,1.987,292.09488409990445,None,,,,,,,,,,,,,,,,,,,,292.6366512000095,293.1387023999123,0.5054611798841506,1.0058463799068704,293.1220700999256,293.23887429991737,293.1220700999256,293.23887429991737,293.22224909998477,None,c,1,293.22224909998477,None,0.7732938999542966,,,,,,,p17,2022_Apr_19_1054,training+cueing,2021.1.4,59.95394339292472,
Friend.png,Friend,Friend,c,2,12,22,92,,,,,0,0,0,0,,,,,3,1,37,4,,,,,,,,,,,,,,,,,,,,,1.634,1.766,294.1293845999753,None,,,,,,,,,,,,,,,,,,,,294.6858252999373,295.1902839000104,0.5105874399887398,1.0108694400405511,295.17365019989666,295.2903663999168,295.17365019989666,295.2903663999168,295.2736904999474,None,c,1,295.2736904999474,None,0.9298267000121996,,,,,,,p17,2022_Apr_19_1054,training+cueing,2021.1.4,59.95394339292472,
Self.png,Friend,Self ,m,2.1,16,26,96,,,,,0,0,0,0,,,,,3,2,38,1,,,,,,,,,,,,,,,,,,,,,1.699,2.002,296.3302954999963,None,,,,,,,,,,,,,,,,,,,,296.88020959997084,297.39179609995335,0.5061336801154539,1.0064795800717548,297.37511529994663,297.4918514000019,297.37511529994663,297.4918514000019,297.4751009999309,None,m,1,297.4751009999309,None,0.792333299992606,,,,,,,p17,2022_Apr_19_1054,training+cueing,2021.1.4,59.95394339292472,
Self.png,You,Self ,c,1,11,21,91,,,,,0,0,0,0,,,,,3,3,39,9,,,,,,,,,,,,,,,,,,,,,1.53,2.128,298.3995714999037,None,,,,,,,,,,,,,,,,,,,,298.9373597999802,299.4432819999056,0.5108024799264967,1.0111061800271273,299.42660329991486,299.52663799992297,299.42660329991486,299.52663799992297,299.52663799992297,None,c,1,299.52663799992297,None,1.092783399973996,,,,,,,p17,2022_Apr_19_1054,training+cueing,2021.1.4,59.95394339292472,
Self.png,Stranger,Self ,m,3.1,18,28,98,,,,,0,0,0,0,,,,,3,4,40,2,,,,,,,,,,,,,,,,,,,,,1.55,1.529,300.7506095999852,None,,,,,,,,,,,,,,,,,,,,301.2890812999103,301.79497299995273,0.5085367800202221,1.0090703800087795,301.7783033999149,301.89576189999934,301.7783033999149,301.89576189999934,301.87906259996817,None,m,1,301.87906259996817,None,1.4124330000486225,,,,,,,p17,2022_Apr_19_1054,training+cueing,2021.1.4,59.95394339292472,
Friend.png,Stranger,Friend,m,3.2,19,29,99,,,,,0,0,0,0,,,,,3,5,41,5,,,,,,,,,,,,,,,,,,,,,1.563,2.193,303.41987899993546,None,,,,,,,,,,,,,,,,,,,,303.95770199992694,304.46359189995565,0.5107748799491674,1.0110106798820198,304.4469524999149,304.56363929994404,304.4469524999149,304.56363929994404,304.54691939998884,None,m,1,304.54691939998884,None,0.744546499918215,,,,,,,p17,2022_Apr_19_1054,training+cueing,2021.1.4,59.95394339292472,
Stranger.png,You,Stranger,m,1.3,15,25,95,,,,,0,0,0,0,,,,,3,6,42,6,,,,,,,,,,,,,,,,,,,,,1.477,2.165,305.42055589996744,None,,,,,,,,,,,,,,,,,,,,305.9611589999404,306.465023299912,0.5075365799712017,1.007864180020988,306.4483170999447,306.5483908999013,306.4483170999447,306.5483908999013,306.5483908999013,None,m,1,306.5483908999013,None,0.8389845000347123,,,,,,,p17,2022_Apr_19_1054,training+cueing,2021.1.4,59.95394339292472,
Self.png,You,Self ,c,1,11,21,91,,,,,0,0,0,0,,,,,3,7,43,0,,,,,,,,,,,,,,,,,,,,,1.703,1.467,307.5220959999133,None,,,,,,,,,,,,,,,,,,,,308.0608262999449,308.56654739996884,0.5102028799010441,1.0104980799369514,308.5498578000115,308.6498541999608,308.5498578000115,308.6498541999608,308.6498541999608,None,c,1,308.6498541999608,None,0.7215907999780029,,,,,,,p17,2022_Apr_19_1054,training+cueing,2021.1.4,59.95394339292472,
Friend.png,Friend,Friend,c,2,12,22,92,,,,,0,0,0,0,,,,,3,8,44,10,,,,,,,,,,,,,,,,,,,,,1.452,2.449,309.5071630999446,None,,,,,,,,,,,,,,,,,,,,310.04586559999734,310.5512725999579,0.5113459798740223,1.0118812798755243,310.5346490999218,310.65132219996303,310.5346490999218,310.65132219996303,310.6346629000036,None,c,1,310.6346629000036,None,0.6248667999170721,,,,,,,p17,2022_Apr_19_1054,training+cueing,2021.1.4,59.95394339292472,
Friend.png,You,Friend,m,1.2,14,24,94,,,,,0,0,0,0,,,,,3,9,45,3,,,,,,,,,,,,,,,,,,,,,1.501,1.807,311.39116789994296,None,,,,,,,,,,,,,,,,,,,,311.9326307999436,312.43602359993383,0.5072368800174445,1.0076551800593734,312.41929529991467,312.51935029996093,312.41929529991467,312.51935029996093,312.51935029996093,None,m,1,312.51935029996093,None,0.8200838000047952,,,,,,,p17,2022_Apr_19_1054,training+cueing,2021.1.4,59.95394339292472,
Stranger.png,Stranger,Stranger,c,3,13,23,93,,,,,0,0,0,0,,,,,3,10,46,11,,,,,,,,,,,,,,,,,,,,,1.662,1.746,313.4761621999787,None,,,,,,,,,,,,,,,,,,,,314.0157341999002,314.5208165999502,0.5091121799778193,1.0094167799688876,314.5041701999726,314.62088429997675,314.5041701999726,314.62088429997675,314.60418889997527,None,m,0,314.60418889997527,None,1.0232278000330552,,,,,,,p17,2022_Apr_19_1054,training+cueing,2021.1.4,59.95394339292472,
Stranger.png,Friend,Stranger,m,2.3,17,27,97,,,,,0,0,0,0,,,,,3,11,47,7,,,,,,,,,,,,,,,,,,,,,1.606,2.416,315.7613688999554,None,,,,,,,,,,,,,,,,,,,,316.30200799996965,316.8058323999867,0.5070534800179303,1.0080630800221115,316.78919199993834,316.90587049990427,316.78919199993834,316.90587049990427,316.8891631999286,None,m,1,316.8891631999286,None,0.6584883000468835,,,,,,,p17,2022_Apr_19_1054,training+cueing,2021.1.4,59.95394339292472,
Stranger.png,Stranger,Stranger,c,3,13,23,93,,,,,0,0,0,0,,,,,4,0,48,8,,,,,,,,,,,,,,,,,,,,,1.504,2.057,317.6834537999239,None,,,,,,,,,,,,,,,,,,,,318.23876159999054,318.74056129995733,0.5033483401639387,1.003675140091218,318.72391399997286,318.8406161000021,318.72391399997286,318.8406161000021,318.82391429995187,None,c,1,318.82391429995187,None,0.5956128999823704,,,,,,,p17,2022_Apr_19_1054,training+cueing,2021.1.4,59.95394339292472,
Friend.png,Friend,Friend,c,2,12,22,92,,,,,0,0,0,0,,,,,4,1,49,10,,,,,,,,,,,,,,,,,,,,,1.543,2.396,319.5467320999596,None,,,,,,,,,,,,,,,,,,,,320.0882740999805,320.5918985999888,0.5067952800309286,1.0070803801063448,320.575254599913,320.6919557999354,320.575254599913,320.6919557999354,320.6752552000107,None,c,1,320.6752552000107,None,0.7122091999044642,,,,,,,p17,2022_Apr_19_1054,training+cueing,2021.1.4,59.95394339292472,
Self.png,Friend,Self ,m,2.1,16,26,96,,,,,0,0,0,0,,,,,4,2,50,1,,,,,,,,,,,,,,,,,,,,,1.751,1.588,321.5156882998999,None,,,,,,,,,,,,,,,,,,,,322.0677248999709,322.57666469994,0.5011060800170526,1.0021706799743697,322.5600151999388,322.6767075000098,322.5600151999388,322.6767075000098,322.6767075000098,None,m,1,322.6767075000098,None,0.8229649000568315,,,,,,,p17,2022_Apr_19_1054,training+cueing,2021.1.4,59.95394339292472,
Friend.png,Stranger,Friend,m,3.2,19,29,99,,,,,0,0,0,0,,,,,4,3,51,5,,,,,,,,,,,,,,,,,,,,,1.693,1.643,323.6369579999009,None,,,,,,,,,,,,,,,,,,,,324.1745310999686,324.6781570999883,0.5061261799419299,1.006427179905586,324.66150349995587,324.77819769992493,324.66150349995587,324.77819769992493,324.76153749995865,None,m,1,324.76153749995865,None,0.8179369999561459,,,,,,,p17,2022_Apr_19_1054,training+cueing,2021.1.4,59.95394339292472,
Stranger.png,You,Stranger,m,1.3,15,25,95,,,,,0,0,0,0,,,,,4,4,52,6,,,,,,,,,,,,,,,,,,,,,1.711,2.437,325.70086179999635,None,,,,,,,,,,,,,,,,,,,,326.24299539998174,326.7463487999048,0.5072466799756512,1.0082628800300881,326.7297072999645,326.8297157000052,326.7297072999645,326.8297157000052,326.8297157000052,None,m,1,326.8297157000052,None,0.7658854000037536,,,,,,,p17,2022_Apr_19_1054,training+cueing,2021.1.4,59.95394339292472,
Friend.png,You,Friend,m,1.2,14,24,94,,,,,0,0,0,0,,,,,4,5,53,3,,,,,,,,,,,,,,,,,,,,,1.795,2.051,327.72379789990373,None,,,,,,,,,,,,,,,,,,,,328.2590693999082,328.7644533999264,0.5106000800151378,1.0109438800718635,328.7477740999311,328.8478080999339,328.7477740999311,328.8478080999339,328.8478080999339,None,m,1,328.8478080999339,None,0.8115934999659657,,,,,,,p17,2022_Apr_19_1054,training+cueing,2021.1.4,59.95394339292472,
Stranger.png,Friend,Stranger,m,2.3,17,27,97,,,,,0,0,0,0,,,,,4,6,54,7,,,,,,,,,,,,,,,,,,,,,1.754,1.748,329.7881225999445,None,,,,,,,,,,,,,,,,,,,,330.32883479993325,330.83265749993734,0.5063368799164891,1.0074151799781248,330.8159614999313,330.93267999996897,330.8159614999313,330.93267999996897,330.9159845999675,None,m,1,330.9159845999675,None,1.191528799943626,,,,,,,p17,2022_Apr_19_1054,training+cueing,2021.1.4,59.95394339292472,
Stranger.png,Stranger,Stranger,c,3,13,23,93,,,,,0,0,0,0,,,,,4,7,55,11,,,,,,,,,,,,,,,,,,,,,1.425,1.447,332.23963889991865,None,,,,,,,,,,,,,,,,,,,,332.78166430001147,333.28446039999835,0.5048615800915286,1.0051785800606012,333.2677193999989,333.3844555999385,333.2677193999989,333.3844555999385,333.36773279996123,None,c,1,333.36773279996123,None,0.7236904000164941,,,,,,,p17,2022_Apr_19_1054,training+cueing,2021.1.4,59.95394339292472,
Self.png,Stranger,Self ,m,3.1,18,28,98,,,,,0,0,0,0,,,,,4,8,56,2,,,,,,,,,,,,,,,,,,,,,1.473,2.184,334.2245374999475,None,,,,,,,,,,,,,,,,,,,,334.7617300999118,335.2691591999028,0.5116622799541801,1.0119712799787521,335.2524984999327,335.3691619999008,335.2524984999327,335.3691619999008,335.35251259990036,None,m,1,335.35251259990036,None,0.7709125999826938,,,,,,,p17,2022_Apr_19_1054,training+cueing,2021.1.4,59.95394339292472,
Self.png,You,Self ,c,1,11,21,91,,,,,0,0,0,0,,,,,4,9,57,0,,,,,,,,,,,,,,,,,,,,,1.589,2.063,336.25901749997865,None,,,,,,,,,,,,,,,,,,,,336.81142929999623,337.32063289999496,0.5016232799971476,1.001931480015628,337.30399599997327,337.4040388999274,337.30399599997327,337.4040388999274,337.4040388999274,None,c,1,337.4040388999274,None,0.7034028000198305,,,,,,,p17,2022_Apr_19_1054,training+cueing,2021.1.4,59.95394339292472,
Friend.png,Friend,Friend,c,2,12,22,92,,,,,0,0,0,0,,,,,4,10,58,4,,,,,,,,,,,,,,,,,,,,,1.561,1.544,338.2444838999072,None,,,,,,,,,,,,,,,,,,,,338.785523599945,339.28877260000445,0.506783080054447,1.0070392800262198,339.2721076000016,339.38879429991357,339.2721076000016,339.38879429991357,339.37220149999484,None,c,1,339.37220149999484,None,0.6872682000976056,,,,,,,p17,2022_Apr_19_1054,training+cueing,2021.1.4,59.95394339292472,
Self.png,You,Self ,c,1,11,21,91,,,,,0,0,0,0,,,,,4,11,59,9,,,,,,,,,,,,,,,,,,,,,1.74,2.048,340.1954418999376,None,,,,,,,,,,,,,,,,,,,,340.73469259997364,341.24022929999046,0.509521079948172,1.0097405799897388,341.22351969999727,341.3235297999345,341.22351969999727,341.3235297999345,341.3235297999345,None,c,1,341.3235297999345,None,0.783805700019002,,,,,,,p17,2022_Apr_19_1054,training+cueing,2021.1.4,59.95394339292472,
Stranger.png,Stranger,Stranger,c,3,13,23,93,,,,,0,0,0,0,,,,,5,0,60,11,,,,,,,,,,,,,,,,,,,,,1.697,1.224,342.23059900000226,None,,,,,,,,,,,,,,,,,,,,342.7720367999282,343.27510490000714,0.5059070800198242,1.0061709799338132,343.2585097999545,343.3751587999286,343.2585097999545,343.3751587999286,343.35845119995065,None,c,1,343.35845119995065,None,1.0689776999643072,,,,,,,p17,2022_Apr_19_1054,training+cueing,2021.1.4,59.95394339292472,
Self.png,Friend,Self ,m,2.1,16,26,96,,,,,0,0,0,0,,,,,5,1,61,1,,,,,,,,,,,,,,,,,,,,,1.431,2.118,344.54911079991143,None,,,,,,,,,,,,,,,,,,,,345.0993765000021,345.61025559995323,0.506208679988049,1.0065012800041586,345.59363709995523,345.7103294999106,345.59363709995523,345.7103294999106,345.6936308000004,None,m,1,345.6936308000004,None,0.6858558000531048,,,,,,,p17,2022_Apr_19_1054,training+cueing,2021.1.4,59.95394339292472,
Self.png,Stranger,Self ,m,3.1,18,28,98,,,,,0,0,0,0,,,,,5,2,62,2,,,,,,,,,,,,,,,,,,,,,1.759,1.307,346.51818469993304,None,,,,,,,,,,,,,,,,,,,,347.0582726999419,347.56153299997095,0.5050282800802961,1.0053165800636634,347.54491840000264,347.6615680999821,347.54491840000264,347.6615680999821,347.64488609996624,None,m,1,347.64488609996624,None,0.6704979999922216,,,,,,,p17,2022_Apr_19_1054,training+cueing,2021.1.4,59.95394339292472,
Friend.png,Stranger,Friend,m,3.2,19,29,99,,,,,0,0,0,0,,,,,5,3,63,5,,,,,,,,,,,,,,,,,,,,,1.643,1.264,348.4515568999341,None,,,,,,,,,,,,,,,,,,,,348.9903284999309,349.4962683999911,0.5119230800773948,1.0122463800944388,349.4796348999953,349.5963061999064,349.4796348999953,349.5963061999064,349.5796100998996,None,m,1,349.5796100998996,None,0.7518276000628248,,,,,,,p17,2022_Apr_19_1054,training+cueing,2021.1.4,59.95394339292472,
Friend.png,You,Friend,m,1.2,14,24,94,,,,,0,0,0,0,,,,,5,4,64,3,,,,,,,,,,,,,,,,,,,,,1.743,1.495,350.45301019994076,None,,,,,,,,,,,,,,,,,,,,350.99366239993833,351.49770569999237,0.5070417799288407,1.0075850799912587,351.48108999989927,351.58107229997404,351.48108999989927,351.58107229997404,351.58107229997404,None,m,1,351.58107229997404,None,0.7024021999677643,,,,,,,p17,2022_Apr_19_1054,training+cueing,2021.1.4,59.95394339292472,
Stranger.png,Stranger,Stranger,c,3,13,23,93,,,,,0,0,0,0,,,,,5,5,65,8,,,,,,,,,,,,,,,,,,,,,1.686,1.212,352.4228603999363,None,,,,,,,,,,,,,,,,,,,,352.96770489995833,353.48248279991094,0.5138575800228864,1.0141021800227463,353.465883799945,353.582704499946,353.465883799945,353.582704499946,353.5660918999929,None,c,1,353.5660918999929,None,0.7332952000433579,,,,,,,p17,2022_Apr_19_1054,training+cueing,2021.1.4,59.95394339292472,
Self.png,You,Self ,c,1,11,21,91,,,,,0,0,0,0,,,,,5,6,66,0,,,,,,,,,,,,,,,,,,,,,1.591,2.301,354.4225690999301,None,,,,,,,,,,,,,,,,,,,,354.96261569997296,355.46725729992613,0.5089986800448969,1.0092854800168425,355.4506292999722,355.5506187999854,355.4506292999722,355.5506187999854,355.5506187999854,None,c,1,355.5506187999854,None,1.0688512999331579,,,,,,,p17,2022_Apr_19_1054,training+cueing,2021.1.4,59.95394339292472,
Friend.png,Friend,Friend,c,2,12,22,92,,,,,0,0,0,0,,,,,5,7,67,10,,,,,,,,,,,,,,,,,,,,,1.597,1.792,356.7415301000001,None,,,,,,,,,,,,,,,,,,,,357.28360989992507,357.78556489991024,0.503884980105795,1.004174980102107,357.7689968999475,357.88563349994365,357.7689968999475,357.88563349994365,357.86894359998405,None,c,1,357.86894359998405,None,0.5904506000224501,,,,,,,p17,2022_Apr_19_1054,training+cueing,2021.1.4,59.95394339292472,
Self.png,You,Self ,c,1,11,21,91,,,,,0,0,0,0,,,,,5,8,68,9,,,,,,,,,,,,,,,,,,,,,1.434,1.225,358.5973099999828,None,,,,,,,,,,,,,,,,,,,,359.1427775999764,359.653588199988,0.5061201800126582,1.0066341799683869,359.6369921999285,359.7369715999812,359.6369921999285,359.7369715999812,359.7369715999812,None,c,1,359.7369715999812,None,0.6267212999518961,,,,,,,p17,2022_Apr_19_1054,training+cueing,2021.1.4,59.95394339292472,
Stranger.png,Friend,Stranger,m,2.3,17,27,97,,,,,0,0,0,0,,,,,5,9,69,7,,,,,,,,,,,,,,,,,,,,,1.426,2.148,360.49772799992934,None,,,,,,,,,,,,,,,,,,,,361.03756789991166,361.5385033999337,0.5015244799433276,1.0021294798934832,361.52191399992444,361.6385714999633,361.52191399992444,361.6385714999633,361.6385714999633,None,m,1,361.6385714999633,None,0.6929481000406668,,,,,,,p17,2022_Apr_19_1054,training+cueing,2021.1.4,59.95394339292472,
Friend.png,Friend,Friend,c,2,12,22,92,,,,,0,0,0,0,,,,,5,10,70,4,,,,,,,,,,,,,,,,,,,,,1.775,2.253,362.4632911999943,None,,,,,,,,,,,,,,,,,,,,363.00155169994105,363.5063571999781,0.5069350800476968,1.00721928011626,363.48976589995436,363.6064176999498,363.48976589995436,363.6064176999498,363.58973289991263,None,c,1,363.58973289991263,None,0.7256294999970123,,,,,,,p17,2022_Apr_19_1054,training+cueing,2021.1.4,59.95394339292472,
Stranger.png,You,Stranger,m,1.3,15,25,95,,,,,0,0,0,0,,,,,5,11,71,6,,,,,,,,,,,,,,,,,,,,,1.754,1.899,364.4469243999338,None,,,,,,,,,,,,,,,,,,,,364.98786220001057,365.49114179995377,0.5055489799706265,1.005941279930994,365.4745529999491,365.5744971999666,365.4745529999491,365.5744971999666,365.5744971999666,None,m,1,365.5744971999666,None,0.7249033999396488,,,,,,,p17,2022_Apr_19_1054,training+cueing,2021.1.4,59.95394339292472,
Stranger.png,Friend,Stranger,m,2.3,17,27,97,,,,,0,0,0,0,,,,,6,0,72,7,,,,,,,,,,,,,,,,,,,,,1.657,1.363,366.43116239993833,None,,,,,,,,,,,,,,,,,,,,366.97235599998385,367.475926999934,0.504640179919079,1.00493977998849,367.45932079991326,367.57594899996184,367.45932079991326,367.57594899996184,367.559260699898,None,m,1,367.559260699898,None,0.5960534999612719,,,,,,,p17,2022_Apr_19_1054,training+cueing,2021.1.4,59.95394339292472,
Self.png,You,Self ,c,1,11,21,91,,,,,0,0,0,0,,,,,6,1,73,9,,,,,,,,,,,,,,,,,,,,,1.595,1.301,368.2823001999641,None,,,,,,,,,,,,,,,,,,,,368.8326371998992,369.3439442999661,0.5062656799564138,1.006544979987666,369.3273577999789,369.42731719999574,369.3273577999789,369.42731719999574,369.42731719999574,None,c,1,369.42731719999574,None,0.6479509000200778,,,,,,,p17,2022_Apr_19_1054,training+cueing,2021.1.4,59.95394339292472,
Friend.png,You,Friend,m,1.2,14,24,94,,,,,0,0,0,0,,,,,6,2,74,3,,,,,,,,,,,,,,,,,,,,,1.484,1.317,370.2008193999063,None,,,,,,,,,,,,,,,,,,,,370.7556905999081,371.2622063999297,0.5132836400298402,1.0135643400717527,371.24559820001014,371.3455949999625,371.24559820001014,371.3455949999625,371.3455949999625,None,m,1,371.3455949999625,None,0.8418935000663623,,,,,,,p17,2022_Apr_19_1054,training+cueing,2021.1.4,59.95394339292472,
Stranger.png,You,Stranger,m,1.3,15,25,95,,,,,0,0,0,0,,,,,6,3,75,6,,,,,,,,,,,,,,,,,,,,,1.727,1.243,372.31999150000047,None,,,,,,,,,,,,,,,,,,,,372.8715576999821,373.38020279991906,0.4991505399812013,0.9992876399774104,373.36368109995965,373.46355639991816,373.36368109995965,373.46355639991816,373.4468705999898,None,m,1,373.4468705999898,None,0.7886757999658585,,,,,,,p17,2022_Apr_19_1054,training+cueing,2021.1.4,59.95394339292472,
Stranger.png,Stranger,Stranger,c,3,13,23,93,,,,,0,0,0,0,,,,,6,4,76,11,,,,,,,,,,,,,,,,,,,,,1.681,1.598,374.37363919999916,None,,,,,,,,,,,,,,,,,,,,374.9153702999465,375.4149612999754,0.5000102800549939,1.0002530800411478,375.3983580999775,375.51501189998817,375.3983580999775,375.51501189998817,375.51501189998817,None,c,1,375.51501189998817,None,0.6883963999571279,,,,,,,p17,2022_Apr_19_1054,training+cueing,2021.1.4,59.95394339292472,
Self.png,Friend,Self ,m,2.1,16,26,96,,,,,0,0,0,0,,,,,6,5,77,1,,,,,,,,,,,,,,,,,,,,,1.444,1.75,376.33950469992124,None,,,,,,,,,,,,,,,,,,,,376.8916792999953,377.3997292999411,0.5003172799479216,1.0006117799784988,377.3830610999139,377.49976909998804,377.3830610999139,377.49976909998804,377.49976909998804,None,m,1,377.49976909998804,None,0.7356302000116557,,,,,,,p17,2022_Apr_19_1054,training+cueing,2021.1.4,59.95394339292472,
Friend.png,Friend,Friend,c,2,12,22,92,,,,,0,0,0,0,,,,,6,6,78,10,,,,,,,,,,,,,,,,,,,,,1.667,1.372,378.35681319993455,None,,,,,,,,,,,,,,,,,,,,378.89511479996145,379.4011724999873,0.5095878799911588,1.0098762799752876,379.3845234999899,379.50121389993,379.3845234999899,379.50121389993,379.4844915999565,None,m,0,379.4844915999565,None,1.182850499986671,,,,,,,p17,2022_Apr_19_1054,training+cueing,2021.1.4,59.95394339292472,
Stranger.png,Stranger,Stranger,c,3,13,23,93,,,,,0,0,0,0,,,,,6,7,79,8,,,,,,,,,,,,,,,,,,,,,1.58,2.483,380.7921625999734,None,,,,,,,,,,,,,,,,,,,,381.33450090000406,381.83626899996307,0.5038594800280407,1.0040951799601316,381.8196314999368,381.9363095998997,381.8196314999368,381.9363095998997,381.9196240999736,None,c,1,381.9196240999736,None,1.003699399996549,,,,,,,p17,2022_Apr_19_1054,training+cueing,2021.1.4,59.95394339292472,
Friend.png,Friend,Friend,c,2,12,22,92,,,,,0,0,0,0,,,,,6,8,80,4,,,,,,,,,,,,,,,,,,,,,1.459,2.011,383.06030139990617,None,,,,,,,,,,,,,,,,,,,,383.6005904999329,384.10455379995983,0.5049933799309656,1.005257079959847,384.08793129993137,384.204590999987,384.08793129993137,384.204590999987,384.18791229999624,None,c,1,384.18791229999624,None,0.6876696000108495,,,,,,,p17,2022_Apr_19_1054,training+cueing,2021.1.4,59.95394339292472,
Friend.png,Stranger,Friend,m,3.2,19,29,99,,,,,0,0,0,0,,,,,6,9,81,5,,,,,,,,,,,,,,,,,,,,,1.56,1.913,385.01485069992486,None,,,,,,,,,,,,,,,,,,,,385.55590029992163,386.0559909999138,0.5013074800372124,1.0015467799967155,386.03934899996966,386.15603969991207,386.03934899996966,386.15603969991207,386.15603969991207,None,m,1,386.15603969991207,None,0.7193193000275642,,,,,,,p17,2022_Apr_19_1054,training+cueing,2021.1.4,59.95394339292472,
Self.png,Stranger,Self ,m,3.1,18,28,98,,,,,0,0,0,0,,,,,6,10,82,2,,,,,,,,,,,,,,,,,,,,,1.791,1.906,387.01290199998766,None,,,,,,,,,,,,,,,,,,,,387.55208659998607,388.0574312999379,0.5114379799924791,1.0117030800320208,388.0408080999041,388.15749119990505,388.0408080999041,388.15749119990505,388.14077389996964,None,m,1,388.14077389996964,None,0.7346637999871746,,,,,,,p17,2022_Apr_19_1054,training+cueing,2021.1.4,59.95394339292472,
Self.png,You,Self ,c,1,11,21,91,,,,,0,0,0,0,,,,,6,11,83,0,,,,,,,,,,,,,,,,,,,,,1.752,2.251,388.99777969997376,None,,,,,,,,,,,,,,,,,,,,389.53819230000954,390.042194699985,0.5057820799993351,1.0060372799634933,390.0255466999952,390.1255300999619,390.0255466999952,390.1255300999619,390.1255300999619,None,c,1,390.1255300999619,None,0.7018125000176951,,,,,,,p17,2022_Apr_19_1054,training+cueing,2021.1.4,59.95394339292472,
Friend.png,Friend,Friend,c,2,12,22,92,,,,,0,0,0,0,,,,,7,0,84,10,,,,,,,,,,,,,,,,,,,,,1.512,1.765,390.94908169994596,None,,,,,,,,,,,,,,,,,,,,391.4908043999458,391.9935942000011,0.5069193800445646,1.0072166800964624,391.97695149993524,392.0936237999704,391.97695149993524,392.0936237999704,392.07694709999487,None,c,1,392.07694709999487,None,0.5744143999181688,,,,,,,p17,2022_Apr_19_1054,training+cueing,2021.1.4,59.95394339292472,
Friend.png,Friend,Friend,c,2,12,22,92,,,,,0,0,0,0,,,,,7,1,85,4,,,,,,,,,,,,,,,,,,,,,1.626,1.446,392.78385010000784,None,,,,,,,,,,,,,,,,,,,,393.3236409999663,393.82827749999706,0.510230979998596,1.0105062799993902,393.811629200005,393.9283047999488,393.811629200005,393.9283047999488,393.911608699942,None,c,1,393.911608699942,None,0.851729099988006,,,,,,,p17,2022_Apr_19_1054,training+cueing,2021.1.4,59.95394339292472,
Self.png,Friend,Self ,m,2.1,16,26,96,,,,,0,0,0,0,,,,,7,2,86,1,,,,,,,,,,,,,,,,,,,,,1.763,1.721,394.88526349992026,None,,,,,,,,,,,,,,,,,,,,395.42364379996434,395.9297505998984,0.5103001799434423,1.0106506799347699,395.91307449992746,396.0298338999273,395.91307449992746,396.0298338999273,396.01330819993746,None,m,1,396.01330819993746,None,0.7021637000143528,,,,,,,p17,2022_Apr_19_1054,training+cueing,2021.1.4,59.95394339292472,
Friend.png,You,Friend,m,1.2,14,24,94,,,,,0,0,0,0,,,,,7,3,87,3,,,,,,,,,,,,,,,,,,,,,1.674,1.535,396.83811559993774,None,,,,,,,,,,,,,,,,,,,,397.3805175999878,397.88128039997537,0.5025711799971759,1.0028505800291896,397.86456439993344,397.9645883999765,397.86456439993344,397.9645883999765,397.9645883999765,None,m,1,397.9645883999765,None,0.6386792999692261,,,,,,,p17,2022_Apr_19_1054,training+cueing,2021.1.4,59.95394339292472,
Self.png,Stranger,Self ,m,3.1,18,28,98,,,,,0,0,0,0,,,,,7,4,88,2,,,,,,,,,,,,,,,,,,,,,1.568,2.148,398.7376224999316,None,,,,,,,,,,,,,,,,,,,,399.27745069994126,399.7827450999757,0.5075383799849078,1.0077345799654722,399.7659319000086,399.88261649990454,399.7659319000086,399.88261649990454,399.86590099998284,None,m,1,399.86590099998284,None,0.5294601999921724,,,,,,,p17,2022_Apr_19_1054,training+cueing,2021.1.4,59.95394339292472,
Stranger.png,You,Stranger,m,1.3,15,25,95,,,,,0,0,0,0,,,,,7,5,89,6,,,,,,,,,,,,,,,,,,,,,1.787,1.574,400.522760199965,None,,,,,,,,,,,,,,,,,,,,401.0646478999406,401.5671771999914,0.506682279985398,1.0070040799910203,401.55053269991186,401.6505576999625,401.55053269991186,401.6505576999625,401.6505576999625,None,m,1,401.6505576999625,None,0.6167466000188142,,,,,,,p17,2022_Apr_19_1054,training+cueing,2021.1.4,59.95394339292472,
Self.png,You,Self ,c,1,11,21,91,,,,,0,0,0,0,,,,,7,6,90,0,,,,,,,,,,,,,,,,,,,,,1.423,1.719,402.3903947999934,None,,,,,,,,,,,,,,,,,,,,402.9301544999471,403.4351643999107,0.5105432799318805,1.0108315799152479,403.4185492999386,403.51861959998496,403.4185492999386,403.51861959998496,403.51861959998496,None,c,1,403.51861959998496,None,0.6527134000789374,,,,,,,p17,2022_Apr_19_1054,training+cueing,2021.1.4,59.95394339292472,
Stranger.png,Stranger,Stranger,c,3,13,23,93,,,,,0,0,0,0,,,,,7,7,91,8,,,,,,,,,,,,,,,,,,,,,1.649,2.039,404.3088042999152,None,,,,,,,,,,,,,,,,,,,,404.8510803999379,405.35321919992566,0.5036434800131246,1.003943879972212,405.3366020999383,405.4534421999706,405.3366020999383,405.4534421999706,405.43688319996,None,c,1,405.43688319996,None,0.7983032000483945,,,,,,,p17,2022_Apr_19_1054,training+cueing,2021.1.4,59.95394339292472,
Stranger.png,Friend,Stranger,m,2.3,17,27,97,,,,,0,0,0,0,,,,,7,8,92,7,,,,,,,,,,,,,,,,,,,,,1.756,2.244,406.3600613999879,None,,,,,,,,,,,,,,,,,,,,406.9014254999347,407.40470710000955,0.5058656799374148,1.0068117800401524,407.388054799987,407.5047744999174,407.388054799987,407.5047744999174,407.4880612998968,None,m,1,407.4880612998968,None,0.7472812999039888,,,,,,,p17,2022_Apr_19_1054,training+cueing,2021.1.4,59.95394339292472,
Friend.png,Stranger,Friend,m,3.2,19,29,99,,,,,0,0,0,0,,,,,7,9,93,5,,,,,,,,,,,,,,,,,,,,,1.512,1.401,408.36312559992075,None,,,,,,,,,,,,,,,,,,,,408.9051205998985,409.40617430000566,0.5012343799462542,1.0015250799478963,409.3895276999101,409.5062303999439,409.3895276999101,409.5062303999439,409.5062303999439,None,m,1,409.5062303999439,None,0.6174878999590874,,,,,,,p17,2022_Apr_19_1054,training+cueing,2021.1.4,59.95394339292472,
Self.png,You,Self ,c,1,11,21,91,,,,,0,0,0,0,,,,,7,10,94,9,,,,,,,,,,,,,,,,,,,,,1.474,1.851,410.2493298999034,None,,,,,,,,,,,,,,,,,,,,410.7879941998981,411.2908395999111,0.5034288800088689,1.00372677994892,411.2742306999862,411.3742328999797,411.2742306999862,411.3742328999797,411.3742328999797,None,c,1,411.3742328999797,None,0.6051005999324843,,,,,,,p17,2022_Apr_19_1054,training+cueing,2021.1.4,59.95394339292472,
Stranger.png,Stranger,Stranger,c,3,13,23,93,,,,,0,0,0,0,,,,,7,11,95,11,,,,,,,,,,,,,,,,,,,,,1.61,1.398,412.1147520999657,None,,,,,,,,,,,,,,,,,,,,412.6568426999729,413.158886399935,0.5053151800530031,1.005610579974018,413.14226849994157,413.25893010001164,413.14226849994157,413.25893010001164,413.2422357999021,None,m,0,413.2422357999021,None,0.6410271999193355,,,,,,,p17,2022_Apr_19_1054,training+cueing,2021.1.4,59.95394339292472,
Self.png,Stranger,Self ,m,3.1,18,28,98,,,,,0,0,0,0,,,,,8,0,96,2,,,,,,,,,,,,,,,,,,,,,1.517,2.093,414.0154868999962,None,,,,,,,,,,,,,,,,,,,,414.55216679989826,415.0602375000017,0.514789380133152,1.0150445800973102,415.04364289995283,415.16030150000006,415.04364289995283,415.16030150000006,415.14363279996905,None,m,1,415.14363279996905,None,0.6756337999831885,,,,,,,p17,2022_Apr_19_1054,training+cueing,2021.1.4,59.95394339292472,
Stranger.png,Friend,Stranger,m,2.3,17,27,97,,,,,0,0,0,0,,,,,8,1,97,7,,,,,,,,,,,,,,,,,,,,,1.697,1.912,415.95064419996925,None,,,,,,,,,,,,,,,,,,,,416.4917463999009,416.9949754999252,0.5068590799346566,1.007320679957047,416.97830749989953,417.0956559999613,416.97830749989953,417.0956559999613,417.07895639992785,None,m,1,417.07895639992785,None,0.5803840000880882,,,,,,,p17,2022_Apr_19_1054,training+cueing,2021.1.4,59.95394339292472,
Self.png,You,Self ,c,1,11,21,91,,,,,0,0,0,0,,,,,8,2,98,0,,,,,,,,,,,,,,,,,,,,,1.524,1.913,417.7850358999567,None,,,,,,,,,,,,,,,,,,,,418.3261045999825,418.82964819995686,0.5074383799219504,1.007872479967773,418.8130069999024,418.91302410000935,418.8130069999024,418.91302410000935,418.91302410000935,None,c,1,418.91302410000935,None,0.5862572001060471,,,,,,,p17,2022_Apr_19_1054,training+cueing,2021.1.4,59.95394339292472,
Friend.png,Stranger,Friend,m,3.2,19,29,99,,,,,0,0,0,0,,,,,8,3,99,5,,,,,,,,,,,,,,,,,,,,,1.629,1.948,419.6365065999562,None,,,,,,,,,,,,,,,,,,,,420.17708689998835,420.6810071999207,0.5057527800090611,1.006052780081518,420.6643281999277,420.7810502999928,420.6643281999277,420.7810502999928,420.7643476999365,None,m,1,420.7643476999365,None,0.5749535000650212,,,,,,,p17,2022_Apr_19_1054,training+cueing,2021.1.4,59.95394339292472,
Stranger.png,You,Stranger,m,1.3,15,25,95,,,,,0,0,0,0,,,,,8,4,100,6,,,,,,,,,,,,,,,,,,,,,1.523,1.365,421.471232199925,None,,,,,,,,,,,,,,,,,,,,422.0124857999617,422.51568799989764,0.5069532800698653,1.0072057801298797,422.49905369989574,422.5990620999364,422.49905369989574,422.5990620999364,422.5990620999364,None,m,1,422.5990620999364,None,0.7721505999797955,,,,,,,p17,2022_Apr_19_1054,training+cueing,2021.1.4,59.95394339292472,
Stranger.png,Stranger,Stranger,c,3,13,23,93,,,,,0,0,0,0,,,,,8,5,101,8,,,,,,,,,,,,,,,,,,,,,1.693,1.694,423.50576969992835,None,,,,,,,,,,,,,,,,,,,,424.05569299997296,424.5671132999705,0.5053626800654456,1.0057100800331682,424.55043179995846,424.6671854999149,424.55043179995846,424.6671854999149,424.65046529995743,None,c,1,424.65046529995743,None,0.6888251999625936,,,,,,,p17,2022_Apr_19_1054,training+cueing,2021.1.4,59.95394339292472,
Self.png,You,Self ,c,1,11,21,91,,,,,0,0,0,0,,,,,8,6,102,9,,,,,,,,,,,,,,,,,,,,,1.797,2.131,425.47428609989583,None,,,,,,,,,,,,,,,,,,,,426.01390149991494,426.5186013999628,0.5071676800725982,1.0074272800702602,426.50191130000167,426.60190099989995,426.50191130000167,426.60190099989995,426.60190099989995,None,c,1,426.60190099989995,None,0.657409300096333,,,,,,,p17,2022_Apr_19_1054,training+cueing,2021.1.4,59.95394339292472,
Self.png,Friend,Self ,m,2.1,16,26,96,,,,,0,0,0,0,,,,,8,7,103,1,,,,,,,,,,,,,,,,,,,,,1.495,1.374,427.3921674999874,None,,,,,,,,,,,,,,,,,,,,427.93211990001146,428.43662930000573,0.509292280068621,1.0094661799957976,428.4200247999979,428.5366585999727,428.4200247999979,428.5366585999727,428.51995099999476,None,m,1,428.51995099999476,None,0.8353248999919742,,,,,,,p17,2022_Apr_19_1054,training+cueing,2021.1.4,59.95394339292472,
Stranger.png,Stranger,Stranger,c,3,13,23,93,,,,,0,0,0,0,,,,,8,8,104,11,,,,,,,,,,,,,,,,,,,,,1.627,1.823,429.4770131999394,None,,,,,,,,,,,,,,,,,,,,430.0201197999995,430.52142729994375,0.501472880016081,1.0017620800063014,430.5047900999198,430.62145999993663,430.5047900999198,430.62145999993663,430.62145999993663,None,c,1,430.62145999993663,None,0.7657451999839395,,,,,,,p17,2022_Apr_19_1054,training+cueing,2021.1.4,59.95394339292472,
Friend.png,Friend,Friend,c,2,12,22,92,,,,,0,0,0,0,,,,,8,9,105,10,,,,,,,,,,,,,,,,,,,,,1.779,2.271,431.5121926999418,None,,,,,,,,,,,,,,,,,,,,432.0524916999275,432.5562579999678,0.5064385799923912,1.0067644800292328,432.5396125999978,432.6562861999264,432.5396125999978,432.6562861999264,432.63959689997137,None,c,1,432.63959689997137,None,0.6037449999712408,,,,,,,p17,2022_Apr_19_1054,training+cueing,2021.1.4,59.95394339292472,
Friend.png,Friend,Friend,c,2,12,22,92,,,,,0,0,0,0,,,,,8,10,106,4,,,,,,,,,,,,,,,,,,,,,1.628,1.604,433.37984479998704,None,,,,,,,,,,,,,,,,,,,,433.9183292000089,434.4242350999266,0.5117758801206946,1.0120915800798684,434.4076043999521,434.52429609990213,434.4076043999521,434.52429609990213,434.50758829992265,None,m,0,434.50758829992265,None,1.1516524000326172,,,,,,,p17,2022_Apr_19_1054,training+cueing,2021.1.4,59.95394339292472,
Friend.png,You,Friend,m,1.2,14,24,94,,,,,0,0,0,0,,,,,8,11,107,3,,,,,,,,,,,,,,,,,,,,,1.702,1.448,435.7824863999849,None,,,,,,,,,,,,,,,,,,,,436.32116769999266,436.8260062999325,0.5073678799672052,1.0076035800157115,436.8093973000068,436.9093545000069,436.8093973000068,436.9093545000069,436.9093545000069,None,m,1,436.9093545000069,None,0.8139190000947565,,,,,,,p17,2022_Apr_19_1054,training+cueing,2021.1.4,59.95394339292472,
Stranger.png,Stranger,Stranger,c,3,13,23,93,,,,,0,0,0,0,,,,,9,0,108,8,,,,,,,,,,,,,,,,,,,,,1.654,1.931,437.84920019994024,None,,,,,,,,,,,,,,,,,,,,438.39032679994125,438.8941174999345,0.5085941799916327,1.008915579994209,438.8774829999311,438.9942096999148,438.8774829999311,438.9942096999148,438.97750619996805,None,c,1,438.97750619996805,None,0.7299007000401616,,,,,,,p17,2022_Apr_19_1054,training+cueing,2021.1.4,59.95394339292472,
Friend.png,You,Friend,m,1.2,14,24,94,,,,,0,0,0,0,,,,,9,1,109,3,,,,,,,,,,,,,,,,,,,,,1.719,1.49,439.8339384999126,None,,,,,,,,,,,,,,,,,,,,440.3889872999862,440.8955718999496,0.5140632400289178,1.0144246401032433,440.87894649989903,440.9789680999238,440.87894649989903,440.9789680999238,440.9789680999238,None,m,1,440.9789680999238,None,0.9682800000300631,,,,,,,p17,2022_Apr_19_1054,training+cueing,2021.1.4,59.95394339292472,
Self.png,You,Self ,c,1,11,21,91,,,,,0,0,0,0,,,,,9,2,110,9,,,,,,,,,,,,,,,,,,,,,1.602,1.718,442.0690236999653,None,,,,,,,,,,,,,,,,,,,,442.60757309990004,443.1138651999645,0.5109573800582439,1.0111437799641863,443.0973346999381,443.19741759996396,443.0973346999381,443.19741759996396,443.19741759996396,None,c,1,443.19741759996396,None,0.637809699983336,,,,,,,p17,2022_Apr_19_1054,training+cueing,2021.1.4,59.95394339292472,
Friend.png,Stranger,Friend,m,3.2,19,29,99,,,,,0,0,0,0,,,,,9,3,111,5,,,,,,,,,,,,,,,,,,,,,1.694,2.161,443.9706898999866,None,,,,,,,,,,,,,,,,,,,,444.5107962999027,445.0153944999911,0.5097544800955802,1.0100094800582156,444.9987898999825,445.11541149998084,444.9987898999825,445.11541149998084,445.0989379999228,None,m,1,445.0989379999228,None,0.7524733999744058,,,,,,,p17,2022_Apr_19_1054,training+cueing,2021.1.4,59.95394339292472,
Self.png,Stranger,Self ,m,3.1,18,28,98,,,,,0,0,0,0,,,,,9,4,112,2,,,,,,,,,,,,,,,,,,,,,1.69,2.414,445.9902586999815,None,,,,,,,,,,,,,,,,,,,,446.52770919993054,447.03341749997344,0.5087157799862325,1.0090019800700247,447.0167146999156,447.133414199925,447.0167146999156,447.133414199925,447.1167220999487,None,m,1,447.1167220999487,None,0.8465209000278264,,,,,,,p17,2022_Apr_19_1054,training+cueing,2021.1.4,59.95394339292472,
Self.png,You,Self ,c,1,11,21,91,,,,,0,0,0,0,,,,,9,5,113,0,,,,,,,,,,,,,,,,,,,,,1.781,1.401,448.09047469997313,None,,,,,,,,,,,,,,,,,,,,448.6295832999749,449.13487849989906,0.5107338799862191,1.0110919799190015,449.11816299997736,449.2182326999027,449.11816299997736,449.2182326999027,449.2182326999027,None,c,1,449.2182326999027,None,0.7610281000379473,,,,,,,p17,2022_Apr_19_1054,training+cueing,2021.1.4,59.95394339292472,
Friend.png,Friend,Friend,c,2,12,22,92,,,,,0,0,0,0,,,,,9,6,114,4,,,,,,,,,,,,,,,,,,,,,1.653,2.259,450.108550200006,None,,,,,,,,,,,,,,,,,,,,450.6497812999878,451.1530063999817,0.5071008800296113,1.0073466800386086,451.13641559996177,451.253052999964,451.13641559996177,451.253052999964,451.2363994999323,None,c,1,451.2363994999323,None,0.6150319000007585,,,,,,,p17,2022_Apr_19_1054,training+cueing,2021.1.4,59.95394339292472,
Stranger.png,You,Stranger,m,1.3,15,25,95,,,,,0,0,0,0,,,,,9,7,115,6,,,,,,,,,,,,,,,,,,,,,1.637,2.187,451.980336299981,None,,,,,,,,,,,,,,,,,,,,452.52324249991216,453.03771409997717,0.5106355800526217,1.010907780029811,453.02109199995175,453.12107779993676,453.02109199995175,453.12107779993676,453.12107779993676,None,m,1,453.12107779993676,None,0.6182587000075728,,,,,,,p17,2022_Apr_19_1054,training+cueing,2021.1.4,59.95394339292472,
Stranger.png,Friend,Stranger,m,2.3,17,27,97,,,,,0,0,0,0,,,,,9,8,116,7,,,,,,,,,,,,,,,,,,,,,1.524,2.17,453.86137509997934,None,,,,,,,,,,,,,,,,,,,,454.40197929996066,454.90569959999993,0.5068261800333858,1.0071645800489932,454.88906399998814,455.005756599945,454.88906399998814,455.005756599945,454.98907719994895,None,m,1,454.98907719994895,None,0.5742078999755904,,,,,,,p17,2022_Apr_19_1054,training+cueing,2021.1.4,59.95394339292472,
Self.png,Friend,Self ,m,2.1,16,26,96,,,,,0,0,0,0,,,,,9,9,117,1,,,,,,,,,,,,,,,,,,,,,1.605,1.426,455.6962302000029,None,,,,,,,,,,,,,,,,,,,,456.23464779998176,456.7403689000057,0.5109334799926728,1.0112111798953265,456.7237469999818,456.84042309992947,456.7237469999818,456.84042309992947,456.82367349998094,None,m,1,456.82367349998094,None,0.6116468999534845,,,,,,,p17,2022_Apr_19_1054,training+cueing,2021.1.4,59.95394339292472,
Stranger.png,Stranger,Stranger,c,3,13,23,93,,,,,0,0,0,0,,,,,9,10,118,11,,,,,,,,,,,,,,,,,,,,,1.657,1.237,457.5633324999362,None,,,,,,,,,,,,,,,,,,,,458.11850219999906,458.62505439994857,0.5110217400360852,1.0113400400150567,458.60841889993753,458.7251103000017,458.60841889993753,458.7251103000017,458.7084155000048,None,c,1,458.7084155000048,None,0.7748512999387458,,,,,,,p17,2022_Apr_19_1054,training+cueing,2021.1.4,59.95394339292472,
Friend.png,Friend,Friend,c,2,12,22,92,,,,,0,0,0,0,,,,,9,11,119,10,,,,,,,,,,,,,,,,,,,,,1.433,1.548,459.6154078999534,None,,,,,,,,,,,,,,,,,,,,460.1534398999065,460.659875299898,0.5119650800479576,1.0129247800214216,460.6432086999994,460.7605756999692,460.6432086999994,460.7605756999692,460.7439081999473,None,c,1,460.7439081999473,None,0.8354894999647513,,,,,,,p17,2022_Apr_19_1054,training+cueing,2021.1.4,59.95394339292472,
,,,,,,,,,,,,0,0,0,0,,,,,,,,,,,,,,,,,,,,,,,,,,,,,,,,,,,,,,,,,,,,,,,,,,,,,,,,,,,,,,,,,,,0.01659498014487326,None,,,,,p17,2022_Apr_19_1054,training+cueing,2021.1.4,59.95394339292472,
Friend.png,Friend,Friend,c,2,12,22,92,,,,,1,0,1,0,0,0,0,10,,,,,,,,,,,,,,,,,462.22834959998727,None,space,6.518437599996105,2.0138064600760117,None,470.7507129999576,None,1.603,1.257,473.7598287999863,None,474.2999418999534,474.8034258999396,474.7867633999558,474.9034779999638,474.7867633999558,474.9034779999638,474.88677659991663,None,c,1,474.88677659991663,None,475.68739639990963,None,0.772483800072223,,,,,,,,,,,,,,,,,,,,,,,,,,p17,2022_Apr_19_1054,training+cueing,2021.1.4,59.95394339292472,
Self.png,Friend,Self ,m,2.1,16,26,96,,,,,1,0,1,0,0,1,1,1,,,,,,,,,,,,,,,,,,,,,,,,,1.65,1.933,476.0882827999303,None,476.6201012999518,477.1219154999126,477.105263800011,477.2218246998964,477.105263800011,477.2218246998964,477.20513779995963,None,m,1,477.20513779995963,None,478.13917779992335,None,0.9020904999924824,,,,,,,,,,,,,,,,,,,,,,,,,,p17,2022_Apr_19_1054,training+cueing,2021.1.4,59.95394339292472,
Friend.png,Friend,Friend,c,2,12,22,92,,,,,1,0,1,0,0,2,2,4,,,,,,,,,,,,,,,,,,,,,,,,,1.423,1.865,478.53962799999863,None,479.07807049993426,479.59020659991074,479.5735672999872,479.69029309996404,479.5735672999872,479.69029309996404,479.67358219996095,None,c,1,479.67358219996095,None,480.39084169990383,None,0.6896262000082061,,,,,,,,,,,,,,,,,,,,,,,,,,p17,2022_Apr_19_1054,training+cueing,2021.1.4,59.95394339292472,
Stranger.png,Stranger,Stranger,c,3,13,23,93,,,,,1,0,1,0,0,3,3,8,,,,,,,,,,,,,,,,,,,,,,,,,1.412,1.928,480.7912318999879,None,481.33127019996755,481.8418340999633,481.8252058000071,481.9418675999623,481.8252058000071,481.9418675999623,481.92517959990073,None,c,1,481.92517959990073,None,482.6424606000073,None,0.6940420999890193,,,,,,,,,,,,,,,,,,,,,,,,,,p17,2022_Apr_19_1054,training+cueing,2021.1.4,59.95394339292472,
Stranger.png,Friend,Stranger,m,2.3,17,27,97,,,,,1,0,1,0,0,4,4,7,,,,,,,,,,,,,,,,,,,,,,,,,1.535,2.074,483.042704799911,None,483.5755536999786,484.0792025999399,484.06013150000945,484.1768390999641,484.06013150000945,484.1768390999641,484.160167099908,None,m,1,484.160167099908,None,485.42781339993235,None,1.2430860000895336,,,,,,,,,,,,,,,,,,,,,,,,,,p17,2022_Apr_19_1054,training+cueing,2021.1.4,59.95394339292472,
Stranger.png,You,Stranger,m,1.3,15,25,95,,,,,1,0,1,0,0,5,5,6,,,,,,,,,,,,,,,,,,,,,,,,,1.758,1.736,485.828079400002,None,486.3782849999843,486.878834299976,486.86216599994805,486.96215439995285,486.86216599994805,486.96215439995285,486.96215439995285,None,m,1,486.96215439995285,None,487.8947585999267,None,0.9051133999601007,,,,,,,,,,,,,,,,,,,,,,,,,,p17,2022_Apr_19_1054,training+cueing,2021.1.4,59.95394339292472,
Stranger.png,Stranger,Stranger,c,3,13,23,93,,,,,1,0,1,0,0,6,6,11,,,,,,,,,,,,,,,,,,,,,,,,,1.537,1.487,488.2966852999525,None,488.8355984999798,489.34725429990795,489.33066579990555,489.4479175999295,489.33066579990555,489.4479175999295,489.4306778999744,None,c,1,489.4306778999744,None,490.1671815000009,None,0.7092651999555528,,,,,,,,,,,,,,,,,,,,,,,,,,p17,2022_Apr_19_1054,training+cueing,2021.1.4,59.95394339292472,
Friend.png,You,Friend,m,1.2,14,24,94,,,,,1,0,1,0,0,7,7,3,,,,,,,,,,,,,,,,,,,,,,,,,1.747,2.433,490.58166109991726,None,491.1170785999857,491.632266499917,491.6156193999341,491.71564179996494,491.6156193999341,491.71564179996494,491.71564179996494,None,m,1,491.71564179996494,None,492.4829328999622,None,0.7435291999718174,,,,,,,,,,,,,,,,,,,,,,,,,,p17,2022_Apr_19_1054,training+cueing,2021.1.4,59.95394339292472,
Self.png,You,Self ,c,1,11,21,91,,,,,1,0,1,0,0,8,8,9,,,,,,,,,,,,,,,,,,,,,,,,,1.768,2.121,492.88328509998973,None,493.4177473000018,493.9172714999877,493.9172714999877,494.0172755999956,493.9172714999877,494.0172755999956,494.0172755999956,None,c,1,494.0172755999956,None,494.73452309996355,None,0.6978388999123126,,,,,,,,,,,,,,,,,,,,,,,,,,p17,2022_Apr_19_1054,training+cueing,2021.1.4,59.95394339292472,
Self.png,You,Self ,c,1,11,21,91,,,,,1,0,1,0,0,9,9,0,,,,,,,,,,,,,,,,,,,,,,,,,1.678,1.499,495.1349098999053,None,495.66981359990314,496.1689053999726,496.1689053999726,496.2689329999266,496.1689053999726,496.2689329999266,496.2689329999266,None,c,1,496.2689329999266,None,496.95277089998126,None,0.6543129000347108,,,,,,,,,,,,,,,,,,,,,,,,,,p17,2022_Apr_19_1054,training+cueing,2021.1.4,59.95394339292472,
Self.png,Stranger,Self ,m,3.1,18,28,98,,,,,1,0,1,0,0,10,10,2,,,,,,,,,,,,,,,,,,,,,,,,,1.427,1.76,497.3530655999202,None,497.89170249993913,498.4038329999894,498.3871830999851,498.5041276999982,498.3871830999851,498.5041276999982,498.48756549996324,None,m,1,498.48756549996324,None,499.12115149991587,None,0.6116867000237107,,,,,,,,,,,,,,,,,,,,,,,,,,p17,2022_Apr_19_1054,training+cueing,2021.1.4,59.95394339292472,
Friend.png,Stranger,Friend,m,3.2,19,29,99,,,,,1,0,1,0,0,11,11,5,,,,,,,,,,,,,,,,,,,,,,,,,1.67,2.108,499.52138459996786,None,500.0537842999911,500.5553730999818,500.53875159996096,500.65541539993137,500.53875159996096,500.65541539993137,500.63873719994444,None,m,1,500.63873719994444,None,501.2892565999646,None,0.6204282999970019,,,,,,,,,,,,,,,,,,,,,,,,,,p17,2022_Apr_19_1054,training+cueing,2021.1.4,59.95394339292472,
Stranger.png,You,Stranger,m,1.3,15,25,95,,,,,1,0,1,0,,,,,0,0,0,6,,,,,,,,,,,,,,,,,,,508.96162560000084,None,1.544,1.267,512.484801899991,None,,,,,,,,,,,,,,,,501.68913829990197,None,0.014467760105617344,0.5131629600655288,513.0166267999448,513.5314686999191,0.5124826799146831,1.0127238798886538,513.514774399926,513.6147749999072,513.514774399926,513.6147749999072,513.6147749999072,None,m,1,513.6147749999072,None,0.7962852000491694,,,,,,,p17,2022_Apr_19_1054,training+cueing,2021.1.4,59.95394339292472,
Stranger.png,Friend,Stranger,m,2.3,17,27,97,,,,,1,0,1,0,,,,,0,1,1,7,,,,,,,,,,,,,,,,,,,,,1.606,1.537,514.539409799967,None,,,,,,,,,,,,,,,,,,,,515.0797507999232,515.582902199938,0.5070259800413623,1.0073243799852207,515.566259299987,515.6829391999636,515.566259299987,515.6829391999636,515.6662545999279,None,m,1,515.6662545999279,None,0.7128742000786588,,,,,,,p17,2022_Apr_19_1054,training+cueing,2021.1.4,59.95394339292472,
Friend.png,Friend,Friend,c,2,12,22,92,,,,,1,0,1,0,,,,,0,2,2,4,,,,,,,,,,,,,,,,,,,,,1.502,2.154,516.5066429999424,None,,,,,,,,,,,,,,,,,,,,517.0449026999995,517.550981999957,0.5109137800754979,1.011154180043377,517.5343656999758,517.6510459999554,517.5343656999758,517.6510459999554,517.6343294999097,None,c,1,517.6343294999097,None,0.9370407001115382,,,,,,,p17,2022_Apr_19_1054,training+cueing,2021.1.4,59.95394339292472,
Stranger.png,Stranger,Stranger,c,3,13,23,93,,,,,1,0,1,0,,,,,0,3,3,11,,,,,,,,,,,,,,,,,,,,,1.464,1.354,518.7100828000112,None,,,,,,,,,,,,,,,,,,,,519.2545759999193,519.769209299935,0.5117263799766079,1.0120175799820572,519.7526249999646,519.8692985000089,519.7526249999646,519.8692985000089,519.8526223999215,None,m,0,519.8526223999215,None,1.3585969000123441,,,,,,,p17,2022_Apr_19_1054,training+cueing,2021.1.4,59.95394339292472,
Friend.png,Friend,Friend,c,2,12,22,92,,,,,1,0,1,0,,,,,0,4,4,10,,,,,,,,,,,,,,,,,,,,,1.564,1.533,521.3445507999277,None,,,,,,,,,,,,,,,,,,,,521.8821133999154,522.3878062999574,0.508916880004108,1.009175579994917,522.3711682999274,522.4863669999177,522.3711682999274,522.4863669999177,522.4711572999367,None,c,1,522.4711572999367,None,0.6119536000769585,,,,,,,p17,2022_Apr_19_1054,training+cueing,2021.1.4,59.95394339292472,
Self.png,You,Self ,c,1,11,21,91,,,,,1,0,1,0,,,,,0,5,5,9,,,,,,,,,,,,,,,,,,,,,1.43,2.409,523.211482499959,None,,,,,,,,,,,,,,,,,,,,523.7517824999522,524.2558026999468,0.5075568800093606,1.0078537799417973,524.2391750999959,524.3393958999077,524.2391750999959,524.3393958999077,524.3393958999077,None,c,1,524.3393958999077,None,0.5677513999398798,,,,,,,p17,2022_Apr_19_1054,training+cueing,2021.1.4,59.95394339292472,
Self.png,Stranger,Self ,m,3.1,18,28,98,,,,,1,0,1,0,,,,,0,6,6,2,,,,,,,,,,,,,,,,,,,,,1.506,2.334,525.0293781999499,None,,,,,,,,,,,,,,,,,,,,525.5712229999481,526.0737844000105,0.5047837800811976,1.0050903800874949,526.0571527999127,526.1738404999487,526.0571527999127,526.1738404999487,526.1571637999732,None,m,1,526.1571637999732,None,0.7978748000459746,,,,,,,p17,2022_Apr_19_1054,training+cueing,2021.1.4,59.95394339292472,
Friend.png,Stranger,Friend,m,3.2,19,29,99,,,,,1,0,1,0,,,,,0,7,7,5,,,,,,,,,,,,,,,,,,,,,1.518,2.484,527.0811363999965,None,,,,,,,,,,,,,,,,,,,,527.6183568999404,528.1252697999589,0.5110091799870133,1.0113788800081238,528.1086519999662,528.2253549000015,528.1086519999662,528.2253549000015,528.2086349999299,None,m,1,528.2086349999299,None,0.6824056999757886,,,,,,,p17,2022_Apr_19_1054,training+cueing,2021.1.4,59.95394339292472,
Friend.png,You,Friend,m,1.2,14,24,94,,,,,1,0,1,0,,,,,0,8,8,3,,,,,,,,,,,,,,,,,,,,,1.789,1.593,529.0155907999724,None,,,,,,,,,,,,,,,,,,,,529.5762192999246,530.0766780999256,0.5016895401058719,1.002046040026471,530.0600915999385,530.1600307999179,530.0600915999385,530.1600307999179,530.1600307999179,None,c,0,530.1600307999179,None,0.6511663000565022,,,,,,,p17,2022_Apr_19_1054,training+cueing,2021.1.4,59.95394339292472,
Self.png,You,Self ,c,1,11,21,91,,,,,1,0,1,0,,,,,0,9,9,0,,,,,,,,,,,,,,,,,,,,,1.784,1.927,530.9349063999252,None,,,,,,,,,,,,,,,,,,,,531.4746171999723,531.9780286999885,0.5079063799930736,1.0082303798990324,531.9613949999912,532.0614303000038,531.9613949999912,532.0614303000038,532.0614303000038,None,c,1,532.0614303000038,None,0.5898111000424251,,,,,,,p17,2022_Apr_19_1054,training+cueing,2021.1.4,59.95394339292472,
Stranger.png,Stranger,Stranger,c,3,13,23,93,,,,,1,0,1,0,,,,,0,10,10,8,,,,,,,,,,,,,,,,,,,,,1.559,1.312,532.7863016999327,None,,,,,,,,,,,,,,,,,,,,533.3278790999902,533.8295691999374,0.5010628799209371,1.0019492799183354,533.8127536999527,533.9301021998981,533.8127536999527,533.9301021998981,533.9301021998981,None,c,1,533.9301021998981,None,0.8650203000288457,,,,,,,p17,2022_Apr_19_1054,training+cueing,2021.1.4,59.95394339292472,
Self.png,Friend,Self ,m,2.1,16,26,96,,,,,1,0,1,0,,,,,0,11,11,1,,,,,,,,,,,,,,,,,,,,,1.512,1.267,534.9207031999249,None,,,,,,,,,,,,,,,,,,,,535.4621107999701,535.9642493999563,0.5061946799978614,1.0065337799023837,535.9476209999993,536.0643677999033,535.9476209999993,536.0643677999033,536.0476256000111,None,m,1,536.0476256000111,None,0.7155207999749109,,,,,,,p17,2022_Apr_19_1054,training+cueing,2021.1.4,59.95394339292472,
Stranger.png,Friend,Stranger,m,2.3,17,27,97,,,,,1,0,1,0,,,,,1,0,12,7,,,,,,,,,,,,,,,,,,,,,1.747,2.402,536.8879632999888,None,,,,,,,,,,,,,,,,,,,,537.4285429999,537.9323474999983,0.5050196800148115,1.005295480019413,537.9157216999447,538.0324145999039,537.9157216999447,538.0324145999039,538.0157200999092,None,m,1,538.0157200999092,None,0.6992686000885442,,,,,,,p17,2022_Apr_19_1054,training+cueing,2021.1.4,59.95394339292472,
Stranger.png,Stranger,Stranger,c,3,13,23,93,,,,,1,0,1,0,,,,,1,1,13,11,,,,,,,,,,,,,,,,,,,,,1.509,1.762,538.8392868000083,None,,,,,,,,,,,,,,,,,,,,539.3964028999908,539.900505199912,0.5083227399736643,1.0084493400063366,539.8839151998982,540.0004856999731,539.8839151998982,540.0004856999731,539.9837930999929,None,c,1,539.9837930999929,None,0.6354071999667212,,,,,,,p17,2022_Apr_19_1054,training+cueing,2021.1.4,59.95394339292472,
Self.png,Friend,Self ,m,2.1,16,26,96,,,,,1,0,1,0,,,,,1,2,14,1,,,,,,,,,,,,,,,,,,,,,1.575,2.096,540.7409892999567,None,,,,,,,,,,,,,,,,,,,,541.2804120999062,541.7851771999849,0.5093726799823344,1.0103348799748346,541.7684737999225,541.8851981000043,541.7684737999225,541.8851981000043,541.8684603999136,None,m,1,541.8684603999136,None,0.974666899885051,,,,,,,p17,2022_Apr_19_1054,training+cueing,2021.1.4,59.95394339292472,
Self.png,You,Self ,c,1,11,21,91,,,,,1,0,1,0,,,,,1,3,15,0,,,,,,,,,,,,,,,,,,,,,1.619,2.463,542.9750895999605,None,,,,,,,,,,,,,,,,,,,,543.5150815999368,544.0200296000112,0.5081422800431028,1.008408879977651,544.003444599919,544.1034393999726,544.003444599919,544.1034393999726,544.1034393999726,None,c,1,544.1034393999726,None,0.6917212000116706,,,,,,,p17,2022_Apr_19_1054,training+cueing,2021.1.4,59.95394339292472,
Friend.png,You,Friend,m,1.2,14,24,94,,,,,1,0,1,0,,,,,1,4,16,3,,,,,,,,,,,,,,,,,,,,,1.56,1.874,544.9274543999927,None,,,,,,,,,,,,,,,,,,,,545.4811703999294,545.9881224998971,0.5136937400093302,1.0140018400270492,545.9714973999653,546.071534799994,545.9714973999653,546.071534799994,546.071534799994,None,m,1,546.071534799994,None,0.8523261999944225,,,,,,,p17,2022_Apr_19_1054,training+cueing,2021.1.4,59.95394339292472,
Self.png,You,Self ,c,1,11,21,91,,,,,1,0,1,0,,,,,1,5,17,9,,,,,,,,,,,,,,,,,,,,,1.438,1.743,547.0495093999198,None,,,,,,,,,,,,,,,,,,,,547.5833683999954,548.0896991000045,0.511988679994829,1.01228068000637,548.0730556999333,548.1730736999307,548.0730556999333,548.1730736999307,548.1730736999307,None,c,1,548.1730736999307,None,0.6059495999943465,,,,,,,p17,2022_Apr_19_1054,training+cueing,2021.1.4,59.95394339292472,
Friend.png,Stranger,Friend,m,3.2,19,29,99,,,,,1,0,1,0,,,,,1,6,18,5,,,,,,,,,,,,,,,,,,,,,1.727,1.469,548.9134522000095,None,,,,,,,,,,,,,,,,,,,,549.4547750999918,549.9577127000084,0.5050780798774213,1.0054320798953995,549.9410086999414,550.0577463000081,549.9410086999414,550.0577463000081,550.0410234999144,None,None,0,550.0410234999144,None,,,,,,,,p17,2022_Apr_19_1054,training+cueing,2021.1.4,59.95394339292472,
Friend.png,Friend,Friend,c,2,12,22,92,,,,,1,0,1,0,,,,,1,7,19,10,,,,,,,,,,,,,,,,,,,,,1.737,1.584,551.8799741999246,None,,,,,,,,,,,,,,,,,,,,552.4235248999903,552.9265278999228,0.5062301800353453,1.0066616799449548,552.909913499956,553.0267521999776,552.909913499956,553.0267521999776,553.0100316999014,None,c,1,553.0100316999014,None,0.47309670003596693,,,,,,,p17,2022_Apr_19_1054,training+cueing,2021.1.4,59.95394339292472,
Self.png,Stranger,Self ,m,3.1,18,28,98,,,,,1,0,1,0,,,,,1,8,20,2,,,,,,,,,,,,,,,,,,,,,1.528,2.376,553.6171936999308,None,,,,,,,,,,,,,,,,,,,,554.1548460999038,554.6611206999514,0.5092628799611703,1.009515680023469,554.644473399967,554.7611540999496,554.644473399967,554.7611540999496,554.7444434999488,None,m,1,554.7444434999488,None,0.7067188000073656,,,,,,,p17,2022_Apr_19_1054,training+cueing,2021.1.4,59.95394339292472,
Friend.png,Friend,Friend,c,2,12,22,92,,,,,1,0,1,0,,,,,1,9,21,4,,,,,,,,,,,,,,,,,,,,,1.491,2.063,555.5845332999015,None,,,,,,,,,,,,,,,,,,,,556.1254191999324,556.6291951999301,0.5068866800284013,1.0078597799874842,556.6125326999463,556.7292796999682,556.6125326999463,556.7292796999682,556.7125599998981,None,c,1,556.7125599998981,None,0.8827243999112397,,,,,,,p17,2022_Apr_19_1054,training+cueing,2021.1.4,59.95394339292472,
Stranger.png,You,Stranger,m,1.3,15,25,95,,,,,1,0,1,0,,,,,1,10,22,6,,,,,,,,,,,,,,,,,,,,,1.799,1.777,557.7238923999248,None,,,,,,,,,,,,,,,,,,,,558.2627784999786,558.7640442999545,0.501446979935281,1.0017589799826965,558.7474072999321,558.8474146999652,558.7474072999321,558.8474146999652,558.8474146999652,None,m,1,558.8474146999652,None,0.8596821000101045,,,,,,,p17,2022_Apr_19_1054,training+cueing,2021.1.4,59.95394339292472,
Stranger.png,Stranger,Stranger,c,3,13,23,93,,,,,1,0,1,0,,,,,1,11,23,8,,,,,,,,,,,,,,,,,,,,,1.689,1.341,559.8380038999021,None,,,,,,,,,,,,,,,,,,,,560.3848625000101,560.8989775999216,0.5093995801871642,1.0096793801058084,560.8822913999902,560.9989960999228,560.8822913999902,560.9989960999228,560.982253999915,None,c,1,560.982253999915,None,0.7408116000005975,,,,,,,p17,2022_Apr_19_1054,training+cueing,2021.1.4,59.95394339292472,
Friend.png,Friend,Friend,c,2,12,22,92,,,,,1,0,1,0,,,,,2,0,24,10,,,,,,,,,,,,,,,,,,,,,1.78,1.236,561.8552321000025,None,,,,,,,,,,,,,,,,,,,,562.4012900999514,562.9003950000042,0.5149889800231904,1.0154515800531954,562.9003950000042,563.0005798999919,562.9003950000042,563.0005798999919,563.0005798999919,None,c,1,563.0005798999919,None,0.6426327000372112,,,,,,,p17,2022_Apr_19_1054,training+cueing,2021.1.4,59.95394339292472,
Stranger.png,You,Stranger,m,1.3,15,25,95,,,,,1,0,1,0,,,,,2,1,25,6,,,,,,,,,,,,,,,,,,,,,1.724,2.072,563.7751209998969,None,,,,,,,,,,,,,,,,,,,,564.3181284999009,564.8184178000083,0.5017146799946204,1.0020047799916938,564.8017937999684,564.9018163000001,564.8017937999684,564.9018163000001,564.9018163000001,None,m,1,564.9018163000001,None,0.693274199962616,,,,,,,p17,2022_Apr_19_1054,training+cueing,2021.1.4,59.95394339292472,
Self.png,Friend,Self ,m,2.1,16,26,96,,,,,1,0,1,0,,,,,2,2,26,1,,,,,,,,,,,,,,,,,,,,,1.501,1.52,565.7251800999511,None,,,,,,,,,,,,,,,,,,,,566.2730168999406,566.7865064999787,0.5083064800128341,1.0086240801028907,566.7698648999212,566.8865681999596,566.7698648999212,566.8865681999596,566.8698763999855,None,m,1,566.8698763999855,None,0.7572123999707401,,,,,,,p17,2022_Apr_19_1054,training+cueing,2021.1.4,59.95394339292472,
Stranger.png,Friend,Stranger,m,2.3,17,27,97,,,,,1,0,1,0,,,,,2,3,27,7,,,,,,,,,,,,,,,,,,,,,1.407,2.205,567.759793199948,None,,,,,,,,,,,,,,,,,,,,568.2978605999378,568.8046536999755,0.5127537801163271,1.0130422801012173,568.7879860999528,568.9047050999943,568.7879860999528,568.9047050999943,568.8879723999416,None,m,1,568.8879723999416,None,0.7550557000795379,,,,,,,p17,2022_Apr_19_1054,training+cueing,2021.1.4,59.95394339292472,
Stranger.png,Stranger,Stranger,c,3,13,23,93,,,,,1,0,1,0,,,,,2,4,28,11,,,,,,,,,,,,,,,,,,,,,1.798,2.112,569.7785817999393,None,,,,,,,,,,,,,,,,,,,,570.3190917999018,570.8227527999552,0.5054914801148698,1.0058098800946027,570.8061358999694,570.9228319999529,570.8061358999694,570.9228319999529,570.9061430000002,None,c,1,570.9061430000002,None,0.6249647999648005,,,,,,,p17,2022_Apr_19_1054,training+cueing,2021.1.4,59.95394339292472,
Self.png,Stranger,Self ,m,3.1,18,28,98,,,,,1,0,1,0,,,,,2,5,29,2,,,,,,,,,,,,,,,,,,,,,1.427,1.41,571.6629546999466,None,,,,,,,,,,,,,,,,,,,,572.20204559993,572.7074941999745,0.5104666800471023,1.0105990800075233,572.6909634999465,572.8077806999208,572.6909634999465,572.8077806999208,572.7910128999501,None,m,1,572.7910128999501,None,0.6120897999498993,,,,,,,p17,2022_Apr_19_1054,training+cueing,2021.1.4,59.95394339292472,
Self.png,You,Self ,c,1,11,21,91,,,,,1,0,1,0,,,,,2,6,30,0,,,,,,,,,,,,,,,,,,,,,1.653,1.723,573.5314441999653,None,,,,,,,,,,,,,,,,,,,,574.0716678999597,574.5754762999713,0.5087935801129788,1.0090982801048085,574.558847899898,574.658871499938,574.558847899898,574.658871499938,574.658871499938,None,c,1,574.658871499938,None,0.9041959999594837,,,,,,,p17,2022_Apr_19_1054,training+cueing,2021.1.4,59.95394339292472,
Stranger.png,Stranger,Stranger,c,3,13,23,93,,,,,1,0,1,0,,,,,2,7,31,8,,,,,,,,,,,,,,,,,,,,,1.76,2.295,575.6992304999148,None,,,,,,,,,,,,,,,,,,,,576.248471400002,576.7603956999956,0.5048291799612343,1.005355880013667,576.7437348999083,576.8604326999048,576.7437348999083,576.8604326999048,576.8437549999217,None,c,1,576.8437549999217,None,0.9592290000291541,,,,,,,p17,2022_Apr_19_1054,training+cueing,2021.1.4,59.95394339292472,
Friend.png,Friend,Friend,c,2,12,22,92,,,,,1,0,1,0,,,,,2,8,32,4,,,,,,,,,,,,,,,,,,,,,1.504,1.635,577.9343613999663,None,,,,,,,,,,,,,,,,,,,,578.476068399963,578.9786743998993,0.506714679999277,1.0070007799658924,578.9620403998997,579.0787317999639,578.9620403998997,579.0787317999639,579.0620209999615,None,c,1,579.0620209999615,None,1.0290249000536278,,,,,,,p17,2022_Apr_19_1054,training+cueing,2021.1.4,59.95394339292472,
Friend.png,Stranger,Friend,m,3.2,19,29,99,,,,,1,0,1,0,,,,,2,9,33,5,,,,,,,,,,,,,,,,,,,,,1.461,1.301,580.2185823000036,None,,,,,,,,,,,,,,,,,,,,580.7603100999258,581.2636619999539,0.5061669801361859,1.00656388013158,581.247002899996,581.363796099904,581.247002899996,581.363796099904,581.347061599954,None,m,1,581.347061599954,None,0.7440486999694258,,,,,,,p17,2022_Apr_19_1054,training+cueing,2021.1.4,59.95394339292472,
Friend.png,You,Friend,m,1.2,14,24,94,,,,,1,0,1,0,,,,,2,10,34,3,,,,,,,,,,,,,,,,,,,,,1.775,1.463,582.2200108999386,None,,,,,,,,,,,,,,,,,,,,582.7613180999178,583.2650911000092,0.5056742799934,1.0059708799235523,583.2484512999654,583.3484961999347,583.2484512999654,583.3484961999347,583.3484961999347,None,m,1,583.3484961999347,None,0.6946053999708965,,,,,,,p17,2022_Apr_19_1054,training+cueing,2021.1.4,59.95394339292472,
Self.png,You,Self ,c,1,11,21,91,,,,,1,0,1,0,,,,,2,11,35,9,,,,,,,,,,,,,,,,,,,,,1.774,1.557,584.1718656999292,None,,,,,,,,,,,,,,,,,,,,584.7102498000022,585.2166534999851,0.5124124800786376,1.0127395800082013,585.1999377999455,585.2999877999537,585.1999377999455,585.2999877999537,585.2999877999537,None,c,1,585.2999877999537,None,0.647160799941048,,,,,,,p17,2022_Apr_19_1054,training+cueing,2021.1.4,59.95394339292472,
Friend.png,Friend,Friend,c,2,12,22,92,,,,,1,0,1,0,,,,,3,0,36,10,,,,,,,,,,,,,,,,,,,,,1.69,2.412,586.0729649999412,None,,,,,,,,,,,,,,,,,,,,586.6137868999504,587.1178652999224,0.5063457799842581,1.006637979997322,587.1012278998969,587.2179475999437,587.1012278998969,587.2179475999437,587.2012323999079,None,m,0,587.2012323999079,None,0.7938461999874562,,,,,,,p17,2022_Apr_19_1054,training+cueing,2021.1.4,59.95394339292472,
Self.png,Stranger,Self ,m,3.1,18,28,98,,,,,1,0,1,0,,,,,3,1,37,2,,,,,,,,,,,,,,,,,,,,,1.608,2.03,588.1250675999327,None,,,,,,,,,,,,,,,,,,,,588.6672592000104,589.1694558999734,0.5061101800529286,1.006376379984431,589.1528208999662,589.2694974999176,589.1528208999662,589.2694974999176,589.2528276999947,None,m,1,589.2528276999947,None,0.9182965999934822,,,,,,,p17,2022_Apr_19_1054,training+cueing,2021.1.4,59.95394339292472,
Self.png,You,Self ,c,1,11,21,91,,,,,1,0,1,0,,,,,3,2,38,0,,,,,,,,,,,,,,,,,,,,,1.503,1.486,590.2925387999276,None,,,,,,,,,,,,,,,,,,,,590.8312996999593,591.3375976999523,0.5131255800370127,1.0140573801472783,591.3209409998963,591.4209533999674,591.3209409998963,591.4209533999674,591.4209533999674,None,c,1,591.4209533999674,None,0.6220958000048995,,,,,,,p17,2022_Apr_19_1054,training+cueing,2021.1.4,59.95394339292472,
Stranger.png,Friend,Stranger,m,2.3,17,27,97,,,,,1,0,1,0,,,,,3,3,39,7,,,,,,,,,,,,,,,,,,,,,1.548,2.422,592.1791808999842,None,,,,,,,,,,,,,,,,,,,,592.7259303999599,593.2390222999966,0.5080288799945265,1.0082043799338862,593.2224072999088,593.3390921999235,593.2224072999088,593.3390921999235,593.3223539999453,None,m,1,593.3223539999453,None,0.8968891999684274,,,,,,,p17,2022_Apr_19_1054,training+cueing,2021.1.4,59.95394339292472,
Friend.png,Friend,Friend,c,2,12,22,92,,,,,1,0,1,0,,,,,3,4,40,4,,,,,,,,,,,,,,,,,,,,,1.691,1.436,594.3513009999879,None,,,,,,,,,,,,,,,,,,,,594.8894774999935,595.39059179998,0.5018453800585121,1.0023096799850464,595.3738647999708,595.4907546999166,595.3738647999708,595.4907546999166,595.4740498999599,None,c,1,595.4740498999599,None,0.6170285999542102,,,,,,,p17,2022_Apr_19_1054,training+cueing,2021.1.4,59.95394339292472,
Friend.png,Stranger,Friend,m,3.2,19,29,99,,,,,1,0,1,0,,,,,3,5,41,5,,,,,,,,,,,,,,,,,,,,,1.685,1.342,596.2153470999328,None,,,,,,,,,,,,,,,,,,,,596.7566813000012,597.258549699909,0.5053163799457252,1.0055868800263852,597.2419142998988,597.3586220999714,597.2419142998988,597.3586220999714,597.3418929999461,None,m,1,597.3418929999461,None,0.8290655000600964,,,,,,,p17,2022_Apr_19_1054,training+cueing,2021.1.4,59.95394339292472,
Stranger.png,Stranger,Stranger,c,3,13,23,93,,,,,1,0,1,0,,,,,3,6,42,11,,,,,,,,,,,,,,,,,,,,,1.612,2.055,598.2983494999353,None,,,,,,,,,,,,,,,,,,,,598.8355799999554,599.3435051999986,0.5142974799964577,1.0145830799592659,599.326850399957,599.4435950999614,599.326850399957,599.4435950999614,599.4270305999089,None,c,1,599.4270305999089,None,0.6479326999979094,,,,,,,p17,2022_Apr_19_1054,training+cueing,2021.1.4,59.95394339292472,
Stranger.png,You,Stranger,m,1.3,15,25,95,,,,,1,0,1,0,,,,,3,7,43,6,,,,,,,,,,,,,,,,,,,,,1.521,1.428,600.2004334999947,None,,,,,,,,,,,,,,,,,,,,600.7418494999874,601.2447746999096,0.5067920800065622,1.0070401799166575,601.2281658999855,601.3281523999758,601.2281658999855,601.3281523999758,601.3281523999758,None,m,1,601.3281523999758,None,0.5548205999657512,,,,,,,p17,2022_Apr_19_1054,training+cueing,2021.1.4,59.95394339292472,
Self.png,Friend,Self ,m,2.1,16,26,96,,,,,1,0,1,0,,,,,3,8,44,1,,,,,,,,,,,,,,,,,,,,,1.783,1.301,602.0180664999643,None,,,,,,,,,,,,,,,,,,,,602.5557663999498,603.0627579999855,0.5112999799894169,1.011589579982683,603.0461114000063,603.1628149999306,603.0461114000063,603.1628149999306,603.1461050999351,None,m,1,603.1461050999351,None,1.3612660000799224,,,,,,,p17,2022_Apr_19_1054,training+cueing,2021.1.4,59.95394339292472,
Self.png,You,Self ,c,1,11,21,91,,,,,1,0,1,0,,,,,3,9,45,9,,,,,,,,,,,,,,,,,,,,,1.513,2.417,604.6405187000055,None,,,,,,,,,,,,,,,,,,,,605.1778367999941,605.6812877999619,0.5072615799726918,1.0074821800226346,605.6646647999296,605.7646865999559,605.6646647999296,605.7646865999559,605.7646865999559,None,c,1,605.7646865999559,None,0.6623856999212876,,,,,,,p17,2022_Apr_19_1054,training+cueing,2021.1.4,59.95394339292472,
Friend.png,You,Friend,m,1.2,14,24,94,,,,,1,0,1,0,,,,,3,10,46,3,,,,,,,,,,,,,,,,,,,,,1.655,2.347,606.5551389999455,None,,,,,,,,,,,,,,,,,,,,607.1078149999958,607.6159469999839,0.5006614800076932,1.0009490799857304,607.599329299992,607.6993317999877,607.599329299992,607.6993317999877,607.6993317999877,None,m,1,607.6993317999877,None,0.9358859999338165,,,,,,,p17,2022_Apr_19_1054,training+cueing,2021.1.4,59.95394339292472,
Stranger.png,Stranger,Stranger,c,3,13,23,93,,,,,1,0,1,0,,,,,3,11,47,8,,,,,,,,,,,,,,,,,,,,,1.427,2.384,608.7747026999714,None,,,,,,,,,,,,,,,,,,,,609.3176074000075,609.817566899932,0.5154803800396621,1.015786480042152,609.817566899932,609.9176142999204,609.817566899932,609.9176142999204,609.9176142999204,None,c,1,609.9176142999204,None,0.6053399000084028,,,,,,,p17,2022_Apr_19_1054,training+cueing,2021.1.4,59.95394339292472,
Stranger.png,You,Stranger,m,1.3,15,25,95,,,,,1,0,1,0,,,,,4,0,48,6,,,,,,,,,,,,,,,,,,,,,1.691,2.153,610.65701049997,None,,,,,,,,,,,,,,,,,,,,611.1986412999686,611.7022630999563,0.5071319800335914,1.0074003799818456,611.6856179999886,611.7856435999274,611.6856179999886,611.7856435999274,611.7856435999274,None,m,1,611.7856435999274,None,0.5294154000002891,,,,,,,p17,2022_Apr_19_1054,training+cueing,2021.1.4,59.95394339292472,
Self.png,You,Self ,c,1,11,21,91,,,,,1,0,1,0,,,,,4,1,49,0,,,,,,,,,,,,,,,,,,,,,1.627,2.365,612.4423078999389,None,,,,,,,,,,,,,,,,,,,,612.9796703999164,613.4868933999678,0.5143658800516278,1.0146961800055578,613.4702218999155,613.5702430999372,613.4702218999155,613.5702430999372,613.5702430999372,None,c,1,613.5702430999372,None,0.5687652999768034,,,,,,,p17,2022_Apr_19_1054,training+cueing,2021.1.4,59.95394339292472,
Friend.png,You,Friend,m,1.2,14,24,94,,,,,1,0,1,0,,,,,4,2,50,3,,,,,,,,,,,,,,,,,,,,,1.466,1.836,614.2780564998975,None,,,,,,,,,,,,,,,,,,,,614.8152570999227,615.3215417999309,0.5115057800430804,1.0117808800423518,615.3049123999663,615.4049138999544,615.3049123999663,615.4049138999544,615.4049138999544,None,m,1,615.4049138999544,None,0.7020963999675587,,,,,,,p17,2022_Apr_19_1054,training+cueing,2021.1.4,59.95394339292472,
Self.png,Friend,Self ,m,2.1,16,26,96,,,,,1,0,1,0,,,,,4,3,51,1,,,,,,,,,,,,,,,,,,,,,1.414,1.731,616.2289268999593,None,,,,,,,,,,,,,,,,,,,,616.7690964000067,617.272931399988,0.5075746800284833,1.0080730800982565,617.2562856998993,617.3729820000008,617.2562856998993,617.3729820000008,617.3562984999735,None,m,1,617.3562984999735,None,0.8788292000535876,,,,,,,p17,2022_Apr_19_1054,training+cueing,2021.1.4,59.95394339292472,
Stranger.png,Stranger,Stranger,c,3,13,23,93,,,,,1,0,1,0,,,,,4,4,52,8,,,,,,,,,,,,,,,,,,,,,1.705,1.951,618.3641146000009,None,,,,,,,,,,,,,,,,,,,,618.9053166999947,619.4078297999222,0.5039586799684912,1.0042427799198776,619.3911701999605,619.5078982999548,619.3911701999605,619.5078982999548,619.4911832999205,None,c,1,619.4911832999205,None,0.7438515000976622,,,,,,,p17,2022_Apr_19_1054,training+cueing,2021.1.4,59.95394339292472,
Self.png,Stranger,Self ,m,3.1,18,28,98,,,,,1,0,1,0,,,,,4,5,53,2,,,,,,,,,,,,,,,,,,,,,1.606,2.453,620.3651575999102,None,,,,,,,,,,,,,,,,,,,,620.9126153999241,621.4259673999622,0.510439179954119,1.0109067800221965,621.4092960999114,621.526824099943,621.4092960999114,621.526824099943,621.5093105999986,None,m,1,621.5093105999986,None,0.7577808999922127,,,,,,,p17,2022_Apr_19_1054,training+cueing,2021.1.4,59.95394339292472,
Friend.png,Stranger,Friend,m,3.2,19,29,99,,,,,1,0,1,0,,,,,4,6,54,5,,,,,,,,,,,,,,,,,,,,,1.779,1.658,622.400294699939,None,,,,,,,,,,,,,,,,,,,,622.9378422999289,623.4441195999971,0.5115334800211713,1.0118155799573287,623.4274452999234,623.5441124999197,623.4274452999234,623.5441124999197,623.5274695999688,None,m,1,623.5274695999688,None,0.7875680000288412,,,,,,,p17,2022_Apr_19_1054,training+cueing,2021.1.4,59.95394339292472,
Friend.png,Friend,Friend,c,2,12,22,92,,,,,1,0,1,0,,,,,4,7,55,10,,,,,,,,,,,,,,,,,,,,,1.748,1.779,624.451064099907,None,,,,,,,,,,,,,,,,,,,,624.9905610999558,625.4955443999497,0.5068596800556406,1.0071523800725117,625.4789435999701,625.5956136999885,625.4789435999701,625.5956136999885,625.5789300999604,None,c,1,625.5789300999604,None,0.7040761000243947,,,,,,,p17,2022_Apr_19_1054,training+cueing,2021.1.4,59.95394339292472,
Stranger.png,Stranger,Stranger,c,3,13,23,93,,,,,1,0,1,0,,,,,4,8,56,11,,,,,,,,,,,,,,,,,,,,,1.606,2.371,626.4191617999459,None,,,,,,,,,,,,,,,,,,,,626.9753383999923,627.4804880999727,0.5104046399937943,1.0106944399885833,627.4638187999371,627.580538899987,627.4638187999371,627.580538899987,627.5638669999316,None,c,1,627.5638669999316,None,0.6392819000175223,,,,,,,p17,2022_Apr_19_1054,training+cueing,2021.1.4,59.95394339292472,
Friend.png,Friend,Friend,c,2,12,22,92,,,,,1,0,1,0,,,,,4,9,57,4,,,,,,,,,,,,,,,,,,,,,1.487,1.726,628.3386272999924,None,,,,,,,,,,,,,,,,,,,,628.9360826999182,629.448623699951,0.5079080600989982,1.0082077600527555,629.4317756999517,629.5484635999892,629.4317756999517,629.5484635999892,629.5317735999124,None,c,1,629.5317735999124,None,0.591465099947527,,,,,,,p17,2022_Apr_19_1054,training+cueing,2021.1.4,59.95394339292472,
Stranger.png,Friend,Stranger,m,2.3,17,27,97,,,,,1,0,1,0,,,,,4,10,58,7,,,,,,,,,,,,,,,,,,,,,1.719,1.66,630.2571982999798,None,,,,,,,,,,,,,,,,,,,,630.7943356999895,631.2997853999259,0.5084803800564259,1.009528880007565,631.2831150999991,631.3998133999994,631.2831150999991,631.3998133999994,631.3831069999142,None,m,1,631.3831069999142,None,0.6919943001121283,,,,,,,p17,2022_Apr_19_1054,training+cueing,2021.1.4,59.95394339292472,
Self.png,You,Self ,c,1,11,21,91,,,,,1,0,1,0,,,,,4,11,59,9,,,,,,,,,,,,,,,,,,,,,1.742,2.103,632.208110999898,None,,,,,,,,,,,,,,,,,,,,632.7480120999971,633.2511136999819,0.505534979980439,1.0060152800288051,633.2345287000062,633.3345597999869,633.2345287000062,633.3345597999869,633.3345597999869,None,c,1,633.3345597999869,None,0.5324600999010727,,,,,,,p17,2022_Apr_19_1054,training+cueing,2021.1.4,59.95394339292472,
Self.png,You,Self ,c,1,11,21,91,,,,,1,0,1,0,,,,,5,0,60,0,,,,,,,,,,,,,,,,,,,,,1.445,2.246,633.9926693999441,None,,,,,,,,,,,,,,,,,,,,634.5450952999527,635.0524642999517,0.5124496400821954,1.0127275401027873,635.0358430999331,635.1358408000087,635.0358430999331,635.1358408000087,635.1358408000087,None,None,0,635.1358408000087,None,,,,,,,,p17,2022_Apr_19_1054,training+cueing,2021.1.4,59.95394339292472,
Friend.png,Friend,Friend,c,2,12,22,92,,,,,1,0,1,0,,,,,5,1,61,10,,,,,,,,,,,,,,,,,,,,,1.573,1.311,636.6928659999976,None,,,,,,,,,,,,,,,,,,,,637.2343070999486,637.7377642999636,0.50617627997417,1.0064131800318137,637.7211635999847,637.8378292999696,637.7211635999847,637.8378292999696,637.821118599968,None,c,1,637.821118599968,None,0.6378555999835953,,,,,,,p17,2022_Apr_19_1054,training+cueing,2021.1.4,59.95394339292472,
Friend.png,Stranger,Friend,m,3.2,19,29,99,,,,,1,0,1,0,,,,,5,2,62,5,,,,,,,,,,,,,,,,,,,,,1.611,2.296,638.5977535999846,None,,,,,,,,,,,,,,,,,,,,639.1357492000097,639.6391065999633,0.5068965801037848,1.0071866801008582,639.6224688999355,639.7391873999732,639.6224688999355,639.7391873999732,639.7224795999937,None,m,1,639.7224795999937,None,0.6404325999319553,,,,,,,p17,2022_Apr_19_1054,training+cueing,2021.1.4,59.95394339292472,
Stranger.png,You,Stranger,m,1.3,15,25,95,,,,,1,0,1,0,,,,,5,3,63,6,,,,,,,,,,,,,,,,,,,,,1.696,1.288,640.4962761999341,None,,,,,,,,,,,,,,,,,,,,641.0550432999153,641.557199099916,0.5037420401349664,1.0040009401272982,641.5405680999393,641.6405588999623,641.5405680999393,641.6405588999623,641.6405588999623,None,m,1,641.6405588999623,None,0.802456000004895,,,,,,,p17,2022_Apr_19_1054,training+cueing,2021.1.4,59.95394339292472,
Stranger.png,Stranger,Stranger,c,3,13,23,93,,,,,1,0,1,0,,,,,5,4,64,11,,,,,,,,,,,,,,,,,,,,,1.668,1.553,642.5645721999463,None,,,,,,,,,,,,,,,,,,,,643.103730199975,643.6086460999213,0.5089308799942955,1.0099146800348535,643.5920128999278,643.7087258999236,643.5920128999278,643.7087258999236,643.6920038999524,None,c,1,643.6920038999524,None,0.7030271000694484,,,,,,,p17,2022_Apr_19_1054,training+cueing,2021.1.4,59.95394339292472,
Self.png,Friend,Self ,m,2.1,16,26,96,,,,,1,0,1,0,,,,,5,5,65,1,,,,,,,,,,,,,,,,,,,,,1.415,2.081,644.5324660999468,None,,,,,,,,,,,,,,,,,,,,645.0727531999582,645.5767563999398,0.507108679972589,1.007399779977277,645.5601029999088,645.6769864999224,645.5601029999088,645.6769864999224,645.6600960999494,None,m,1,645.6600960999494,None,0.7348614999791607,,,,,,,p17,2022_Apr_19_1054,training+cueing,2021.1.4,59.95394339292472,
Friend.png,You,Friend,m,1.2,14,24,94,,,,,1,0,1,0,,,,,5,6,66,3,,,,,,,,,,,,,,,,,,,,,1.62,2.104,646.5171347999712,None,,,,,,,,,,,,,,,,,,,,647.0546116000041,647.5615094999084,0.5123846798669547,1.0126736799720675,647.5448878000025,647.644904899993,647.5448878000025,647.644904899993,647.644904899993,None,c,0,647.644904899993,None,0.5580337001010776,,,,,,,p17,2022_Apr_19_1054,training+cueing,2021.1.4,59.95394339292472,
Stranger.png,Friend,Stranger,m,2.3,17,27,97,,,,,1,0,1,0,,,,,5,7,67,7,,,,,,,,,,,,,,,,,,,,,1.774,1.82,648.3351625999203,None,,,,,,,,,,,,,,,,,,,,648.874802300008,649.379509099992,0.5083073800196871,1.0093328800285235,649.362811799976,649.4797466999153,649.362811799976,649.4797466999153,649.4631882999092,None,m,1,649.4631882999092,None,0.6280305000254884,,,,,,,p17,2022_Apr_19_1054,training+cueing,2021.1.4,59.95394339292472,
Stranger.png,Stranger,Stranger,c,3,13,23,93,,,,,1,0,1,0,,,,,5,8,68,8,,,,,,,,,,,,,,,,,,,,,1.471,2.409,650.2239269999554,None,,,,,,,,,,,,,,,,,,,,650.7625641999766,651.2642311999807,0.5013860800536349,1.0023947800509632,651.2475659999764,651.3651304999366,651.2475659999764,651.3651304999366,651.3651304999366,None,c,1,651.3651304999366,None,0.8699641999555752,,,,,,,p17,2022_Apr_19_1054,training+cueing,2021.1.4,59.95394339292472,
Self.png,You,Self ,c,1,11,21,91,,,,,1,0,1,0,,,,,5,9,69,9,,,,,,,,,,,,,,,,,,,,,1.74,2.047,652.3724887999706,None,,,,,,,,,,,,,,,,,,,,652.913833700004,653.4157376999501,0.5044148800661787,1.0047225799644366,653.399105999968,653.4991143000079,653.399105999968,653.4991143000079,653.4991143000079,None,c,1,653.4991143000079,None,0.5438739999663085,,,,,,,p17,2022_Apr_19_1054,training+cueing,2021.1.4,59.95394339292472,
Self.png,Stranger,Self ,m,3.1,18,28,98,,,,,1,0,1,0,,,,,5,10,70,2,,,,,,,,,,,,,,,,,,,,,1.604,1.558,654.1722164999228,None,,,,,,,,,,,,,,,,,,,,654.7244691000087,655.2337361999089,0.5029174799565226,1.0031795799732208,655.2170998000074,655.3337774999673,655.2170998000074,655.3337774999673,655.3170934999362,None,c,0,655.3170934999362,None,0.6938093000790104,,,,,,,p17,2022_Apr_19_1054,training+cueing,2021.1.4,59.95394339292472,
Friend.png,Friend,Friend,c,2,12,22,92,,,,,1,0,1,0,,,,,5,11,71,4,,,,,,,,,,,,,,,,,,,,,1.577,1.2,656.1408534999937,None,,,,,,,,,,,,,,,,,,,,656.680338999955,657.1851008000085,0.5080831800587475,1.008357180049643,657.1685173999285,657.2852226999821,657.1685173999285,657.2852226999821,657.2685009998968,None,c,1,657.2685009998968,None,0.6304234999697655,,,,,,,p17,2022_Apr_19_1054,training+cueing,2021.1.4,59.95394339292472,
Self.png,Friend,Self ,m,2.1,16,26,96,,,,,1,0,1,0,,,,,6,0,72,1,,,,,,,,,,,,,,,,,,,,,1.598,1.305,658.0251353000058,None,,,,,,,,,,,,,,,,,,,,658.5711152999429,659.0865165999858,0.5147623799275607,1.0157832799013704,659.0698839999968,659.1865779999644,659.0698839999968,659.1865779999644,659.1698947999394,None,m,1,659.1698947999394,None,0.7771037999773398,,,,,,,p17,2022_Apr_19_1054,training+cueing,2021.1.4,59.95394339292472,
Self.png,You,Self ,c,1,11,21,91,,,,,1,0,1,0,,,,,6,1,73,0,,,,,,,,,,,,,,,,,,,,,1.528,2.117,660.07807519997,None,,,,,,,,,,,,,,,,,,,,660.6171134999022,661.1213172998978,0.5086707801092416,1.008974980097264,661.1046647999901,661.2047001000028,661.1046647999901,661.2047001000028,661.2047001000028,None,c,1,661.2047001000028,None,0.5661574000259861,,,,,,,p17,2022_Apr_19_1054,training+cueing,2021.1.4,59.95394339292472,
Friend.png,Stranger,Friend,m,3.2,19,29,99,,,,,1,0,1,0,,,,,6,2,74,5,,,,,,,,,,,,,,,,,,,,,1.759,1.867,661.8946126999799,None,,,,,,,,,,,,,,,,,,,,662.4355204999447,662.9393277999479,0.5053416800219566,1.005630380124785,662.9226699999999,663.0393536000047,662.9226699999999,663.0393536000047,663.0226856999798,None,m,1,663.0226856999798,None,0.6524694999679923,,,,,,,p17,2022_Apr_19_1054,training+cueing,2021.1.4,59.95394339292472,
Friend.png,Friend,Friend,c,2,12,22,92,,,,,1,0,1,0,,,,,6,3,75,10,,,,,,,,,,,,,,,,,,,,,1.757,1.67,663.7994100999786,None,,,,,,,,,,,,,,,,,,,,664.3368592999177,664.8406867999583,0.5073457799153402,1.0076275799656287,664.8240426999982,664.9407286999049,664.8240426999982,664.9407286999049,664.9240361999255,None,c,1,664.9240361999255,None,0.7189035000046715,,,,,,,p17,2022_Apr_19_1054,training+cueing,2021.1.4,59.95394339292472,
Friend.png,Friend,Friend,c,2,12,22,92,,,,,1,0,1,0,,,,,6,4,76,4,,,,,,,,,,,,,,,,,,,,,1.791,2.16,665.764456099947,None,,,,,,,,,,,,,,,,,,,,666.3043326999759,666.8087609999347,0.5075576800154522,1.007858379976824,666.7921211000066,666.9088112999452,666.7921211000066,666.9088112999452,666.892117899959,None,c,1,666.892117899959,None,0.6389107999857515,,,,,,,p17,2022_Apr_19_1054,training+cueing,2021.1.4,59.95394339292472,
Friend.png,You,Friend,m,1.2,14,24,94,,,,,1,0,1,0,,,,,6,5,77,3,,,,,,,,,,,,,,,,,,,,,1.575,1.971,667.6654355999781,None,,,,,,,,,,,,,,,,,,,,668.2252726999577,668.727066099993,0.5033532400848344,1.0036660401383415,668.7103911999147,668.8104244999122,668.7103911999147,668.8104244999122,668.8104244999122,None,m,1,668.8104244999122,None,0.5766701999818906,,,,,,,p17,2022_Apr_19_1054,training+cueing,2021.1.4,59.95394339292472,
Self.png,Stranger,Self ,m,3.1,18,28,98,,,,,1,0,1,0,,,,,6,6,78,2,,,,,,,,,,,,,,,,,,,,,1.607,2.1,669.5180652999552,None,,,,,,,,,,,,,,,,,,,,670.061210099957,670.5614382999483,0.501990880118683,1.0022932800929993,670.5448281998979,670.6615147999255,670.5448281998979,670.6615147999255,670.6448309998959,None,m,1,670.6448309998959,None,0.8700717999599874,,,,,,,p17,2022_Apr_19_1054,training+cueing,2021.1.4,59.95394339292472,
Self.png,You,Self ,c,1,11,21,91,,,,,1,0,1,0,,,,,6,7,79,9,,,,,,,,,,,,,,,,,,,,,1.62,1.509,671.651869699941,None,,,,,,,,,,,,,,,,,,,,672.1894625999266,672.6963532000082,0.5120535800233483,1.0123202800750732,672.6797490000026,672.7797470999649,672.6797490000026,672.7797470999649,672.7797470999649,None,c,1,672.7797470999649,None,0.5751567999832332,,,,,,,p17,2022_Apr_19_1054,training+cueing,2021.1.4,59.95394339292472,
Stranger.png,Friend,Stranger,m,2.3,17,27,97,,,,,1,0,1,0,,,,,6,8,80,7,,,,,,,,,,,,,,,,,,,,,1.419,1.862,673.4868878999259,None,,,,,,,,,,,,,,,,,,,,674.0423681999091,674.547707599937,0.511417240020819,1.0117157399654388,674.5310318999691,674.6477660000091,674.5310318999691,674.6477660000091,674.6311465000035,None,m,1,674.6311465000035,None,1.1877388000721112,,,,,,,p17,2022_Apr_19_1054,training+cueing,2021.1.4,59.95394339292472,
Stranger.png,Stranger,Stranger,c,3,13,23,93,,,,,1,0,1,0,,,,,6,9,81,11,,,,,,,,,,,,,,,,,,,,,1.662,2.237,675.9548751999391,None,,,,,,,,,,,,,,,,,,,,676.496544900001,676.999462799984,0.5060187800554559,1.0071148800197989,676.9827917999355,677.0994965999853,676.9827917999355,677.0994965999853,677.0828178999946,None,c,1,677.0828178999946,None,0.6403556999284774,,,,,,,p17,2022_Apr_19_1054,training+cueing,2021.1.4,59.95394339292472,
Stranger.png,Stranger,Stranger,c,3,13,23,93,,,,,1,0,1,0,,,,,6,10,82,8,,,,,,,,,,,,,,,,,,,,,1.411,2.04,677.8601028999547,None,,,,,,,,,,,,,,,,,,,,678.3961580999894,678.9008292999351,0.5067968799266964,1.0070674798917025,678.8842083999189,679.0009258999489,678.8842083999189,679.0009258999489,678.9841877999716,None,c,1,678.9841877999716,None,0.7707914999919012,,,,,,,p17,2022_Apr_19_1054,training+cueing,2021.1.4,59.95394339292472,
Stranger.png,You,Stranger,m,1.3,15,25,95,,,,,1,0,1,0,,,,,6,11,83,6,,,,,,,,,,,,,,,,,,,,,1.768,2.081,679.8911937999073,None,,,,,,,,,,,,,,,,,,,,680.4327611000044,680.9356540999142,0.5070170800900087,1.007300280034542,680.9189965999685,681.0189892000053,680.9189965999685,681.0189892000053,681.0189892000053,None,m,1,681.0189892000053,None,1.0401973000261933,,,,,,,p17,2022_Apr_19_1054,training+cueing,2021.1.4,59.95394339292472,
Stranger.png,Stranger,Stranger,c,3,13,23,93,,,,,1,0,1,0,,,,,7,0,84,8,,,,,,,,,,,,,,,,,,,,,1.686,1.835,682.1927509999368,None,,,,,,,,,,,,,,,,,,,,682.7413767999969,683.2539970999351,0.5065126800909638,1.006808580015786,683.2373202999588,683.3540495999623,683.2373202999588,683.3540495999623,683.3373386999592,None,c,1,683.3373386999592,None,0.7376218000426888,,,,,,,p17,2022_Apr_19_1054,training+cueing,2021.1.4,59.95394339292472,
