Image,Name,Face,CorrAns,Match,Face_onset,CResponse_onset,IResponse_onset,Match.thisRepN,Match.thisTrialN,Match.thisN,Match.thisIndex,Blocks.thisRepN,Blocks.thisTrialN,Blocks.thisN,Blocks.thisIndex,trials.thisRepN,trials.thisTrialN,trials.thisN,trials.thisIndex,trials_2.thisRepN,trials_2.thisTrialN,trials_2.thisN,trials_2.thisIndex,text.started,text.stopped,p1.started,p1.stopped,MatchInstructions.started,MatchInstructions.stopped,Name1.started,Name1.stopped,Face_Relevance.started,Face_Relevance.stopped,MismatchInstructions.started,MismatchInstructions.stopped,Rest_trainingInstruct.started,Rest_trainingInstruct.stopped,next8.keys,next8.rt,next8.started,next8.stopped,Ready.started,Ready.stopped,delay_one_picked,delay_two_picked,blank0.started,blank0.stopped,FixationCross1.started,FixationCross1.stopped,Name3.started,Name3.stopped,Face_Relevance3.started,Face_Relevance3.stopped,responseTime.started,responseTime.stopped,resp.keys,resp.corr,resp.rt,resp.started,resp.stopped,Accuracy.started,Accuracy.stopped,questions.started,questions.stopped,p2.started,p2.stopped,FixationCross3.started,FixationCross3.stopped,port_Face_onset.started,port_Face_onset.stopped,Name4.started,Name4.stopped,Face_Relevance4.started,Face_Relevance4.stopped,responseTime2.started,responseTime2.stopped,Response.keys,Response.corr,Response.rt,Response.started,Response.stopped,p3.started,p3.stopped,Finish.started,Finish.stopped,gender,age,participant,date,expName,psychopyVersion,frameRate,
Self.png,You,,,,,,,0,0,0,0,,,,,,,,,,,,,13.590835600160062,None,0.008750919485464692,0.5323372196871787,15.582651200005785,None,17.74428870016709,None,17.74428870016709,None,,,,,,,,,,,,,,,,,,,,,,,,,,,,,,,,,,,,,,,,,,,,,,,,,,,,,,,p182,2022_Apr_26_1605,training+cueing,2021.1.4,59.858948414878306,
Friend.png,Friend,,,,,,,0,1,1,1,,,,,,,,,,,,,,,,,,,37.63753900001757,None,37.63753900001757,None,,,,,,,,,,,,,,,,,,,,,,,,,,,,,,,,,,,,,,,,,,,,,,,,,,,,,,,p182,2022_Apr_26_1605,training+cueing,2021.1.4,59.858948414878306,
Stranger.png,Stranger,,,,,,,0,2,2,2,,,,,,,,,,,,,,,,,,,57.641708800103515,None,57.641708800103515,None,,,,,,,,,,,,,,,,,,,,,,,,,,,,,,,,,,,,,,,,,,,,,,,,,,,,,,,p182,2022_Apr_26_1605,training+cueing,2021.1.4,59.858948414878306,
Friend.png,Stranger,Friend,m,3.2,19,29,99,,,,,0,0,0,0,0,0,0,5,,,,,,,,,,,,,,,77.5962641001679,None,84.38377099996433,None,space,-0.8363366001285613,2.0092051597312093,None,86.38533710013144,None,1.447,2.161,89.39870100002736,None,90.02507760003209,90.53849330008961,90.52185919997282,90.63857539999299,90.52185919997282,90.63857539999299,90.62189209996723,None,m,1,0.8916607000865042,90.62189209996723,None,91.54200899996795,None,,,,,,,,,,,,,,,,,,,,,,,,,,p182,2022_Apr_26_1605,training+cueing,2021.1.4,59.858948414878306,
Stranger.png,Stranger,Stranger,c,3,13,23,93,,,,,0,0,0,0,0,1,1,11,,,,,,,,,,,,,,,,,,,,,,,,,1.543,2.287,91.9560318000149,None,92.48451610002667,92.99018920003437,92.97363420017064,93.09016750007868,92.97363420017064,93.09016750007868,93.07350110006519,None,c,1,0.8880086001008749,93.07350110006519,None,93.9891917000059,None,,,,,,,,,,,,,,,,,,,,,,,,,,p182,2022_Apr_26_1605,training+cueing,2021.1.4,59.858948414878306,
Stranger.png,Friend,Stranger,m,2.3,17,27,97,,,,,0,0,0,0,0,2,2,7,,,,,,,,,,,,,,,,,,,,,,,,,1.6,1.62,94.39126040018164,None,94.92759670014493,95.44193910015747,95.42525040009059,95.54210350010544,95.42525040009059,95.54210350010544,95.52543190005235,None,m,1,0.8041027998551726,95.52543190005235,None,96.35769740003161,None,,,,,,,,,,,,,,,,,,,,,,,,,,p182,2022_Apr_26_1605,training+cueing,2021.1.4,59.858948414878306,
Self.png,You,Self ,c,1,11,21,91,,,,,0,0,0,0,0,3,3,0,,,,,,,,,,,,,,,,,,,,,,,,,1.682,1.553,96.75968510005623,None,97.29523140005767,97.81030220002867,97.79362950008363,97.89366229996085,97.79362950008363,97.89366229996085,97.89366229996085,None,c,1,0.5477591000963002,97.89366229996085,None,98.46081570000388,None,,,,,,,,,,,,,,,,,,,,,,,,,,p182,2022_Apr_26_1605,training+cueing,2021.1.4,59.858948414878306,
Friend.png,You,Friend,m,1.2,14,24,94,,,,,0,0,0,0,0,4,4,3,,,,,,,,,,,,,,,,,,,,,,,,,1.524,1.583,98.86114339996129,None,99.39520420017652,99.89524520002306,99.87855240004137,99.97864120011218,99.87855240004137,99.97864120011218,99.97864120011218,None,m,1,0.6068166000768542,99.97864120011218,None,100.61232080007903,None,,,,,,,,,,,,,,,,,,,,,,,,,,p182,2022_Apr_26_1605,training+cueing,2021.1.4,59.858948414878306,
Friend.png,Friend,Friend,c,2,12,22,92,,,,,0,0,0,0,0,5,5,10,,,,,,,,,,,,,,,,,,,,,,,,,1.622,1.319,101.01274650008418,None,101.55106790014543,102.06336869997904,102.04668120015413,102.16340459999628,102.04668120015413,102.16340459999628,102.14671480003744,None,c,1,0.6628205999732018,102.14671480003744,None,102.82921350002289,None,,,,,,,,,,,,,,,,,,,,,,,,,,p182,2022_Apr_26_1605,training+cueing,2021.1.4,59.858948414878306,
Stranger.png,Stranger,Stranger,c,3,13,23,93,,,,,0,0,0,0,0,6,6,8,,,,,,,,,,,,,,,,,,,,,,,,,1.755,2.161,103.23103730008006,None,103.76996820000932,104.28163650003262,104.26492330012843,104.38169139996171,104.26492330012843,104.38169139996171,104.3649995001033,None,c,1,0.9405642000492662,104.3649995001033,None,105.33241140004247,None,,,,,,,,,,,,,,,,,,,,,,,,,,p182,2022_Apr_26_1605,training+cueing,2021.1.4,59.858948414878306,
Stranger.png,You,Stranger,m,1.3,15,25,95,,,,,0,0,0,0,0,7,7,6,,,,,,,,,,,,,,,,,,,,,,,,,1.423,1.931,105.73278860002756,None,106.26891149999574,106.78345610015094,106.76680029998533,106.86680810013786,106.76680029998533,106.86680810013786,106.86680810013786,None,m,1,0.7425424000248313,106.86680810013786,None,107.6341015000362,None,,,,,,,,,,,,,,,,,,,,,,,,,,p182,2022_Apr_26_1605,training+cueing,2021.1.4,59.858948414878306,
Self.png,Friend,Self ,m,2.1,16,26,96,,,,,0,0,0,0,0,8,8,1,,,,,,,,,,,,,,,,,,,,,,,,,1.789,1.652,108.03438100009225,None,108.56634460017085,109.0684934000019,109.05172450002283,109.16848200000823,109.05172450002283,109.16848200000823,109.15178319998085,None,m,1,0.8416828000918031,109.15178319998085,None,110.01910679996945,None,,,,,,,,,,,,,,,,,,,,,,,,,,p182,2022_Apr_26_1605,training+cueing,2021.1.4,59.858948414878306,
Friend.png,Friend,Friend,c,2,12,22,92,,,,,0,0,0,0,0,9,9,4,,,,,,,,,,,,,,,,,,,,,,,,,1.463,1.949,110.4194805000443,None,110.95785770006478,111.47014420013875,111.45343390014023,111.57033480005339,111.45343390014023,111.57033480005339,111.55351070011966,None,c,1,0.5359806001652032,111.55351070011966,None,112.11932229995728,None,,,,,,,,,,,,,,,,,,,,,,,,,,p182,2022_Apr_26_1605,training+cueing,2021.1.4,59.858948414878306,
Self.png,You,Self ,c,1,11,21,91,,,,,0,0,0,0,0,10,10,9,,,,,,,,,,,,,,,,,,,,,,,,,1.623,1.248,112.52110280003399,None,113.06546490010805,113.57166919996962,113.55502380011603,113.65506090014242,113.55502380011603,113.65506090014242,113.65506090014242,None,c,1,0.7225955999456346,113.65506090014242,None,114.40564610017464,None,,,,,,,,,,,,,,,,,,,,,,,,,,p182,2022_Apr_26_1605,training+cueing,2021.1.4,59.858948414878306,
Self.png,Stranger,Self ,m,3.1,18,28,98,,,,,0,0,0,0,0,11,11,2,,,,,,,,,,,,,,,,,,,,,,,,,1.45,1.711,114.80641030007973,None,115.34425100008957,115.85667799995281,115.83999570016749,115.95670570014045,115.83999570016749,115.95670570014045,115.94001390016638,None,m,1,0.6934815000277013,115.94001390016638,None,116.65728819998913,None,,,,,,,,,,,,,,,,,,,,,,,,,,p182,2022_Apr_26_1605,training+cueing,2021.1.4,59.858948414878306,
Self.png,You,Self ,c,1,11,21,91,,,,,0,0,0,0,,,,,0,0,0,9,,,,,,,,,,,,,,,,,,,147.0460274000652,None,1.477,1.816,150.56177849997766,None,,,,,,,,,,,,,,,,117.05763590009883,None,0.014425659785047174,0.5124993599019945,151.18755370005965,151.69925790000707,0.5041093800682575,1.0044066801201552,151.68254010006785,151.782604200067,151.68254010006785,151.782604200067,151.782604200067,None,c,1,0.5468346001580358,151.782604200067,None,,,,,,,p182,2022_Apr_26_1605,training+cueing,2021.1.4,59.858948414878306,
Self.png,Friend,Self ,m,2.1,16,26,96,,,,,0,0,0,0,,,,,0,1,1,1,,,,,,,,,,,,,,,,,,,,,1.585,2.205,152.4571909001097,None,,,,,,,,,,,,,,,,,,,,152.9998286999762,153.5005155999679,0.5026022801175714,1.0034420802257955,153.48385840002447,153.60070880013518,153.48385840002447,153.60070880013518,153.5838959000539,None,m,1,0.7935279000084847,153.5838959000539,None,,,,,,,p182,2022_Apr_26_1605,training+cueing,2021.1.4,59.858948414878306,
Stranger.png,Friend,Stranger,m,2.3,17,27,97,,,,,0,0,0,0,,,,,0,2,2,7,,,,,,,,,,,,,,,,,,,,,1.485,1.654,154.50717280013487,None,,,,,,,,,,,,,,,,,,,,155.04636960010976,155.55202200007625,0.512074779951945,1.0123445799108595,155.53530260012485,155.6520116000902,155.53530260012485,155.6520116000902,155.6353716000449,None,m,1,0.9819310999009758,155.6353716000449,None,,,,,,,p182,2022_Apr_26_1605,training+cueing,2021.1.4,59.858948414878306,
Self.png,Stranger,Self ,m,3.1,18,28,98,,,,,0,0,0,0,,,,,0,3,3,2,,,,,,,,,,,,,,,,,,,,,1.522,1.251,156.74238079995848,None,,,,,,,,,,,,,,,,,,,,157.28155670012347,157.78696359996684,0.507694180123508,1.0079936801921576,157.77025800012052,157.88701019994915,157.77025800012052,157.88701019994915,157.87028659996577,None,m,1,1.0990890997927636,157.87028659996577,None,,,,,,,p182,2022_Apr_26_1605,training+cueing,2021.1.4,59.858948414878306,
Stranger.png,Stranger,Stranger,c,3,13,23,93,,,,,0,0,0,0,,,,,0,4,4,8,,,,,,,,,,,,,,,,,,,,,1.713,2.215,159.09375040000305,None,,,,,,,,,,,,,,,,,,,,159.63236010004766,160.13864929997362,0.5112541797570884,1.0115712797269225,160.12194510013796,160.23868920002133,160.12194510013796,160.23868920002133,160.22198990010656,None,c,1,0.9233897998929024,160.22198990010656,None,,,,,,,p182,2022_Apr_26_1605,training+cueing,2021.1.4,59.858948414878306,
Stranger.png,Stranger,Stranger,c,3,13,23,93,,,,,0,0,0,0,,,,,0,5,5,11,,,,,,,,,,,,,,,,,,,,,1.566,1.351,161.278330600122,None,,,,,,,,,,,,,,,,,,,,161.81757940002717,162.32353539997712,0.5113482801243663,1.0116691801231354,162.30687450012192,162.4235974000767,162.30687450012192,162.4235974000767,162.40692259999923,None,c,1,0.8344402001239359,162.40692259999923,None,,,,,,,p182,2022_Apr_26_1605,training+cueing,2021.1.4,59.858948414878306,
Friend.png,Friend,Friend,c,2,12,22,92,,,,,0,0,0,0,,,,,0,6,6,4,,,,,,,,,,,,,,,,,,,,,1.475,1.568,163.36392710008658,None,,,,,,,,,,,,,,,,,,,,163.90317180007696,164.4084135000594,0.5082732799928635,1.0085458799730986,164.39174210000783,164.50845009996556,164.39174210000783,164.50845009996556,164.49174019997008,None,c,1,0.589911200106144,164.49174019997008,None,,,,,,,p182,2022_Apr_26_1605,training+cueing,2021.1.4,59.858948414878306,
Friend.png,Stranger,Friend,m,3.2,19,29,99,,,,,0,0,0,0,,,,,0,7,7,5,,,,,,,,,,,,,,,,,,,,,1.451,2.466,165.2147562999744,None,,,,,,,,,,,,,,,,,,,,165.75714680016972,166.2597605001647,0.5057623798493296,1.0060018796939403,166.24311180016957,166.35982540016994,166.24311180016957,166.35982540016994,166.3430949000176,None,m,1,0.8182777999900281,166.3430949000176,None,,,,,,,p182,2022_Apr_26_1605,training+cueing,2021.1.4,59.858948414878306,
Self.png,You,Self ,c,1,11,21,91,,,,,0,0,0,0,,,,,0,8,8,0,,,,,,,,,,,,,,,,,,,,,1.41,2.397,167.28326090006158,None,,,,,,,,,,,,,,,,,,,,167.8335296001751,168.34457750013098,0.5031766798347235,1.0034977798350155,168.32789100008085,168.42797530000098,168.32789100008085,168.42797530000098,168.42797530000098,None,c,1,0.7013927998486906,168.42797530000098,None,,,,,,,p182,2022_Apr_26_1605,training+cueing,2021.1.4,59.858948414878306,
Friend.png,You,Friend,m,1.2,14,24,94,,,,,0,0,0,0,,,,,0,9,9,3,,,,,,,,,,,,,,,,,,,,,1.579,1.429,169.2516745000612,None,,,,,,,,,,,,,,,,,,,,169.7898524000775,170.29598619998433,0.5112514800857753,1.0115016801282763,170.2793321001809,170.379374000011,170.2793321001809,170.379374000011,170.379374000011,None,m,1,0.7180287998635322,170.379374000011,None,,,,,,,p182,2022_Apr_26_1605,training+cueing,2021.1.4,59.858948414878306,
Stranger.png,You,Stranger,m,1.3,15,25,95,,,,,0,0,0,0,,,,,0,10,10,6,,,,,,,,,,,,,,,,,,,,,1.692,2.305,171.2198328000959,None,,,,,,,,,,,,,,,,,,,,171.75868190010078,172.26404660008848,0.5111017799936235,1.0116475799586624,172.24740820005536,172.34745210013352,172.24740820005536,172.34745210013352,172.34745210013352,None,m,1,0.7659861999563873,172.34745210013352,None,,,,,,,p182,2022_Apr_26_1605,training+cueing,2021.1.4,59.858948414878306,
Friend.png,Friend,Friend,c,2,12,22,92,,,,,0,0,0,0,,,,,0,11,11,10,,,,,,,,,,,,,,,,,,,,,1.646,2.203,173.23894690000452,None,,,,,,,,,,,,,,,,,,,,173.77907319995575,174.2821774999611,0.5038241799920797,1.0041939800139517,174.26551389996894,174.3822552000638,174.26551389996894,174.3822552000638,174.36556930001825,None,c,1,0.6518024001270533,174.36556930001825,None,,,,,,,p182,2022_Apr_26_1605,training+cueing,2021.1.4,59.858948414878306,
Friend.png,Stranger,Friend,m,3.2,19,29,99,,,,,0,0,0,0,,,,,1,0,12,5,,,,,,,,,,,,,,,,,,,,,1.44,2.447,175.13899310003035,None,,,,,,,,,,,,,,,,,,,,175.68083590012975,176.18356110015884,0.5055869799107313,1.0058606800157577,176.16689420002513,176.28378730011173,176.16689420002513,176.28378730011173,176.26694440003484,None,m,1,0.7344732000492513,176.26694440003484,None,,,,,,,p182,2022_Apr_26_1605,training+cueing,2021.1.4,59.858948414878306,
Self.png,Stranger,Self ,m,3.1,18,28,98,,,,,0,0,0,0,,,,,1,1,13,2,,,,,,,,,,,,,,,,,,,,,1.739,1.684,177.1235957001336,None,,,,,,,,,,,,,,,,,,,,177.66119550005533,178.16835650010034,0.514501579804346,1.014744179788977,178.15169510012493,178.26842220011167,178.15169510012493,178.26842220011167,178.2516966999974,None,m,1,0.7339914999902248,178.2516966999974,None,,,,,,,p182,2022_Apr_26_1605,training+cueing,2021.1.4,59.858948414878306,
Stranger.png,Stranger,Stranger,c,3,13,23,93,,,,,0,0,0,0,,,,,1,2,14,8,,,,,,,,,,,,,,,,,,,,,1.663,2.133,179.11199790006503,None,,,,,,,,,,,,,,,,,,,,179.64917790004984,180.15309790009633,0.5061032800003886,1.0069730798713863,180.13643159996718,180.2531429999508,180.13643159996718,180.2531429999508,180.23646120005287,None,c,1,0.7169544999487698,180.23646120005287,None,,,,,,,p182,2022_Apr_26_1605,training+cueing,2021.1.4,59.858948414878306,
Stranger.png,Stranger,Stranger,c,3,13,23,93,,,,,0,0,0,0,,,,,1,3,15,11,,,,,,,,,,,,,,,,,,,,,1.763,1.485,181.07787499995902,None,,,,,,,,,,,,,,,,,,,,181.6166584000457,182.12118860008195,0.50775967980735,1.0081003799568862,182.10448099998757,182.22121990006417,182.10448099998757,182.22121990006417,182.2045356000308,None,c,1,1.2768244999460876,182.2045356000308,None,,,,,,,p182,2022_Apr_26_1605,training+cueing,2021.1.4,59.858948414878306,
Friend.png,Friend,Friend,c,2,12,22,92,,,,,0,0,0,0,,,,,1,4,16,4,,,,,,,,,,,,,,,,,,,,,1.663,2.102,183.6115288999863,None,,,,,,,,,,,,,,,,,,,,184.15243929997087,184.65636160015129,0.5057639798615128,1.0060575800016522,184.63969129999168,184.75638810009696,184.63969129999168,184.75638810009696,184.73972840001807,None,c,1,0.725600800011307,184.73972840001807,None,,,,,,,p182,2022_Apr_26_1605,training+cueing,2021.1.4,59.858948414878306,
Stranger.png,Friend,Stranger,m,2.3,17,27,97,,,,,0,0,0,0,,,,,1,5,17,7,,,,,,,,,,,,,,,,,,,,,1.676,1.631,185.59667590004392,None,,,,,,,,,,,,,,,,,,,,186.1352298001293,186.641115100123,0.5112844803370535,1.011578580364585,186.62443550000899,186.7411658000201,186.62443550000899,186.7411658000201,186.72448320011608,None,m,1,0.7248381001409143,186.72448320011608,None,,,,,,,p182,2022_Apr_26_1605,training+cueing,2021.1.4,59.858948414878306,
Self.png,Friend,Self ,m,2.1,16,26,96,,,,,0,0,0,0,,,,,1,6,18,1,,,,,,,,,,,,,,,,,,,,,1.696,2.437,187.58088520006277,None,,,,,,,,,,,,,,,,,,,,188.11993380007334,188.6259498000145,0.5111363800242543,1.0113930799998343,188.6092640000861,188.72594529995695,188.6092640000861,188.72594529995695,188.70927160000429,None,m,1,0.9320098999887705,188.70927160000429,None,,,,,,,p182,2022_Apr_26_1605,training+cueing,2021.1.4,59.858948414878306,
Stranger.png,You,Stranger,m,1.3,15,25,95,,,,,0,0,0,0,,,,,1,7,19,6,,,,,,,,,,,,,,,,,,,,,1.425,1.406,189.76642880006693,None,,,,,,,,,,,,,,,,,,,,190.30596290016547,190.81080149998888,0.5068331798538566,1.007694979896769,190.7941240000073,190.89419950009324,190.7941240000073,190.89419950009324,190.89419950009324,None,m,1,0.6991395000368357,190.89419950009324,None,,,,,,,p182,2022_Apr_26_1605,training+cueing,2021.1.4,59.858948414878306,
Friend.png,You,Friend,m,1.2,14,24,94,,,,,0,0,0,0,,,,,1,8,20,3,,,,,,,,,,,,,,,,,,,,,1.665,1.419,191.71762600005604,None,,,,,,,,,,,,,,,,,,,,192.2568131000735,192.76230750000104,0.5112043798435479,1.0114873799029738,192.74558920017444,192.84560230001807,192.74558920017444,192.84560230001807,192.84560230001807,None,m,1,0.6036440001334995,192.84560230001807,None,,,,,,,p182,2022_Apr_26_1605,training+cueing,2021.1.4,59.858948414878306,
Self.png,You,Self ,c,1,11,21,91,,,,,0,0,0,0,,,,,1,9,21,9,,,,,,,,,,,,,,,,,,,,,1.533,1.491,193.5857502000872,None,,,,,,,,,,,,,,,,,,,,194.1237977000419,194.63042460009456,0.5108658799435943,1.012537779752165,194.61230230005458,194.71374969999306,194.61230230005458,194.71374969999306,194.71374969999306,None,c,1,0.7996412999927998,194.71374969999306,None,,,,,,,p182,2022_Apr_26_1605,training+cueing,2021.1.4,59.858948414878306,
Self.png,You,Self ,c,1,11,21,91,,,,,0,0,0,0,,,,,1,10,22,0,,,,,,,,,,,,,,,,,,,,,1.468,1.774,195.63687360007316,None,,,,,,,,,,,,,,,,,,,,196.1753823000472,196.68171810009517,0.5106951796915382,1.0109239795710891,196.66505950014107,196.76511949999258,196.66505950014107,196.76511949999258,196.76511949999258,None,c,1,0.8601903999224305,196.76511949999258,None,,,,,,,p182,2022_Apr_26_1605,training+cueing,2021.1.4,59.858948414878306,
Friend.png,Friend,Friend,c,2,12,22,92,,,,,0,0,0,0,,,,,1,11,23,10,,,,,,,,,,,,,,,,,,,,,1.653,1.748,197.75569370016456,None,,,,,,,,,,,,,,,,,,,,198.3128850001376,198.81659470009618,0.5081028398126364,1.008384239859879,198.7999567000661,198.91679859999567,198.7999567000661,198.91679859999567,198.89992220001295,None,m,0,0.6454416001215577,198.89992220001295,None,,,,,,,p182,2022_Apr_26_1605,training+cueing,2021.1.4,59.858948414878306,
Stranger.png,You,Stranger,m,1.3,15,25,95,,,,,0,0,0,0,,,,,2,0,24,6,,,,,,,,,,,,,,,,,,,,,1.428,1.81,199.6735650000628,None,,,,,,,,,,,,,,,,,,,,200.212832899997,200.71796700009145,0.5084317799191922,1.008896879851818,200.70129700005054,200.80132550001144,200.70129700005054,200.80132550001144,200.80132550001144,None,m,1,0.7921669001225382,200.80132550001144,None,,,,,,,p182,2022_Apr_26_1605,training+cueing,2021.1.4,59.858948414878306,
Friend.png,Friend,Friend,c,2,12,22,92,,,,,0,0,0,0,,,,,2,1,25,4,,,,,,,,,,,,,,,,,,,,,1.749,2.27,201.72612670017406,None,,,,,,,,,,,,,,,,,,,,202.26678890013136,202.76944890012965,0.5060904801357538,1.006603280082345,202.7527948000934,202.86952990014106,202.7527948000934,202.86952990014106,202.85280050011352,None,c,1,0.6285105000715703,202.85280050011352,None,,,,,,,p182,2022_Apr_26_1605,training+cueing,2021.1.4,59.858948414878306,
Friend.png,You,Friend,m,1.2,14,24,94,,,,,0,0,0,0,,,,,2,2,26,3,,,,,,,,,,,,,,,,,,,,,1.747,2.277,203.6099140001461,None,,,,,,,,,,,,,,,,,,,,204.14914900017902,204.65413459995762,0.5105788800865412,1.0110736801289022,204.63747390010394,204.73754010000266,204.63747390010394,204.73754010000266,204.73754010000266,None,m,1,0.7278984999284148,204.73754010000266,None,,,,,,,p182,2022_Apr_26_1605,training+cueing,2021.1.4,59.858948414878306,
Friend.png,Stranger,Friend,m,3.2,19,29,99,,,,,0,0,0,0,,,,,2,3,27,5,,,,,,,,,,,,,,,,,,,,,1.467,1.841,205.59532550000586,None,,,,,,,,,,,,,,,,,,,,206.13522160006687,206.6388841001317,0.5044497798662633,1.0047449797857553,206.6222252000589,206.73897540010512,206.6222252000589,206.73897540010512,206.72227709996514,None,m,1,0.8550160999875516,206.72227709996514,None,,,,,,,p182,2022_Apr_26_1605,training+cueing,2021.1.4,59.858948414878306,
Friend.png,Friend,Friend,c,2,12,22,92,,,,,0,0,0,0,,,,,2,4,28,10,,,,,,,,,,,,,,,,,,,,,1.42,1.267,207.71298149996437,None,,,,,,,,,,,,,,,,,,,,208.26767850015312,208.77384130004793,0.5127195401582867,1.0130191401112825,208.75712890014984,208.87387440004386,208.75712890014984,208.87387440004386,208.8571647000499,None,c,1,0.6401204001158476,208.8571647000499,None,,,,,,,p182,2022_Apr_26_1605,training+cueing,2021.1.4,59.858948414878306,
Stranger.png,Stranger,Stranger,c,3,13,23,93,,,,,0,0,0,0,,,,,2,5,29,8,,,,,,,,,,,,,,,,,,,,,1.731,2.38,209.6302434001118,None,,,,,,,,,,,,,,,,,,,,210.17323760013096,210.6751694001723,0.5054139799904078,1.0056623797863722,210.65847450005822,210.7752539999783,210.65847450005822,210.7752539999783,210.7585156999994,None,c,1,0.930786499986425,210.7585156999994,None,,,,,,,p182,2022_Apr_26_1605,training+cueing,2021.1.4,59.858948414878306,
Self.png,You,Self ,c,1,11,21,91,,,,,0,0,0,0,,,,,2,6,30,0,,,,,,,,,,,,,,,,,,,,,1.595,1.306,211.81550250016153,None,,,,,,,,,,,,,,,,,,,,212.3541671000421,212.86006200010888,0.5094807799905539,1.0097687800880522,212.8433958000969,212.94345340016298,212.8433958000969,212.94345340016298,212.94345340016298,None,c,1,0.7139799001161009,212.94345340016298,None,,,,,,,p182,2022_Apr_26_1605,training+cueing,2021.1.4,59.858948414878306,
Stranger.png,Stranger,Stranger,c,3,13,23,93,,,,,0,0,0,0,,,,,2,7,31,11,,,,,,,,,,,,,,,,,,,,,1.78,1.491,213.78313730005175,None,,,,,,,,,,,,,,,,,,,,214.3254905999638,214.82827490009367,0.5053466795943677,1.0055784797295928,214.81154710007831,214.92821940011345,214.81154710007831,214.92821940011345,214.91168699995615,None,c,1,1.0336271999403834,214.91168699995615,None,,,,,,,p182,2022_Apr_26_1605,training+cueing,2021.1.4,59.858948414878306,
Self.png,Stranger,Self ,m,3.1,18,28,98,,,,,0,0,0,0,,,,,2,8,32,2,,,,,,,,,,,,,,,,,,,,,1.605,2.442,216.06879570009187,None,,,,,,,,,,,,,,,,,,,,216.61661859997548,217.12983210012317,0.5082836798392236,1.0087525798007846,217.11314649996348,217.22803730005398,217.11314649996348,217.22803730005398,217.21319889998995,None,m,1,0.8761654999107122,217.21319889998995,None,,,,,,,p182,2022_Apr_26_1605,training+cueing,2021.1.4,59.858948414878306,
Stranger.png,Friend,Stranger,m,2.3,17,27,97,,,,,0,0,0,0,,,,,2,9,33,7,,,,,,,,,,,,,,,,,,,,,1.465,1.291,218.22108589997515,None,,,,,,,,,,,,,,,,,,,,218.7600861999672,219.26472089998424,0.5081544800195843,1.0085864800494164,219.2480367999524,219.3648797001224,219.2480367999524,219.3648797001224,219.3481611001771,None,m,1,0.9491559998132288,219.3481611001771,None,,,,,,,p182,2022_Apr_26_1605,training+cueing,2021.1.4,59.858948414878306,
Self.png,Friend,Self ,m,2.1,16,26,96,,,,,0,0,0,0,,,,,2,10,34,1,,,,,,,,,,,,,,,,,,,,,1.662,1.369,220.4220285001211,None,,,,,,,,,,,,,,,,,,,,220.96070399996825,221.46629759995267,0.5108151801396161,1.0110808801837265,221.44964960007928,221.5663380001206,221.44964960007928,221.5663380001206,221.54964990005828,None,m,1,1.0835843000095338,221.54964990005828,None,,,,,,,p182,2022_Apr_26_1605,training+cueing,2021.1.4,59.858948414878306,
Self.png,You,Self ,c,1,11,21,91,,,,,0,0,0,0,,,,,2,11,35,9,,,,,,,,,,,,,,,,,,,,,1.423,2.439,222.75667600007728,None,,,,,,,,,,,,,,,,,,,,223.29676309996285,223.8013532999903,0.5060363800730556,1.0068271800410002,223.7847105001565,223.8847149000503,223.7847105001565,223.8847149000503,223.8847149000503,None,c,1,0.7012714999727905,223.8847149000503,None,,,,,,,p182,2022_Apr_26_1605,training+cueing,2021.1.4,59.858948414878306,
Self.png,Stranger,Self ,m,3.1,18,28,98,,,,,0,0,0,0,,,,,3,0,36,2,,,,,,,,,,,,,,,,,,,,,1.794,1.681,224.71196410013363,None,,,,,,,,,,,,,,,,,,,,225.25223820004612,225.752771000145,0.5010590797755867,1.0015282798558474,225.7360625001602,225.85279390006326,225.7360625001602,225.85279390006326,225.85279390006326,None,m,1,1.0684887000825256,225.85279390006326,None,,,,,,,p182,2022_Apr_26_1605,training+cueing,2021.1.4,59.858948414878306,
Friend.png,Friend,Friend,c,2,12,22,92,,,,,0,0,0,0,,,,,3,1,37,10,,,,,,,,,,,,,,,,,,,,,1.584,2.342,227.04308250010945,None,,,,,,,,,,,,,,,,,,,,227.58501869998872,228.08777610003017,0.5067026796750724,1.0076676798053086,228.07111440016888,228.18782190000638,228.07111440016888,228.18782190000638,228.17113030003384,None,c,1,0.654245600104332,228.17113030003384,None,,,,,,,p182,2022_Apr_26_1605,training+cueing,2021.1.4,59.858948414878306,
Friend.png,You,Friend,m,1.2,14,24,94,,,,,0,0,0,0,,,,,3,2,38,3,,,,,,,,,,,,,,,,,,,,,1.617,1.827,228.96180379996076,None,,,,,,,,,,,,,,,,,,,,229.50183700001799,230.00580330006778,0.5067723800893873,1.0070438799448311,229.98913240013644,230.08918520016596,229.98913240013644,230.08918520016596,230.08918520016596,None,m,1,1.072195699904114,230.08918520016596,None,,,,,,,p182,2022_Apr_26_1605,training+cueing,2021.1.4,59.858948414878306,
Stranger.png,Stranger,Stranger,c,3,13,23,93,,,,,0,0,0,0,,,,,3,3,39,11,,,,,,,,,,,,,,,,,,,,,1.456,2.121,231.3009192000609,None,,,,,,,,,,,,,,,,,,,,231.8396183999721,232.34081550012343,0.5014518802054226,1.001992880133912,232.32413980015554,232.44089130009525,232.32413980015554,232.44089130009525,232.44089130009525,None,c,1,1.1044058999978006,232.44089130009525,None,,,,,,,p182,2022_Apr_26_1605,training+cueing,2021.1.4,59.858948414878306,
Friend.png,Friend,Friend,c,2,12,22,92,,,,,0,0,0,0,,,,,3,4,40,4,,,,,,,,,,,,,,,,,,,,,1.671,2.179,233.6824018000625,None,,,,,,,,,,,,,,,,,,,,234.24124740017578,234.74258449999616,0.5004083400126547,1.0009029400534928,234.72591769997962,234.84300280013122,234.72591769997962,234.84300280013122,234.84300280013122,None,c,1,0.7822598998900503,234.84300280013122,None,,,,,,,p182,2022_Apr_26_1605,training+cueing,2021.1.4,59.858948414878306,
Stranger.png,Stranger,Stranger,c,3,13,23,93,,,,,0,0,0,0,,,,,3,5,41,8,,,,,,,,,,,,,,,,,,,,,1.619,1.644,235.74914299999364,None,,,,,,,,,,,,,,,,,,,,236.29043110017665,236.7940259000752,0.5068932799622416,1.0071892798878253,236.777370700147,236.89410300017335,236.777370700147,236.89410300017335,236.8773984001018,None,c,1,0.8758632999379188,236.8773984001018,None,,,,,,,p182,2022_Apr_26_1605,training+cueing,2021.1.4,59.858948414878306,
Stranger.png,Friend,Stranger,m,2.3,17,27,97,,,,,0,0,0,0,,,,,3,6,42,7,,,,,,,,,,,,,,,,,,,,,1.661,1.6,237.8839157000184,None,,,,,,,,,,,,,,,,,,,,238.42679679999128,238.9289711001329,0.5056914798915386,1.0059675797820091,238.9122878999915,239.02902040001936,238.9122878999915,239.02902040001936,239.0122978000436,None,m,1,0.9329977999441326,239.0122978000436,None,,,,,,,p182,2022_Apr_26_1605,training+cueing,2021.1.4,59.858948414878306,
Friend.png,Stranger,Friend,m,3.2,19,29,99,,,,,0,0,0,0,,,,,3,7,43,5,,,,,,,,,,,,,,,,,,,,,1.417,2.16,240.06940959999338,None,,,,,,,,,,,,,,,,,,,,240.63078940007836,241.13051669998094,0.5140395399648696,1.0145753400865942,241.13051669998094,241.23101950017735,241.13051669998094,241.23101950017735,241.23101950017735,None,m,1,0.8423888999968767,241.23101950017735,None,,,,,,,p182,2022_Apr_26_1605,training+cueing,2021.1.4,59.858948414878306,
Stranger.png,You,Stranger,m,1.3,15,25,95,,,,,0,0,0,0,,,,,3,8,44,6,,,,,,,,,,,,,,,,,,,,,1.754,1.592,242.2053149000276,None,,,,,,,,,,,,,,,,,,,,242.76370980008505,243.26537450007163,0.5052037399727851,1.005476739956066,243.24872900010087,243.34874509996735,243.24872900010087,243.34874509996735,243.34874509996735,None,m,1,1.348499899962917,243.34874509996735,None,,,,,,,p182,2022_Apr_26_1605,training+cueing,2021.1.4,59.858948414878306,
Self.png,You,Self ,c,1,11,21,91,,,,,0,0,0,0,,,,,3,9,45,0,,,,,,,,,,,,,,,,,,,,,1.652,1.919,244.82402170007117,None,,,,,,,,,,,,,,,,,,,,245.360646400135,245.86726139998063,0.5119767799042165,1.0123990799766034,245.85059240018018,245.9506526000332,245.85059240018018,245.9506526000332,245.9506526000332,None,c,1,0.618598299799487,245.9506526000332,None,,,,,,,p182,2022_Apr_26_1605,training+cueing,2021.1.4,59.858948414878306,
Self.png,Friend,Self ,m,2.1,16,26,96,,,,,0,0,0,0,,,,,3,10,46,1,,,,,,,,,,,,,,,,,,,,,1.725,2.204,246.69086550013162,None,,,,,,,,,,,,,,,,,,,,247.23139880015515,247.73529780004174,0.5055074798874557,1.006019480060786,247.7186106001027,247.8355300000403,247.7186106001027,247.8355300000403,247.8188044000417,None,m,1,0.9584697999525815,247.8188044000417,None,,,,,,,p182,2022_Apr_26_1605,training+cueing,2021.1.4,59.858948414878306,
Self.png,You,Self ,c,1,11,21,91,,,,,0,0,0,0,,,,,3,11,47,9,,,,,,,,,,,,,,,,,,,,,1.405,1.487,248.90981490002014,None,,,,,,,,,,,,,,,,,,,,249.4503691000864,249.95356890000403,0.5069327799137682,1.0072382797952741,249.93684880016372,250.036940400023,249.93684880016372,250.036940400023,250.036940400023,None,c,1,0.8526363000273705,250.036940400023,None,,,,,,,p182,2022_Apr_26_1605,training+cueing,2021.1.4,59.858948414878306,
Self.png,Friend,Self ,m,2.1,16,26,96,,,,,0,0,0,0,,,,,4,0,48,1,,,,,,,,,,,,,,,,,,,,,1.748,2.358,251.01439799997024,None,,,,,,,,,,,,,,,,,,,,251.55342580005527,252.05525400000624,0.5020594799425453,1.0020624799653888,252.0387200000696,252.15524580003694,252.0387200000696,252.15524580003694,252.13852980011143,None,m,1,1.246741499984637,252.13852980011143,None,,,,,,,p182,2022_Apr_26_1605,training+cueing,2021.1.4,59.858948414878306,
Stranger.png,Stranger,Stranger,c,3,13,23,93,,,,,0,0,0,0,,,,,4,1,49,8,,,,,,,,,,,,,,,,,,,,,1.505,1.916,253.51252089999616,None,,,,,,,,,,,,,,,,,,,,254.05536370002665,254.55694969999604,0.5036471798084676,1.0038913798052818,254.54028069996275,254.6569305001758,254.54028069996275,254.6569305001758,254.6402257999871,None,c,1,0.937013000017032,254.6402257999871,None,,,,,,,p182,2022_Apr_26_1605,training+cueing,2021.1.4,59.858948414878306,
Stranger.png,You,Stranger,m,1.3,15,25,95,,,,,0,0,0,0,,,,,4,2,50,6,,,,,,,,,,,,,,,,,,,,,1.768,1.86,255.71389080001973,None,,,,,,,,,,,,,,,,,,,,256.254552999977,256.758483099984,0.5069371799472719,1.0072254799306393,256.74178869999014,256.8418699000031,256.74178869999014,256.8418699000031,256.8418699000031,None,m,1,1.0395385001320392,256.8418699000031,None,,,,,,,p182,2022_Apr_26_1605,training+cueing,2021.1.4,59.858948414878306,
Friend.png,Stranger,Friend,m,3.2,19,29,99,,,,,0,0,0,0,,,,,4,3,51,5,,,,,,,,,,,,,,,,,,,,,1.526,2.384,258.0152351001743,None,,,,,,,,,,,,,,,,,,,,258.5585265001282,259.0601757001132,0.5025168797001243,1.003469179617241,259.0434404001571,259.16018850007094,259.0434404001571,259.16018850007094,259.14351089997217,None,m,1,1.0738411000929773,259.14351089997217,None,,,,,,,p182,2022_Apr_26_1605,training+cueing,2021.1.4,59.858948414878306,
Stranger.png,Stranger,Stranger,c,3,13,23,93,,,,,0,0,0,0,,,,,4,4,52,11,,,,,,,,,,,,,,,,,,,,,1.631,1.288,260.35161050013267,None,,,,,,,,,,,,,,,,,,,,260.8904085000977,261.3951441999525,0.5085712797008455,1.0089671798050404,261.37849989999086,261.49576249998063,261.37849989999086,261.49576249998063,261.47853830014355,None,c,1,0.8027402998413891,261.47853830014355,None,,,,,,,p182,2022_Apr_26_1605,training+cueing,2021.1.4,59.858948414878306,
Stranger.png,Friend,Stranger,m,2.3,17,27,97,,,,,0,0,0,0,,,,,4,5,53,7,,,,,,,,,,,,,,,,,,,,,1.69,1.84,262.41905759996735,None,,,,,,,,,,,,,,,,,,,,262.9607671000995,263.4633635999635,0.5058981801848859,1.0063602800946683,263.4466675000731,263.56395080010407,263.4466675000731,263.56395080010407,263.5472200999502,None,m,1,0.8620600998401642,263.5472200999502,None,,,,,,,p182,2022_Apr_26_1605,training+cueing,2021.1.4,59.858948414878306,
Friend.png,Friend,Friend,c,2,12,22,92,,,,,0,0,0,0,,,,,4,6,54,4,,,,,,,,,,,,,,,,,,,,,1.412,1.685,264.537490000017,None,,,,,,,,,,,,,,,,,,,,265.075793400174,265.58156180009246,0.5102550801821053,1.010985380038619,265.564972900087,265.68176289997064,265.564972900087,265.68176289997064,265.6648701999802,None,c,1,0.6325002000667155,265.6648701999802,None,,,,,,,p182,2022_Apr_26_1605,training+cueing,2021.1.4,59.858948414878306,
Self.png,Stranger,Self ,m,3.1,18,28,98,,,,,0,0,0,0,,,,,4,7,55,2,,,,,,,,,,,,,,,,,,,,,1.554,1.684,266.4228124001529,None,,,,,,,,,,,,,,,,,,,,266.96549590001814,267.46623100014403,0.5008953798096627,1.00137197971344,267.4495795001276,267.56661960016936,267.4495795001276,267.56661960016936,267.56661960016936,None,m,1,1.1945910998620093,267.56661960016936,None,,,,,,,p182,2022_Apr_26_1605,training+cueing,2021.1.4,59.858948414878306,
Self.png,You,Self ,c,1,11,21,91,,,,,0,0,0,0,,,,,4,8,56,9,,,,,,,,,,,,,,,,,,,,,1.73,1.411,268.89074339997023,None,,,,,,,,,,,,,,,,,,,,269.4319716000464,269.93466070014983,0.5022990799043328,1.0025940798223019,269.9179993001744,270.0180477001704,269.9179993001744,270.0180477001704,270.0180477001704,None,c,1,0.5673450999893248,270.0180477001704,None,,,,,,,p182,2022_Apr_26_1605,training+cueing,2021.1.4,59.858948414878306,
Self.png,You,Self ,c,1,11,21,91,,,,,0,0,0,0,,,,,4,9,57,0,,,,,,,,,,,,,,,,,,,,,1.723,1.987,270.7076840000227,None,,,,,,,,,,,,,,,,,,,,271.24671380012296,271.7526973001659,0.5116237797774374,1.011953679844737,271.73595180013217,271.8360354001634,271.73595180013217,271.8360354001634,271.8360354001634,None,c,1,0.6053355999756604,271.8360354001634,None,,,,,,,p182,2022_Apr_26_1605,training+cueing,2021.1.4,59.858948414878306,
Friend.png,Friend,Friend,c,2,12,22,92,,,,,0,0,0,0,,,,,4,10,58,10,,,,,,,,,,,,,,,,,,,,,1.638,1.402,272.57977499999106,None,,,,,,,,,,,,,,,,,,,,273.11964239994995,273.62068199994974,0.5018301801756024,1.0021344802808017,273.6039837000426,273.72073459997773,273.6039837000426,273.72073459997773,273.7039906999562,None,c,1,0.9612180001568049,273.7039906999562,None,,,,,,,p182,2022_Apr_26_1605,training+cueing,2021.1.4,59.858948414878306,
Friend.png,You,Friend,m,1.2,14,24,94,,,,,0,0,0,0,,,,,4,11,59,3,,,,,,,,,,,,,,,,,,,,,1.58,2.355,274.7939248001203,None,,,,,,,,,,,,,,,,,,,,275.3405683999881,275.8556507001631,0.5109905798453838,1.011202179826796,275.8390194000676,275.93901570001617,275.8390194000676,275.93901570001617,275.93901570001617,None,m,1,1.2062410998623818,275.93901570001617,None,,,,,,,p182,2022_Apr_26_1605,training+cueing,2021.1.4,59.858948414878306,
Stranger.png,Stranger,Stranger,c,3,13,23,93,,,,,0,0,0,0,,,,,5,0,60,8,,,,,,,,,,,,,,,,,,,,,1.452,1.986,277.28071610000916,None,,,,,,,,,,,,,,,,,,,,277.8278751000762,278.3407925001811,0.5086591800209135,1.008882380090654,278.32415450015105,278.440806100145,278.32415450015105,278.440806100145,278.424122299999,None,c,1,1.3291317999828607,278.424122299999,None,,,,,,,p182,2022_Apr_26_1605,training+cueing,2021.1.4,59.858948414878306,
Stranger.png,You,Stranger,m,1.3,15,25,95,,,,,0,0,0,0,,,,,5,1,61,6,,,,,,,,,,,,,,,,,,,,,1.536,1.766,279.88091960013844,None,,,,,,,,,,,,,,,,,,,,280.4211504999548,280.9259585000109,0.5083090800326318,1.0085845801513642,280.9092886999715,281.0093247999903,280.9092886999715,281.0093247999903,281.0093247999903,None,m,1,0.6958806999027729,281.0093247999903,None,,,,,,,p182,2022_Apr_26_1605,training+cueing,2021.1.4,59.858948414878306,
Friend.png,Friend,Friend,c,2,12,22,92,,,,,0,0,0,0,,,,,5,2,62,10,,,,,,,,,,,,,,,,,,,,,1.657,2.06,281.83311210013926,None,,,,,,,,,,,,,,,,,,,,282.37431320012547,282.87733460008167,0.5043536797165871,1.0044479798525572,282.86085900012404,282.97739660018124,282.86085900012404,282.97739660018124,282.9607323000673,None,c,1,0.6005301999393851,282.9607323000673,None,,,,,,,p182,2022_Apr_26_1605,training+cueing,2021.1.4,59.858948414878306,
Friend.png,You,Friend,m,1.2,14,24,94,,,,,0,0,0,0,,,,,5,3,63,3,,,,,,,,,,,,,,,,,,,,,1.539,1.468,283.68401480000466,None,,,,,,,,,,,,,,,,,,,,284.22382559999824,284.7287335000001,0.5092550800181925,1.0095462799072266,284.7120399000123,284.81209480017424,284.7120399000123,284.81209480017424,284.81209480017424,None,m,1,0.7330471000168473,284.81209480017424,None,,,,,,,p182,2022_Apr_26_1605,training+cueing,2021.1.4,59.858948414878306,
Friend.png,Stranger,Friend,m,3.2,19,29,99,,,,,0,0,0,0,,,,,5,4,64,5,,,,,,,,,,,,,,,,,,,,,1.532,2.349,285.66928989998996,None,,,,,,,,,,,,,,,,,,,,286.2119289000984,286.7134945001453,0.5008425798732787,1.0011168799828738,286.69678740017116,286.81353739998303,286.69678740017116,286.81353739998303,286.81353739998303,None,None,0,,286.81353739998303,None,,,,,,,p182,2022_Apr_26_1605,training+cueing,2021.1.4,59.858948414878306,
Stranger.png,Stranger,Stranger,c,3,13,23,93,,,,,0,0,0,0,,,,,5,5,65,11,,,,,,,,,,,,,,,,,,,,,1.557,1.513,288.4527784001548,None,,,,,,,,,,,,,,,,,,,,288.993006200064,289.49883670010604,0.5109804801177233,1.0112628799397498,289.48215740011074,289.5988941001706,289.48215740011074,289.5988941001706,289.5821968000382,None,c,1,0.6829390998464078,289.5821968000382,None,,,,,,,p182,2022_Apr_26_1605,training+cueing,2021.1.4,59.858948414878306,
Self.png,Stranger,Self ,m,3.1,18,28,98,,,,,0,0,0,0,,,,,5,6,66,2,,,,,,,,,,,,,,,,,,,,,1.545,2.013,290.3888145000674,None,,,,,,,,,,,,,,,,,,,,290.92659269995056,291.4335672000889,0.514273680280894,1.014588980237022,291.4168571999762,291.53358950000256,291.4168571999762,291.53358950000256,291.5169125001412,None,m,1,0.8122527999803424,291.5169125001412,None,,,,,,,p182,2022_Apr_26_1605,training+cueing,2021.1.4,59.858948414878306,
Friend.png,Friend,Friend,c,2,12,22,92,,,,,0,0,0,0,,,,,5,7,67,4,,,,,,,,,,,,,,,,,,,,,1.706,1.818,292.4573248999659,None,,,,,,,,,,,,,,,,,,,,292.99812390003353,293.5017291000113,0.5048174799885601,1.0051190799567848,293.4850467001088,293.60176059999503,293.4850467001088,293.60176059999503,293.58508960017934,None,c,1,0.6159883998334408,293.58508960017934,None,,,,,,,p182,2022_Apr_26_1605,training+cueing,2021.1.4,59.858948414878306,
Self.png,You,Self ,c,1,11,21,91,,,,,0,0,0,0,,,,,5,8,68,9,,,,,,,,,,,,,,,,,,,,,1.64,1.532,294.3252998001408,None,,,,,,,,,,,,,,,,,,,,294.87340020015836,295.38637070008554,0.5087965799029917,1.0090780798345804,295.36975160008296,295.4697575001046,295.36975160008296,295.4697575001046,295.4697575001046,None,c,1,0.6674963999539614,295.4697575001046,None,,,,,,,p182,2022_Apr_26_1605,training+cueing,2021.1.4,59.858948414878306,
Self.png,Friend,Self ,m,2.1,16,26,96,,,,,0,0,0,0,,,,,5,9,69,1,,,,,,,,,,,,,,,,,,,,,1.664,2.44,296.2599806000944,None,,,,,,,,,,,,,,,,,,,,296.80132680013776,297.3044361001812,0.5064331803005189,1.00672138039954,297.2877989001572,297.40448020002805,297.2877989001572,297.40448020002805,297.38789790007286,None,m,1,1.0852492998819798,297.38789790007286,None,,,,,,,p182,2022_Apr_26_1605,training+cueing,2021.1.4,59.858948414878306,
Self.png,You,Self ,c,1,11,21,91,,,,,0,0,0,0,,,,,5,10,70,0,,,,,,,,,,,,,,,,,,,,,1.736,1.862,298.5950305000879,None,,,,,,,,,,,,,,,,,,,,299.133940000087,299.63950409996323,0.5082243799697608,1.008427580120042,299.6228889999911,299.7228745999746,299.6228889999911,299.7228745999746,299.7228745999746,None,c,1,0.8463449999690056,299.7228745999746,None,,,,,,,p182,2022_Apr_26_1605,training+cueing,2021.1.4,59.858948414878306,
Stranger.png,Friend,Stranger,m,2.3,17,27,97,,,,,0,0,0,0,,,,,5,11,71,7,,,,,,,,,,,,,,,,,,,,,1.509,2.279,300.696137299994,None,,,,,,,,,,,,,,,,,,,,301.23894040007144,301.74101690016687,0.5059987800195813,1.0062908800318837,301.72431039996445,301.8410573999863,301.72431039996445,301.8410573999863,301.8243665001355,None,m,1,0.8730496999341995,301.8243665001355,None,,,,,,,p182,2022_Apr_26_1605,training+cueing,2021.1.4,59.858948414878306,
Self.png,You,Self ,c,1,11,21,91,,,,,0,0,0,0,,,,,6,0,72,9,,,,,,,,,,,,,,,,,,,,,1.651,1.381,302.83197699999437,None,,,,,,,,,,,,,,,,,,,,303.371493200073,303.87587960017845,0.506332780001685,1.0066697800066322,303.85919480002485,303.9593114000745,303.85919480002485,303.9593114000745,303.9593114000745,None,c,1,0.7378515999298543,303.9593114000745,None,,,,,,,p182,2022_Apr_26_1605,training+cueing,2021.1.4,59.858948414878306,
Self.png,Stranger,Self ,m,3.1,18,28,98,,,,,0,0,0,0,,,,,6,1,73,2,,,,,,,,,,,,,,,,,,,,,1.676,1.899,304.8328164999839,None,,,,,,,,,,,,,,,,,,,,305.37578780017793,305.8773612000514,0.5046413799282163,1.005462579894811,305.86071250005625,305.9779279001523,305.86071250005625,305.9779279001523,305.96122770011425,None,m,1,1.279950900003314,305.96122770011425,None,,,,,,,p182,2022_Apr_26_1605,training+cueing,2021.1.4,59.858948414878306,
Friend.png,Friend,Friend,c,2,12,22,92,,,,,0,0,0,0,,,,,6,2,74,4,,,,,,,,,,,,,,,,,,,,,1.427,2.276,307.367766499985,None,,,,,,,,,,,,,,,,,,,,307.9173377000261,308.4291727000382,0.5075142798013985,1.0078500797972083,308.41255610017106,308.5292369001545,308.41255610017106,308.5292369001545,308.5125255000312,None,c,1,0.6166952999774367,308.5125255000312,None,,,,,,,p182,2022_Apr_26_1605,training+cueing,2021.1.4,59.858948414878306,
Friend.png,Friend,Friend,c,2,12,22,92,,,,,0,0,0,0,,,,,6,3,75,10,,,,,,,,,,,,,,,,,,,,,1.71,1.568,309.25403079995885,None,,,,,,,,,,,,,,,,,,,,309.7922422999982,310.2972181001678,0.5073264797683805,1.0075463796965778,310.2805729000829,310.39724680013023,310.2805729000829,310.39724680013023,310.3805619000923,None,c,1,0.5725322999060154,310.3805619000923,None,,,,,,,p182,2022_Apr_26_1605,training+cueing,2021.1.4,59.858948414878306,
Self.png,You,Self ,c,1,11,21,91,,,,,0,0,0,0,,,,,6,4,76,0,,,,,,,,,,,,,,,,,,,,,1.658,2.224,311.08674750011414,None,,,,,,,,,,,,,,,,,,,,311.62621080013923,312.13183209998533,0.5098996798042208,1.0107550797984004,312.1151736001484,312.2151957000606,312.1151736001484,312.2151957000606,312.2151957000606,None,c,1,0.8019972001202404,312.2151957000606,None,,,,,,,p182,2022_Apr_26_1605,training+cueing,2021.1.4,59.858948414878306,
Stranger.png,You,Stranger,m,1.3,15,25,95,,,,,0,0,0,0,,,,,6,5,77,6,,,,,,,,,,,,,,,,,,,,,1.746,1.966,313.1398835000582,None,,,,,,,,,,,,,,,,,,,,313.6776594000403,314.18339990009554,0.5115675800479949,1.0118342800997198,314.1666837001685,314.26669530011714,314.1666837001685,314.26669530011714,314.26669530011714,None,c,0,0.49445110000669956,314.26669530011714,None,,,,,,,p182,2022_Apr_26_1605,training+cueing,2021.1.4,59.858948414878306,
Friend.png,You,Friend,m,1.2,14,24,94,,,,,0,0,0,0,,,,,6,6,78,3,,,,,,,,,,,,,,,,,,,,,1.45,2.157,314.89022210007533,None,,,,,,,,,,,,,,,,,,,,315.427792100003,315.93462339998223,0.5109974800143391,1.0112760800402611,315.9179321001284,316.0179688001517,315.9179321001284,316.0179688001517,316.0179688001517,None,m,1,0.6631853000726551,316.0179688001517,None,,,,,,,p182,2022_Apr_26_1605,training+cueing,2021.1.4,59.858948414878306,
Stranger.png,Stranger,Stranger,c,3,13,23,93,,,,,0,0,0,0,,,,,6,7,79,8,,,,,,,,,,,,,,,,,,,,,1.655,1.848,316.8082101000473,None,,,,,,,,,,,,,,,,,,,,317.350009100046,317.8526513001416,0.5056104799732566,1.00590057997033,317.8359714001417,317.95271660014987,317.8359714001417,317.95271660014987,317.9360100000631,None,c,1,0.745136900106445,317.9360100000631,None,,,,,,,p182,2022_Apr_26_1605,training+cueing,2021.1.4,59.858948414878306,
Self.png,Friend,Self ,m,2.1,16,26,96,,,,,0,0,0,0,,,,,6,8,80,1,,,,,,,,,,,,,,,,,,,,,1.419,2.005,318.80915270000696,None,,,,,,,,,,,,,,,,,,,,319.35089510004036,319.85408620000817,0.50456527993083,1.0049978799652308,319.8374390001409,319.95425790012814,319.8374390001409,319.95425790012814,319.93757000006735,None,None,0,,319.93757000006735,None,,,,,,,p182,2022_Apr_26_1605,training+cueing,2021.1.4,59.858948414878306,
Friend.png,Stranger,Friend,m,3.2,19,29,99,,,,,0,0,0,0,,,,,6,9,81,5,,,,,,,,,,,,,,,,,,,,,1.63,1.582,321.4760680999607,None,,,,,,,,,,,,,,,,,,,,322.0235578001011,322.5226980999578,0.5150341799017042,1.0153080797754228,322.5226980999578,322.6227498999797,322.5226980999578,322.6227498999797,322.6227498999797,None,m,1,0.8264168999157846,322.6227498999797,None,,,,,,,p182,2022_Apr_26_1605,training+cueing,2021.1.4,59.858948414878306,
Stranger.png,Friend,Stranger,m,2.3,17,27,97,,,,,0,0,0,0,,,,,6,10,82,7,,,,,,,,,,,,,,,,,,,,,1.448,2.078,323.5799513000529,None,,,,,,,,,,,,,,,,,,,,324.12874750001356,324.64100000006147,0.5079464800655842,1.0081968801096082,324.62437300011516,324.7411035001278,324.62437300011516,324.7411035001278,324.7244684000034,None,m,1,0.9167405001353472,324.7244684000034,None,,,,,,,p182,2022_Apr_26_1605,training+cueing,2021.1.4,59.858948414878306,
Stranger.png,Stranger,Stranger,c,3,13,23,93,,,,,0,0,0,0,,,,,6,11,83,11,,,,,,,,,,,,,,,,,,,,,1.583,1.433,325.7659171000123,None,,,,,,,,,,,,,,,,,,,,326.306485200068,326.80912480014376,0.5024900799617171,1.002785479882732,326.7924540999811,326.90915850014426,326.7924540999811,326.90915850014426,326.8925675000064,None,c,1,1.0686645000241697,326.8925675000064,None,,,,,,,p182,2022_Apr_26_1605,training+cueing,2021.1.4,59.858948414878306,
Friend.png,Friend,Friend,c,2,12,22,92,,,,,0,0,0,0,,,,,7,0,84,10,,,,,,,,,,,,,,,,,,,,,1.716,1.613,328.08272740012035,None,,,,,,,,,,,,,,,,,,,,328.6240006000735,329.1274924001191,0.5061190801206976,1.0063455800991505,329.1108738000039,329.22626330005005,329.1108738000039,329.22626330005005,329.21087089995854,None,c,1,0.6703018001280725,329.21087089995854,None,,,,,,,p182,2022_Apr_26_1605,training+cueing,2021.1.4,59.858948414878306,
Friend.png,You,Friend,m,1.2,14,24,94,,,,,0,0,0,0,,,,,7,1,85,3,,,,,,,,,,,,,,,,,,,,,1.547,2.348,330.0176804000512,None,,,,,,,,,,,,,,,,,,,,330.55820610001683,331.0622110001277,0.5077112801373005,1.0080199802760035,331.0455165000167,331.14557459997013,331.0455165000167,331.14557459997013,331.14557459997013,None,m,1,0.943548500072211,331.14557459997013,None,,,,,,,p182,2022_Apr_26_1605,training+cueing,2021.1.4,59.858948414878306,
Stranger.png,Friend,Stranger,m,2.3,17,27,97,,,,,0,0,0,0,,,,,7,2,86,7,,,,,,,,,,,,,,,,,,,,,1.539,2.035,332.2192569000181,None,,,,,,,,,,,,,,,,,,,,332.77232740004547,333.2804978999775,0.513901439961046,1.0142077398486435,333.2637982000597,333.38054050016217,333.2637982000597,333.38054050016217,333.3638313000556,None,m,1,1.0292972999159247,333.3638313000556,None,,,,,,,p182,2022_Apr_26_1605,training+cueing,2021.1.4,59.858948414878306,
Friend.png,Friend,Friend,c,2,12,22,92,,,,,0,0,0,0,,,,,7,3,87,4,,,,,,,,,,,,,,,,,,,,,1.736,2.108,334.5210160999559,None,,,,,,,,,,,,,,,,,,,,335.05916990013793,335.56542950007133,0.5112498800735921,1.0115539799444377,335.548764300067,335.6654910000507,335.548764300067,335.6654910000507,335.6488267001696,None,c,1,0.8083800999447703,335.6488267001696,None,,,,,,,p182,2022_Apr_26_1605,training+cueing,2021.1.4,59.858948414878306,
Friend.png,Stranger,Friend,m,3.2,19,29,99,,,,,0,0,0,0,,,,,7,4,88,5,,,,,,,,,,,,,,,,,,,,,1.503,1.433,336.58876710012555,None,,,,,,,,,,,,,,,,,,,,337.13555410015397,337.6503155999817,0.5106623799074441,1.0115378799382597,337.6336089000106,337.7504122001119,337.6336089000106,337.7504122001119,337.73360100016,None,m,1,0.9155076998285949,337.73360100016,None,,,,,,,p182,2022_Apr_26_1605,training+cueing,2021.1.4,59.858948414878306,
Stranger.png,Stranger,Stranger,c,3,13,23,93,,,,,0,0,0,0,,,,,7,5,89,11,,,,,,,,,,,,,,,,,,,,,1.433,1.203,338.77391420002095,None,,,,,,,,,,,,,,,,,,,,339.3130201001186,339.8185219001025,0.5111707800533623,1.0114759800489992,339.80183680006303,339.91859500017017,339.80183680006303,339.91859500017017,339.9018995000515,None,c,1,0.9872463000938296,339.9018995000515,None,,,,,,,p182,2022_Apr_26_1605,training+cueing,2021.1.4,59.858948414878306,
Self.png,You,Self ,c,1,11,21,91,,,,,0,0,0,0,,,,,7,6,90,0,,,,,,,,,,,,,,,,,,,,,1.734,1.905,341.0256209000945,None,,,,,,,,,,,,,,,,,,,,341.56850420008413,342.0702399001457,0.5045155799016356,1.0047577798832208,342.0535302001517,342.1537578999996,342.0535302001517,342.1537578999996,342.1537578999996,None,c,1,0.7992525000590831,342.1537578999996,None,,,,,,,p182,2022_Apr_26_1605,training+cueing,2021.1.4,59.858948414878306,
Self.png,You,Self ,c,1,11,21,91,,,,,0,0,0,0,,,,,7,7,91,9,,,,,,,,,,,,,,,,,,,,,1.549,1.899,343.0772198999766,None,,,,,,,,,,,,,,,,,,,,343.61558139999397,344.1216637000907,0.5100392799358815,1.0102539798244834,344.1050064000301,344.2050020999741,344.1050064000301,344.2050020999741,344.2050020999741,None,c,1,0.5559987998567522,344.2050020999741,None,,,,,,,p182,2022_Apr_26_1605,training+cueing,2021.1.4,59.858948414878306,
Stranger.png,Stranger,Stranger,c,3,13,23,93,,,,,0,0,0,0,,,,,7,8,92,8,,,,,,,,,,,,,,,,,,,,,1.59,1.748,344.89562040008605,None,,,,,,,,,,,,,,,,,,,,345.4379094999749,345.9396327000577,0.5035926799755543,1.0038837799802423,345.9229358001612,346.03969500004314,345.9229358001612,346.03969500004314,346.0229993001558,None,c,1,0.8341888000722975,346.0229993001558,None,,,,,,,p182,2022_Apr_26_1605,training+cueing,2021.1.4,59.858948414878306,
Self.png,Stranger,Self ,m,3.1,18,28,98,,,,,0,0,0,0,,,,,7,9,93,2,,,,,,,,,,,,,,,,,,,,,1.404,2.466,346.9798010000959,None,,,,,,,,,,,,,,,,,,,,347.52480190014467,348.0244854001794,0.51557387993671,1.0158461797982454,348.0244854001794,348.12455000006594,348.0244854001794,348.12455000006594,348.12455000006594,None,m,1,1.1484974001068622,348.12455000006594,None,,,,,,,p182,2022_Apr_26_1605,training+cueing,2021.1.4,59.858948414878306,
Stranger.png,You,Stranger,m,1.3,15,25,95,,,,,0,0,0,0,,,,,7,10,94,6,,,,,,,,,,,,,,,,,,,,,1.786,2.373,349.39959309995174,None,,,,,,,,,,,,,,,,,,,,349.95407370012254,350.4595777001232,0.5085858402308077,1.008850040147081,350.4428974001203,350.5429591999855,350.4428974001203,350.5429591999855,350.5429591999855,None,m,1,0.7621275000274181,350.5429591999855,None,,,,,,,p182,2022_Apr_26_1605,training+cueing,2021.1.4,59.858948414878306,
Self.png,Friend,Self ,m,2.1,16,26,96,,,,,0,0,0,0,,,,,7,11,95,1,,,,,,,,,,,,,,,,,,,,,1.418,1.905,351.43307900009677,None,,,,,,,,,,,,,,,,,,,,351.97588040004484,352.47769530001096,0.5054679801687598,1.006334780016914,352.46105310018174,352.5777300000191,352.46105310018174,352.5777300000191,352.56106059998274,None,m,1,0.7921949999872595,352.56106059998274,None,,,,,,,p182,2022_Apr_26_1605,training+cueing,2021.1.4,59.858948414878306,
Stranger.png,You,Stranger,m,1.3,15,25,95,,,,,0,0,0,0,,,,,8,0,96,6,,,,,,,,,,,,,,,,,,,,,1.437,1.709,353.48616140009835,None,,,,,,,,,,,,,,,,,,,,354.0279396001715,354.5291895000264,0.5009087799116969,1.0011756799649447,354.51251989998855,354.61252670013346,354.51251989998855,354.61252670013346,354.61252670013346,None,m,1,1.0925619998015463,354.61252670013346,None,,,,,,,p182,2022_Apr_26_1605,training+cueing,2021.1.4,59.858948414878306,
Friend.png,Friend,Friend,c,2,12,22,92,,,,,0,0,0,0,,,,,8,1,97,4,,,,,,,,,,,,,,,,,,,,,1.548,1.259,355.8365215000231,None,,,,,,,,,,,,,,,,,,,,356.38951730006374,356.8975209000055,0.4999658800661564,1.0002516801469028,356.8808745001443,356.99760700017214,356.8808745001443,356.99760700017214,356.99760700017214,None,c,1,0.6594450001139194,356.99760700017214,None,,,,,,,p182,2022_Apr_26_1605,training+cueing,2021.1.4,59.858948414878306,
Stranger.png,Friend,Stranger,m,2.3,17,27,97,,,,,0,0,0,0,,,,,8,2,98,7,,,,,,,,,,,,,,,,,,,,,1.438,2.436,357.7880983001087,None,,,,,,,,,,,,,,,,,,,,358.3274401000235,358.8323506000452,0.5104958799201995,1.0107807801105082,358.81562840007246,358.9323695001658,358.81562840007246,358.9323695001658,358.9156433001626,None,m,1,1.0136599999386817,358.9156433001626,None,,,,,,,p182,2022_Apr_26_1605,training+cueing,2021.1.4,59.858948414878306,
Self.png,You,Self ,c,1,11,21,91,,,,,0,0,0,0,,,,,8,3,99,0,,,,,,,,,,,,,,,,,,,,,1.561,2.057,360.0602468000725,None,,,,,,,,,,,,,,,,,,,,360.59832109999843,361.10060230013914,0.5033746799454093,1.0036596800200641,361.0838983000722,361.18395039997995,361.0838983000722,361.18395039997995,361.18395039997995,None,c,1,0.7131614999379963,361.18395039997995,None,,,,,,,p182,2022_Apr_26_1605,training+cueing,2021.1.4,59.858948414878306,
Stranger.png,Stranger,Stranger,c,3,13,23,93,,,,,0,0,0,0,,,,,8,4,100,11,,,,,,,,,,,,,,,,,,,,,1.753,1.366,362.0239429001231,None,,,,,,,,,,,,,,,,,,,,362.56601630011573,363.0686912999954,0.5045223799534142,1.0048617799766362,363.05197240016423,363.16875359998085,363.05197240016423,363.16875359998085,363.1520462001208,None,c,1,1.1130059000570327,363.1520462001208,None,,,,,,,p182,2022_Apr_26_1605,training+cueing,2021.1.4,59.858948414878306,
Friend.png,You,Friend,m,1.2,14,24,94,,,,,0,0,0,0,,,,,8,5,101,3,,,,,,,,,,,,,,,,,,,,,1.563,2.243,364.39200450014323,None,,,,,,,,,,,,,,,,,,,,364.9324984999839,365.4370289000217,0.508059179643169,1.008368079783395,365.42039109999314,365.5204288000241,365.42039109999314,365.5204288000241,365.5204288000241,None,m,1,0.6966514000669122,365.5204288000241,None,,,,,,,p182,2022_Apr_26_1605,training+cueing,2021.1.4,59.858948414878306,
Self.png,Stranger,Self ,m,3.1,18,28,98,,,,,0,0,0,0,,,,,8,6,102,2,,,,,,,,,,,,,,,,,,,,,1.795,2.051,366.3435428000521,None,,,,,,,,,,,,,,,,,,,,366.88493710011244,367.38845099997707,0.5048799798823893,1.0051464796997607,367.371778300032,367.4885454000905,367.371778300032,367.4885454000905,367.47176460013725,None,m,1,1.1453007999807596,367.47176460013725,None,,,,,,,p182,2022_Apr_26_1605,training+cueing,2021.1.4,59.858948414878306,
Self.png,You,Self ,c,1,11,21,91,,,,,0,0,0,0,,,,,8,7,103,9,,,,,,,,,,,,,,,,,,,,,1.459,2.09,368.74557949998416,None,,,,,,,,,,,,,,,,,,,,369.2871155999601,369.7903336000163,0.5062783798202872,1.0065129797440022,369.77356830006465,369.87361750006676,369.77356830006465,369.87361750006676,369.87361750006676,None,c,1,0.6634436000604182,369.87361750006676,None,,,,,,,p182,2022_Apr_26_1605,training+cueing,2021.1.4,59.858948414878306,
Friend.png,Stranger,Friend,m,3.2,19,29,99,,,,,0,0,0,0,,,,,8,8,104,5,,,,,,,,,,,,,,,,,,,,,1.734,2.433,370.6640302001033,None,,,,,,,,,,,,,,,,,,,,371.20338670001365,371.7082814001478,0.5068568801507354,1.0073632802814245,371.69156190007925,371.80832249997184,371.69156190007925,371.80832249997184,371.79160310002044,None,m,1,0.7294949998613447,371.79160310002044,None,,,,,,,p182,2022_Apr_26_1605,training+cueing,2021.1.4,59.858948414878306,
Stranger.png,Stranger,Stranger,c,3,13,23,93,,,,,0,0,0,0,,,,,8,9,105,8,,,,,,,,,,,,,,,,,,,,,1.554,1.438,372.6479943001177,None,,,,,,,,,,,,,,,,,,,,373.1881288001314,373.6933129001409,0.5098207797855139,1.0100755798630416,373.67649260000326,373.79323330009356,373.67649260000326,373.79323330009356,373.77650819998235,None,c,1,0.9687880999408662,373.77650819998235,None,,,,,,,p182,2022_Apr_26_1605,training+cueing,2021.1.4,59.858948414878306,
Self.png,Friend,Self ,m,2.1,16,26,96,,,,,0,0,0,0,,,,,8,10,106,1,,,,,,,,,,,,,,,,,,,,,1.608,1.229,374.8700645000208,None,,,,,,,,,,,,,,,,,,,,375.4256517000031,375.9279905001167,0.5064572400879115,1.0066338400356472,375.9113809999544,376.02802770002745,375.9113809999544,376.02802770002745,376.0113413000945,None,m,1,0.9097525998950005,376.0113413000945,None,,,,,,,p182,2022_Apr_26_1605,training+cueing,2021.1.4,59.858948414878306,
Friend.png,Friend,Friend,c,2,12,22,92,,,,,0,0,0,0,,,,,8,11,107,10,,,,,,,,,,,,,,,,,,,,,1.609,1.866,377.0524130000267,None,,,,,,,,,,,,,,,,,,,,377.58919339999557,378.09619299997576,0.5119597800076008,1.0122782799880952,378.07951970002614,378.1962691000663,378.07951970002614,378.1962691000663,378.17955080000684,None,None,0,,378.17955080000684,None,,,,,,,p182,2022_Apr_26_1605,training+cueing,2021.1.4,59.858948414878306,
Friend.png,Friend,Friend,c,2,12,22,92,,,,,0,0,0,0,,,,,9,0,108,4,,,,,,,,,,,,,,,,,,,,,1.73,2.149,379.9012674000114,None,,,,,,,,,,,,,,,,,,,,380.4428618999664,380.94826710014604,0.5109529802575707,1.011263680178672,380.9316050000489,381.0483061000705,380.9316050000489,381.0483061000705,381.0316408001818,None,c,1,0.6413641998078674,381.0316408001818,None,,,,,,,p182,2022_Apr_26_1605,training+cueing,2021.1.4,59.858948414878306,
Friend.png,You,Friend,m,1.2,14,24,94,,,,,0,0,0,0,,,,,9,1,109,3,,,,,,,,,,,,,,,,,,,,,1.531,1.693,381.8051583999768,None,,,,,,,,,,,,,,,,,,,,382.34629450016655,382.8496618999634,0.5062758799176663,1.006553079932928,382.83300129999407,382.9330017999746,382.83300129999407,382.9330017999746,382.9330017999746,None,m,1,0.6281089000403881,382.9330017999746,None,,,,,,,p182,2022_Apr_26_1605,training+cueing,2021.1.4,59.858948414878306,
Stranger.png,Stranger,Stranger,c,3,13,23,93,,,,,0,0,0,0,,,,,9,2,110,11,,,,,,,,,,,,,,,,,,,,,1.799,2.002,383.69019740005024,None,,,,,,,,,,,,,,,,,,,,384.2374991001561,384.7510363999754,0.5083704795688391,1.0087622797582299,384.7343051000498,384.8511115000583,384.7343051000498,384.8511115000583,384.83441140013747,None,c,1,1.1747369000222534,384.83441140013747,None,,,,,,,p182,2022_Apr_26_1605,training+cueing,2021.1.4,59.858948414878306,
Self.png,Stranger,Self ,m,3.1,18,28,98,,,,,0,0,0,0,,,,,9,3,111,2,,,,,,,,,,,,,,,,,,,,,1.705,1.496,386.142552100122,None,,,,,,,,,,,,,,,,,,,,386.68203150015324,387.1860974000301,0.5078588798642159,1.0082027798052877,387.16938670002855,387.28615890000947,387.16938670002855,387.28615890000947,387.26949080009945,None,m,1,0.8515667000319809,387.26949080009945,None,,,,,,,p182,2022_Apr_26_1605,training+cueing,2021.1.4,59.858948414878306,
Stranger.png,Friend,Stranger,m,2.3,17,27,97,,,,,0,0,0,0,,,,,9,4,112,7,,,,,,,,,,,,,,,,,,,,,1.515,2.435,388.24246060010046,None,,,,,,,,,,,,,,,,,,,,388.78256239998154,389.28762129996903,0.5074548802804202,1.0082848803140223,389.27100820001215,389.3876761000138,389.27100820001215,389.3876761000138,389.370988199953,None,c,0,0.8461935999803245,389.370988199953,None,,,,,,,p182,2022_Apr_26_1605,training+cueing,2021.1.4,59.858948414878306,
Stranger.png,You,Stranger,m,1.3,15,25,95,,,,,0,0,0,0,,,,,9,5,113,6,,,,,,,,,,,,,,,,,,,,,1.459,1.886,390.34596529998817,None,,,,,,,,,,,,,,,,,,,,390.887994900113,391.38917810004205,0.503011180087924,1.0032869800925255,391.37250810000114,391.47252580011263,391.37250810000114,391.47252580011263,391.47252580011263,None,m,1,0.9524495000950992,391.47252580011263,None,,,,,,,p182,2022_Apr_26_1605,training+cueing,2021.1.4,59.858948414878306,
Self.png,You,Self ,c,1,11,21,91,,,,,0,0,0,0,,,,,9,6,114,0,,,,,,,,,,,,,,,,,,,,,1.662,1.741,392.5464522000402,None,,,,,,,,,,,,,,,,,,,,393.0848670001142,393.590765299974,0.5112251797690988,1.0114922798238695,393.574110200163,393.67416150006466,393.574110200163,393.67416150006466,393.67416150006466,None,c,1,0.6868835999630392,393.67416150006466,None,,,,,,,p182,2022_Apr_26_1605,training+cueing,2021.1.4,59.858948414878306,
Stranger.png,Stranger,Stranger,c,3,13,23,93,,,,,0,0,0,0,,,,,9,7,115,8,,,,,,,,,,,,,,,,,,,,,1.554,1.37,394.49804620002396,None,,,,,,,,,,,,,,,,,,,,395.0367464001756,395.5421911999583,0.5089366799220443,1.0091880799736828,395.5254997999873,395.64223130000755,395.5254997999873,395.64223130000755,395.625533600105,None,c,1,1.0397465000860393,395.625533600105,None,,,,,,,p182,2022_Apr_26_1605,training+cueing,2021.1.4,59.858948414878306,
Self.png,You,Self ,c,1,11,21,91,,,,,0,0,0,0,,,,,9,8,116,9,,,,,,,,,,,,,,,,,,,,,1.504,1.376,396.7996449000202,None,,,,,,,,,,,,,,,,,,,,397.35488880006596,397.86051509995013,0.512133939890191,1.0124159399420023,397.8438502000645,397.9438823000528,397.8438502000645,397.9438823000528,397.9438823000528,None,c,1,0.6730873000342399,397.9438823000528,None,,,,,,,p182,2022_Apr_26_1605,training+cueing,2021.1.4,59.858948414878306,
Self.png,Friend,Self ,m,2.1,16,26,96,,,,,0,0,0,0,,,,,9,9,117,1,,,,,,,,,,,,,,,,,,,,,1.519,1.836,398.75071680010296,None,,,,,,,,,,,,,,,,,,,,399.30541080003604,399.8119366001338,0.5131612399127334,1.0134749398566782,399.7952384999953,399.91196650010534,399.7952384999953,399.91196650010534,399.89525289996527,None,m,1,0.8499201000668108,399.89525289996527,None,,,,,,,p182,2022_Apr_26_1605,training+cueing,2021.1.4,59.858948414878306,
Friend.png,Friend,Friend,c,2,12,22,92,,,,,0,0,0,0,,,,,9,10,118,10,,,,,,,,,,,,,,,,,,,,,1.477,2.237,400.8722039000131,None,,,,,,,,,,,,,,,,,,,,401.4085099999793,401.91367999999784,0.5079401799011976,1.0082144800107926,401.8969807000831,402.0137343001552,401.8969807000831,402.0137343001552,401.9970128000714,None,c,1,0.6201607999391854,401.9970128000714,None,,,,,,,p182,2022_Apr_26_1605,training+cueing,2021.1.4,59.858948414878306,
Friend.png,Stranger,Friend,m,3.2,19,29,99,,,,,0,0,0,0,,,,,9,11,119,5,,,,,,,,,,,,,,,,,,,,,1.559,1.207,402.75468540005386,None,,,,,,,,,,,,,,,,,,,,403.29784670006484,403.7981281999964,0.5013692802749574,1.0016381803434342,403.78147629997693,403.8982006001752,403.78147629997693,403.8982006001752,403.8982006001752,None,m,1,1.4068429002072662,403.8982006001752,None,,,,,,,p182,2022_Apr_26_1605,training+cueing,2021.1.4,59.858948414878306,
,,,,,,,,,,,,0,0,0,0,,,,,,,,,,,,,,,,,,,,,,,,,,,,,,,,,,,,,,,,,,,,,,,,,,,,,,,,,,,,,,,,,,,0.0008022203110158443,None,,,,,p182,2022_Apr_26_1605,training+cueing,2021.1.4,59.858948414878306,
Stranger.png,Stranger,Stranger,c,3,13,23,93,,,,,1,0,1,0,0,0,0,8,,,,,,,,,,,,,,,,,405.9502191999927,None,space,5.754603400127962,2.013568759895861,None,413.70554350013845,None,1.442,2.064,416.72133450000547,None,417.2518901999574,417.7582237999886,417.741589799989,417.85825789999217,417.741589799989,417.85825789999217,417.84156700014137,None,c,1,0.6795178998727351,417.84156700014137,None,418.5418804001529,None,,,,,,,,,,,,,,,,,,,,,,,,,,p182,2022_Apr_26_1605,training+cueing,2021.1.4,59.858948414878306,
Friend.png,Friend,Friend,c,2,12,22,92,,,,,1,0,1,0,0,1,1,4,,,,,,,,,,,,,,,,,,,,,,,,,1.496,1.547,418.9429083999712,None,419.47685320000164,419.9765027000103,419.9765027000103,420.07654609996825,419.9765027000103,420.07654609996825,420.07654609996825,None,c,1,1.1004604001063854,420.07654609996825,None,421.1925338001456,None,,,,,,,,,,,,,,,,,,,,,,,,,,p182,2022_Apr_26_1605,training+cueing,2021.1.4,59.858948414878306,
Friend.png,Stranger,Friend,m,3.2,19,29,99,,,,,1,0,1,0,0,2,2,5,,,,,,,,,,,,,,,,,,,,,,,,,1.738,1.483,421.59448359999806,None,422.13121840008534,422.645085999975,422.6284158001654,422.7457467999775,422.6284158001654,422.7457467999775,422.7284598001279,None,c,0,1.5046912000980228,422.7284598001279,None,424.26833350001834,None,,,,,,,,,,,,,,,,,,,,,,,,,,p182,2022_Apr_26_1605,training+cueing,2021.1.4,59.858948414878306,
Stranger.png,You,Stranger,m,1.3,15,25,95,,,,,1,0,1,0,0,3,3,6,,,,,,,,,,,,,,,,,,,,,,,,,1.793,1.924,424.6801346000284,None,425.2227682999801,425.7307275000494,425.7140679000877,425.81411659996957,425.7140679000877,425.81411659996957,425.81411659996957,None,m,1,0.7708540000021458,425.81411659996957,None,426.6129042999819,None,,,,,,,,,,,,,,,,,,,,,,,,,,p182,2022_Apr_26_1605,training+cueing,2021.1.4,59.858948414878306,
Friend.png,You,Friend,m,1.2,14,24,94,,,,,1,0,1,0,0,4,4,3,,,,,,,,,,,,,,,,,,,,,,,,,1.466,2.37,427.01503790006973,None,427.5552354999818,428.06596190016717,428.04914960009046,428.1492236000486,428.04914960009046,428.1492236000486,428.1492236000486,None,m,1,0.7238886000122875,428.1492236000486,None,428.898427200038,None,,,,,,,,,,,,,,,,,,,,,,,,,,p182,2022_Apr_26_1605,training+cueing,2021.1.4,59.858948414878306,
Self.png,Stranger,Self ,m,3.1,18,28,98,,,,,1,0,1,0,0,5,5,2,,,,,,,,,,,,,,,,,,,,,,,,,1.517,2.174,429.3000587001443,None,429.83982760016806,430.35067670000717,430.3340098001063,430.4508077001665,430.3340098001063,430.4508077001665,430.43414400005713,None,m,1,0.710881499806419,430.43414400005713,None,431.1663254001178,None,,,,,,,,,,,,,,,,,,,,,,,,,,p182,2022_Apr_26_1605,training+cueing,2021.1.4,59.858948414878306,
Self.png,Friend,Self ,m,2.1,16,26,96,,,,,1,0,1,0,0,6,6,1,,,,,,,,,,,,,,,,,,,,,,,,,1.585,1.841,431.5683236999903,None,432.11134030018,432.61906419997104,432.6024234001525,432.719160299981,432.6024234001525,432.719160299981,432.7024515999947,None,m,1,1.130600000033155,432.7024515999947,None,433.8515318999998,None,,,,,,,,,,,,,,,,,,,,,,,,,,p182,2022_Apr_26_1605,training+cueing,2021.1.4,59.858948414878306,
Stranger.png,Stranger,Stranger,c,3,13,23,93,,,,,1,0,1,0,0,7,7,11,,,,,,,,,,,,,,,,,,,,,,,,,1.409,1.559,434.25360259995796,None,434.79159580008127,435.3042399000842,435.2875810000114,435.40428870008327,435.2875810000114,435.40428870008327,435.3876104000956,None,c,1,1.0212781000882387,435.3876104000956,None,436.4384137999732,None,,,,,,,,,,,,,,,,,,,,,,,,,,p182,2022_Apr_26_1605,training+cueing,2021.1.4,59.858948414878306,
Stranger.png,Friend,Stranger,m,2.3,17,27,97,,,,,1,0,1,0,0,8,8,7,,,,,,,,,,,,,,,,,,,,,,,,,1.768,1.391,436.83869330002926,None,437.3714463999495,437.8727623000741,437.8561084000394,437.97280049999245,437.8561084000394,437.97280049999245,437.97280049999245,None,None,0,,437.97280049999245,None,439.7393684000708,None,,,,,,,,,,,,,,,,,,,,,,,,,,p182,2022_Apr_26_1605,training+cueing,2021.1.4,59.858948414878306,
Friend.png,Friend,Friend,c,2,12,22,92,,,,,1,0,1,0,0,9,9,10,,,,,,,,,,,,,,,,,,,,,,,,,1.722,1.236,440.14103060006164,None,440.6719560001511,441.1751792000141,441.1585367999505,441.27523160004057,441.1585367999505,441.27523160004057,441.2585430999752,None,c,1,0.590448800008744,441.2585430999752,None,441.89239950012416,None,,,,,,,,,,,,,,,,,,,,,,,,,,p182,2022_Apr_26_1605,training+cueing,2021.1.4,59.858948414878306,
Self.png,You,Self ,c,1,11,21,91,,,,,1,0,1,0,0,10,10,9,,,,,,,,,,,,,,,,,,,,,,,,,1.429,1.531,442.2926656999625,None,442.8216530000791,443.3267137000803,443.310088200029,443.4101237000432,443.310088200029,443.4101237000432,443.4101237000432,None,c,1,0.6308547998778522,443.4101237000432,None,444.06064349994995,None,,,,,,,,,,,,,,,,,,,,,,,,,,p182,2022_Apr_26_1605,training+cueing,2021.1.4,59.858948414878306,
Self.png,You,Self ,c,1,11,21,91,,,,,1,0,1,0,0,11,11,0,,,,,,,,,,,,,,,,,,,,,,,,,1.535,1.667,444.46137160016224,None,444.9939693000633,445.4951055001002,445.4782945001498,445.57830830011517,445.4782945001498,445.57830830011517,445.57830830011517,None,c,1,0.4466445001307875,445.57830830011517,None,446.0453618001193,None,,,,,,,,,,,,,,,,,,,,,,,,,,p182,2022_Apr_26_1605,training+cueing,2021.1.4,59.858948414878306,
Self.png,Stranger,Self ,m,3.1,18,28,98,,,,,1,0,1,0,,,,,0,0,0,2,,,,,,,,,,,,,,,,,,,517.2970929001458,None,1.698,2.115,520.8322175000794,None,,,,,,,,,,,,,,,,446.4462117999792,None,0.014804159756749868,0.5138639598153532,521.3494335000869,521.8503416001331,0.5025635797064751,1.0029638798441738,521.8336696999613,521.9503141001333,521.8336696999613,521.9503141001333,521.9336354001425,None,m,1,0.6512621999718249,521.9336354001425,None,,,,,,,p182,2022_Apr_26_1605,training+cueing,2021.1.4,59.858948414878306,
Self.png,Friend,Self ,m,2.1,16,26,96,,,,,1,0,1,0,,,,,0,1,1,1,,,,,,,,,,,,,,,,,,,,,1.766,1.806,522.7088085999712,None,,,,,,,,,,,,,,,,,,,,523.2552172001451,523.7682980999816,0.5098335798829794,1.0101239799987525,523.7515827000607,523.8684817999601,523.7515827000607,523.8684817999601,523.8517565000802,None,m,1,1.565099700121209,523.8517565000802,None,,,,,,,p182,2022_Apr_26_1605,training+cueing,2021.1.4,59.858948414878306,
Stranger.png,Stranger,Stranger,c,3,13,23,93,,,,,1,0,1,0,,,,,0,2,2,11,,,,,,,,,,,,,,,,,,,,,1.784,1.378,525.54318040004,None,,,,,,,,,,,,,,,,,,,,526.0873135000002,526.5869484001305,0.5147343801800162,1.0150285800918937,526.5869484001305,526.6870022001676,526.5869484001305,526.6870022001676,526.6870022001676,None,c,1,0.9859152999706566,526.6870022001676,None,,,,,,,p182,2022_Apr_26_1605,training+cueing,2021.1.4,59.858948414878306,
Self.png,You,Self ,c,1,11,21,91,,,,,1,0,1,0,,,,,0,3,3,9,,,,,,,,,,,,,,,,,,,,,1.65,2.466,527.8107877001166,None,,,,,,,,,,,,,,,,,,,,528.3603358000983,528.8721021001693,0.5074639797676355,1.007717479718849,528.8554436999839,528.9554694001563,528.8554436999839,528.9554694001563,528.9554694001563,None,c,1,0.7016187000554055,528.9554694001563,None,,,,,,,p182,2022_Apr_26_1605,training+cueing,2021.1.4,59.858948414878306,
Stranger.png,Friend,Stranger,m,2.3,17,27,97,,,,,1,0,1,0,,,,,0,4,4,7,,,,,,,,,,,,,,,,,,,,,1.641,1.818,529.7796665001661,None,,,,,,,,,,,,,,,,,,,,530.3201809001621,530.8233292000368,0.5037725798320025,1.0040836799889803,530.8066702000797,530.9233901000116,530.8066702000797,530.9233901000116,530.9067247000057,None,m,1,1.1020790000911802,530.9067247000057,None,,,,,,,p182,2022_Apr_26_1605,training+cueing,2021.1.4,59.858948414878306,
Friend.png,Friend,Friend,c,2,12,22,92,,,,,1,0,1,0,,,,,0,5,5,10,,,,,,,,,,,,,,,,,,,,,1.687,1.395,532.1305742000695,None,,,,,,,,,,,,,,,,,,,,532.668695700122,533.17503150017,0.5119337800424546,1.012656679842621,533.1583933001384,533.2756545001175,533.1583933001384,533.2756545001175,533.2589708000887,None,c,1,0.6859697001054883,533.2589708000887,None,,,,,,,p182,2022_Apr_26_1605,training+cueing,2021.1.4,59.858948414878306,
Self.png,You,Self ,c,1,11,21,91,,,,,1,0,1,0,,,,,0,6,6,0,,,,,,,,,,,,,,,,,,,,,1.572,1.695,534.083384900121,None,,,,,,,,,,,,,,,,,,,,534.6261091001797,535.1264822999947,0.501442379783839,1.0017023796681315,535.1097824999597,535.2099787001498,535.1097824999597,535.2099787001498,535.2099787001498,None,c,1,0.5588137998711318,535.2099787001498,None,,,,,,,p182,2022_Apr_26_1605,training+cueing,2021.1.4,59.858948414878306,
Friend.png,You,Friend,m,1.2,14,24,94,,,,,1,0,1,0,,,,,0,7,7,3,,,,,,,,,,,,,,,,,,,,,1.639,1.582,535.8999977000058,None,,,,,,,,,,,,,,,,,,,,536.4712990999687,536.9777953000739,0.5128467998001724,1.0131627996452153,536.9611233000178,537.0611811000854,536.9611233000178,537.0611811000854,537.0611811000854,None,m,1,0.691913700196892,537.0611811000854,None,,,,,,,p182,2022_Apr_26_1605,training+cueing,2021.1.4,59.858948414878306,
Stranger.png,Stranger,Stranger,c,3,13,23,93,,,,,1,0,1,0,,,,,0,8,8,8,,,,,,,,,,,,,,,,,,,,,1.72,1.883,537.8888550000265,None,,,,,,,,,,,,,,,,,,,,538.4281079999637,538.9292450000066,0.501361679751426,1.001666579861194,538.9125272999518,539.029261500109,538.9125272999518,539.029261500109,539.029261500109,None,c,1,0.9155678001698107,539.029261500109,None,,,,,,,p182,2022_Apr_26_1605,training+cueing,2021.1.4,59.858948414878306,
Stranger.png,You,Stranger,m,1.3,15,25,95,,,,,1,0,1,0,,,,,0,9,9,6,,,,,,,,,,,,,,,,,,,,,1.571,2.133,540.0702132000588,None,,,,,,,,,,,,,,,,,,,,540.6101043999661,541.11413680017,0.508373080054298,1.0086505801882595,541.0974514000118,541.1984314001165,541.0974514000118,541.1984314001165,541.1984314001165,None,m,1,1.498393600108102,541.1984314001165,None,,,,,,,p182,2022_Apr_26_1605,training+cueing,2021.1.4,59.858948414878306,
Friend.png,Friend,Friend,c,2,12,22,92,,,,,1,0,1,0,,,,,0,10,10,4,,,,,,,,,,,,,,,,,,,,,1.785,2.296,542.823041100055,None,,,,,,,,,,,,,,,,,,,,543.3644650999922,543.8660977000836,0.5019254798535258,1.0021879798732698,543.8494369001128,543.9661712001543,543.8494369001128,543.9661712001543,543.9494794001803,None,c,1,0.5712780999019742,543.9494794001803,None,,,,,,,p182,2022_Apr_26_1605,training+cueing,2021.1.4,59.858948414878306,
Friend.png,Stranger,Friend,m,3.2,19,29,99,,,,,1,0,1,0,,,,,0,11,11,5,,,,,,,,,,,,,,,,,,,,,1.546,2.303,544.656302300049,None,,,,,,,,,,,,,,,,,,,,545.1996437001508,545.7008404999506,0.5025481798220426,1.0028265798464417,545.6841150000691,545.8008318000939,545.6841150000691,545.8008318000939,545.7841456001624,None,m,1,0.7366649000905454,545.7841456001624,None,,,,,,,p182,2022_Apr_26_1605,training+cueing,2021.1.4,59.858948414878306,
Stranger.png,You,Stranger,m,1.3,15,25,95,,,,,1,0,1,0,,,,,1,0,12,6,,,,,,,,,,,,,,,,,,,,,1.692,1.94,546.6576876000036,None,,,,,,,,,,,,,,,,,,,,547.2031473000534,547.7022243000101,0.5120741804130375,1.0129426803905517,547.7022243000101,547.8022913001478,547.7022243000101,547.8022913001478,547.8022913001478,None,m,1,0.9265254000201821,547.8022913001478,None,,,,,,,p182,2022_Apr_26_1605,training+cueing,2021.1.4,59.858948414878306,
Friend.png,You,Friend,m,1.2,14,24,94,,,,,1,0,1,0,,,,,1,1,13,3,,,,,,,,,,,,,,,,,,,,,1.72,2.042,548.8602924000006,None,,,,,,,,,,,,,,,,,,,,549.4084606999531,549.9205092000775,0.5073114798869938,1.0075860798824579,549.9038478999864,550.0038715000264,549.9038478999864,550.0038715000264,550.0038715000264,None,m,1,0.5808631998952478,550.0038715000264,None,,,,,,,p182,2022_Apr_26_1605,training+cueing,2021.1.4,59.858948414878306,
Stranger.png,Friend,Stranger,m,2.3,17,27,97,,,,,1,0,1,0,,,,,1,2,14,7,,,,,,,,,,,,,,,,,,,,,1.651,1.675,550.7109477000777,None,,,,,,,,,,,,,,,,,,,,551.2513727999758,551.7551678000018,0.5065948802512139,1.0069172801449895,551.7384558999911,551.8552166000009,551.7384558999911,551.8552166000009,551.8385112001561,None,m,1,1.3062156001105905,551.8385112001561,None,,,,,,,p182,2022_Apr_26_1605,training+cueing,2021.1.4,59.858948414878306,
Self.png,Stranger,Self ,m,3.1,18,28,98,,,,,1,0,1,0,,,,,1,3,15,2,,,,,,,,,,,,,,,,,,,,,1.797,1.994,553.2794618001208,None,,,,,,,,,,,,,,,,,,,,553.8200297001749,554.3237153000664,0.5042361796367913,1.0045219797175378,554.3070318000391,554.4237775001675,554.3070318000391,554.4237775001675,554.4070490000304,None,None,0,,554.4070490000304,None,,,,,,,p182,2022_Apr_26_1605,training+cueing,2021.1.4,59.858948414878306,
Friend.png,Friend,Friend,c,2,12,22,92,,,,,1,0,1,0,,,,,1,4,16,4,,,,,,,,,,,,,,,,,,,,,1.695,1.369,556.312879400095,None,,,,,,,,,,,,,,,,,,,,556.8550654000137,557.3591942000203,0.5077347801998258,1.008031580131501,557.3425406999886,557.4592959000729,557.3425406999886,557.4592959000729,557.442778200144,None,c,1,0.5978862999472767,557.442778200144,None,,,,,,,p182,2022_Apr_26_1605,training+cueing,2021.1.4,59.858948414878306,
Self.png,You,Self ,c,1,11,21,91,,,,,1,0,1,0,,,,,1,5,17,9,,,,,,,,,,,,,,,,,,,,,1.662,1.342,558.1659266999923,None,,,,,,,,,,,,,,,,,,,,558.7087815999985,559.210569600109,0.5040160799399018,1.004307079827413,559.1938489000313,559.2939532999881,559.1938489000313,559.2939532999881,559.2939532999881,None,c,1,0.6348761999979615,559.2939532999881,None,,,,,,,p182,2022_Apr_26_1605,training+cueing,2021.1.4,59.858948414878306,
Self.png,Friend,Self ,m,2.1,16,26,96,,,,,1,0,1,0,,,,,1,6,18,1,,,,,,,,,,,,,,,,,,,,,1.734,2.14,560.0506668000016,None,,,,,,,,,,,,,,,,,,,,560.5907815999817,561.0952568999492,0.5072855798061937,1.0077522799838334,561.0785676001105,561.1958208000287,561.0785676001105,561.1958208000287,561.1786219000351,None,c,0,1.0221510999836028,561.1786219000351,None,,,,,,,p182,2022_Apr_26_1605,training+cueing,2021.1.4,59.858948414878306,
Stranger.png,Stranger,Stranger,c,3,13,23,93,,,,,1,0,1,0,,,,,1,7,19,11,,,,,,,,,,,,,,,,,,,,,1.651,2.006,562.3357840999961,None,,,,,,,,,,,,,,,,,,,,562.8831405001692,563.39689860004,0.5108596801292151,1.0111751803196967,563.3802551999688,563.4969850999769,563.3802551999688,563.4969850999769,563.4802838000469,None,c,1,1.1045357999391854,563.4802838000469,None,,,,,,,p182,2022_Apr_26_1605,training+cueing,2021.1.4,59.858948414878306,
Self.png,You,Self ,c,1,11,21,91,,,,,1,0,1,0,,,,,1,8,20,0,,,,,,,,,,,,,,,,,,,,,1.404,1.335,564.7206035000272,None,,,,,,,,,,,,,,,,,,,,565.2642535001505,565.7653598000761,0.503741379827261,1.0038450798019767,565.7487906999886,565.8486840999685,565.7487906999886,565.8486840999685,565.8486840999685,None,c,1,0.5120886000804603,565.8486840999685,None,,,,,,,p182,2022_Apr_26_1605,training+cueing,2021.1.4,59.858948414878306,
Friend.png,Friend,Friend,c,2,12,22,92,,,,,1,0,1,0,,,,,1,9,21,10,,,,,,,,,,,,,,,,,,,,,1.529,1.384,566.4889585999772,None,,,,,,,,,,,,,,,,,,,,567.0458840001374,567.5500879001338,0.5083372402004898,1.0086369400378317,567.5334058001172,567.6502227000892,567.5334058001172,567.6502227000892,567.6336613001768,None,c,1,0.6791827999986708,567.6336613001768,None,,,,,,,p182,2022_Apr_26_1605,training+cueing,2021.1.4,59.858948414878306,
Friend.png,Stranger,Friend,m,3.2,19,29,99,,,,,1,0,1,0,,,,,1,10,22,5,,,,,,,,,,,,,,,,,,,,,1.415,1.494,568.4407200000715,None,,,,,,,,,,,,,,,,,,,,568.9831413000356,569.4846511001233,0.5030633797869086,1.0039486798923463,569.4679511999711,569.5847271000966,569.4679511999711,569.5847271000966,569.5679921000265,None,None,0,,569.5679921000265,None,,,,,,,p182,2022_Apr_26_1605,training+cueing,2021.1.4,59.858948414878306,
Stranger.png,Stranger,Stranger,c,3,13,23,93,,,,,1,0,1,0,,,,,1,11,23,8,,,,,,,,,,,,,,,,,,,,,1.44,2.363,571.0916061000898,None,,,,,,,,,,,,,,,,,,,,571.6296014999971,572.1365894000046,0.5108557799831033,1.0118233799003065,572.1198841000441,572.2366331000812,572.1198841000441,572.2366331000812,572.2199139001314,None,m,0,1.2130398999433964,572.2199139001314,None,,,,,,,p182,2022_Apr_26_1605,training+cueing,2021.1.4,59.858948414878306,
Self.png,You,Self ,c,1,11,21,91,,,,,1,0,1,0,,,,,2,0,24,0,,,,,,,,,,,,,,,,,,,,,1.715,1.287,573.5615163000766,None,,,,,,,,,,,,,,,,,,,,574.1004229001701,574.6050436999649,0.5079993798863143,1.008263980038464,574.5883673999924,574.6885478000622,574.5883673999924,574.6885478000622,574.6885478000622,None,c,1,0.7123011001385748,574.6885478000622,None,,,,,,,p182,2022_Apr_26_1605,training+cueing,2021.1.4,59.858948414878306,
Friend.png,Stranger,Friend,m,3.2,19,29,99,,,,,1,0,1,0,,,,,2,1,25,5,,,,,,,,,,,,,,,,,,,,,1.452,2.288,575.5284276001621,None,,,,,,,,,,,,,,,,,,,,576.0713146000635,576.5731391001027,0.5042745801620185,1.004572280216962,576.556443199981,576.6731821000576,576.556443199981,576.6731821000576,576.6564603999723,None,m,1,0.7123088000807911,576.6564603999723,None,,,,,,,p182,2022_Apr_26_1605,training+cueing,2021.1.4,59.858948414878306,
Stranger.png,Stranger,Stranger,c,3,13,23,93,,,,,1,0,1,0,,,,,2,2,26,11,,,,,,,,,,,,,,,,,,,,,1.717,2.458,577.4967416999862,None,,,,,,,,,,,,,,,,,,,,578.0482964999974,578.5579173001461,0.5001912801526487,1.0004665800370276,578.5412298999727,578.6579512001481,578.5412298999727,578.6579512001481,578.6579512001481,None,c,1,0.518748999806121,578.6579512001481,None,,,,,,,p182,2022_Apr_26_1605,training+cueing,2021.1.4,59.858948414878306,
Stranger.png,Friend,Stranger,m,2.3,17,27,97,,,,,1,0,1,0,,,,,2,3,27,7,,,,,,,,,,,,,,,,,,,,,1.478,2.005,579.2983874001075,None,,,,,,,,,,,,,,,,,,,,579.8486353000626,580.3593009000178,0.5052006801124662,1.0056037800386548,580.3426032001153,580.4593636000063,580.3426032001153,580.4593636000063,580.4427327001467,None,m,1,0.7020306000486016,580.4427327001467,None,,,,,,,p182,2022_Apr_26_1605,training+cueing,2021.1.4,59.858948414878306,
Stranger.png,Stranger,Stranger,c,3,13,23,93,,,,,1,0,1,0,,,,,2,4,28,8,,,,,,,,,,,,,,,,,,,,,1.648,1.896,581.2827016001102,None,,,,,,,,,,,,,,,,,,,,581.8257420000155,582.3273249000777,0.5022732801735401,1.0025456801522523,582.310623300029,582.4273542000446,582.310623300029,582.4273542000446,582.4106255001388,None,c,1,0.7661558999679983,582.4106255001388,None,,,,,,,p182,2022_Apr_26_1605,training+cueing,2021.1.4,59.858948414878306,
Friend.png,You,Friend,m,1.2,14,24,94,,,,,1,0,1,0,,,,,2,5,29,3,,,,,,,,,,,,,,,,,,,,,1.753,1.715,583.3003833000548,None,,,,,,,,,,,,,,,,,,,,583.8400725000538,584.3454325001221,0.5105248801410198,1.0107881801668555,584.3287492000964,584.4287537999917,584.3287492000964,584.4287537999917,584.4287537999917,None,m,1,0.6680386001244187,584.4287537999917,None,,,,,,,p182,2022_Apr_26_1605,training+cueing,2021.1.4,59.858948414878306,
Self.png,Stranger,Self ,m,3.1,18,28,98,,,,,1,0,1,0,,,,,2,6,30,2,,,,,,,,,,,,,,,,,,,,,1.712,1.333,585.2190736001357,None,,,,,,,,,,,,,,,,,,,,585.761196100153,586.2634859001264,0.5040283799171448,1.0042564799077809,586.2468560000416,586.3635085001588,586.2468560000416,586.3635085001588,586.3468323000707,None,m,1,0.7338952999562025,586.3468323000707,None,,,,,,,p182,2022_Apr_26_1605,training+cueing,2021.1.4,59.858948414878306,
Friend.png,Friend,Friend,c,2,12,22,92,,,,,1,0,1,0,,,,,2,7,31,4,,,,,,,,,,,,,,,,,,,,,1.477,1.63,587.2050870000385,None,,,,,,,,,,,,,,,,,,,,587.7447192999534,588.2482183000538,0.5040354798547924,1.0043025796767324,588.2315607001074,588.348268300062,588.2315607001074,588.348268300062,588.3315962001216,None,c,1,0.8131327000446618,588.3315962001216,None,,,,,,,p182,2022_Apr_26_1605,training+cueing,2021.1.4,59.858948414878306,
Self.png,Friend,Self ,m,2.1,16,26,96,,,,,1,0,1,0,,,,,2,8,32,1,,,,,,,,,,,,,,,,,,,,,1.544,1.399,589.2724033000413,None,,,,,,,,,,,,,,,,,,,,589.8101590001024,590.3164353000466,0.51164087979123,1.0117565798573196,590.299858200131,590.4164337001275,590.299858200131,590.4164337001275,590.3997015000787,None,m,1,1.2892991001717746,590.3997015000787,None,,,,,,,p182,2022_Apr_26_1605,training+cueing,2021.1.4,59.858948414878306,
Friend.png,Friend,Friend,c,2,12,22,92,,,,,1,0,1,0,,,,,2,9,33,10,,,,,,,,,,,,,,,,,,,,,1.549,1.274,591.8237427000422,None,,,,,,,,,,,,,,,,,,,,592.3629511999898,592.8684074999765,0.5109693799167871,1.011355279944837,592.851546500111,592.9683282000478,592.851546500111,592.9683282000478,592.9515742000658,None,c,1,0.5930627000052482,592.9515742000658,None,,,,,,,p182,2022_Apr_26_1605,training+cueing,2021.1.4,59.858948414878306,
Self.png,You,Self ,c,1,11,21,91,,,,,1,0,1,0,,,,,2,10,34,9,,,,,,,,,,,,,,,,,,,,,1.448,1.884,593.67453570012,None,,,,,,,,,,,,,,,,,,,,594.2144550001249,594.7196265000384,0.5082375798374414,1.0085192797705531,594.7028985000215,594.8029599001165,594.7028985000215,594.8029599001165,594.8029599001165,None,c,1,0.5017188999336213,594.8029599001165,None,,,,,,,p182,2022_Apr_26_1605,training+cueing,2021.1.4,59.858948414878306,
Stranger.png,You,Stranger,m,1.3,15,25,95,,,,,1,0,1,0,,,,,2,11,35,6,,,,,,,,,,,,,,,,,,,,,1.716,1.268,595.4267313000746,None,,,,,,,,,,,,,,,,,,,,595.9670206999872,596.4708837999497,0.5084295799024403,1.0087603798601776,596.4541420000605,596.5542035000399,596.4541420000605,596.5542035000399,596.5542035000399,None,c,0,0.43051869980990887,596.5542035000399,None,,,,,,,p182,2022_Apr_26_1605,training+cueing,2021.1.4,59.858948414878306,
Friend.png,You,Friend,m,1.2,14,24,94,,,,,1,0,1,0,,,,,3,0,36,3,,,,,,,,,,,,,,,,,,,,,1.704,1.633,597.1106335001532,None,,,,,,,,,,,,,,,,,,,,597.6497462000698,598.1554319001734,0.5090921798255295,1.009376379661262,598.1387229000684,598.2387918999884,598.1387229000684,598.2387918999884,598.2387918999884,None,m,1,0.9061938999220729,598.2387918999884,None,,,,,,,p182,2022_Apr_26_1605,training+cueing,2021.1.4,59.858948414878306,
Friend.png,Friend,Friend,c,2,12,22,92,,,,,1,0,1,0,,,,,3,1,37,4,,,,,,,,,,,,,,,,,,,,,1.575,1.513,599.2787655000575,None,,,,,,,,,,,,,,,,,,,,599.8196847001091,600.3236416999716,0.5079096800182015,1.008209679974243,600.306953500025,600.4236967000179,600.306953500025,600.4236967000179,600.4069924000651,None,c,1,0.5617302998434752,600.4069924000651,None,,,,,,,p182,2022_Apr_26_1605,training+cueing,2021.1.4,59.858948414878306,
Stranger.png,Friend,Stranger,m,2.3,17,27,97,,,,,1,0,1,0,,,,,3,2,38,7,,,,,,,,,,,,,,,,,,,,,1.739,2.146,601.0970124001615,None,,,,,,,,,,,,,,,,,,,,601.6368251000531,602.1416203000117,0.5092698798980564,1.0101085798814893,602.1249759001657,602.2416664001066,602.1249759001657,602.2416664001066,602.2249899001326,None,m,1,1.063883300172165,602.2249899001326,None,,,,,,,p182,2022_Apr_26_1605,training+cueing,2021.1.4,59.858948414878306,
Stranger.png,Stranger,Stranger,c,3,13,23,93,,,,,1,0,1,0,,,,,3,3,39,11,,,,,,,,,,,,,,,,,,,,,1.497,2.323,603.4162131000776,None,,,,,,,,,,,,,,,,,,,,603.9553148001432,604.4599449001253,0.5065195800270885,1.0067807799205184,604.4433160000481,604.5600289001595,604.4433160000481,604.5600289001595,604.5433313001413,None,c,1,0.6653408999554813,604.5433313001413,None,,,,,,,p182,2022_Apr_26_1605,training+cueing,2021.1.4,59.858948414878306,
Friend.png,Friend,Friend,c,2,12,22,92,,,,,1,0,1,0,,,,,3,4,40,10,,,,,,,,,,,,,,,,,,,,,1.432,2.437,605.3383802999742,None,,,,,,,,,,,,,,,,,,,,605.8837053000461,606.3949988000095,0.5060141801368445,1.0063463801052421,606.378270199988,606.4950239001773,606.378270199988,606.4950239001773,606.4783385000192,None,c,1,0.6504971999675035,606.4783385000192,None,,,,,,,p182,2022_Apr_26_1605,training+cueing,2021.1.4,59.858948414878306,
Self.png,Stranger,Self ,m,3.1,18,28,98,,,,,1,0,1,0,,,,,3,5,41,2,,,,,,,,,,,,,,,,,,,,,1.517,2.434,607.2524258000776,None,,,,,,,,,,,,,,,,,,,,607.7946162000299,608.2961057000794,0.5034510800614953,1.003695980180055,608.2794566999655,608.396134500159,608.2794566999655,608.396134500159,608.3793850000948,None,m,1,0.8933066001627594,608.3793850000948,None,,,,,,,p182,2022_Apr_26_1605,training+cueing,2021.1.4,59.858948414878306,
Self.png,You,Self ,c,1,11,21,91,,,,,1,0,1,0,,,,,3,6,42,0,,,,,,,,,,,,,,,,,,,,,1.559,2.398,609.4028708001133,None,,,,,,,,,,,,,,,,,,,,609.943309900118,610.447621300118,0.5074447798542678,1.007680679904297,610.4309575001244,610.531006900128,610.4309575001244,610.531006900128,610.531006900128,None,c,1,0.6617205999791622,610.531006900128,None,,,,,,,p182,2022_Apr_26_1605,training+cueing,2021.1.4,59.858948414878306,
Self.png,Friend,Self ,m,2.1,16,26,96,,,,,1,0,1,0,,,,,3,7,43,1,,,,,,,,,,,,,,,,,,,,,1.437,1.865,611.3210196001455,None,,,,,,,,,,,,,,,,,,,,611.8619641000405,612.3656648001634,0.5078096799552441,1.0080911798868328,612.3490006001666,612.4657038999721,612.3490006001666,612.4657038999721,612.4490336000454,None,m,1,1.1278564999811351,612.4490336000454,None,,,,,,,p182,2022_Apr_26_1605,training+cueing,2021.1.4,59.858948414878306,
Stranger.png,Stranger,Stranger,c,3,13,23,93,,,,,1,0,1,0,,,,,3,8,44,8,,,,,,,,,,,,,,,,,,,,,1.65,2.251,613.7100380000193,None,,,,,,,,,,,,,,,,,,,,614.2496291999705,614.7507364000194,0.5000050798989832,1.0002881798427552,614.7340689001139,614.8508230000734,614.7340689001139,614.8508230000734,614.8508230000734,None,c,1,0.5339741001371294,614.8508230000734,None,,,,,,,p182,2022_Apr_26_1605,training+cueing,2021.1.4,59.858948414878306,
Self.png,You,Self ,c,1,11,21,91,,,,,1,0,1,0,,,,,3,9,45,9,,,,,,,,,,,,,,,,,,,,,1.454,1.254,615.5073989999946,None,,,,,,,,,,,,,,,,,,,,616.0478995000012,616.5520759001374,0.5084983797278255,1.0089803799055517,616.5353401000611,616.6353705001529,616.5353401000611,616.6353705001529,616.6353705001529,None,c,1,0.7493179000448436,616.6353705001529,None,,,,,,,p182,2022_Apr_26_1605,training+cueing,2021.1.4,59.858948414878306,
Stranger.png,You,Stranger,m,1.3,15,25,95,,,,,1,0,1,0,,,,,3,10,46,6,,,,,,,,,,,,,,,,,,,,,1.421,1.824,617.5082455000374,None,,,,,,,,,,,,,,,,,,,,618.0581793000456,618.5701989000663,0.5077752801589668,1.0080498801544309,618.5535279000178,618.6535883999895,618.5535279000178,618.6535883999895,618.6535883999895,None,m,1,0.619130700128153,618.6535883999895,None,,,,,,,p182,2022_Apr_26_1605,training+cueing,2021.1.4,59.858948414878306,
Friend.png,Stranger,Friend,m,3.2,19,29,99,,,,,1,0,1,0,,,,,3,11,47,5,,,,,,,,,,,,,,,,,,,,,1.696,2.395,619.4103064001538,None,,,,,,,,,,,,,,,,,,,,619.9499535001814,620.4548527000006,0.507202279753983,1.0074867797084153,620.43818930001,620.5549172000028,620.43818930001,620.5549172000028,620.5382330000866,None,c,0,0.8143642002250999,620.5382330000866,None,,,,,,,p182,2022_Apr_26_1605,training+cueing,2021.1.4,59.858948414878306,
Self.png,You,Self ,c,1,11,21,91,,,,,1,0,1,0,,,,,4,0,48,9,,,,,,,,,,,,,,,,,,,,,1.488,1.931,621.4786513000727,None,,,,,,,,,,,,,,,,,,,,622.0249391000252,622.5397010000888,0.5137879799585789,1.0140611799433827,622.5230164001696,622.6230659000576,622.5230164001696,622.6230659000576,622.6230659000576,None,c,1,0.585733599960804,622.6230659000576,None,,,,,,,p182,2022_Apr_26_1605,training+cueing,2021.1.4,59.858948414878306,
Friend.png,You,Friend,m,1.2,14,24,94,,,,,1,0,1,0,,,,,4,1,49,3,,,,,,,,,,,,,,,,,,,,,1.642,1.556,623.3466976999771,None,,,,,,,,,,,,,,,,,,,,623.8856272001285,624.3912339999806,0.5106180796865374,1.0109288797248155,624.3745343000628,624.4745706999674,624.3745343000628,624.4745706999674,624.4745706999674,None,m,1,0.8142561998683959,624.4745706999674,None,,,,,,,p182,2022_Apr_26_1605,training+cueing,2021.1.4,59.858948414878306,
Stranger.png,Stranger,Stranger,c,3,13,23,93,,,,,1,0,1,0,,,,,4,2,50,8,,,,,,,,,,,,,,,,,,,,,1.78,2.445,625.4152477001771,None,,,,,,,,,,,,,,,,,,,,625.9551950001623,626.459176500095,0.5065706800669432,1.0068356802221388,626.4425456000026,626.5592080999631,626.4425456000026,626.5592080999631,626.5425840001553,None,None,0,,626.5425840001553,None,,,,,,,p182,2022_Apr_26_1605,training+cueing,2021.1.4,59.858948414878306,
Stranger.png,Friend,Stranger,m,2.3,17,27,97,,,,,1,0,1,0,,,,,4,3,51,7,,,,,,,,,,,,,,,,,,,,,1.439,1.83,628.4315529000014,None,,,,,,,,,,,,,,,,,,,,628.9758252000902,629.4780386001803,0.5052376796957105,1.0055411797948182,629.4614075999707,629.5781036999542,629.4614075999707,629.5781036999542,629.561404600041,None,m,1,1.0073881999123842,629.561404600041,None,,,,,,,p182,2022_Apr_26_1605,training+cueing,2021.1.4,59.858948414878306,
Self.png,Stranger,Self ,m,3.1,18,28,98,,,,,1,0,1,0,,,,,4,4,52,2,,,,,,,,,,,,,,,,,,,,,1.56,1.559,630.7018222999759,None,,,,,,,,,,,,,,,,,,,,631.2399395001121,631.7463593999855,0.5106067799497396,1.0108873799908906,631.729697200004,631.8463957000058,631.729697200004,631.8463957000058,631.8299424001016,None,m,1,0.8028172999620438,631.8299424001016,None,,,,,,,p182,2022_Apr_26_1605,training+cueing,2021.1.4,59.858948414878306,
Self.png,You,Self ,c,1,11,21,91,,,,,1,0,1,0,,,,,4,5,53,0,,,,,,,,,,,,,,,,,,,,,1.507,1.255,632.7695979999844,None,,,,,,,,,,,,,,,,,,,,633.3152258000337,633.8146615000442,0.49906657985411584,0.9992115797940642,633.8146615000442,633.914660200011,633.8146615000442,633.914660200011,633.8980450001545,None,c,1,0.5746710000094026,633.8980450001545,None,,,,,,,p182,2022_Apr_26_1605,training+cueing,2021.1.4,59.858948414878306,
Friend.png,Stranger,Friend,m,3.2,19,29,99,,,,,1,0,1,0,,,,,4,6,54,5,,,,,,,,,,,,,,,,,,,,,1.584,1.697,634.6058380000759,None,,,,,,,,,,,,,,,,,,,,635.1469606000464,635.6492231001612,0.5056518802884966,1.0059729802887887,635.6325236000121,635.7492272001691,635.6325236000121,635.7492272001691,635.7325302001555,None,c,0,0.6921465999912471,635.7325302001555,None,,,,,,,p182,2022_Apr_26_1605,training+cueing,2021.1.4,59.858948414878306,
Friend.png,Friend,Friend,c,2,12,22,92,,,,,1,0,1,0,,,,,4,7,55,10,,,,,,,,,,,,,,,,,,,,,1.702,1.359,636.5561932001729,None,,,,,,,,,,,,,,,,,,,,637.0959336999804,637.6006078000646,0.5067515796981752,1.007204479770735,637.583936400013,637.7011830999982,637.583936400013,637.7011830999982,637.6844834000804,None,c,1,0.7081565998960286,637.6844834000804,None,,,,,,,p182,2022_Apr_26_1605,training+cueing,2021.1.4,59.858948414878306,
Stranger.png,Stranger,Stranger,c,3,13,23,93,,,,,1,0,1,0,,,,,4,8,56,11,,,,,,,,,,,,,,,,,,,,,1.743,1.479,638.5249830000103,None,,,,,,,,,,,,,,,,,,,,639.0635717001278,639.5687061999924,0.5097425801213831,1.0099754801485687,639.5520636001602,639.6687553001102,639.5520636001602,639.6687553001102,639.6520742001012,None,c,1,1.220598400104791,639.6520742001012,None,,,,,,,p182,2022_Apr_26_1605,training+cueing,2021.1.4,59.858948414878306,
Stranger.png,You,Stranger,m,1.3,15,25,95,,,,,1,0,1,0,,,,,4,9,57,6,,,,,,,,,,,,,,,,,,,,,1.618,1.404,641.0089726999868,None,,,,,,,,,,,,,,,,,,,,641.5509264001157,642.0537930000573,0.5052717798389494,1.0055759798269719,642.0371376001276,642.1372055001557,642.0371376001276,642.1372055001557,642.1372055001557,None,m,1,0.9274503998458385,642.1372055001557,None,,,,,,,p182,2022_Apr_26_1605,training+cueing,2021.1.4,59.858948414878306,
Self.png,Friend,Self ,m,2.1,16,26,96,,,,,1,0,1,0,,,,,4,10,58,1,,,,,,,,,,,,,,,,,,,,,1.766,1.369,643.1939360999968,None,,,,,,,,,,,,,,,,,,,,643.733713600086,644.2387392001692,0.5077367797493935,1.0082843797281384,644.2220630000811,644.3387838001363,644.2220630000811,644.3387838001363,644.3221927001141,None,m,1,1.014487799955532,644.3221927001141,None,,,,,,,p182,2022_Apr_26_1605,training+cueing,2021.1.4,59.858948414878306,
Friend.png,Friend,Friend,c,2,12,22,92,,,,,1,0,1,0,,,,,4,11,59,4,,,,,,,,,,,,,,,,,,,,,1.452,1.893,645.5201497001108,None,,,,,,,,,,,,,,,,,,,,646.018955500098,646.5236996000167,0.5096518800128251,1.009973580017686,646.507020200137,646.6237558999564,646.507020200137,646.6237558999564,646.6070903001819,None,c,1,0.5535555998794734,646.6070903001819,None,,,,,,,p182,2022_Apr_26_1605,training+cueing,2021.1.4,59.858948414878306,
Friend.png,Stranger,Friend,m,3.2,19,29,99,,,,,1,0,1,0,,,,,5,0,60,5,,,,,,,,,,,,,,,,,,,,,1.411,1.299,647.2972681999672,None,,,,,,,,,,,,,,,,,,,,647.8379228000995,648.3419278000947,0.5058670798316598,1.0064018797129393,648.3252646999899,648.4419649001211,648.3252646999899,648.4419649001211,648.4252919000573,None,c,0,0.5914785000495613,648.4252919000573,None,,,,,,,p182,2022_Apr_26_1605,training+cueing,2021.1.4,59.858948414878306,
Stranger.png,Friend,Stranger,m,2.3,17,27,97,,,,,1,0,1,0,,,,,5,1,61,7,,,,,,,,,,,,,,,,,,,,,1.768,2.114,649.1498651001602,None,,,,,,,,,,,,,,,,,,,,649.689431300154,650.19304500008,0.506003380054608,1.0062968800775707,650.1763776000589,650.293069700012,650.1763776000589,650.293069700012,650.2764093000442,None,m,1,1.1564537000376731,650.2764093000442,None,,,,,,,p182,2022_Apr_26_1605,training+cueing,2021.1.4,59.858948414878306,
Friend.png,Friend,Friend,c,2,12,22,92,,,,,1,0,1,0,,,,,5,2,62,10,,,,,,,,,,,,,,,,,,,,,1.607,2.093,651.5670016000513,None,,,,,,,,,,,,,,,,,,,,652.1054311001208,652.6114860000089,0.5118478797376156,1.0122217799071223,652.594954200089,652.7122208001092,652.594954200089,652.7122208001092,652.6953898000065,None,c,1,0.6572855999693274,652.6953898000065,None,,,,,,,p182,2022_Apr_26_1605,training+cueing,2021.1.4,59.858948414878306,
Self.png,You,Self ,c,1,11,21,91,,,,,1,0,1,0,,,,,5,3,63,9,,,,,,,,,,,,,,,,,,,,,1.585,1.658,653.485223500058,None,,,,,,,,,,,,,,,,,,,,654.0236889000516,654.5295297000557,0.5089528800453991,1.009206279879436,654.5128583000042,654.6128810001537,654.5128583000042,654.6128810001537,654.6128810001537,None,c,1,0.6277705000247806,654.6128810001537,None,,,,,,,p182,2022_Apr_26_1605,training+cueing,2021.1.4,59.858948414878306,
Self.png,Friend,Self ,m,2.1,16,26,96,,,,,1,0,1,0,,,,,5,4,64,1,,,,,,,,,,,,,,,,,,,,,1.616,1.533,655.3695620000362,None,,,,,,,,,,,,,,,,,,,,655.9117662999779,656.4141816999763,0.5055807800963521,1.0058873801026493,656.3975633999798,656.5142816000152,656.3975633999798,656.5142816000152,656.4975760001689,None,m,1,1.3193059000186622,656.4975760001689,None,,,,,,,p182,2022_Apr_26_1605,training+cueing,2021.1.4,59.858948414878306,
Self.png,Stranger,Self ,m,3.1,18,28,98,,,,,1,0,1,0,,,,,5,5,65,2,,,,,,,,,,,,,,,,,,,,,1.454,2.28,657.9409439000301,None,,,,,,,,,,,,,,,,,,,,658.4830446999986,658.9827427000273,0.49986177985556424,1.000175479799509,658.966063800035,659.0828072000295,658.966063800035,659.0828072000295,659.0828072000295,None,m,1,0.9739097999408841,659.0828072000295,None,,,,,,,p182,2022_Apr_26_1605,training+cueing,2021.1.4,59.858948414878306,
Self.png,You,Self ,c,1,11,21,91,,,,,1,0,1,0,,,,,5,6,66,0,,,,,,,,,,,,,,,,,,,,,1.769,1.889,660.1901132001076,None,,,,,,,,,,,,,,,,,,,,660.7489955001511,661.25104620005,0.5039703398942947,1.0042410399764776,661.234356299974,661.3343951001298,661.234356299974,661.3343951001298,661.3343951001298,None,c,1,0.5944166998378932,661.3343951001298,None,,,,,,,p182,2022_Apr_26_1605,training+cueing,2021.1.4,59.858948414878306,
Friend.png,You,Friend,m,1.2,14,24,94,,,,,1,0,1,0,,,,,5,7,67,3,,,,,,,,,,,,,,,,,,,,,1.537,1.389,662.058071100153,None,,,,,,,,,,,,,,,,,,,,662.5973466001451,663.1023828999605,0.5102011801209301,1.010546580189839,663.0856518000364,663.1857382999733,663.0856518000364,663.1857382999733,663.1857382999733,None,m,1,0.7109079000074416,663.1857382999733,None,,,,,,,p182,2022_Apr_26_1605,training+cueing,2021.1.4,59.858948414878306,
Friend.png,Friend,Friend,c,2,12,22,92,,,,,1,0,1,0,,,,,5,8,68,4,,,,,,,,,,,,,,,,,,,,,1.605,2.107,664.026141300099,None,,,,,,,,,,,,,,,,,,,,664.5643480001017,665.0704787999857,0.5101825804449618,1.010483480291441,665.0538061000407,665.1705364000518,665.0538061000407,665.1705364000518,665.1538245000411,None,c,1,0.6628012999426574,665.1538245000411,None,,,,,,,p182,2022_Apr_26_1605,training+cueing,2021.1.4,59.858948414878306,
Stranger.png,Stranger,Stranger,c,3,13,23,93,,,,,1,0,1,0,,,,,5,9,69,11,,,,,,,,,,,,,,,,,,,,,1.781,1.472,665.9446909001563,None,,,,,,,,,,,,,,,,,,,,666.4869440000039,666.9885025999974,0.5044164801947773,1.0047237800899893,666.9718418000266,667.0885924000759,666.9718418000266,667.0885924000759,667.0718851999845,None,c,1,0.7607932998798788,667.0718851999845,None,,,,,,,p182,2022_Apr_26_1605,training+cueing,2021.1.4,59.858948414878306,
Stranger.png,Stranger,Stranger,c,3,13,23,93,,,,,1,0,1,0,,,,,5,10,70,8,,,,,,,,,,,,,,,,,,,,,1.786,2.473,667.9614946001675,None,,,,,,,,,,,,,,,,,,,,668.5000130999833,669.0066414000466,0.5133314796257764,1.0136003796942532,668.9899951000698,669.1067012001295,668.9899951000698,669.1067012001295,669.0900191001128,None,m,0,0.7266396000050008,669.0900191001128,None,,,,,,,p182,2022_Apr_26_1605,training+cueing,2021.1.4,59.858948414878306,
Stranger.png,You,Stranger,m,1.3,15,25,95,,,,,1,0,1,0,,,,,5,11,71,6,,,,,,,,,,,,,,,,,,,,,1.504,2.338,669.947390699992,None,,,,,,,,,,,,,,,,,,,,670.4863410000689,670.991413900163,0.5083816801197827,1.0089213799219579,670.9747333000414,671.0747964000329,670.9747333000414,671.0747964000329,671.0747964000329,None,m,1,0.8217440999578685,671.0747964000329,None,,,,,,,p182,2022_Apr_26_1605,training+cueing,2021.1.4,59.858948414878306,
Friend.png,Stranger,Friend,m,3.2,19,29,99,,,,,1,0,1,0,,,,,6,0,72,5,,,,,,,,,,,,,,,,,,,,,1.602,1.29,672.0312928999774,None,,,,,,,,,,,,,,,,,,,,672.573277400108,673.0762541000731,0.5061059799045324,1.0064290799200535,673.0595907999668,673.1762918999884,673.0595907999668,673.1762918999884,673.1596119001042,None,m,1,0.7850063999649137,673.1596119001042,None,,,,,,,p182,2022_Apr_26_1605,training+cueing,2021.1.4,59.858948414878306,
Self.png,You,Self ,c,1,11,21,91,,,,,1,0,1,0,,,,,6,1,73,9,,,,,,,,,,,,,,,,,,,,,1.552,1.485,674.0659809999634,None,,,,,,,,,,,,,,,,,,,,674.6063801001292,675.1110786001664,0.5086497797165066,1.0087589798495173,675.0946227000095,675.1944097999949,675.0946227000095,675.1944097999949,675.1944097999949,None,c,1,0.5581875999923795,675.1944097999949,None,,,,,,,p182,2022_Apr_26_1605,training+cueing,2021.1.4,59.858948414878306,
Stranger.png,Stranger,Stranger,c,3,13,23,93,,,,,1,0,1,0,,,,,6,2,74,8,,,,,,,,,,,,,,,,,,,,,1.585,1.844,675.884879300138,None,,,,,,,,,,,,,,,,,,,,676.4264787000138,676.9290524001699,0.504453880013898,1.0047682800795883,676.9123645001091,677.0291015000548,676.9123645001091,677.0291015000548,677.0124010001309,None,c,1,0.6603091999422759,677.0124010001309,None,,,,,,,p182,2022_Apr_26_1605,training+cueing,2021.1.4,59.858948414878306,
Friend.png,Friend,Friend,c,2,12,22,92,,,,,1,0,1,0,,,,,6,3,75,10,,,,,,,,,,,,,,,,,,,,,1.487,1.635,677.802044400014,None,,,,,,,,,,,,,,,,,,,,678.3453643999528,678.8471345000435,0.5045322799123824,1.0048431798350066,678.8304412001744,678.9471573999617,678.8304412001744,678.9471573999617,678.9304911000654,None,c,1,0.5024512999225408,678.9304911000654,None,,,,,,,p182,2022_Apr_26_1605,training+cueing,2021.1.4,59.858948414878306,
Friend.png,Friend,Friend,c,2,12,22,92,,,,,1,0,1,0,,,,,6,4,76,4,,,,,,,,,,,,,,,,,,,,,1.613,1.31,679.5579258000944,None,,,,,,,,,,,,,,,,,,,,680.0913164000958,680.5983667999972,0.5112175797112286,1.0115037797950208,680.581687600119,680.6984085000586,680.581687600119,680.6984085000586,680.6817415000405,None,c,1,0.6549817000050098,680.6817415000405,None,,,,,,,p182,2022_Apr_26_1605,training+cueing,2021.1.4,59.858948414878306,
Self.png,You,Self ,c,1,11,21,91,,,,,1,0,1,0,,,,,6,5,77,0,,,,,,,,,,,,,,,,,,,,,1.597,1.934,681.4728598000947,None,,,,,,,,,,,,,,,,,,,,682.0151844001375,682.5164742001798,0.5035410800483078,1.0037091800477356,682.4998876000755,682.5998265000526,682.4998876000755,682.5998265000526,682.5998265000526,None,c,1,0.7528490999247879,682.5998265000526,None,,,,,,,p182,2022_Apr_26_1605,training+cueing,2021.1.4,59.858948414878306,
Self.png,Friend,Self ,m,2.1,16,26,96,,,,,1,0,1,0,,,,,6,6,78,1,,,,,,,,,,,,,,,,,,,,,1.574,2.304,683.4900881999638,None,,,,,,,,,,,,,,,,,,,,684.0301844000351,684.5345536000095,0.5080405802000314,1.008314180187881,684.5179006000981,684.6345949000679,684.5179006000981,684.6345949000679,684.6179078000132,None,m,1,1.0066887000575662,684.6179078000132,None,,,,,,,p182,2022_Apr_26_1605,training+cueing,2021.1.4,59.858948414878306,
Stranger.png,Stranger,Stranger,c,3,13,23,93,,,,,1,0,1,0,,,,,6,7,79,11,,,,,,,,,,,,,,,,,,,,,1.739,1.588,685.7580590001307,None,,,,,,,,,,,,,,,,,,,,686.3002635000739,686.8028555000201,0.504078579833731,1.0043592797592282,686.7861918001436,686.9029103999492,686.7861918001436,686.9029103999492,686.8861925001256,None,c,1,0.7067066000308841,686.8861925001256,None,,,,,,,p182,2022_Apr_26_1605,training+cueing,2021.1.4,59.858948414878306,
Stranger.png,You,Stranger,m,1.3,15,25,95,,,,,1,0,1,0,,,,,6,8,80,6,,,,,,,,,,,,,,,,,,,,,1.562,1.99,687.7259696000256,None,,,,,,,,,,,,,,,,,,,,688.2688963001128,688.7710086000152,0.5058881796430796,1.0060227797366679,688.7544341001194,688.854333100142,688.7544341001194,688.854333100142,688.854333100142,None,m,1,0.9141375999897718,688.854333100142,None,,,,,,,p182,2022_Apr_26_1605,training+cueing,2021.1.4,59.858948414878306,
Stranger.png,Friend,Stranger,m,2.3,17,27,97,,,,,1,0,1,0,,,,,6,9,81,7,,,,,,,,,,,,,,,,,,,,,1.661,2.242,689.8939726001117,None,,,,,,,,,,,,,,,,,,,,690.4353916000109,690.9391741000582,0.5075828798580915,1.00791307981126,690.922486100113,691.0392482001334,690.922486100113,691.0392482001334,691.022535600001,None,m,1,0.9540338001679629,691.022535600001,None,,,,,,,p182,2022_Apr_26_1605,training+cueing,2021.1.4,59.858948414878306,
Friend.png,You,Friend,m,1.2,14,24,94,,,,,1,0,1,0,,,,,6,10,82,3,,,,,,,,,,,,,,,,,,,,,1.603,2.432,692.1128814001568,None,,,,,,,,,,,,,,,,,,,,692.6517241999973,693.1574623000342,0.5085252800490707,1.0088280800264329,693.140804399969,693.2408135000151,693.140804399969,693.2408135000151,693.2408135000151,None,m,1,0.975764499977231,693.2408135000151,None,,,,,,,p182,2022_Apr_26_1605,training+cueing,2021.1.4,59.858948414878306,
Self.png,Stranger,Self ,m,3.1,18,28,98,,,,,1,0,1,0,,,,,6,11,83,2,,,,,,,,,,,,,,,,,,,,,1.706,1.493,694.3469477000181,None,,,,,,,,,,,,,,,,,,,,694.887836500071,695.3924172001425,0.509544980013743,1.009843380190432,695.375717600109,695.4924708001781,695.375717600109,695.4924708001781,695.4757603001781,None,m,1,1.1248172000050545,695.4757603001781,None,,,,,,,p182,2022_Apr_26_1605,training+cueing,2021.1.4,59.858948414878306,
