Image,Name,Face,CorrAns,Match,Face_onset,CResponse_onset,IResponse_onset,Match.thisRepN,Match.thisTrialN,Match.thisN,Match.thisIndex,Blocks.thisRepN,Blocks.thisTrialN,Blocks.thisN,Blocks.thisIndex,trials.thisRepN,trials.thisTrialN,trials.thisN,trials.thisIndex,trials_2.thisRepN,trials_2.thisTrialN,trials_2.thisN,trials_2.thisIndex,text.started,text.stopped,p1.started,p1.stopped,MatchInstructions.started,MatchInstructions.stopped,Name1.started,Name1.stopped,Face_Relevance.started,Face_Relevance.stopped,MismatchInstructions.started,MismatchInstructions.stopped,Rest_trainingInstruct.started,Rest_trainingInstruct.stopped,next8.keys,next8.rt,next8.started,next8.stopped,Ready.started,Ready.stopped,delay_one_picked,delay_two_picked,blank0.started,blank0.stopped,FixationCross1.started,FixationCross1.stopped,Name3.started,Name3.stopped,Face_Relevance3.started,Face_Relevance3.stopped,responseTime.started,responseTime.stopped,resp.keys,resp.corr,resp.rt,resp.started,resp.stopped,Accuracy.started,Accuracy.stopped,questions.started,questions.stopped,p2.started,p2.stopped,FixationCross3.started,FixationCross3.stopped,port_Face_onset.started,port_Face_onset.stopped,Name4.started,Name4.stopped,Face_Relevance4.started,Face_Relevance4.stopped,responseTime2.started,responseTime2.stopped,Response.keys,Response.corr,Response.rt,Response.started,Response.stopped,p3.started,p3.stopped,Finish.started,Finish.stopped,gender,age,participant,date,expName,psychopyVersion,frameRate,
Friend.png,Friend,,,,,,,0,0,0,1,,,,,,,,,,,,,18.11299670021981,None,0.0037243301048874855,0.5227195299230516,79.04412330011837,None,95.9168710000813,None,95.9168710000813,None,,,,,,,,,,,,,,,,,,,,,,,,,,,,,,,,,,,,,,,,,,,,,,,,,,,,,,33,p19,2022_Apr_27_1710,training+cueing,2021.1.4,59.74500831036442,
Self.png,You,,,,,,,0,1,1,0,,,,,,,,,,,,,,,,,,,115.80978800007142,None,115.80978800007142,None,,,,,,,,,,,,,,,,,,,,,,,,,,,,,,,,,,,,,,,,,,,,,,,,,,,,,,33,p19,2022_Apr_27_1710,training+cueing,2021.1.4,59.74500831036442,
Stranger.png,Stranger,,,,,,,0,2,2,2,,,,,,,,,,,,,,,,,,,135.81334780016914,None,135.81334780016914,None,,,,,,,,,,,,,,,,,,,,,,,,,,,,,,,,,,,,,,,,,,,,,,,,,,,,,,33,p19,2022_Apr_27_1710,training+cueing,2021.1.4,59.74500831036442,
Self.png,You,Self ,c,1,11,21,91,,,,,0,0,0,0,0,0,0,0,,,,,,,,,,,,,,,155.7660706001334,None,252.83647920005023,None,space,-0.08080179989337921,2.0082162900362164,None,254.83762590005063,None,1.565,2.399,257.8524771002121,None,258.48123550019227,258.9905019002035,258.9571721001994,259.0571853001602,258.9571721001994,259.0571853001602,259.0571853001602,None,c,1,1.4271391001529992,259.0571853001602,None,260.51155080017634,None,,,,,,,,,,,,,,,,,,,,,,,,,33,p19,2022_Apr_27_1710,training+cueing,2021.1.4,59.74500831036442,
Stranger.png,Stranger,Stranger,c,3,13,23,93,,,,,0,0,0,0,0,1,1,11,,,,,,,,,,,,,,,,,,,,,,,,,1.729,2.276,260.92542980005965,None,261.46206180006266,261.9760373001918,261.95960130007006,262.0760553001892,261.95960130007006,262.0760553001892,262.05937940021977,None,c,1,1.224722399841994,262.05937940021977,None,263.3103181000333,None,,,,,,,,,,,,,,,,,,,,,,,,,33,p19,2022_Apr_27_1710,training+cueing,2021.1.4,59.74500831036442,
Self.png,Friend,Self ,m,2.1,16,26,96,,,,,0,0,0,0,0,2,2,1,,,,,,,,,,,,,,,,,,,,,,,,,1.564,2.497,263.7108701001853,None,264.24943349999376,264.761331200134,264.74468880007043,264.86140050017275,264.74468880007043,264.86140050017275,264.844742000103,None,m,1,1.5275274000596255,264.844742000103,None,266.39597230008803,None,,,,,,,,,,,,,,,,,,,,,,,,,33,p19,2022_Apr_27_1710,training+cueing,2021.1.4,59.74500831036442,
Stranger.png,Stranger,Stranger,c,3,13,23,93,,,,,0,0,0,0,0,3,3,8,,,,,,,,,,,,,,,,,,,,,,,,,1.633,2.486,266.7962905000895,None,267.33480489999056,267.8469523000531,267.83023500000127,267.946988100186,267.83023500000127,267.946988100186,267.9302864000201,None,None,0,,267.9302864000201,None,269.56319540017284,None,,,,,,,,,,,,,,,,,,,,,,,,,33,p19,2022_Apr_27_1710,training+cueing,2021.1.4,59.74500831036442,
Self.png,You,Self ,c,1,11,21,91,,,,,0,0,0,0,0,4,4,9,,,,,,,,,,,,,,,,,,,,,,,,,1.412,1.824,269.9653993002139,None,270.51188890007325,271.0160602000542,270.9994259001687,271.09941550018266,270.9994259001687,271.09941550018266,271.09941550018266,None,c,1,1.144823799841106,271.09941550018266,None,272.2688426000532,None,,,,,,,,,,,,,,,,,,,,,,,,,33,p19,2022_Apr_27_1710,training+cueing,2021.1.4,59.74500831036442,
Friend.png,Friend,Friend,c,2,12,22,92,,,,,0,0,0,0,0,5,5,4,,,,,,,,,,,,,,,,,,,,,,,,,1.78,1.471,272.6837575000245,None,273.2144313000608,273.71782960020937,273.70118229999207,273.81785630015656,273.70118229999207,273.81785630015656,273.80114960018545,None,c,1,1.1629341000225395,273.80114960018545,None,274.98541270010173,None,,,,,,,,,,,,,,,,,,,,,,,,,33,p19,2022_Apr_27_1710,training+cueing,2021.1.4,59.74500831036442,
Stranger.png,You,Stranger,m,1.3,15,25,95,,,,,0,0,0,0,0,6,6,6,,,,,,,,,,,,,,,,,,,,,,,,,1.535,2.431,275.3856971000787,None,275.9312782001216,276.4364387001842,276.41976110008545,276.51979500008747,276.41976110008545,276.51979500008747,276.51979500008747,None,None,0,,276.51979500008747,None,278.05408770008944,None,,,,,,,,,,,,,,,,,,,,,,,,,33,p19,2022_Apr_27_1710,training+cueing,2021.1.4,59.74500831036442,
Stranger.png,Friend,Stranger,m,2.3,17,27,97,,,,,0,0,0,0,0,7,7,7,,,,,,,,,,,,,,,,,,,,,,,,,1.41,1.68,278.4547577002086,None,278.9963546001818,279.5053656999953,279.4886805000715,279.6053878001403,279.4886805000715,279.6053878001403,279.58868300006725,None,m,1,0.8954467999283224,279.58868300006725,None,280.5227595001925,None,,,,,,,,,,,,,,,,,,,,,,,,,33,p19,2022_Apr_27_1710,training+cueing,2021.1.4,59.74500831036442,
Self.png,Stranger,Self ,m,3.1,18,28,98,,,,,0,0,0,0,0,8,8,2,,,,,,,,,,,,,,,,,,,,,,,,,1.504,1.474,280.92303760000505,None,281.4536125001032,281.9572623001877,281.9404444000684,282.05713490000926,281.9404444000684,282.05713490000926,282.04047370003536,None,c,0,1.2116435999050736,282.04047370003536,None,283.2756121000275,None,,,,,,,,,,,,,,,,,,,,,,,,,33,p19,2022_Apr_27_1710,training+cueing,2021.1.4,59.74500831036442,
Friend.png,Stranger,Friend,m,3.2,19,29,99,,,,,0,0,0,0,0,9,9,5,,,,,,,,,,,,,,,,,,,,,,,,,1.613,1.759,283.67502180021256,None,284.20487440004945,284.7090970000718,284.69243950000964,284.8091302001849,284.69243950000964,284.8091302001849,284.7924407001119,None,m,1,1.0197533001191914,284.7924407001119,None,285.8417156001087,None,,,,,,,,,,,,,,,,,,,,,,,,,33,p19,2022_Apr_27_1710,training+cueing,2021.1.4,59.74500831036442,
Friend.png,You,Friend,m,1.2,14,24,94,,,,,0,0,0,0,0,10,10,3,,,,,,,,,,,,,,,,,,,,,,,,,1.499,2.326,286.2435391000472,None,286.77591080009006,287.2776274001226,287.26096390001476,287.36100570019335,287.26096390001476,287.36100570019335,287.36100570019335,None,m,1,1.0751629997976124,287.36100570019335,None,288.4618628001772,None,,,,,,,,,,,,,,,,,,,,,,,,,33,p19,2022_Apr_27_1710,training+cueing,2021.1.4,59.74500831036442,
Friend.png,Friend,Friend,c,2,12,22,92,,,,,0,0,0,0,0,11,11,10,,,,,,,,,,,,,,,,,,,,,,,,,1.688,1.668,288.8622591001913,None,289.4054801000748,289.9128481000662,289.89617310022004,290.01291010016575,289.89617310022004,290.01291010016575,289.9961900000926,None,c,1,1.1279425998218358,289.9961900000926,None,291.14706950006075,None,,,,,,,,,,,,,,,,,,,,,,,,,33,p19,2022_Apr_27_1710,training+cueing,2021.1.4,59.74500831036442,
Stranger.png,Friend,Stranger,m,2.3,17,27,97,,,,,0,0,0,0,,,,,0,0,0,7,,,,,,,,,,,,,,,,,,,326.3727828001138,None,1.65,1.526,329.89745010016486,None,,,,,,,,,,,,,,,,291.5475159001071,None,0.014483089558780193,0.5133157896343619,330.51313390000723,331.0260592000559,0.5059376198332757,1.0061810198239982,331.0093871001154,331.12607130012475,331.0093871001154,331.12607130012475,331.109309800202,None,m,1,1.4388345000334084,331.109309800202,None,,,,,,33,p19,2022_Apr_27_1710,training+cueing,2021.1.4,59.74500831036442,
Friend.png,Friend,Friend,c,2,12,22,92,,,,,0,0,0,0,,,,,0,1,1,4,,,,,,,,,,,,,,,,,,,,,1.775,1.235,332.6854176002089,None,,,,,,,,,,,,,,,,,,,,333.2264292000327,333.7278021001257,0.5018184699583799,1.0024883698206395,333.71115220012143,333.8278420001734,333.71115220012143,333.8278420001734,333.81115090008825,None,c,1,0.817013300023973,333.81115090008825,None,,,,,,33,p19,2022_Apr_27_1710,training+cueing,2021.1.4,59.74500831036442,
Stranger.png,Stranger,Stranger,c,3,13,23,93,,,,,0,0,0,0,,,,,0,2,2,11,,,,,,,,,,,,,,,,,,,,,1.652,1.762,334.75226430012845,None,,,,,,,,,,,,,,,,,,,,335.3051229000557,335.8126193000935,0.5148468601983041,1.0151147602591664,335.7959887001198,335.9126762000378,335.7959887001198,335.9126762000378,335.8959786000196,None,m,0,1.0842915999237448,335.8959786000196,None,,,,,,33,p19,2022_Apr_27_1710,training+cueing,2021.1.4,59.74500831036442,
Friend.png,Stranger,Friend,m,3.2,19,29,99,,,,,0,0,0,0,,,,,0,3,3,5,,,,,,,,,,,,,,,,,,,,,1.457,2.278,337.10412950022146,None,,,,,,,,,,,,,,,,,,,,337.6409480001312,338.14769070013426,0.510896870167926,1.0111290700733662,338.13104990008287,338.24771740008146,338.13104990008287,338.24771740008146,338.2310812000651,None,m,1,0.9250429000239819,338.2310812000651,None,,,,,,33,p19,2022_Apr_27_1710,training+cueing,2021.1.4,59.74500831036442,
Self.png,You,Self ,c,1,11,21,91,,,,,0,0,0,0,,,,,0,4,4,0,,,,,,,,,,,,,,,,,,,,,1.413,1.332,339.2879219001625,None,,,,,,,,,,,,,,,,,,,,339.8286374001764,340.33257860015146,0.5074942698702216,1.007774769794196,340.31588820018806,340.41594440001063,340.31588820018806,340.41594440001063,340.41594440001063,None,c,1,1.2201533000916243,340.41594440001063,None,,,,,,33,p19,2022_Apr_27_1710,training+cueing,2021.1.4,59.74500831036442,
Stranger.png,Stranger,Stranger,c,3,13,23,93,,,,,0,0,0,0,,,,,0,5,5,8,,,,,,,,,,,,,,,,,,,,,1.49,1.407,341.77321130014025,None,,,,,,,,,,,,,,,,,,,,342.31389320013113,342.81780460011214,0.5082681700587273,1.0087051698938012,342.80118300020695,342.9178920001723,342.80118300020695,342.9178920001723,342.90114650013857,None,m,0,0.7029894001316279,342.90114650013857,None,,,,,,33,p19,2022_Apr_27_1710,training+cueing,2021.1.4,59.74500831036442,
Friend.png,You,Friend,m,1.2,14,24,94,,,,,0,0,0,0,,,,,0,6,6,3,,,,,,,,,,,,,,,,,,,,,1.758,1.466,343.7415568002034,None,,,,,,,,,,,,,,,,,,,,344.2843573000282,344.7860882000532,0.5072528698947281,1.0076503697782755,344.76942670019343,344.8694530001376,344.76942670019343,344.8694530001376,344.8694530001376,None,m,1,0.9905600999481976,344.8694530001376,None,,,,,,33,p19,2022_Apr_27_1710,training+cueing,2021.1.4,59.74500831036442,
Self.png,You,Self ,c,1,11,21,91,,,,,0,0,0,0,,,,,0,7,7,9,,,,,,,,,,,,,,,,,,,,,1.511,2.427,345.9929648002144,None,,,,,,,,,,,,,,,,,,,,346.5465343000833,347.0544076000806,0.5154554599430412,1.0156850598286837,347.03771669999696,347.1377617001999,347.03771669999696,347.1377617001999,347.1377617001999,None,c,1,0.8022921998053789,347.1377617001999,None,,,,,,33,p19,2022_Apr_27_1710,training+cueing,2021.1.4,59.74500831036442,
Friend.png,Friend,Friend,c,2,12,22,92,,,,,0,0,0,0,,,,,0,8,8,10,,,,,,,,,,,,,,,,,,,,,1.427,1.781,348.07843900006264,None,,,,,,,,,,,,,,,,,,,,348.6189960001502,349.1224878001958,0.5044459698256105,1.0047332698013633,349.1058525000699,349.2225804000627,349.1058525000699,349.2225804000627,349.20589189999737,None,c,1,0.6861660999711603,349.20589189999737,None,,,,,,33,p19,2022_Apr_27_1710,training+cueing,2021.1.4,59.74500831036442,
Self.png,Friend,Self ,m,2.1,16,26,96,,,,,0,0,0,0,,,,,0,9,9,1,,,,,,,,,,,,,,,,,,,,,1.402,1.893,350.02890740009025,None,,,,,,,,,,,,,,,,,,,,350.56787320016883,351.0739166000858,0.5116918697021902,1.011980969691649,351.05723870010115,351.173998700222,351.05723870010115,351.173998700222,351.1572930000257,None,m,1,0.7666879000607878,351.1572930000257,None,,,,,,33,p19,2022_Apr_27_1710,training+cueing,2021.1.4,59.74500831036442,
Self.png,Stranger,Self ,m,3.1,18,28,98,,,,,0,0,0,0,,,,,0,10,10,2,,,,,,,,,,,,,,,,,,,,,1.464,1.886,352.0476333000697,None,,,,,,,,,,,,,,,,,,,,352.5928315001074,353.0920645000879,0.5150202699005604,1.015338669763878,353.0920645000879,353.19210400013253,353.0920645000879,353.19210400013253,353.19210400013253,None,c,0,0.7639840999618173,353.19210400013253,None,,,,,,33,p19,2022_Apr_27_1710,training+cueing,2021.1.4,59.74500831036442,
Stranger.png,You,Stranger,m,1.3,15,25,95,,,,,0,0,0,0,,,,,0,11,11,6,,,,,,,,,,,,,,,,,,,,,1.555,1.992,354.08211340010166,None,,,,,,,,,,,,,,,,,,,,354.6218138001859,355.12684949999675,0.5070896702818573,1.0076111701782793,355.1101784000639,355.21023389999755,355.1101784000639,355.21023389999755,355.21023389999755,None,m,1,0.6817304000724107,355.21023389999755,None,,,,,,33,p19,2022_Apr_27_1710,training+cueing,2021.1.4,59.74500831036442,
Friend.png,Friend,Friend,c,2,12,22,92,,,,,0,0,0,0,,,,,1,0,12,10,,,,,,,,,,,,,,,,,,,,,1.674,2.033,356.0163569001015,None,,,,,,,,,,,,,,,,,,,,356.556568400003,357.0616164000239,0.5096989700105041,1.0099889698904008,357.0449252000544,357.1616564001888,357.0449252000544,357.1616564001888,357.14497040002607,None,c,1,0.6510846000164747,357.14497040002607,None,,,,,,33,p19,2022_Apr_27_1710,training+cueing,2021.1.4,59.74500831036442,
Self.png,You,Self ,c,1,11,21,91,,,,,0,0,0,0,,,,,1,1,13,9,,,,,,,,,,,,,,,,,,,,,1.776,1.62,357.9185754000209,None,,,,,,,,,,,,,,,,,,,,358.45880400016904,358.96293480019085,0.5069009696599096,1.0072911698371172,358.9462620001286,359.04633010015823,358.9462620001286,359.04633010015823,359.04633010015823,None,c,1,1.1177079000044614,359.04633010015823,None,,,,,,33,p19,2022_Apr_27_1710,training+cueing,2021.1.4,59.74500831036442,
Self.png,You,Self ,c,1,11,21,91,,,,,0,0,0,0,,,,,1,2,14,0,,,,,,,,,,,,,,,,,,,,,1.53,2.439,360.2861371000763,None,,,,,,,,,,,,,,,,,,,,360.8244162001647,361.33133900002576,0.5119948701467365,1.0123041700571775,361.31464240001515,361.4147137000691,361.31464240001515,361.4147137000691,361.4147137000691,None,c,1,0.6052693000528961,361.4147137000691,None,,,,,,33,p19,2022_Apr_27_1710,training+cueing,2021.1.4,59.74500831036442,
Friend.png,Friend,Friend,c,2,12,22,92,,,,,0,0,0,0,,,,,1,3,15,4,,,,,,,,,,,,,,,,,,,,,1.793,2.401,362.15454020001926,None,,,,,,,,,,,,,,,,,,,,362.6966788000427,363.1993704000488,0.5060565697494894,1.0063601697329432,363.18270360003226,363.29943290003575,363.18270360003226,363.29943290003575,363.2827250000555,None,c,1,0.7052298998460174,363.2827250000555,None,,,,,,33,p19,2022_Apr_27_1710,training+cueing,2021.1.4,59.74500831036442,
Friend.png,Stranger,Friend,m,3.2,19,29,99,,,,,0,0,0,0,,,,,1,4,16,5,,,,,,,,,,,,,,,,,,,,,1.717,2.048,364.12259060004726,None,,,,,,,,,,,,,,,,,,,,364.6633319000248,365.1674322001636,0.5061467699706554,1.0065028700046241,365.15077730012126,365.2674984000623,365.15077730012126,365.2674984000623,365.25080530019477,None,m,1,0.6892370998393744,365.25080530019477,None,,,,,,33,p19,2022_Apr_27_1710,training+cueing,2021.1.4,59.74500831036442,
Stranger.png,Stranger,Stranger,c,3,13,23,93,,,,,0,0,0,0,,,,,1,5,17,11,,,,,,,,,,,,,,,,,,,,,1.538,1.964,366.0746490000747,None,,,,,,,,,,,,,,,,,,,,366.6135174999945,367.11887070001103,0.5110173700377345,1.01124437013641,367.1022222000174,367.21889810007997,367.1022222000174,367.21889810007997,367.2022309000604,None,m,0,0.9778056000359356,367.2022309000604,None,,,,,,33,p19,2022_Apr_27_1710,training+cueing,2021.1.4,59.74500831036442,
Stranger.png,Stranger,Stranger,c,3,13,23,93,,,,,0,0,0,0,,,,,1,6,18,8,,,,,,,,,,,,,,,,,,,,,1.653,2.242,368.309223000193,None,,,,,,,,,,,,,,,,,,,,368.84822200005874,369.3539632000029,0.5115638698916882,1.011893070070073,369.33711260021664,369.45386950019747,369.33711260021664,369.45386950019747,369.4371622002218,None,c,1,0.5669360999017954,369.4371622002218,None,,,,,,33,p19,2022_Apr_27_1710,training+cueing,2021.1.4,59.74500831036442,
Self.png,Friend,Self ,m,2.1,16,26,96,,,,,0,0,0,0,,,,,1,7,19,1,,,,,,,,,,,,,,,,,,,,,1.717,1.421,370.12748630018905,None,,,,,,,,,,,,,,,,,,,,370.6657575001009,371.17181850015186,0.5094255700241774,1.0098448700737208,371.1550899001304,371.27235570014454,371.1550899001304,371.27235570014454,371.2551560001448,None,m,1,0.7969102000351995,371.2551560001448,None,,,,,,33,p19,2022_Apr_27_1710,training+cueing,2021.1.4,59.74500831036442,
Self.png,Stranger,Self ,m,3.1,18,28,98,,,,,0,0,0,0,,,,,1,8,20,2,,,,,,,,,,,,,,,,,,,,,1.426,1.468,372.17848920007236,None,,,,,,,,,,,,,,,,,,,,372.72055840003304,373.22328830021434,0.5056029700208455,1.0058130698744208,373.2066707999911,373.3233052000869,373.2066707999911,373.3233052000869,373.3066261000931,None,m,1,1.305352299939841,373.3066261000931,None,,,,,,33,p19,2022_Apr_27_1710,training+cueing,2021.1.4,59.74500831036442,
Stranger.png,You,Stranger,m,1.3,15,25,95,,,,,0,0,0,0,,,,,1,9,21,6,,,,,,,,,,,,,,,,,,,,,1.617,1.635,374.74666730011813,None,,,,,,,,,,,,,,,,,,,,375.2902128000278,375.79180670017377,0.504010469885543,1.0089357700198889,375.77511829999276,375.87518440000713,375.77511829999276,375.87518440000713,375.87518440000713,None,m,1,0.848800899926573,375.87518440000713,None,,,,,,33,p19,2022_Apr_27_1710,training+cueing,2021.1.4,59.74500831036442,
Friend.png,You,Friend,m,1.2,14,24,94,,,,,0,0,0,0,,,,,1,10,22,3,,,,,,,,,,,,,,,,,,,,,1.605,1.858,376.8483225000091,None,,,,,,,,,,,,,,,,,,,,377.38622370013036,377.89331800001673,0.5116138700395823,1.011864969972521,377.87663040007465,377.9766746000387,377.87663040007465,377.9766746000387,377.9766746000387,None,m,1,0.7473315000534058,377.9766746000387,None,,,,,,33,p19,2022_Apr_27_1710,training+cueing,2021.1.4,59.74500831036442,
Stranger.png,Friend,Stranger,m,2.3,17,27,97,,,,,0,0,0,0,,,,,1,11,23,7,,,,,,,,,,,,,,,,,,,,,1.646,1.59,378.84996690019034,None,,,,,,,,,,,,,,,,,,,,379.4225469001103,379.92810060014017,0.5135578499175608,1.0144405500032008,379.91141610010527,380.0287296001334,379.91141610010527,380.0287296001334,380.01146350009367,None,c,0,0.9846977998968214,380.01146350009367,None,,,,,,33,p19,2022_Apr_27_1710,training+cueing,2021.1.4,59.74500831036442,
Friend.png,Friend,Friend,c,2,12,22,92,,,,,0,0,0,0,,,,,2,0,24,4,,,,,,,,,,,,,,,,,,,,,1.609,1.816,381.1186633000616,None,,,,,,,,,,,,,,,,,,,,381.6564182001166,382.16306030005217,0.511155670043081,1.0114030700642616,382.1464122000616,382.2630776001606,382.1464122000616,382.2630776001606,382.24639400001615,None,c,1,0.5899543000850827,382.24639400001615,None,,,,,,33,p19,2022_Apr_27_1710,training+cueing,2021.1.4,59.74500831036442,
Self.png,Friend,Self ,m,2.1,16,26,96,,,,,0,0,0,0,,,,,2,1,25,1,,,,,,,,,,,,,,,,,,,,,1.67,2.1,382.96952060004696,None,,,,,,,,,,,,,,,,,,,,383.50754690007307,384.01433930010535,0.5137806697748601,1.0142950699664652,383.99770760000683,384.1144091000315,383.99770760000683,384.1144091000315,384.0977285001427,None,m,1,0.9624962999951094,384.0977285001427,None,,,,,,33,p19,2022_Apr_27_1710,training+cueing,2021.1.4,59.74500831036442,
Friend.png,Stranger,Friend,m,3.2,19,29,99,,,,,0,0,0,0,,,,,2,2,26,5,,,,,,,,,,,,,,,,,,,,,1.697,1.565,385.19163740007207,None,,,,,,,,,,,,,,,,,,,,385.7280111000873,386.23264820012264,0.5085227701347321,1.0089743703138083,386.21596830012277,386.33325050002895,386.21596830012277,386.33325050002895,386.3159955001902,None,m,1,0.7760443999432027,386.3159955001902,None,,,,,,33,p19,2022_Apr_27_1710,training+cueing,2021.1.4,59.74500831036442,
Friend.png,You,Friend,m,1.2,14,24,94,,,,,0,0,0,0,,,,,2,3,27,3,,,,,,,,,,,,,,,,,,,,,1.44,1.334,387.22401350014843,None,,,,,,,,,,,,,,,,,,,,387.76266920007765,388.2674814001657,0.5067618701141328,1.0070499700959772,388.2507910002023,388.3508280001115,388.2507910002023,388.3508280001115,388.3508280001115,None,m,1,0.9331225999630988,388.3508280001115,None,,,,,,33,p19,2022_Apr_27_1710,training+cueing,2021.1.4,59.74500831036442,
Self.png,Stranger,Self ,m,3.1,18,28,98,,,,,0,0,0,0,,,,,2,4,28,2,,,,,,,,,,,,,,,,,,,,,1.666,1.845,389.4074438000098,None,,,,,,,,,,,,,,,,,,,,389.94968440011144,390.45235490007326,0.5053970697335899,1.0058699699584395,390.43567850021645,390.5524103001226,390.43567850021645,390.5524103001226,390.53572200005874,None,m,1,1.2603531000204384,390.53572200005874,None,,,,,,33,p19,2022_Apr_27_1710,training+cueing,2021.1.4,59.74500831036442,
Stranger.png,You,Stranger,m,1.3,15,25,95,,,,,0,0,0,0,,,,,2,5,29,6,,,,,,,,,,,,,,,,,,,,,1.565,1.37,391.92773890006356,None,,,,,,,,,,,,,,,,,,,,392.4864135000389,392.9875926000532,0.5035738600417972,1.0038710599765182,392.9708325001411,393.07090850011446,392.9708325001411,393.07090850011446,393.07090850011446,None,m,1,0.9010534998960793,393.07090850011446,None,,,,,,33,p19,2022_Apr_27_1710,training+cueing,2021.1.4,59.74500831036442,
Friend.png,Friend,Friend,c,2,12,22,92,,,,,0,0,0,0,,,,,2,6,30,10,,,,,,,,,,,,,,,,,,,,,1.691,1.682,394.0948197999969,None,,,,,,,,,,,,,,,,,,,,394.6337577002123,395.1390967001207,0.509331869892776,1.0095984698273242,395.1224118000828,395.2391098001972,395.1224118000828,395.2391098001972,395.2224209001288,None,c,1,0.5415946999564767,395.2224209001288,None,,,,,,33,p19,2022_Apr_27_1710,training+cueing,2021.1.4,59.74500831036442,
Self.png,You,Self ,c,1,11,21,91,,,,,0,0,0,0,,,,,2,7,31,9,,,,,,,,,,,,,,,,,,,,,1.791,1.493,395.89596890006214,None,,,,,,,,,,,,,,,,,,,,396.4370284001343,396.94036820018664,0.5075232700910419,1.0078276700805873,396.92372530000284,397.0237436001189,396.92372530000284,397.0237436001189,397.0237436001189,None,c,1,0.6922670002095401,397.0237436001189,None,,,,,,33,p19,2022_Apr_27_1710,training+cueing,2021.1.4,59.74500831036442,
Self.png,You,Self ,c,1,11,21,91,,,,,0,0,0,0,,,,,2,8,32,0,,,,,,,,,,,,,,,,,,,,,1.551,1.847,397.84695560019463,None,,,,,,,,,,,,,,,,,,,,398.3847276000306,398.8917684000917,0.5114800699520856,1.0118084698915482,398.87509660003707,398.97516290005296,398.87509660003707,398.97516290005296,398.97516290005296,None,c,1,0.9968282000627369,398.97516290005296,None,,,,,,33,p19,2022_Apr_27_1710,training+cueing,2021.1.4,59.74500831036442,
Stranger.png,Stranger,Stranger,c,3,13,23,93,,,,,0,0,0,0,,,,,2,9,33,8,,,,,,,,,,,,,,,,,,,,,1.551,2.011,400.09854180016555,None,,,,,,,,,,,,,,,,,,,,400.6385298999958,401.1434201002121,0.510273769730702,1.0105654697399586,401.1267319000326,401.243455799995,401.1267319000326,401.243455799995,401.22678420017473,None,m,0,1.0013317000120878,401.22678420017473,None,,,,,,33,p19,2022_Apr_27_1710,training+cueing,2021.1.4,59.74500831036442,
Stranger.png,Friend,Stranger,m,2.3,17,27,97,,,,,0,0,0,0,,,,,2,10,34,7,,,,,,,,,,,,,,,,,,,,,1.644,2.068,402.35045090015046,None,,,,,,,,,,,,,,,,,,,,402.8923508001026,403.3950925001409,0.5059897697065026,1.0062206697184592,403.37839900003746,403.4950780000072,403.37839900003746,403.4950780000072,403.47838130011223,None,m,1,0.9575894998852164,403.47838130011223,None,,,,,,33,p19,2022_Apr_27_1710,training+cueing,2021.1.4,59.74500831036442,
Stranger.png,Stranger,Stranger,c,3,13,23,93,,,,,0,0,0,0,,,,,2,11,35,11,,,,,,,,,,,,,,,,,,,,,1.552,2.223,404.5692945001647,None,,,,,,,,,,,,,,,,,,,,405.109277700074,405.613351700129,0.5055175698362291,1.0058162698987871,405.5966532002203,405.71335850004107,405.5966532002203,405.71335850004107,405.69668940012343,None,c,1,0.7395254999864846,405.69668940012343,None,,,,,,33,p19,2022_Apr_27_1710,training+cueing,2021.1.4,59.74500831036442,
Stranger.png,Friend,Stranger,m,2.3,17,27,97,,,,,0,0,0,0,,,,,3,0,36,7,,,,,,,,,,,,,,,,,,,,,1.671,2.206,406.57042810018174,None,,,,,,,,,,,,,,,,,,,,407.1132187000476,407.6147905001417,0.5047524699475616,1.0052438699640334,407.59808610007167,407.7148166000843,407.59808610007167,407.7148166000843,407.69811390014365,None,m,1,0.913835900137201,407.69811390014365,None,,,,,,33,p19,2022_Apr_27_1710,training+cueing,2021.1.4,59.74500831036442,
Stranger.png,Stranger,Stranger,c,3,13,23,93,,,,,0,0,0,0,,,,,3,1,37,8,,,,,,,,,,,,,,,,,,,,,1.444,1.511,408.7387235001661,None,,,,,,,,,,,,,,,,,,,,409.2808606000617,409.7829970000312,0.5056019697804004,1.0058626697864383,409.7663241000846,409.8830356001854,409.7663241000846,409.8830356001854,409.866336400155,None,c,1,0.7455990999005735,409.866336400155,None,,,,,,33,p19,2022_Apr_27_1710,training+cueing,2021.1.4,59.74500831036442,
Stranger.png,You,Stranger,m,1.3,15,25,95,,,,,0,0,0,0,,,,,3,2,38,6,,,,,,,,,,,,,,,,,,,,,1.685,1.842,410.7397817000747,None,,,,,,,,,,,,,,,,,,,,411.2800743000116,411.78447080007754,0.5070979697629809,1.0120215697679669,411.76784140011296,411.867794000078,411.76784140011296,411.867794000078,411.867794000078,None,m,1,0.7281428999267519,411.867794000078,None,,,,,,33,p19,2022_Apr_27_1710,training+cueing,2021.1.4,59.74500831036442,
Self.png,Friend,Self ,m,2.1,16,26,96,,,,,0,0,0,0,,,,,3,3,39,1,,,,,,,,,,,,,,,,,,,,,1.717,1.709,412.72869720007293,None,,,,,,,,,,,,,,,,,,,,413.2676043000538,413.76919250003994,0.5025558699853718,1.0028800698928535,413.7525201002136,413.8692271001637,413.7525201002136,413.8692271001637,413.852540000109,None,m,1,0.8395704000722617,413.852540000109,None,,,,,,33,p19,2022_Apr_27_1710,training+cueing,2021.1.4,59.74500831036442,
Stranger.png,Stranger,Stranger,c,3,13,23,93,,,,,0,0,0,0,,,,,3,4,40,11,,,,,,,,,,,,,,,,,,,,,1.638,2.447,414.8257274001371,None,,,,,,,,,,,,,,,,,,,,415.37913980009034,415.88741720002145,0.5150014602113515,1.015281760133803,415.87070250022225,415.9874736000784,415.87070250022225,415.9874736000784,415.9707487002015,None,c,1,0.8331988998688757,415.9707487002015,None,,,,,,33,p19,2022_Apr_27_1710,training+cueing,2021.1.4,59.74500831036442,
Friend.png,You,Friend,m,1.2,14,24,94,,,,,0,0,0,0,,,,,3,5,41,3,,,,,,,,,,,,,,,,,,,,,1.638,1.388,416.92758420016617,None,,,,,,,,,,,,,,,,,,,,417.46885700011626,417.97224090015516,0.5072317698504776,1.0076800698880106,417.9555663000792,418.0556143000722,417.9555663000792,418.0556143000722,418.0556143000722,None,m,1,0.7322533000260592,418.0556143000722,None,,,,,,33,p19,2022_Apr_27_1710,training+cueing,2021.1.4,59.74500831036442,
Self.png,You,Self ,c,1,11,21,91,,,,,0,0,0,0,,,,,3,6,42,0,,,,,,,,,,,,,,,,,,,,,1.462,2.088,418.91351240011863,None,,,,,,,,,,,,,,,,,,,,419.4504765002057,419.95699620014057,0.5116309700533748,1.0119046699255705,419.94032130017877,420.04037960013375,419.94032130017877,420.04037960013375,420.04037960013375,None,c,1,0.7154522000346333,420.04037960013375,None,,,,,,33,p19,2022_Apr_27_1710,training+cueing,2021.1.4,59.74500831036442,
Friend.png,Stranger,Friend,m,3.2,19,29,99,,,,,0,0,0,0,,,,,3,7,43,5,,,,,,,,,,,,,,,,,,,,,1.656,2.447,420.88009650004096,None,,,,,,,,,,,,,,,,,,,,421.42132850014605,421.9250817000866,0.5060825699474663,1.006434669950977,421.9083990000654,422.0251136000734,421.9083990000654,422.0251136000734,422.0084632001817,None,m,1,0.7154777001123875,422.0084632001817,None,,,,,,33,p19,2022_Apr_27_1710,training+cueing,2021.1.4,59.74500831036442,
Self.png,You,Self ,c,1,11,21,91,,,,,0,0,0,0,,,,,3,8,44,9,,,,,,,,,,,,,,,,,,,,,1.794,1.975,422.8484037001617,None,,,,,,,,,,,,,,,,,,,,423.39796680002473,423.90984930004925,0.5070699700154364,1.007398369954899,423.8931911000982,423.9932649000548,423.8931911000982,423.9932649000548,423.9932649000548,None,c,1,0.6986455998849124,423.9932649000548,None,,,,,,33,p19,2022_Apr_27_1710,training+cueing,2021.1.4,59.74500831036442,
Friend.png,Friend,Friend,c,2,12,22,92,,,,,0,0,0,0,,,,,3,9,45,4,,,,,,,,,,,,,,,,,,,,,1.409,1.786,424.8164865002036,None,,,,,,,,,,,,,,,,,,,,425.35838290001266,425.8612681000959,0.5061683701351285,1.0066321699414402,425.84458480007015,425.9615435001906,425.84458480007015,425.9615435001906,425.9447672001552,None,c,1,0.651235899887979,425.9447672001552,None,,,,,,33,p19,2022_Apr_27_1710,training+cueing,2021.1.4,59.74500831036442,
Self.png,Stranger,Self ,m,3.1,18,28,98,,,,,0,0,0,0,,,,,3,10,46,2,,,,,,,,,,,,,,,,,,,,,1.446,2.356,426.7190843001008,None,,,,,,,,,,,,,,,,,,,,427.2729452000931,427.77933560009114,0.5105041600763798,1.0113105601631105,427.762685400201,427.8793459001463,427.762685400201,427.8793459001463,427.86268690018915,None,m,1,0.9892327999696136,427.86268690018915,None,,,,,,33,p19,2022_Apr_27_1710,training+cueing,2021.1.4,59.74500831036442,
Friend.png,Friend,Friend,c,2,12,22,92,,,,,0,0,0,0,,,,,3,11,47,10,,,,,,,,,,,,,,,,,,,,,1.516,2.041,428.9861646001227,None,,,,,,,,,,,,,,,,,,,,429.5272154000122,430.0309575002175,0.5065568699501455,1.006776069989428,430.01429990003817,430.1309963001404,430.01429990003817,430.1309963001404,430.11429150006734,None,c,1,0.5937222000211477,430.11429150006734,None,,,,,,33,p19,2022_Apr_27_1710,training+cueing,2021.1.4,59.74500831036442,
Friend.png,Friend,Friend,c,2,12,22,92,,,,,0,0,0,0,,,,,4,0,48,4,,,,,,,,,,,,,,,,,,,,,1.429,1.399,430.8378778002225,None,,,,,,,,,,,,,,,,,,,,431.38970719999634,431.8990248001646,0.5007943601813167,0.9996354603208601,431.86715140007436,431.98242910020053,431.86715140007436,431.98242910020053,431.9657678999938,None,c,1,0.6302162001375109,431.9657678999938,None,,,,,,33,p19,2022_Apr_27_1710,training+cueing,2021.1.4,59.74500831036442,
Friend.png,Friend,Friend,c,2,12,22,92,,,,,0,0,0,0,,,,,4,1,49,10,,,,,,,,,,,,,,,,,,,,,1.578,1.306,432.72239050013013,None,,,,,,,,,,,,,,,,,,,,433.2613089000806,433.7672568000853,0.5104768697638065,1.0118565699085593,433.7492252001539,433.86716000013985,433.7492252001539,433.86716000013985,433.85045480006374,None,c,1,0.45763119985349476,433.85045480006374,None,,,,,,33,p19,2022_Apr_27_1710,training+cueing,2021.1.4,59.74500831036442,
Stranger.png,Friend,Stranger,m,2.3,17,27,97,,,,,0,0,0,0,,,,,4,2,50,7,,,,,,,,,,,,,,,,,,,,,1.62,2.273,434.4404141001869,None,,,,,,,,,,,,,,,,,,,,434.97783820005134,435.4848723001778,0.5147609699051827,1.0150263698305935,435.468207300175,435.5849438000005,435.468207300175,435.5849438000005,435.5682456002105,None,m,1,0.6116537998896092,435.5682456002105,None,,,,,,33,p19,2022_Apr_27_1710,training+cueing,2021.1.4,59.74500831036442,
Friend.png,You,Friend,m,1.2,14,24,94,,,,,0,0,0,0,,,,,4,3,51,3,,,,,,,,,,,,,,,,,,,,,1.421,1.752,436.30838609999046,None,,,,,,,,,,,,,,,,,,,,436.8488504001871,437.35292850015685,0.5069872697349638,1.0070892698131502,437.3363748001866,437.4362893002108,437.3363748001866,437.4362893002108,437.4362893002108,None,c,0,0.47155770007520914,437.4362893002108,None,,,,,,33,p19,2022_Apr_27_1710,training+cueing,2021.1.4,59.74500831036442,
Self.png,You,Self ,c,1,11,21,91,,,,,0,0,0,0,,,,,4,4,52,0,,,,,,,,,,,,,,,,,,,,,1.695,1.637,438.04229000001214,None,,,,,,,,,,,,,,,,,,,,438.58131810021587,439.0874861001503,0.5111154697369784,1.011736769694835,439.07078330009244,439.1708541000262,439.07078330009244,439.1708541000262,439.1708541000262,None,c,1,0.6575743001885712,439.1708541000262,None,,,,,,33,p19,2022_Apr_27_1710,training+cueing,2021.1.4,59.74500831036442,
Friend.png,Stranger,Friend,m,3.2,19,29,99,,,,,0,0,0,0,,,,,4,5,53,5,,,,,,,,,,,,,,,,,,,,,1.414,1.974,439.9621104001999,None,,,,,,,,,,,,,,,,,,,,440.51533670001663,441.02242829999886,0.5140411600004882,1.0142404600046575,441.00581350014545,441.1224885000847,441.00581350014545,441.1224885000847,441.1057523000054,None,m,1,0.7541827999521047,441.1057523000054,None,,,,,,33,p19,2022_Apr_27_1710,training+cueing,2021.1.4,59.74500831036442,
Self.png,You,Self ,c,1,11,21,91,,,,,0,0,0,0,,,,,4,6,54,9,,,,,,,,,,,,,,,,,,,,,1.41,2.494,441.99681290006265,None,,,,,,,,,,,,,,,,,,,,442.53711400018074,443.04032370005734,0.5049390697386116,1.005515969824046,443.02367100003175,443.12373730004765,443.02367100003175,443.12373730004765,443.12373730004765,None,c,1,0.8321383998263627,443.12373730004765,None,,,,,,33,p19,2022_Apr_27_1710,training+cueing,2021.1.4,59.74500831036442,
Stranger.png,Stranger,Stranger,c,3,13,23,93,,,,,0,0,0,0,,,,,4,7,55,11,,,,,,,,,,,,,,,,,,,,,1.553,1.696,444.08118720003404,None,,,,,,,,,,,,,,,,,,,,444.64303260017186,445.15865500015207,0.5153505599591881,1.0156747598666698,445.1419637000654,445.25869829999283,445.1419637000654,445.25869829999283,445.24199360003695,None,m,0,0.8100136001594365,445.24199360003695,None,,,,,,33,p19,2022_Apr_27_1710,training+cueing,2021.1.4,59.74500831036442,
Stranger.png,You,Stranger,m,1.3,15,25,95,,,,,0,0,0,0,,,,,4,8,56,6,,,,,,,,,,,,,,,,,,,,,1.66,1.941,446.18316960008815,None,,,,,,,,,,,,,,,,,,,,446.7214460000396,447.2267162001226,0.5072815699968487,1.0075523699633777,447.2100564001594,447.3100611001719,447.2100564001594,447.3100611001719,447.3100611001719,None,m,1,0.8217889999505132,447.3100611001719,None,,,,,,33,p19,2022_Apr_27_1710,training+cueing,2021.1.4,59.74500831036442,
Self.png,Friend,Self ,m,2.1,16,26,96,,,,,0,0,0,0,,,,,4,9,57,1,,,,,,,,,,,,,,,,,,,,,1.733,1.568,448.2734750001691,None,,,,,,,,,,,,,,,,,,,,448.8081816001795,449.3115231001284,0.5067057700362056,1.0070052698720247,449.29484760016203,449.41159050003625,449.29484760016203,449.41159050003625,449.3948728002142,None,m,1,1.1533015999011695,449.3948728002142,None,,,,,,33,p19,2022_Apr_27_1710,training+cueing,2021.1.4,59.74500831036442,
Stranger.png,Stranger,Stranger,c,3,13,23,93,,,,,0,0,0,0,,,,,4,10,58,8,,,,,,,,,,,,,,,,,,,,,1.529,2.385,450.6891652001068,None,,,,,,,,,,,,,,,,,,,,451.2288007000461,451.7301651001908,0.5022439698223025,1.0025784699246287,451.7134211000521,451.8302062000148,451.7134211000521,451.8302062000148,451.8135042001959,None,c,1,0.7505642001051456,451.8135042001959,None,,,,,,33,p19,2022_Apr_27_1710,training+cueing,2021.1.4,59.74500831036442,
Self.png,Stranger,Self ,m,3.1,18,28,98,,,,,0,0,0,0,,,,,4,11,59,2,,,,,,,,,,,,,,,,,,,,,1.581,1.217,452.6891450001858,None,,,,,,,,,,,,,,,,,,,,453.22397160017863,453.73133790004067,0.5135115699376911,1.0137550698127598,453.71473570005037,453.8314338000491,453.71473570005037,453.8314338000491,453.81474790000357,None,m,1,1.3574310999829322,453.81474790000357,None,,,,,,33,p19,2022_Apr_27_1710,training+cueing,2021.1.4,59.74500831036442,
Self.png,You,Self ,c,1,11,21,91,,,,,0,0,0,0,,,,,5,0,60,9,,,,,,,,,,,,,,,,,,,,,1.768,1.876,455.30765160010196,None,,,,,,,,,,,,,,,,,,,,455.84669500007294,456.3499355001841,0.5053416700102389,1.0057350699789822,456.3332421001978,456.4333599000238,456.3332421001978,456.4333599000238,456.4333599000238,None,c,1,0.4985197000205517,456.4333599000238,None,,,,,,33,p19,2022_Apr_27_1710,training+cueing,2021.1.4,59.74500831036442,
Friend.png,You,Friend,m,1.2,14,24,94,,,,,0,0,0,0,,,,,5,1,61,3,,,,,,,,,,,,,,,,,,,,,1.573,2.074,457.05647060018964,None,,,,,,,,,,,,,,,,,,,,457.595610300079,458.10121440002695,0.5112904701381922,1.0115668701473624,458.08460699999705,458.18459210009314,458.08460699999705,458.18459210009314,458.18459210009314,None,m,1,0.779310500016436,458.18459210009314,None,,,,,,33,p19,2022_Apr_27_1710,training+cueing,2021.1.4,59.74500831036442,
Stranger.png,You,Stranger,m,1.3,15,25,95,,,,,0,0,0,0,,,,,5,2,62,6,,,,,,,,,,,,,,,,,,,,,1.409,1.623,459.09088870021515,None,,,,,,,,,,,,,,,,,,,,459.6290587000549,460.13595470017754,0.5118139700498432,1.0121358700562268,460.11929990001954,460.2193891000934,460.11929990001954,460.2193891000934,460.2193891000934,None,m,1,0.9684820999391377,460.2193891000934,None,,,,,,33,p19,2022_Apr_27_1710,training+cueing,2021.1.4,59.74500831036442,
Friend.png,Stranger,Friend,m,3.2,19,29,99,,,,,0,0,0,0,,,,,5,3,63,5,,,,,,,,,,,,,,,,,,,,,1.461,2.012,461.30969560006633,None,,,,,,,,,,,,,,,,,,,,461.8515825001523,462.35478460020386,0.5056335697881877,1.0057877697981894,462.3377447000239,462.45447630016133,462.3377447000239,462.45447630016133,462.4377186000347,None,m,1,0.7022427001502365,462.4377186000347,None,,,,,,33,p19,2022_Apr_27_1710,training+cueing,2021.1.4,59.74500831036442,
Self.png,Stranger,Self ,m,3.1,18,28,98,,,,,0,0,0,0,,,,,5,4,64,2,,,,,,,,,,,,,,,,,,,,,1.458,1.45,463.27923980006017,None,,,,,,,,,,,,,,,,,,,,463.8159489000682,464.3223965000361,0.511225069873035,1.0116574699059129,464.30565630015917,464.42255280003883,464.30565630015917,464.42255280003883,464.40584580018185,None,m,1,0.7499921000562608,464.40584580018185,None,,,,,,33,p19,2022_Apr_27_1710,training+cueing,2021.1.4,59.74500831036442,
Stranger.png,Stranger,Stranger,c,3,13,23,93,,,,,0,0,0,0,,,,,5,5,65,11,,,,,,,,,,,,,,,,,,,,,1.742,2.282,465.27963250014,None,,,,,,,,,,,,,,,,,,,,465.8178135000635,466.323806400178,0.5117506699170917,1.0120427699293941,466.3071214000229,466.423851700034,466.3071214000229,466.423851700034,466.4071665999945,None,c,1,0.6366797001101077,466.4071665999945,None,,,,,,33,p19,2022_Apr_27_1710,training+cueing,2021.1.4,59.74500831036442,
Stranger.png,Stranger,Stranger,c,3,13,23,93,,,,,0,0,0,0,,,,,5,6,66,8,,,,,,,,,,,,,,,,,,,,,1.603,2.196,467.18188500008546,None,,,,,,,,,,,,,,,,,,,,467.72134830011055,468.22519810008816,0.5080964697990566,1.0084282699972391,468.20848980010487,468.32524140016176,468.20848980010487,468.32524140016176,468.3085598000325,None,c,1,0.41528349998407066,468.3085598000325,None,,,,,,33,p19,2022_Apr_27_1710,training+cueing,2021.1.4,59.74500831036442,
Self.png,You,Self ,c,1,11,21,91,,,,,0,0,0,0,,,,,5,7,67,0,,,,,,,,,,,,,,,,,,,,,1.765,1.221,468.84852370014414,None,,,,,,,,,,,,,,,,,,,,469.3886024001986,469.8930399999954,0.506994669791311,1.0078801698982716,469.8763777001295,469.9764256000053,469.8763777001295,469.9764256000053,469.9764256000053,None,c,1,0.6195382999721915,469.9764256000053,None,,,,,,33,p19,2022_Apr_27_1710,training+cueing,2021.1.4,59.74500831036442,
Self.png,Friend,Self ,m,2.1,16,26,96,,,,,0,0,0,0,,,,,5,8,68,1,,,,,,,,,,,,,,,,,,,,,1.748,1.336,470.7341246001888,None,,,,,,,,,,,,,,,,,,,,471.27364570018835,471.7778452001512,0.5061626699753106,1.0074892700649798,471.760179300094,471.8778886999935,471.760179300094,471.8778886999935,471.861273100134,None,m,1,0.7025987999513745,471.861273100134,None,,,,,,33,p19,2022_Apr_27_1710,training+cueing,2021.1.4,59.74500831036442,
Friend.png,Friend,Friend,c,2,12,22,92,,,,,0,0,0,0,,,,,5,9,69,10,,,,,,,,,,,,,,,,,,,,,1.723,1.656,472.70133970002644,None,,,,,,,,,,,,,,,,,,,,473.2399814000819,473.74582980014384,0.5112826698459685,1.0115566698368639,473.72916240012273,473.8458992000669,473.72916240012273,473.8458992000669,473.82918310002424,None,c,1,0.4627438001334667,473.82918310002424,None,,,,,,33,p19,2022_Apr_27_1710,training+cueing,2021.1.4,59.74500831036442,
Stranger.png,Friend,Stranger,m,2.3,17,27,97,,,,,0,0,0,0,,,,,5,10,70,7,,,,,,,,,,,,,,,,,,,,,1.698,2.225,474.41928989998996,None,,,,,,,,,,,,,,,,,,,,474.9558120002039,475.46374510019086,0.5135707699228078,1.0138975698500872,475.4470342001878,475.5637862000149,475.4470342001878,475.5637862000149,475.54709740006365,None,m,1,0.6646461000200361,475.54709740006365,None,,,,,,33,p19,2022_Apr_27_1710,training+cueing,2021.1.4,59.74500831036442,
Friend.png,Friend,Friend,c,2,12,22,92,,,,,0,0,0,0,,,,,5,11,71,4,,,,,,,,,,,,,,,,,,,,,1.674,1.813,476.33740429999307,None,,,,,,,,,,,,,,,,,,,,476.8763698001858,477.3818009002134,0.5111369700171053,1.0113704700488597,477.36515150009654,477.48184230015613,477.36515150009654,477.48184230015613,477.46513920021243,None,c,1,0.5867635000031441,477.46513920021243,None,,,,,,33,p19,2022_Apr_27_1710,training+cueing,2021.1.4,59.74500831036442,
Friend.png,You,Friend,m,1.2,14,24,94,,,,,0,0,0,0,,,,,6,0,72,3,,,,,,,,,,,,,,,,,,,,,1.476,2.422,478.1886413001921,None,,,,,,,,,,,,,,,,,,,,478.7269414002076,479.2331169000827,0.5106890699826181,1.0110026698093861,479.21644960017875,479.3165064000059,479.21644960017875,479.3165064000059,479.3165064000059,None,m,1,0.5758257999550551,479.3165064000059,None,,,,,,33,p19,2022_Apr_27_1710,training+cueing,2021.1.4,59.74500831036442,
Friend.png,Friend,Friend,c,2,12,22,92,,,,,0,0,0,0,,,,,6,1,73,4,,,,,,,,,,,,,,,,,,,,,1.461,1.228,480.02738840016536,None,,,,,,,,,,,,,,,,,,,,480.5663002000656,481.0677703002002,0.5026956698857248,1.0030329700093716,481.0510679001454,481.16783270007,481.0510679001454,481.16783270007,481.1511387000792,None,c,1,0.5810751998797059,481.1511387000792,None,,,,,,33,p19,2022_Apr_27_1710,training+cueing,2021.1.4,59.74500831036442,
Friend.png,Stranger,Friend,m,3.2,19,29,99,,,,,0,0,0,0,,,,,6,2,74,5,,,,,,,,,,,,,,,,,,,,,1.4,1.899,481.86112290015444,None,,,,,,,,,,,,,,,,,,,,482.40390560007654,482.9191492001992,0.5128048697952181,1.0135572699364275,482.9024972000625,483.01973920012824,482.9024972000625,483.01973920012824,483.00253180018626,None,m,1,0.7293941001407802,483.00253180018626,None,,,,,,33,p19,2022_Apr_27_1710,training+cueing,2021.1.4,59.74500831036442,
Stranger.png,Stranger,Stranger,c,3,13,23,93,,,,,0,0,0,0,,,,,6,3,75,11,,,,,,,,,,,,,,,,,,,,,1.617,1.429,483.8594474000856,None,,,,,,,,,,,,,,,,,,,,484.39684360008687,484.9038675001357,0.5110486701596528,1.0113579700700939,484.8872081001755,485.00393620016985,484.8872081001755,485.00393620016985,484.98723620013334,None,c,1,0.904755000025034,484.98723620013334,None,,,,,,33,p19,2022_Apr_27_1710,training+cueing,2021.1.4,59.74500831036442,
Stranger.png,You,Stranger,m,1.3,15,25,95,,,,,0,0,0,0,,,,,6,4,76,6,,,,,,,,,,,,,,,,,,,,,1.773,1.235,486.0287396002095,None,,,,,,,,,,,,,,,,,,,,486.56847550021484,487.0720910001546,0.507559770019725,1.0079889700282365,487.0554979001172,487.15548410010524,487.0554979001172,487.15548410010524,487.15548410010524,None,c,0,0.9764002999290824,487.15548410010524,None,,,,,,33,p19,2022_Apr_27_1710,training+cueing,2021.1.4,59.74500831036442,
Self.png,You,Self ,c,1,11,21,91,,,,,0,0,0,0,,,,,6,5,77,0,,,,,,,,,,,,,,,,,,,,,1.797,1.482,488.2635298001114,None,,,,,,,,,,,,,,,,,,,,488.7994079000782,489.3070583001245,0.5150503700133413,1.015347969951108,489.29038790008053,489.39044840005226,489.29038790008053,489.39044840005226,489.39044840005226,None,c,1,0.7093968000262976,489.39044840005226,None,,,,,,33,p19,2022_Apr_27_1710,training+cueing,2021.1.4,59.74500831036442,
Stranger.png,Stranger,Stranger,c,3,13,23,93,,,,,0,0,0,0,,,,,6,6,78,8,,,,,,,,,,,,,,,,,,,,,1.593,2.262,490.2302328001242,None,,,,,,,,,,,,,,,,,,,,490.77166269999,491.2751544001512,0.5055004698224366,1.0057889698073268,491.2584834001027,491.3752254000865,491.2584834001027,491.3752254000865,491.3585283001885,None,c,1,0.9492975000757724,491.3585283001885,None,,,,,,33,p19,2022_Apr_27_1710,training+cueing,2021.1.4,59.74500831036442,
Friend.png,Friend,Friend,c,2,12,22,92,,,,,0,0,0,0,,,,,6,7,79,10,,,,,,,,,,,,,,,,,,,,,1.408,1.791,492.43225240008906,None,,,,,,,,,,,,,,,,,,,,492.97326440014876,493.47676340001635,0.5071668701712042,1.0074263701681048,493.4600863000378,493.57681210013106,493.4600863000378,493.57681210013106,493.56008550012484,None,c,1,0.6036006000358611,493.56008550012484,None,,,,,,33,p19,2022_Apr_27_1710,training+cueing,2021.1.4,59.74500831036442,
Self.png,You,Self ,c,1,11,21,91,,,,,0,0,0,0,,,,,6,8,80,9,,,,,,,,,,,,,,,,,,,,,1.621,2.422,494.30044540017843,None,,,,,,,,,,,,,,,,,,,,494.84102270007133,495.3447599001229,0.506049069808796,1.0063208700157702,495.32809590012766,495.42812550021335,495.32809590012766,495.42812550021335,495.42812550021335,None,c,1,0.6399405999109149,495.42812550021335,None,,,,,,33,p19,2022_Apr_27_1710,training+cueing,2021.1.4,59.74500831036442,
Self.png,Friend,Self ,m,2.1,16,26,96,,,,,0,0,0,0,,,,,6,9,81,1,,,,,,,,,,,,,,,,,,,,,1.759,1.895,496.2017189001199,None,,,,,,,,,,,,,,,,,,,,496.7435422001872,497.24612530018203,0.5061184698715806,1.0064296699129045,497.22944670007564,497.3461756000761,497.22944670007564,497.3461756000761,497.32949950010516,None,c,0,0.6423692998941988,497.32949950010516,None,,,,,,33,p19,2022_Apr_27_1710,training+cueing,2021.1.4,59.74500831036442,
Self.png,Stranger,Self ,m,3.1,18,28,98,,,,,0,0,0,0,,,,,6,10,82,2,,,,,,,,,,,,,,,,,,,,,1.53,2.054,498.1029426001478,None,,,,,,,,,,,,,,,,,,,,498.6460404000245,499.14755020011216,0.5043214696925133,1.0045710697304457,499.13086940022185,499.24756320007145,499.13086940022185,499.24756320007145,499.2308554002084,None,m,1,1.220988999819383,499.2308554002084,None,,,,,,33,p19,2022_Apr_27_1710,training+cueing,2021.1.4,59.74500831036442,
Stranger.png,Friend,Stranger,m,2.3,17,27,97,,,,,0,0,0,0,,,,,6,11,83,7,,,,,,,,,,,,,,,,,,,,,1.756,1.248,500.58842250006273,None,,,,,,,,,,,,,,,,,,,,501.14054240006953,501.6493369000964,0.5154506599064916,1.0158116600941867,501.6326474000234,501.74936680006795,501.6326474000234,501.74936680006795,501.73290460021235,None,m,1,0.7509236000478268,501.73290460021235,None,,,,,,33,p19,2022_Apr_27_1710,training+cueing,2021.1.4,59.74500831036442,
Stranger.png,Stranger,Stranger,c,3,13,23,93,,,,,0,0,0,0,,,,,7,0,84,8,,,,,,,,,,,,,,,,,,,,,1.646,2.425,502.60572320013307,None,,,,,,,,,,,,,,,,,,,,503.1489645000547,503.65078380005434,0.5048494702205062,1.005088270176202,503.6341338001657,503.75078100012615,503.6341338001657,503.75078100012615,503.7341354000382,None,c,1,0.6059814000036567,503.7341354000382,None,,,,,,33,p19,2022_Apr_27_1710,training+cueing,2021.1.4,59.74500831036442,
Friend.png,Friend,Friend,c,2,12,22,92,,,,,0,0,0,0,,,,,7,1,85,10,,,,,,,,,,,,,,,,,,,,,1.742,1.86,504.4741530001629,None,,,,,,,,,,,,,,,,,,,,505.0165301000234,505.518787200097,0.5064008699264377,1.006679069949314,505.5022823000327,505.61882310011424,505.5022823000327,505.61882310011424,505.60213780007325,None,c,1,0.5615943998564035,505.60213780007325,None,,,,,,33,p19,2022_Apr_27_1710,training+cueing,2021.1.4,59.74500831036442,
Friend.png,Stranger,Friend,m,3.2,19,29,99,,,,,0,0,0,0,,,,,7,2,86,5,,,,,,,,,,,,,,,,,,,,,1.465,2.017,506.2922288000118,None,,,,,,,,,,,,,,,,,,,,506.8339380000252,507.3368035000749,0.5043315696530044,1.004839269677177,507.3200898000505,507.43684560013935,507.3200898000505,507.43684560013935,507.42016600002535,None,m,1,0.7116624999325722,507.42016600002535,None,,,,,,33,p19,2022_Apr_27_1710,training+cueing,2021.1.4,59.74500831036442,
Stranger.png,Stranger,Stranger,c,3,13,23,93,,,,,0,0,0,0,,,,,7,3,87,11,,,,,,,,,,,,,,,,,,,,,1.798,2.412,508.261993000051,None,,,,,,,,,,,,,,,,,,,,508.8004680001177,509.30486130015925,0.5099508701823652,1.0100308700930327,509.2883239001967,509.4048892999999,509.2883239001967,509.4048892999999,509.38818830018863,None,c,1,0.6155674001201987,509.38818830018863,None,,,,,,33,p19,2022_Apr_27_1710,training+cueing,2021.1.4,59.74500831036442,
Self.png,Friend,Self ,m,2.1,16,26,96,,,,,0,0,0,0,,,,,7,4,88,1,,,,,,,,,,,,,,,,,,,,,1.746,1.672,510.1283321999945,None,,,,,,,,,,,,,,,,,,,,510.6687467000447,511.17308229999617,0.506123669911176,1.0061245698016137,511.156354600098,511.27292610006407,511.156354600098,511.27292610006407,511.25620140018873,None,m,1,0.6516901000868529,511.25620140018873,None,,,,,,33,p19,2022_Apr_27_1710,training+cueing,2021.1.4,59.74500831036442,
Stranger.png,Friend,Stranger,m,2.3,17,27,97,,,,,0,0,0,0,,,,,7,5,89,7,,,,,,,,,,,,,,,,,,,,,1.613,1.2,512.0311835000757,None,,,,,,,,,,,,,,,,,,,,512.5694817001931,513.0742752000224,0.5096394699066877,1.009766369825229,513.0577165000141,513.1742640000302,513.0577165000141,513.1742640000302,513.1576074000914,None,m,1,0.8141221001278609,513.1576074000914,None,,,,,,33,p19,2022_Apr_27_1710,training+cueing,2021.1.4,59.74500831036442,
Self.png,Stranger,Self ,m,3.1,18,28,98,,,,,0,0,0,0,,,,,7,6,90,2,,,,,,,,,,,,,,,,,,,,,1.409,1.586,514.0977200001944,None,,,,,,,,,,,,,,,,,,,,514.640602900181,515.1423894001637,0.5047755697742105,1.0052215699106455,515.1256823001895,515.2424692001659,515.1256823001895,515.2424692001659,515.2257613001857,None,m,1,0.7140029999427497,515.2257613001857,None,,,,,,33,p19,2022_Apr_27_1710,training+cueing,2021.1.4,59.74500831036442,
Self.png,You,Self ,c,1,11,21,91,,,,,0,0,0,0,,,,,7,7,91,9,,,,,,,,,,,,,,,,,,,,,1.75,2.354,516.066984700039,None,,,,,,,,,,,,,,,,,,,,516.6473209999967,517.1605106000789,0.5072594499215484,1.0075420499779284,517.1438677001279,517.2438908000477,517.1438677001279,517.2438908000477,517.2438908000477,None,c,1,0.6158970999531448,517.2438908000477,None,,,,,,33,p19,2022_Apr_27_1710,training+cueing,2021.1.4,59.74500831036442,
Friend.png,You,Friend,m,1.2,14,24,94,,,,,0,0,0,0,,,,,7,8,92,3,,,,,,,,,,,,,,,,,,,,,1.569,2.169,517.9834860002156,None,,,,,,,,,,,,,,,,,,,,518.5238060001284,519.0285017001443,0.509974269894883,1.0102766698691994,519.0118313001003,519.1118991000112,519.0118313001003,519.1118991000112,519.1118991000112,None,m,1,0.5720536999870092,519.1118991000112,None,,,,,,33,p19,2022_Apr_27_1710,training+cueing,2021.1.4,59.74500831036442,
Friend.png,Friend,Friend,c,2,12,22,92,,,,,0,0,0,0,,,,,7,9,93,4,,,,,,,,,,,,,,,,,,,,,1.684,1.804,519.8185295001604,None,,,,,,,,,,,,,,,,,,,,520.3641755999997,520.8631900001783,0.514828670071438,1.0151231701020151,520.8631900001783,520.9632690001745,520.8631900001783,520.9632690001745,520.9632690001745,None,c,1,0.6404957000631839,520.9632690001745,None,,,,,,33,p19,2022_Apr_27_1710,training+cueing,2021.1.4,59.74500831036442,
Self.png,You,Self ,c,1,11,21,91,,,,,0,0,0,0,,,,,7,10,94,0,,,,,,,,,,,,,,,,,,,,,1.542,2.418,521.7366528999992,None,,,,,,,,,,,,,,,,,,,,522.2768667000346,522.7812352001201,0.5060761701315641,1.0069916702341288,522.7645784001797,522.8646192001179,522.7645784001797,522.8646192001179,522.8646192001179,None,c,1,0.595426700077951,522.8646192001179,None,,,,,,33,p19,2022_Apr_27_1710,training+cueing,2021.1.4,59.74500831036442,
Stranger.png,You,Stranger,m,1.3,15,25,95,,,,,0,0,0,0,,,,,7,11,95,6,,,,,,,,,,,,,,,,,,,,,1.457,2.493,523.5911193999927,None,,,,,,,,,,,,,,,,,,,,524.1286822000984,524.6325721000321,0.5074760697316378,1.0077376698609442,524.6159169001039,524.7159380000085,524.6159169001039,524.7159380000085,524.7159380000085,None,m,1,0.6000054001342505,524.7159380000085,None,,,,,,33,p19,2022_Apr_27_1710,training+cueing,2021.1.4,59.74500831036442,
Friend.png,Friend,Friend,c,2,12,22,92,,,,,0,0,0,0,,,,,8,0,96,4,,,,,,,,,,,,,,,,,,,,,1.424,1.774,525.4433104000054,None,,,,,,,,,,,,,,,,,,,,525.9822649001144,526.4839103000704,0.502124970080331,1.0024468700867146,526.4672258000355,526.5840636000503,526.4672258000355,526.5840636000503,526.5672755001578,None,c,1,0.5245207999832928,526.5672755001578,None,,,,,,33,p19,2022_Apr_27_1710,training+cueing,2021.1.4,59.74500831036442,
Self.png,Friend,Self ,m,2.1,16,26,96,,,,,0,0,0,0,,,,,8,1,97,1,,,,,,,,,,,,,,,,,,,,,1.551,2.26,527.2230623001233,None,,,,,,,,,,,,,,,,,,,,527.7631169001106,528.2685951001476,0.5102127699647099,1.0104965700302273,528.2518629000988,528.368603900075,528.2518629000988,528.368603900075,528.3519152000081,None,m,1,0.7398891001939774,528.3519152000081,None,,,,,,33,p19,2022_Apr_27_1710,training+cueing,2021.1.4,59.74500831036442,
Stranger.png,Stranger,Stranger,c,3,13,23,93,,,,,0,0,0,0,,,,,8,2,98,11,,,,,,,,,,,,,,,,,,,,,1.433,1.74,529.2254536000546,None,,,,,,,,,,,,,,,,,,,,529.7671843001153,530.2699718000367,0.5051707699894905,1.0054536699317396,530.253326700069,530.3700361000374,530.253326700069,530.3700361000374,530.3533507999964,None,c,1,0.5303757998626679,530.3533507999964,None,,,,,,33,p19,2022_Apr_27_1710,training+cueing,2021.1.4,59.74500831036442,
Stranger.png,You,Stranger,m,1.3,15,25,95,,,,,0,0,0,0,,,,,8,3,99,6,,,,,,,,,,,,,,,,,,,,,1.524,1.92,531.0095777001698,None,,,,,,,,,,,,,,,,,,,,531.5535989000928,532.0546228000894,0.49943526997230947,0.9996993700042367,532.037959900219,532.138082700083,532.037959900219,532.138082700083,532.138082700083,None,m,1,0.5377372999209911,532.138082700083,None,,,,,,33,p19,2022_Apr_27_1710,training+cueing,2021.1.4,59.74500831036442,
Friend.png,Stranger,Friend,m,3.2,19,29,99,,,,,0,0,0,0,,,,,8,4,100,5,,,,,,,,,,,,,,,,,,,,,1.634,1.681,532.8111374001019,None,,,,,,,,,,,,,,,,,,,,533.3521730999928,533.8559054001234,0.5078833699226379,1.0081525701098144,533.8392835000996,533.9559622001834,533.8392835000996,533.9559622001834,533.9392377000768,None,m,1,0.7208835000637919,533.9392377000768,None,,,,,,33,p19,2022_Apr_27_1710,training+cueing,2021.1.4,59.74500831036442,
Friend.png,Friend,Friend,c,2,12,22,92,,,,,0,0,0,0,,,,,8,5,101,10,,,,,,,,,,,,,,,,,,,,,1.523,2.044,534.798951700097,None,,,,,,,,,,,,,,,,,,,,535.339316500118,535.8406747002155,0.5035089699085802,1.003770069917664,535.8240074000787,535.9407268001232,535.8240074000787,535.9407268001232,535.9240151999984,None,c,1,0.4637913000769913,535.9240151999984,None,,,,,,33,p19,2022_Apr_27_1710,training+cueing,2021.1.4,59.74500831036442,
Self.png,You,Self ,c,1,11,21,91,,,,,0,0,0,0,,,,,8,6,102,0,,,,,,,,,,,,,,,,,,,,,1.796,1.687,536.5138894000556,None,,,,,,,,,,,,,,,,,,,,537.0546500000637,537.5586239001714,0.5065697696991265,1.0068588696885854,537.5419171000831,537.6420031001326,537.5419171000831,537.6420031001326,537.6420031001326,None,c,1,0.681699600070715,537.6420031001326,None,,,,,,33,p19,2022_Apr_27_1710,training+cueing,2021.1.4,59.74500831036442,
Stranger.png,Friend,Stranger,m,2.3,17,27,97,,,,,0,0,0,0,,,,,8,7,103,7,,,,,,,,,,,,,,,,,,,,,1.775,1.828,538.4487098001409,None,,,,,,,,,,,,,,,,,,,,539.0213257002179,539.5266416000668,0.4997975502628833,0.9998845502268523,539.4934922000393,539.5933700001333,539.4934922000393,539.5933700001333,539.5933700001333,None,m,1,0.554382500005886,539.5933700001333,None,,,,,,33,p19,2022_Apr_27_1710,training+cueing,2021.1.4,59.74500831036442,
Self.png,You,Self ,c,1,11,21,91,,,,,0,0,0,0,,,,,8,8,104,9,,,,,,,,,,,,,,,,,,,,,1.567,1.212,540.289146500174,None,,,,,,,,,,,,,,,,,,,,540.8358985001687,541.3446465001907,0.49982035998255014,1.0001111598685384,541.3112833001651,541.411364100175,541.3112833001651,541.411364100175,541.411364100175,None,c,1,0.6723472999874502,541.411364100175,None,,,,,,33,p19,2022_Apr_27_1710,training+cueing,2021.1.4,59.74500831036442,
Self.png,Stranger,Self ,m,3.1,18,28,98,,,,,0,0,0,0,,,,,8,9,105,2,,,,,,,,,,,,,,,,,,,,,1.739,1.852,542.2184389000759,None,,,,,,,,,,,,,,,,,,,,542.7749587001745,543.2794095000718,0.5096516602206975,1.0104626601096243,543.2628964001779,543.3794253000524,543.2628964001779,543.3794253000524,543.3627573000267,None,m,1,0.8331944001838565,543.3627573000267,None,,,,,,33,p19,2022_Apr_27_1710,training+cueing,2021.1.4,59.74500831036442,
Friend.png,You,Friend,m,1.2,14,24,94,,,,,0,0,0,0,,,,,8,10,106,3,,,,,,,,,,,,,,,,,,,,,1.752,1.618,544.3230989000294,None,,,,,,,,,,,,,,,,,,,,544.8762678001076,545.3808502000757,0.5094298601616174,1.0097599599976093,545.3641878000926,545.4642458001617,545.3641878000926,545.4642458001617,545.4642458001617,None,m,1,0.6195493000559509,545.4642458001617,None,,,,,,33,p19,2022_Apr_27_1710,training+cueing,2021.1.4,59.74500831036442,
Stranger.png,Stranger,Stranger,c,3,13,23,93,,,,,0,0,0,0,,,,,8,11,107,8,,,,,,,,,,,,,,,,,,,,,1.734,1.251,546.2212598000187,None,,,,,,,,,,,,,,,,,,,,546.7618909000885,547.2655965001322,0.5048964696470648,1.0057512696366757,547.2489145,547.3656819001772,547.2489145,547.3656819001772,547.3489275001921,None,c,1,0.63883539987728,547.3489275001921,None,,,,,,33,p19,2022_Apr_27_1710,training+cueing,2021.1.4,59.74500831036442,
Self.png,You,Self ,c,1,11,21,91,,,,,0,0,0,0,,,,,9,0,108,0,,,,,,,,,,,,,,,,,,,,,1.711,1.677,548.1230919000227,None,,,,,,,,,,,,,,,,,,,,548.6642557000741,549.1669506002218,0.5054693699348718,1.005753070116043,549.1502854002174,549.2503120000474,549.1502854002174,549.2503120000474,549.2503120000474,None,c,1,0.6094068000093102,549.2503120000474,None,,,,,,33,p19,2022_Apr_27_1710,training+cueing,2021.1.4,59.74500831036442,
Stranger.png,Stranger,Stranger,c,3,13,23,93,,,,,0,0,0,0,,,,,9,1,109,11,,,,,,,,,,,,,,,,,,,,,1.754,1.835,549.9904617001303,None,,,,,,,,,,,,,,,,,,,,550.5326495000627,551.035001100041,0.5054795700125396,1.0056006698869169,551.0184461001772,551.1350281001069,551.0184461001772,551.1350281001069,551.1183404000476,None,c,1,0.709513699868694,551.1183404000476,None,,,,,,33,p19,2022_Apr_27_1710,training+cueing,2021.1.4,59.74500831036442,
Stranger.png,Stranger,Stranger,c,3,13,23,93,,,,,0,0,0,0,,,,,9,2,110,8,,,,,,,,,,,,,,,,,,,,,1.643,1.305,551.9619061001576,None,,,,,,,,,,,,,,,,,,,,552.4966969001107,553.0030502001755,0.5101847699843347,1.0108573699835688,552.986359400209,553.103837300092,552.986359400209,553.103837300092,553.08697760012,None,c,1,0.724861899856478,553.08697760012,None,,,,,,33,p19,2022_Apr_27_1710,training+cueing,2021.1.4,59.74500831036442,
Self.png,Friend,Self ,m,2.1,16,26,96,,,,,0,0,0,0,,,,,9,3,111,1,,,,,,,,,,,,,,,,,,,,,1.753,1.899,553.9443092001602,None,,,,,,,,,,,,,,,,,,,,554.5013447999954,555.0046676001512,0.5068903600331396,1.0071386599447578,554.9880033000372,555.1046903000679,554.9880033000372,555.1046903000679,555.0880247000605,None,m,1,0.7556990999728441,555.0880247000605,None,,,,,,33,p19,2022_Apr_27_1710,training+cueing,2021.1.4,59.74500831036442,
Stranger.png,Friend,Stranger,m,2.3,17,27,97,,,,,0,0,0,0,,,,,9,4,112,7,,,,,,,,,,,,,,,,,,,,,1.763,2.42,555.9788651000708,None,,,,,,,,,,,,,,,,,,,,556.5229684000369,557.0226244002115,0.5140363699756563,1.0144617699552327,557.0226244002115,557.1226920001209,557.0226244002115,557.1226920001209,557.1226920001209,None,m,1,0.6729984001722187,557.1226920001209,None,,,,,,33,p19,2022_Apr_27_1710,training+cueing,2021.1.4,59.74500831036442,
Friend.png,Stranger,Friend,m,3.2,19,29,99,,,,,0,0,0,0,,,,,9,5,113,5,,,,,,,,,,,,,,,,,,,,,1.496,2.182,557.9297216001432,None,,,,,,,,,,,,,,,,,,,,558.4710663000587,558.9740639000665,0.5055693697649986,1.0058181697968394,558.9573782000225,559.0741078001447,558.9573782000225,559.0741078001447,559.0573929999955,None,m,1,0.5943902998697013,559.0573929999955,None,,,,,,33,p19,2022_Apr_27_1710,training+cueing,2021.1.4,59.74500831036442,
Stranger.png,You,Stranger,m,1.3,15,25,95,,,,,0,0,0,0,,,,,9,6,114,6,,,,,,,,,,,,,,,,,,,,,1.549,1.402,559.7807132001035,None,,,,,,,,,,,,,,,,,,,,560.3202144000679,560.8253554000985,0.5095703699626029,1.0098536701407284,560.8086941000074,560.9087552002165,560.8086941000074,560.9087552002165,560.9087552002165,None,m,1,0.8069333001039922,560.9087552002165,None,,,,,,33,p19,2022_Apr_27_1710,training+cueing,2021.1.4,59.74500831036442,
Friend.png,Friend,Friend,c,2,12,22,92,,,,,0,0,0,0,,,,,9,7,115,4,,,,,,,,,,,,,,,,,,,,,1.708,2.411,561.8488510001916,None,,,,,,,,,,,,,,,,,,,,562.3895421000198,562.8935587001033,0.5058095699641854,1.006107070017606,562.8768745001871,562.9935794000048,562.8768745001871,562.9935794000048,562.976888100151,None,c,1,0.5627343999221921,562.976888100151,None,,,,,,33,p19,2022_Apr_27_1710,training+cueing,2021.1.4,59.74500831036442,
Self.png,You,Self ,c,1,11,21,91,,,,,0,0,0,0,,,,,9,8,116,9,,,,,,,,,,,,,,,,,,,,,1.55,1.683,563.6671194999944,None,,,,,,,,,,,,,,,,,,,,564.2046561001334,564.7115006002132,0.5125542699825019,1.012847269885242,564.6948215002194,564.7948605001438,564.6948215002194,564.7948605001438,564.7948605001438,None,c,1,0.4569321000017226,564.7948605001438,None,,,,,,33,p19,2022_Apr_27_1710,training+cueing,2021.1.4,59.74500831036442,
Self.png,Stranger,Self ,m,3.1,18,28,98,,,,,0,0,0,0,,,,,9,9,117,2,,,,,,,,,,,,,,,,,,,,,1.609,2.287,565.3848682001699,None,,,,,,,,,,,,,,,,,,,,565.9281983000692,566.4294112999924,0.5025209698360413,1.0028719697147608,566.4127524001524,566.5294491001405,566.4127524001524,566.5294491001405,566.5127750001848,None,m,1,0.6429518000222743,566.5127750001848,None,,,,,,33,p19,2022_Apr_27_1710,training+cueing,2021.1.4,59.74500831036442,
Friend.png,You,Friend,m,1.2,14,24,94,,,,,0,0,0,0,,,,,9,10,118,3,,,,,,,,,,,,,,,,,,,,,1.425,1.452,567.2863347001839,None,,,,,,,,,,,,,,,,,,,,567.828147900058,568.3308035000227,0.5029364700894803,1.0032079699449241,568.3141238000244,568.4141889000311,568.3141238000244,568.4141889000311,568.4141889000311,None,m,1,0.6615198999643326,568.4141889000311,None,,,,,,33,p19,2022_Apr_27_1710,training+cueing,2021.1.4,59.74500831036442,
Friend.png,Friend,Friend,c,2,12,22,92,,,,,0,0,0,0,,,,,9,11,119,10,,,,,,,,,,,,,,,,,,,,,1.742,1.468,569.2050119000487,None,,,,,,,,,,,,,,,,,,,,569.7467317001428,570.2488213002216,0.5057146700564772,1.0066205700859427,570.2321587000042,570.3489212000277,570.2321587000042,570.3489212000277,570.3322095000185,None,c,1,0.5836902998853475,570.3322095000185,None,,,,,,33,p19,2022_Apr_27_1710,training+cueing,2021.1.4,59.74500831036442,
,,,,,,,,,,,,0,0,0,0,,,,,,,,,,,,,,,,,,,,,,,,,,,,,,,,,,,,,,,,,,,,,,,,,,,,,,,,,,,,,,,,,,,0.014959619846194983,0.5131521199364215,,,,33,p19,2022_Apr_27_1710,training+cueing,2021.1.4,59.74500831036442,
Self.png,You,Self ,c,1,11,21,91,,,,,1,0,1,0,0,0,0,0,,,,,,,,,,,,,,,,,571.5499333001208,None,space,3.7169790000189096,2.0112776898313314,None,577.2690032001119,None,1.764,1.436,580.2875538000371,None,580.818699600175,581.3234983000439,581.306821500184,581.4068634000141,581.306821500184,581.4068634000141,581.4068634000141,None,c,1,1.1248656001407653,581.4068634000141,None,582.5577556001954,None,,,,,,,,,,,,,,,,,,,,,,,,,33,p19,2022_Apr_27_1710,training+cueing,2021.1.4,59.74500831036442,
Self.png,Friend,Self ,m,2.1,16,26,96,,,,,1,0,1,0,0,1,1,1,,,,,,,,,,,,,,,,,,,,,,,,,1.722,1.98,582.9580041000154,None,583.500211100094,584.0088000001851,583.9921060001943,584.1088237001095,583.9921060001943,584.1088237001095,584.1088237001095,None,m,1,1.1268639001064003,584.1088237001095,None,585.2597015001811,None,,,,,,,,,,,,,,,,,,,,,,,,,33,p19,2022_Apr_27_1710,training+cueing,2021.1.4,59.74500831036442,
Stranger.png,You,Stranger,m,1.3,15,25,95,,,,,1,0,1,0,0,2,2,6,,,,,,,,,,,,,,,,,,,,,,,,,1.521,1.437,585.6599476002157,None,586.2094876000192,586.7107643000782,586.6942281001247,586.7940962000284,586.6942281001247,586.7940962000284,586.7940962000284,None,m,1,0.6814900001045316,586.7940962000284,None,587.4946498000063,None,,,,,,,,,,,,,,,,,,,,,,,,,33,p19,2022_Apr_27_1710,training+cueing,2021.1.4,59.74500831036442,
Self.png,Stranger,Self ,m,3.1,18,28,98,,,,,1,0,1,0,0,3,3,2,,,,,,,,,,,,,,,,,,,,,,,,,1.484,2.483,587.8951530000195,None,588.4339292000514,588.9456947001163,588.9290367001668,589.0457257002126,588.9290367001668,589.0457257002126,589.0290455000941,None,m,1,0.7826288000214845,589.0290455000941,None,589.8296380999964,None,,,,,,,,,,,,,,,,,,,,,,,,,33,p19,2022_Apr_27_1710,training+cueing,2021.1.4,59.74500831036442,
Stranger.png,Stranger,Stranger,c,3,13,23,93,,,,,1,0,1,0,0,4,4,11,,,,,,,,,,,,,,,,,,,,,,,,,1.466,1.56,590.229918200057,None,590.758828900056,591.2640215000138,591.247351200087,591.3641135001089,591.247351200087,591.3641135001089,591.3473703002091,None,c,1,0.4642388999927789,591.3473703002091,None,591.8311286000535,None,,,,,,,,,,,,,,,,,,,,,,,,,33,p19,2022_Apr_27_1710,training+cueing,2021.1.4,59.74500831036442,
Friend.png,Friend,Friend,c,2,12,22,92,,,,,1,0,1,0,0,5,5,10,,,,,,,,,,,,,,,,,,,,,,,,,1.568,1.251,592.2319489000365,None,592.7727136001922,593.2821336002089,593.265460900031,593.3823132000398,593.265460900031,593.3823132000398,593.3656053000595,None,c,1,0.4621364998165518,593.3656053000595,None,593.8475814000703,None,,,,,,,,,,,,,,,,,,,,,,,,,33,p19,2022_Apr_27_1710,training+cueing,2021.1.4,59.74500831036442,
Self.png,You,Self ,c,1,11,21,91,,,,,1,0,1,0,0,6,6,9,,,,,,,,,,,,,,,,,,,,,,,,,1.703,1.855,594.2497400001157,None,594.7844976000488,595.2835882001091,595.2835882001091,595.3836210002191,595.2835882001091,595.3836210002191,595.3836210002191,None,c,1,0.5559980999678373,595.3836210002191,None,595.9674298001919,None,,,,,,,,,,,,,,,,,,,,,,,,,33,p19,2022_Apr_27_1710,training+cueing,2021.1.4,59.74500831036442,
Friend.png,Stranger,Friend,m,3.2,19,29,99,,,,,1,0,1,0,0,7,7,5,,,,,,,,,,,,,,,,,,,,,,,,,1.454,1.345,596.3676947001368,None,596.9006740001496,597.4017931001727,597.385107500013,597.5023640000727,597.385107500013,597.5023640000727,597.5023640000727,None,m,1,0.6134244001004845,597.5023640000727,None,598.152603500057,None,,,,,,,,,,,,,,,,,,,,,,,,,33,p19,2022_Apr_27_1710,training+cueing,2021.1.4,59.74500831036442,
Stranger.png,Stranger,Stranger,c,3,13,23,93,,,,,1,0,1,0,0,8,8,8,,,,,,,,,,,,,,,,,,,,,,,,,1.759,2.254,598.5526344000828,None,599.0799112000968,599.5868533002213,599.5701517001726,599.6868203000631,599.5701517001726,599.6868203000631,599.6701542001683,None,c,1,0.5096714999526739,599.6701542001683,None,600.2021543001756,None,,,,,,,,,,,,,,,,,,,,,,,,,33,p19,2022_Apr_27_1710,training+cueing,2021.1.4,59.74500831036442,
Stranger.png,Friend,Stranger,m,2.3,17,27,97,,,,,1,0,1,0,0,9,9,7,,,,,,,,,,,,,,,,,,,,,,,,,1.539,2.093,600.6041508000344,None,601.1404177001677,601.6550805000588,601.6384204002097,601.7551078000106,601.6384204002097,601.7551078000106,601.7384377000853,None,m,1,0.6811171001754701,601.7384377000853,None,602.4388064001687,None,,,,,,,,,,,,,,,,,,,,,,,,,33,p19,2022_Apr_27_1710,training+cueing,2021.1.4,59.74500831036442,
Friend.png,Friend,Friend,c,2,12,22,92,,,,,1,0,1,0,0,10,10,4,,,,,,,,,,,,,,,,,,,,,,,,,1.527,1.947,602.8390504000708,None,603.3690349000972,603.8731299000792,603.8564930001739,603.9731778001878,603.8564930001739,603.9731778001878,603.9564917001408,None,c,1,0.3990761002060026,603.9564917001408,None,604.3734736000188,None,,,,,,,,,,,,,,,,,,,,,,,,,33,p19,2022_Apr_27_1710,training+cueing,2021.1.4,59.74500831036442,
Friend.png,You,Friend,m,1.2,14,24,94,,,,,1,0,1,0,0,11,11,3,,,,,,,,,,,,,,,,,,,,,,,,,1.676,2.188,604.7742732001934,None,605.3035550999921,605.8078576000407,605.79125450016,605.8912198001053,605.79125450016,605.8912198001053,605.8912198001053,None,m,1,0.5123787000775337,605.8912198001053,None,606.4250112001318,None,,,,,,,,,,,,,,,,,,,,,,,,,33,p19,2022_Apr_27_1710,training+cueing,2021.1.4,59.74500831036442,
Stranger.png,Friend,Stranger,m,2.3,17,27,97,,,,,1,0,1,0,,,,,0,0,0,7,,,,,,,,,,,,,,,,,,,612.4961870000698,None,1.564,1.288,616.0083914001007,None,,,,,,,,,,,,,,,,606.8254120000638,None,0.014503889949992299,0.512682489817962,616.5566461000126,617.0662217000499,0.5011027699802071,1.0013318699784577,617.0495707001537,617.1662572000641,617.0495707001537,617.1662572000641,617.1662572000641,None,m,1,0.645433200057596,617.1662572000641,None,,,,,,33,p19,2022_Apr_27_1710,training+cueing,2021.1.4,59.74500831036442,
Self.png,Friend,Self ,m,2.1,16,26,96,,,,,1,0,1,0,,,,,0,1,1,1,,,,,,,,,,,,,,,,,,,,,1.548,1.719,617.9421161001083,None,,,,,,,,,,,,,,,,,,,,618.4865171001293,619.0006931000389,0.5114196699578315,1.0116967700887471,618.9840230001137,619.1007566000335,618.9840230001137,619.1007566000335,619.0840955001768,None,m,1,0.5675167001318187,619.0840955001768,None,,,,,,33,p19,2022_Apr_27_1710,training+cueing,2021.1.4,59.74500831036442,
Friend.png,Friend,Friend,c,2,12,22,92,,,,,1,0,1,0,,,,,0,2,2,4,,,,,,,,,,,,,,,,,,,,,1.746,2.166,619.7740279000718,None,,,,,,,,,,,,,,,,,,,,620.3113356002141,620.8187480000779,0.512499270029366,1.0128887700848281,620.8020800000522,620.9192755999975,620.8020800000522,620.9192755999975,620.9025837001391,None,c,1,0.5411630000453442,620.9025837001391,None,,,,,,33,p19,2022_Apr_27_1710,training+cueing,2021.1.4,59.74500831036442,
Self.png,You,Self ,c,1,11,21,91,,,,,1,0,1,0,,,,,0,3,3,9,,,,,,,,,,,,,,,,,,,,,1.728,1.828,621.5765800999943,None,,,,,,,,,,,,,,,,,,,,622.1169357001781,622.6200124002062,0.5062455700244755,1.0064542698673904,622.603392700199,622.7034078000579,622.603392700199,622.7034078000579,622.7034078000579,None,c,1,0.5642074998468161,622.7034078000579,None,,,,,,33,p19,2022_Apr_27_1710,training+cueing,2021.1.4,59.74500831036442,
Stranger.png,You,Stranger,m,1.3,15,25,95,,,,,1,0,1,0,,,,,0,4,4,6,,,,,,,,,,,,,,,,,,,,,1.681,1.484,623.39353950019,None,,,,,,,,,,,,,,,,,,,,623.9304729001597,624.4381192000583,0.5128900702111423,1.0133328700903803,624.4213973002043,624.5214492001105,624.4213973002043,624.5214492001105,624.5214492001105,None,m,1,0.6182159001473337,624.5214492001105,None,,,,,,33,p19,2022_Apr_27_1710,training+cueing,2021.1.4,59.74500831036442,
Friend.png,Friend,Friend,c,2,12,22,92,,,,,1,0,1,0,,,,,0,5,5,10,,,,,,,,,,,,,,,,,,,,,1.602,2.487,625.2619936000556,None,,,,,,,,,,,,,,,,,,,,625.8052153000608,626.3061183001846,0.502183869946748,1.0024835700169206,626.2892659001518,626.4060492001008,626.2892659001518,626.4060492001008,626.3893439001404,None,c,1,0.4942600999493152,626.3893439001404,None,,,,,,33,p19,2022_Apr_27_1710,training+cueing,2021.1.4,59.74500831036442,
Self.png,You,Self ,c,1,11,21,91,,,,,1,0,1,0,,,,,0,6,6,0,,,,,,,,,,,,,,,,,,,,,1.771,1.28,627.012128100032,None,,,,,,,,,,,,,,,,,,,,627.5504985000007,628.057247400051,0.5128388700541109,1.013129070168361,628.0405882000923,628.140671600122,628.0405882000923,628.140671600122,628.140671600122,None,c,1,0.5029909000732005,628.140671600122,None,,,,,,33,p19,2022_Apr_27_1710,training+cueing,2021.1.4,59.74500831036442,
Stranger.png,Stranger,Stranger,c,3,13,23,93,,,,,1,0,1,0,,,,,0,7,7,8,,,,,,,,,,,,,,,,,,,,,1.723,1.642,628.7803797000088,None,,,,,,,,,,,,,,,,,,,,629.3217525000218,629.8251852001995,0.5045366699341685,1.0048425700515509,629.8085086001083,629.9252640001941,629.8085086001083,629.9252640001941,629.9085754000116,None,m,0,0.44705300009809434,629.9085754000116,None,,,,,,33,p19,2022_Apr_27_1710,training+cueing,2021.1.4,59.74500831036442,
Friend.png,Stranger,Friend,m,3.2,19,29,99,,,,,1,0,1,0,,,,,0,8,8,5,,,,,,,,,,,,,,,,,,,,,1.667,2.232,630.4817725000903,None,,,,,,,,,,,,,,,,,,,,631.0213104002178,631.5264277001843,0.5108932701405138,1.011300970101729,631.5097494001966,631.6264801002108,631.5097494001966,631.6264801002108,631.6097915000282,None,m,1,0.6817236000206321,631.6097915000282,None,,,,,,33,p19,2022_Apr_27_1710,training+cueing,2021.1.4,59.74500831036442,
Self.png,Stranger,Self ,m,3.1,18,28,98,,,,,1,0,1,0,,,,,0,9,9,2,,,,,,,,,,,,,,,,,,,,,1.737,1.235,632.4162095000502,None,,,,,,,,,,,,,,,,,,,,632.9742654000875,633.4778331001289,0.5069213600363582,1.0073267600964755,633.4611839000136,633.5779082002118,633.4611839000136,633.5779082002118,633.5612117000856,None,m,1,1.1306712999939919,633.5612117000856,None,,,,,,33,p19,2022_Apr_27_1710,training+cueing,2021.1.4,59.74500831036442,
Friend.png,You,Friend,m,1.2,14,24,94,,,,,1,0,1,0,,,,,0,10,10,3,,,,,,,,,,,,,,,,,,,,,1.46,1.984,634.8207803000696,None,,,,,,,,,,,,,,,,,,,,635.357728100149,635.8628797000274,0.5080806699115783,1.0083755699452013,635.8462091002148,635.9462341000326,635.8462091002148,635.9462341000326,635.9462341000326,None,m,1,0.7133196999784559,635.9462341000326,None,,,,,,33,p19,2022_Apr_27_1710,training+cueing,2021.1.4,59.74500831036442,
Stranger.png,Stranger,Stranger,c,3,13,23,93,,,,,1,0,1,0,,,,,0,11,11,11,,,,,,,,,,,,,,,,,,,,,1.426,2.422,636.7863585001323,None,,,,,,,,,,,,,,,,,,,,637.3293211001437,637.8310160001274,0.5047307701315731,1.005013870075345,637.8143277000636,637.9310374001507,637.8143277000636,637.9310374001507,637.9143451000564,None,c,1,0.6975453998893499,637.9143451000564,None,,,,,,33,p19,2022_Apr_27_1710,training+cueing,2021.1.4,59.74500831036442,
Self.png,Friend,Self ,m,2.1,16,26,96,,,,,1,0,1,0,,,,,1,0,12,1,,,,,,,,,,,,,,,,,,,,,1.696,2.201,638.7406991000753,None,,,,,,,,,,,,,,,,,,,,639.2808348000981,639.7823315002024,0.5021006697788835,1.0024801697582006,639.7656751000322,639.8824410000816,639.7656751000322,639.8824410000816,639.8657371001318,None,m,1,0.8258668000344187,639.8657371001318,None,,,,,,33,p19,2022_Apr_27_1710,training+cueing,2021.1.4,59.74500831036442,
Self.png,Stranger,Self ,m,3.1,18,28,98,,,,,1,0,1,0,,,,,1,1,13,2,,,,,,,,,,,,,,,,,,,,,1.473,2.361,640.8230397000443,None,,,,,,,,,,,,,,,,,,,,641.3656057000626,641.8672293000855,0.5044729700312018,1.0047434698790312,641.8505734000355,641.9672964001074,641.8505734000355,641.9672964001074,641.9505876000039,None,m,1,0.8850060000550002,641.9505876000039,None,,,,,,33,p19,2022_Apr_27_1710,training+cueing,2021.1.4,59.74500831036442,
Stranger.png,Stranger,Stranger,c,3,13,23,93,,,,,1,0,1,0,,,,,1,2,14,11,,,,,,,,,,,,,,,,,,,,,1.519,1.399,642.9571053001564,None,,,,,,,,,,,,,,,,,,,,643.4958473001607,644.002100400161,0.5113736700732261,1.0118174699600786,643.9854231001809,644.1021501000505,643.9854231001809,644.1021501000505,644.085454700049,None,c,1,0.9422163001727313,644.085454700049,None,,,,,,33,p19,2022_Apr_27_1710,training+cueing,2021.1.4,59.74500831036442,
Self.png,You,Self ,c,1,11,21,91,,,,,1,0,1,0,,,,,1,3,15,9,,,,,,,,,,,,,,,,,,,,,1.683,2.496,645.1601612002123,None,,,,,,,,,,,,,,,,,,,,645.6997787000146,646.2036714002024,0.5061201700009406,1.0064278698991984,646.186997700017,646.287075900007,646.186997700017,646.287075900007,646.287075900007,None,c,1,0.5644207000732422,646.287075900007,None,,,,,,33,p19,2022_Apr_27_1710,training+cueing,2021.1.4,59.74500831036442,
Self.png,You,Self ,c,1,11,21,91,,,,,1,0,1,0,,,,,1,4,16,0,,,,,,,,,,,,,,,,,,,,,1.666,1.343,646.9776792000048,None,,,,,,,,,,,,,,,,,,,,647.5149107000325,648.0217053000815,0.5130103696137667,1.0133398696780205,648.0049613001756,648.1052595002111,648.0049613001756,648.1052595002111,648.1052595002111,None,c,1,0.5063668000511825,648.1052595002111,None,,,,,,33,p19,2022_Apr_27_1710,training+cueing,2021.1.4,59.74500831036442,
Friend.png,Stranger,Friend,m,3.2,19,29,99,,,,,1,0,1,0,,,,,1,5,17,5,,,,,,,,,,,,,,,,,,,,,1.517,2.429,648.7453147000633,None,,,,,,,,,,,,,,,,,,,,649.2877970000263,649.7895560001489,0.5048131700605154,1.0050932699814439,649.7729401001707,649.8896627000067,649.7729401001707,649.8896627000067,649.8729749000631,None,m,1,0.5468927999027073,649.8729749000631,None,,,,,,33,p19,2022_Apr_27_1710,training+cueing,2021.1.4,59.74500831036442,
Friend.png,Friend,Friend,c,2,12,22,92,,,,,1,0,1,0,,,,,1,6,18,4,,,,,,,,,,,,,,,,,,,,,1.778,1.23,650.5498884001281,None,,,,,,,,,,,,,,,,,,,,651.0877678000834,651.5909753001761,0.5039366700220853,1.0042149699293077,651.574214000022,651.6909505000804,651.574214000022,651.6909505000804,651.6742634000257,None,c,1,0.44122350006364286,651.6742634000257,None,,,,,,33,p19,2022_Apr_27_1710,training+cueing,2021.1.4,59.74500831036442,
Stranger.png,You,Stranger,m,1.3,15,25,95,,,,,1,0,1,0,,,,,1,7,19,6,,,,,,,,,,,,,,,,,,,,,1.42,1.996,652.2479870000388,None,,,,,,,,,,,,,,,,,,,,652.7905790000223,653.2921448000707,0.5050860699266195,1.0059448699466884,653.2754605000373,653.3755132001825,653.2754605000373,653.3755132001825,653.3755132001825,None,m,1,0.7564133999403566,653.3755132001825,None,,,,,,33,p19,2022_Apr_27_1710,training+cueing,2021.1.4,59.74500831036442,
Stranger.png,Stranger,Stranger,c,3,13,23,93,,,,,1,0,1,0,,,,,1,8,20,8,,,,,,,,,,,,,,,,,,,,,1.772,1.296,654.2666869000532,None,,,,,,,,,,,,,,,,,,,,654.8086380001623,655.3102636002004,0.5022731700446457,1.0025641701649874,655.2935837002005,655.4103075000457,655.2935837002005,655.4103075000457,655.3936183000915,None,m,0,1.1539054000750184,655.3936183000915,None,,,,,,33,p19,2022_Apr_27_1710,training+cueing,2021.1.4,59.74500831036442,
Friend.png,Friend,Friend,c,2,12,22,92,,,,,1,0,1,0,,,,,1,9,21,10,,,,,,,,,,,,,,,,,,,,,1.656,2.486,656.6845916002057,None,,,,,,,,,,,,,,,,,,,,657.223482800182,657.7287143000867,0.5103241698816419,1.0106058698147535,657.7120175000746,657.8287349001039,657.7120175000746,657.8287349001039,657.8120399001054,None,m,0,0.6718208000529557,657.8120399001054,None,,,,,,33,p19,2022_Apr_27_1710,training+cueing,2021.1.4,59.74500831036442,
Friend.png,You,Friend,m,1.2,14,24,94,,,,,1,0,1,0,,,,,1,10,22,3,,,,,,,,,,,,,,,,,,,,,1.45,1.425,658.6223467001691,None,,,,,,,,,,,,,,,,,,,,659.1766225001775,659.6802151000593,0.507944060023874,1.0082568600773811,659.6634134000633,659.7634737000335,659.6634134000633,659.7634737000335,659.7634737000335,None,m,1,0.7041490999981761,659.7634737000335,None,,,,,,33,p19,2022_Apr_27_1710,training+cueing,2021.1.4,59.74500831036442,
Stranger.png,Friend,Stranger,m,2.3,17,27,97,,,,,1,0,1,0,,,,,1,11,23,7,,,,,,,,,,,,,,,,,,,,,1.467,1.747,660.6037175999954,None,,,,,,,,,,,,,,,,,,,,661.1430517002009,661.6483285001013,0.5092017699498683,1.009495869744569,661.6316829000134,661.748383600032,661.6316829000134,661.748383600032,661.7317091000732,None,m,1,0.7999509999062866,661.7317091000732,None,,,,,,33,p19,2022_Apr_27_1710,training+cueing,2021.1.4,59.74500831036442,
Stranger.png,Stranger,Stranger,c,3,13,23,93,,,,,1,0,1,0,,,,,2,0,24,11,,,,,,,,,,,,,,,,,,,,,1.575,2.298,662.6560494001023,None,,,,,,,,,,,,,,,,,,,,663.1975942000281,663.6996632001828,0.5049428700003773,1.0053747701458633,663.6830286001787,663.8002295000479,663.6830286001787,663.8002295000479,663.7830460001715,None,c,1,0.7166053999681026,663.7830460001715,None,,,,,,33,p19,2022_Apr_27_1710,training+cueing,2021.1.4,59.74500831036442,
Self.png,You,Self ,c,1,11,21,91,,,,,1,0,1,0,,,,,2,1,25,0,,,,,,,,,,,,,,,,,,,,,1.622,1.763,664.6249599000439,None,,,,,,,,,,,,,,,,,,,,665.1666101000737,665.6677592000924,0.5027893700171262,1.003141569904983,665.65108290012,665.7511106000748,665.65108290012,665.7511106000748,665.7511106000748,None,c,1,0.6524453000165522,665.7511106000748,None,,,,,,33,p19,2022_Apr_27_1710,training+cueing,2021.1.4,59.74500831036442,
Friend.png,You,Friend,m,1.2,14,24,94,,,,,1,0,1,0,,,,,2,2,26,3,,,,,,,,,,,,,,,,,,,,,1.723,1.736,666.5416470000055,None,,,,,,,,,,,,,,,,,,,,667.0940168001689,667.6025090999901,0.499410460004583,0.9996260600164533,667.5692064000759,667.6692024001386,667.5692064000759,667.6692024001386,667.6692024001386,None,m,1,0.5584081001579762,667.6692024001386,None,,,,,,33,p19,2022_Apr_27_1710,training+cueing,2021.1.4,59.74500831036442,
Self.png,You,Self ,c,1,11,21,91,,,,,1,0,1,0,,,,,2,3,27,9,,,,,,,,,,,,,,,,,,,,,1.709,1.279,668.359445300186,None,,,,,,,,,,,,,,,,,,,,668.8977843001485,669.4037665000651,0.5121137700043619,1.0124253700487316,669.3870879001915,669.4871005001478,669.3870879001915,669.4871005001478,669.4871005001478,None,c,1,0.5643535000272095,669.4871005001478,None,,,,,,33,p19,2022_Apr_27_1710,training+cueing,2021.1.4,59.74500831036442,
Friend.png,Friend,Friend,c,2,12,22,92,,,,,1,0,1,0,,,,,2,4,28,4,,,,,,,,,,,,,,,,,,,,,1.547,1.517,670.1775695001706,None,,,,,,,,,,,,,,,,,,,,670.7174450000748,671.2217594000977,0.5058005698956549,1.0062138698995113,671.2050803001039,671.3218825000804,671.2050803001039,671.3218825000804,671.3052189000882,None,c,1,0.5704187999945134,671.3052189000882,None,,,,,,33,p19,2022_Apr_27_1710,training+cueing,2021.1.4,59.74500831036442,
Stranger.png,You,Stranger,m,1.3,15,25,95,,,,,1,0,1,0,,,,,2,5,29,6,,,,,,,,,,,,,,,,,,,,,1.571,1.784,672.0115506001748,None,,,,,,,,,,,,,,,,,,,,672.5514056000393,673.0564598999918,0.5106455700006336,1.0110702698584646,673.0397523001302,673.1397746000439,673.0397523001302,673.1397746000439,673.1397746000439,None,m,1,0.5438055000267923,673.1397746000439,None,,,,,,33,p19,2022_Apr_27_1710,training+cueing,2021.1.4,59.74500831036442,
Friend.png,Friend,Friend,c,2,12,22,92,,,,,1,0,1,0,,,,,2,6,30,10,,,,,,,,,,,,,,,,,,,,,1.777,2.149,673.8132116000634,None,,,,,,,,,,,,,,,,,,,,674.3541961000301,674.8577404001262,0.5058501700405031,1.0061418700497597,674.84101990005,674.9577572001144,674.84101990005,674.9577572001144,674.9410581002012,None,c,1,0.5345670999959111,674.9410581002012,None,,,,,,33,p19,2022_Apr_27_1710,training+cueing,2021.1.4,59.74500831036442,
Friend.png,Stranger,Friend,m,3.2,19,29,99,,,,,1,0,1,0,,,,,2,7,31,5,,,,,,,,,,,,,,,,,,,,,1.478,1.756,675.5978999000508,None,,,,,,,,,,,,,,,,,,,,676.1390119001735,676.6423572001513,0.5047202699352056,1.0050116700585932,676.6256625000387,676.7423756001517,676.6256625000387,676.7423756001517,676.7256678000558,None,m,1,0.781995499972254,676.7256678000558,None,,,,,,33,p19,2022_Apr_27_1710,training+cueing,2021.1.4,59.74500831036442,
Stranger.png,Friend,Stranger,m,2.3,17,27,97,,,,,1,0,1,0,,,,,2,8,32,7,,,,,,,,,,,,,,,,,,,,,1.599,1.707,677.636412900174,None,,,,,,,,,,,,,,,,,,,,678.1748219002038,678.6771480001044,0.5045084697194397,1.0048256698064506,678.6604811002035,678.7771794002037,678.6604811002035,678.7771794002037,678.7604881001171,None,m,1,0.9390626999083906,678.7604881001171,None,,,,,,33,p19,2022_Apr_27_1710,training+cueing,2021.1.4,59.74500831036442,
Stranger.png,Stranger,Stranger,c,3,13,23,93,,,,,1,0,1,0,,,,,2,9,33,8,,,,,,,,,,,,,,,,,,,,,1.557,1.557,679.8341202000156,None,,,,,,,,,,,,,,,,,,,,680.3773505000863,680.8789616001304,0.5021444698795676,1.0023197699338198,680.8623442000244,680.979019400198,680.8623442000244,680.979019400198,680.9623338000383,None,c,1,0.6412728000432253,680.9623338000383,None,,,,,,33,p19,2022_Apr_27_1710,training+cueing,2021.1.4,59.74500831036442,
Self.png,Stranger,Self ,m,3.1,18,28,98,,,,,1,0,1,0,,,,,2,10,34,2,,,,,,,,,,,,,,,,,,,,,1.795,1.954,681.7368267001584,None,,,,,,,,,,,,,,,,,,,,682.275876400061,682.7801097000483,0.507101469906047,1.0075988699682057,682.7634008000605,682.8807010001037,682.7634008000605,682.8807010001037,682.8635474001057,None,m,1,0.6601640000008047,682.8635474001057,None,,,,,,33,p19,2022_Apr_27_1710,training+cueing,2021.1.4,59.74500831036442,
Self.png,Friend,Self ,m,2.1,16,26,96,,,,,1,0,1,0,,,,,2,11,35,1,,,,,,,,,,,,,,,,,,,,,1.729,1.668,683.6549326002132,None,,,,,,,,,,,,,,,,,,,,684.1948311000597,684.6981592001393,0.5061169699765742,1.0063991700299084,684.6814807001501,684.798204800114,684.6814807001501,684.798204800114,684.7815021001734,None,m,1,0.7900117000099272,684.7815021001734,None,,,,,,33,p19,2022_Apr_27_1710,training+cueing,2021.1.4,59.74500831036442,
Friend.png,Stranger,Friend,m,3.2,19,29,99,,,,,1,0,1,0,,,,,3,0,36,5,,,,,,,,,,,,,,,,,,,,,1.625,1.375,685.7051990001928,None,,,,,,,,,,,,,,,,,,,,686.2504534001928,686.7498208000325,0.5132595698814839,1.0133137698285282,686.7498208000325,686.8496857001446,686.7498208000325,686.8496857001446,686.8496857001446,None,m,1,0.7057991998735815,686.8496857001446,None,,,,,,33,p19,2022_Apr_27_1710,training+cueing,2021.1.4,59.74500831036442,
Stranger.png,Friend,Stranger,m,2.3,17,27,97,,,,,1,0,1,0,,,,,3,1,37,7,,,,,,,,,,,,,,,,,,,,,1.442,2.132,687.6889055999927,None,,,,,,,,,,,,,,,,,,,,688.2312609001528,688.7344221000094,0.505151969846338,1.0061552699189633,688.7177361000795,688.8345819001552,688.7177361000795,688.8345819001552,688.8177385001909,None,c,0,0.7219229000620544,688.8177385001909,None,,,,,,33,p19,2022_Apr_27_1710,training+cueing,2021.1.4,59.74500831036442,
Friend.png,Friend,Friend,c,2,12,22,92,,,,,1,0,1,0,,,,,3,2,38,10,,,,,,,,,,,,,,,,,,,,,1.562,1.521,689.6759796000551,None,,,,,,,,,,,,,,,,,,,,690.2130532001611,690.7192135001533,0.512590569909662,1.0128873700741678,690.7024915001821,690.8192311001476,690.7024915001821,690.8192311001476,690.8025359001476,None,c,1,0.5450900001451373,690.8025359001476,None,,,,,,33,p19,2022_Apr_27_1710,training+cueing,2021.1.4,59.74500831036442,
Self.png,Friend,Self ,m,2.1,16,26,96,,,,,1,0,1,0,,,,,3,3,39,1,,,,,,,,,,,,,,,,,,,,,1.511,2.306,691.4761499001179,None,,,,,,,,,,,,,,,,,,,,692.0134370001033,692.5205154002178,0.5114122699014843,1.0116188700776547,692.5038303001784,692.620513800066,692.5038303001784,692.620513800066,692.6038248999976,None,m,1,0.5677135000005364,692.6038248999976,None,,,,,,33,p19,2022_Apr_27_1710,training+cueing,2021.1.4,59.74500831036442,
Self.png,Stranger,Self ,m,3.1,18,28,98,,,,,1,0,1,0,,,,,3,4,40,2,,,,,,,,,,,,,,,,,,,,,1.491,2.495,693.2940585000906,None,,,,,,,,,,,,,,,,,,,,693.8358802001458,694.3384885000996,0.5059340698644519,1.0061454698443413,694.3218262000009,694.438508399995,694.3218262000009,694.438508399995,694.4217778001912,None,m,1,0.541838499950245,694.4217778001912,None,,,,,,33,p19,2022_Apr_27_1710,training+cueing,2021.1.4,59.74500831036442,
Friend.png,Friend,Friend,c,2,12,22,92,,,,,1,0,1,0,,,,,3,5,41,4,,,,,,,,,,,,,,,,,,,,,1.522,1.791,695.095500000054,None,,,,,,,,,,,,,,,,,,,,695.6359439000953,696.1397391001228,0.5079232701100409,1.0082416702061892,696.1230373000726,696.2398096001707,696.1230373000726,696.2398096001707,696.2231253001373,None,c,1,0.6764018000103533,696.2231253001373,None,,,,,,33,p19,2022_Apr_27_1710,training+cueing,2021.1.4,59.74500831036442,
Stranger.png,Stranger,Stranger,c,3,13,23,93,,,,,1,0,1,0,,,,,3,6,42,8,,,,,,,,,,,,,,,,,,,,,1.532,2.41,697.0299135001842,None,,,,,,,,,,,,,,,,,,,,697.5755694000982,698.091256899992,0.5125751697923988,1.0127108697779477,698.0746319000609,698.191225200193,698.0746319000609,698.191225200193,698.1745430000592,None,c,1,0.629036600003019,698.1745430000592,None,,,,,,33,p19,2022_Apr_27_1710,training+cueing,2021.1.4,59.74500831036442,
Friend.png,You,Friend,m,1.2,14,24,94,,,,,1,0,1,0,,,,,3,7,43,3,,,,,,,,,,,,,,,,,,,,,1.77,1.577,698.9314569002017,None,,,,,,,,,,,,,,,,,,,,699.4716097000055,699.975978200091,0.5090702699963003,1.00925716990605,699.9592628001701,700.0592167000286,699.9592628001701,700.0592167000286,700.0592167000286,None,m,1,0.5362937001045793,700.0592167000286,None,,,,,,33,p19,2022_Apr_27_1710,training+cueing,2021.1.4,59.74500831036442,
Stranger.png,Stranger,Stranger,c,3,13,23,93,,,,,1,0,1,0,,,,,3,8,44,11,,,,,,,,,,,,,,,,,,,,,1.599,1.909,700.7326685001608,None,,,,,,,,,,,,,,,,,,,,701.2731034001336,701.7771538000088,0.5051830697339028,1.006218469934538,701.7604873999953,701.8772307999898,701.7604873999953,701.8772307999898,701.8607184002176,None,c,1,0.7827924999874085,701.8607184002176,None,,,,,,33,p19,2022_Apr_27_1710,training+cueing,2021.1.4,59.74500831036442,
Self.png,You,Self ,c,1,11,21,91,,,,,1,0,1,0,,,,,3,9,45,9,,,,,,,,,,,,,,,,,,,,,1.624,1.879,702.7686237001326,None,,,,,,,,,,,,,,,,,,,,703.307891700184,703.8119582000654,0.506705170031637,1.00707297003828,703.7952680001035,703.8953187000006,703.7952680001035,703.8953187000006,703.8953187000006,None,c,1,0.572221000213176,703.8953187000006,None,,,,,,33,p19,2022_Apr_27_1710,training+cueing,2021.1.4,59.74500831036442,
Stranger.png,You,Stranger,m,1.3,15,25,95,,,,,1,0,1,0,,,,,3,10,46,6,,,,,,,,,,,,,,,,,,,,,1.712,2.107,704.60193730006,None,,,,,,,,,,,,,,,,,,,,705.1416633001063,705.6466897001956,0.5108565697446465,1.01084746979177,705.6301777001936,705.7299631000496,705.6301777001936,705.7299631000496,705.7299631000496,None,m,1,0.7535043000243604,705.7299631000496,None,,,,,,33,p19,2022_Apr_27_1710,training+cueing,2021.1.4,59.74500831036442,
Self.png,You,Self ,c,1,11,21,91,,,,,1,0,1,0,,,,,3,11,47,0,,,,,,,,,,,,,,,,,,,,,1.639,2.327,706.6202181000262,None,,,,,,,,,,,,,,,,,,,,707.1720417002216,707.6814018001314,0.4999774699099362,1.0002987699117512,707.6647654999979,707.764812100213,707.6647654999979,707.764812100213,707.764812100213,None,c,1,0.6388241001404822,707.764812100213,None,,,,,,33,p19,2022_Apr_27_1710,training+cueing,2021.1.4,59.74500831036442,
Stranger.png,Stranger,Stranger,c,3,13,23,93,,,,,1,0,1,0,,,,,4,0,48,11,,,,,,,,,,,,,,,,,,,,,1.675,1.257,708.5380636001937,None,,,,,,,,,,,,,,,,,,,,709.0801903000101,709.5827986001968,0.5051217700820416,1.0054107699543238,709.5661488000769,709.6828205999918,709.5661488000769,709.6828205999918,709.6661251999903,None,m,0,0.6415033999364823,709.6661251999903,None,,,,,,33,p19,2022_Apr_27_1710,training+cueing,2021.1.4,59.74500831036442,
Stranger.png,Friend,Stranger,m,2.3,17,27,97,,,,,1,0,1,0,,,,,4,1,49,7,,,,,,,,,,,,,,,,,,,,,1.573,1.951,710.439393900102,None,,,,,,,,,,,,,,,,,,,,710.9823710001074,711.4842852000147,0.5049680701922625,1.0052842700388283,711.4675845000893,711.5843029001262,711.4675845000893,711.5843029001262,711.5676427001599,None,m,1,0.7718193000182509,711.5676427001599,None,,,,,,33,p19,2022_Apr_27_1710,training+cueing,2021.1.4,59.74500831036442,
Self.png,Friend,Self ,m,2.1,16,26,96,,,,,1,0,1,0,,,,,4,2,50,1,,,,,,,,,,,,,,,,,,,,,1.433,1.347,712.4749345001765,None,,,,,,,,,,,,,,,,,,,,713.0118899000809,713.5189709002152,0.5114439700264484,1.0117483700159937,713.5022699001711,713.6190393001307,713.5022699001711,713.6190393001307,713.6023431001231,None,m,1,0.9771133000031114,713.6023431001231,None,,,,,,33,p19,2022_Apr_27_1710,training+cueing,2021.1.4,59.74500831036442,
Self.png,You,Self ,c,1,11,21,91,,,,,1,0,1,0,,,,,4,3,51,9,,,,,,,,,,,,,,,,,,,,,1.469,1.212,714.7097711001989,None,,,,,,,,,,,,,,,,,,,,715.2621389999986,715.7706234001089,0.5004589697346091,1.001303469762206,715.7539401000831,715.8539739002008,715.7539401000831,715.8539739002008,715.8539739002008,None,c,1,0.5496058000717312,715.8539739002008,None,,,,,,33,p19,2022_Apr_27_1710,training+cueing,2021.1.4,59.74500831036442,
Friend.png,Stranger,Friend,m,3.2,19,29,99,,,,,1,0,1,0,,,,,4,4,52,5,,,,,,,,,,,,,,,,,,,,,1.451,1.352,716.5280542001128,None,,,,,,,,,,,,,,,,,,,,717.0685103000142,717.5719024999999,0.5052324698772281,1.0056063698139042,717.5552431000397,717.6720261001028,717.5552431000397,717.6720261001028,717.6553446000908,None,m,1,0.6683569001033902,717.6553446000908,None,,,,,,33,p19,2022_Apr_27_1710,training+cueing,2021.1.4,59.74500831036442,
Friend.png,Friend,Friend,c,2,12,22,92,,,,,1,0,1,0,,,,,4,5,53,4,,,,,,,,,,,,,,,,,,,,,1.54,2.085,718.4494959001895,None,,,,,,,,,,,,,,,,,,,,718.9940759001765,719.5066182001028,0.508928369730711,1.0092222697567195,719.4899526000954,719.6066634000745,719.4899526000954,719.6066634000745,719.5899892000016,None,c,1,0.5254854999948293,719.5899892000016,None,,,,,,33,p19,2022_Apr_27_1710,training+cueing,2021.1.4,59.74500831036442,
Friend.png,Friend,Friend,c,2,12,22,92,,,,,1,0,1,0,,,,,4,6,54,10,,,,,,,,,,,,,,,,,,,,,1.568,1.431,720.2466422000434,None,,,,,,,,,,,,,,,,,,,,720.7866677001584,721.2912447000854,0.5100319699849933,1.0104875699616969,721.274571100017,721.3912826001178,721.274571100017,721.3912826001178,721.3745951000601,None,c,1,0.7090495000593364,721.3745951000601,None,,,,,,33,p19,2022_Apr_27_1710,training+cueing,2021.1.4,59.74500831036442,
Friend.png,You,Friend,m,1.2,14,24,94,,,,,1,0,1,0,,,,,4,7,55,3,,,,,,,,,,,,,,,,,,,,,1.413,2.119,722.2162018001545,None,,,,,,,,,,,,,,,,,,,,722.755799200153,723.2593367001973,0.5046657701022923,1.0049541702028364,723.2426840001717,723.3427039000671,723.2426840001717,723.3427039000671,723.3427039000671,None,m,1,0.8527041000779718,723.3427039000671,None,,,,,,33,p19,2022_Apr_27_1710,training+cueing,2021.1.4,59.74500831036442,
Self.png,Stranger,Self ,m,3.1,18,28,98,,,,,1,0,1,0,,,,,4,8,56,2,,,,,,,,,,,,,,,,,,,,,1.761,1.872,724.3328939999919,None,,,,,,,,,,,,,,,,,,,,724.872682500165,725.3775324001908,0.5098750698380172,1.0104095698334277,725.3608478000388,725.4780871002004,725.3608478000388,725.4780871002004,725.4608950000256,None,m,1,0.7345901001244783,725.4608950000256,None,,,,,,33,p19,2022_Apr_27_1710,training+cueing,2021.1.4,59.74500831036442,
Self.png,You,Self ,c,1,11,21,91,,,,,1,0,1,0,,,,,4,9,57,0,,,,,,,,,,,,,,,,,,,,,1.423,2.349,726.318878600141,None,,,,,,,,,,,,,,,,,,,,726.8603822002187,727.362326500006,0.504537969827652,1.004778569797054,727.345658000093,727.4456702000462,727.345658000093,727.4456702000462,727.4456702000462,None,c,1,0.573967200005427,727.4456702000462,None,,,,,,33,p19,2022_Apr_27_1710,training+cueing,2021.1.4,59.74500831036442,
Stranger.png,Stranger,Stranger,c,3,13,23,93,,,,,1,0,1,0,,,,,4,10,58,8,,,,,,,,,,,,,,,,,,,,,1.743,2.096,728.152351600118,None,,,,,,,,,,,,,,,,,,,,728.6910087000579,729.1969555001706,0.5104554700665176,1.0107031699735671,729.1803034001496,729.2969897000585,729.1803034001496,729.2969897000585,729.2803028000053,None,c,1,0.6592598999850452,729.2803028000053,None,,,,,,33,p19,2022_Apr_27_1710,training+cueing,2021.1.4,59.74500831036442,
Stranger.png,You,Stranger,m,1.3,15,25,95,,,,,1,0,1,0,,,,,4,11,59,6,,,,,,,,,,,,,,,,,,,,,1.549,1.553,730.0702273000497,None,,,,,,,,,,,,,,,,,,,,730.620903500123,731.1316831000149,0.5055196699686348,1.0058236699551344,731.1150244001765,731.2150353000034,731.1150244001765,731.2150353000034,731.2150353000034,None,m,1,0.6924331001937389,731.2150353000034,None,,,,,,33,p19,2022_Apr_27_1710,training+cueing,2021.1.4,59.74500831036442,
Friend.png,Stranger,Friend,m,3.2,19,29,99,,,,,1,0,1,0,,,,,5,0,60,5,,,,,,,,,,,,,,,,,,,,,1.665,1.294,732.0388429001905,None,,,,,,,,,,,,,,,,,,,,732.5792079002131,733.0832599001005,0.504607770126313,1.0048760699573904,733.0665779002011,733.1833034001756,733.0665779002011,733.1833034001756,733.1665871001314,None,c,0,0.5648914000485092,733.1665871001314,None,,,,,,33,p19,2022_Apr_27_1710,training+cueing,2021.1.4,59.74500831036442,
Stranger.png,You,Stranger,m,1.3,15,25,95,,,,,1,0,1,0,,,,,5,1,61,6,,,,,,,,,,,,,,,,,,,,,1.623,2.499,733.8574541001581,None,,,,,,,,,,,,,,,,,,,,734.3967049000785,734.9010891001672,0.5083298701792955,1.0088224702049047,734.8843859001063,734.9844459001906,734.8843859001063,734.9844459001906,734.9844459001906,None,m,1,0.731025299988687,734.9844459001906,None,,,,,,33,p19,2022_Apr_27_1710,training+cueing,2021.1.4,59.74500831036442,
Stranger.png,Stranger,Stranger,c,3,13,23,93,,,,,1,0,1,0,,,,,5,2,62,11,,,,,,,,,,,,,,,,,,,,,1.782,2.235,735.8421862001996,None,,,,,,,,,,,,,,,,,,,,736.3827547000255,736.8858002000488,0.504818569868803,1.005057669710368,736.8691805000417,736.9858839001972,736.8691805000417,736.9858839001972,736.969197000144,None,c,1,0.682168300030753,736.969197000144,None,,,,,,33,p19,2022_Apr_27_1710,training+cueing,2021.1.4,59.74500831036442,
Self.png,You,Self ,c,1,11,21,91,,,,,1,0,1,0,,,,,5,3,63,9,,,,,,,,,,,,,,,,,,,,,1.438,1.895,737.7760662999935,None,,,,,,,,,,,,,,,,,,,,738.3158929999918,738.8207653001882,0.5066052698530257,1.0068956699687988,738.8040185000282,738.9041116000153,738.8040185000282,738.9041116000153,738.9041116000153,None,c,1,0.5553534999489784,738.9041116000153,None,,,,,,33,p19,2022_Apr_27_1710,training+cueing,2021.1.4,59.74500831036442,
Friend.png,Friend,Friend,c,2,12,22,92,,,,,1,0,1,0,,,,,5,4,64,4,,,,,,,,,,,,,,,,,,,,,1.67,2.472,739.5945854000747,None,,,,,,,,,,,,,,,,,,,,740.1331035001203,740.638501000125,0.5109043701086193,1.011198370018974,740.6218637002166,740.7385978000239,740.6218637002166,740.7385978000239,740.7218910001684,None,c,1,0.8016184000298381,740.7218910001684,None,,,,,,33,p19,2022_Apr_27_1710,training+cueing,2021.1.4,59.74500831036442,
Friend.png,Friend,Friend,c,2,12,22,92,,,,,1,0,1,0,,,,,5,5,65,10,,,,,,,,,,,,,,,,,,,,,1.64,2.43,741.6449283000547,None,,,,,,,,,,,,,,,,,,,,742.1839038000908,742.6900204000995,0.5110475700348616,1.0119487699121237,742.6733592001256,742.7902252001222,742.6733592001256,742.7902252001222,742.7733991001733,None,c,1,0.7342813999857754,742.7733991001733,None,,,,,,33,p19,2022_Apr_27_1710,training+cueing,2021.1.4,59.74500831036442,
Self.png,You,Self ,c,1,11,21,91,,,,,1,0,1,0,,,,,5,6,66,0,,,,,,,,,,,,,,,,,,,,,1.551,1.276,743.6318948001135,None,,,,,,,,,,,,,,,,,,,,744.1702092001215,744.6747797001153,0.5064004701562226,1.0072639700956643,744.6581128002144,744.7581647001207,744.6581128002144,744.7581647001207,744.7581647001207,None,c,1,0.5733676000963897,744.7581647001207,None,,,,,,33,p19,2022_Apr_27_1710,training+cueing,2021.1.4,59.74500831036442,
Self.png,Stranger,Self ,m,3.1,18,28,98,,,,,1,0,1,0,,,,,5,7,67,2,,,,,,,,,,,,,,,,,,,,,1.444,1.919,745.4664521000814,None,,,,,,,,,,,,,,,,,,,,746.0089432001114,746.5094426001888,0.5004916701000184,1.0007827701047063,746.4927638000809,746.6096743000671,746.4927638000809,746.6096743000671,746.6096743000671,None,None,0,,746.6096743000671,None,,,,,,33,p19,2022_Apr_27_1710,training+cueing,2021.1.4,59.74500831036442,
Stranger.png,Friend,Stranger,m,2.3,17,27,97,,,,,1,0,1,0,,,,,5,8,68,7,,,,,,,,,,,,,,,,,,,,,1.626,1.637,748.1643534000032,None,,,,,,,,,,,,,,,,,,,,748.7076524000149,749.2114213001914,0.5054232699330896,1.0057045700959861,749.1947314001154,749.3114562002011,749.1947314001154,749.3114562002011,749.294746800093,None,c,0,0.644696099916473,749.294746800093,None,,,,,,33,p19,2022_Apr_27_1710,training+cueing,2021.1.4,59.74500831036442,
Friend.png,You,Friend,m,1.2,14,24,94,,,,,1,0,1,0,,,,,5,9,69,3,,,,,,,,,,,,,,,,,,,,,1.776,1.548,750.0681778001599,None,,,,,,,,,,,,,,,,,,,,750.6120699001476,751.1127705001272,0.5028669701423496,1.003175070276484,751.096097700065,751.1961448001675,751.096097700065,751.1961448001675,751.1961448001675,None,m,1,0.6955158000346273,751.1961448001675,None,,,,,,33,p19,2022_Apr_27_1710,training+cueing,2021.1.4,59.74500831036442,
Stranger.png,Stranger,Stranger,c,3,13,23,93,,,,,1,0,1,0,,,,,5,10,70,8,,,,,,,,,,,,,,,,,,,,,1.589,1.25,752.0192969001364,None,,,,,,,,,,,,,,,,,,,,752.5616187001579,753.0641975000035,0.5047491700388491,1.0050415701698512,753.0475658001378,753.1642360000405,753.0475658001378,753.1642360000405,753.1475766000804,None,c,1,0.7118351999670267,753.1475766000804,None,,,,,,33,p19,2022_Apr_27_1710,training+cueing,2021.1.4,59.74500831036442,
Self.png,Friend,Self ,m,2.1,16,26,96,,,,,1,0,1,0,,,,,5,11,71,1,,,,,,,,,,,,,,,,,,,,,1.587,1.308,753.9875889001414,None,,,,,,,,,,,,,,,,,,,,754.5272256000899,755.0322881001048,0.5076659698970616,1.0079830698668957,755.0155790001154,755.1323088000063,755.0155790001154,755.1323088000063,755.1156179001555,None,m,1,0.8400041998829693,755.1156179001555,None,,,,,,33,p19,2022_Apr_27_1710,training+cueing,2021.1.4,59.74500831036442,
Stranger.png,Stranger,Stranger,c,3,13,23,93,,,,,1,0,1,0,,,,,6,0,72,8,,,,,,,,,,,,,,,,,,,,,1.564,1.695,756.0928202001378,None,,,,,,,,,,,,,,,,,,,,756.6321258000098,757.1339052000549,0.5050621700938791,1.0058026700280607,757.1172359001357,757.2339561001863,757.1172359001357,757.2339561001863,757.2172483000904,None,c,1,0.8182328999973834,757.2172483000904,None,,,,,,33,p19,2022_Apr_27_1710,training+cueing,2021.1.4,59.74500831036442,
Stranger.png,Stranger,Stranger,c,3,13,23,93,,,,,1,0,1,0,,,,,6,1,73,11,,,,,,,,,,,,,,,,,,,,,1.413,2.154,758.1589989000931,None,,,,,,,,,,,,,,,,,,,,758.6981226000935,759.2020579001401,0.507380069931969,1.0076433699578047,759.1854343002196,759.3021671001334,759.1854343002196,759.3021671001334,759.2854714000132,None,c,1,0.6380364000797272,759.2854714000132,None,,,,,,33,p19,2022_Apr_27_1710,training+cueing,2021.1.4,59.74500831036442,
Self.png,You,Self ,c,1,11,21,91,,,,,1,0,1,0,,,,,6,2,74,9,,,,,,,,,,,,,,,,,,,,,1.767,2.257,760.0592637001537,None,,,,,,,,,,,,,,,,,,,,760.5973630000371,761.1032953001559,0.5090138700325042,1.009327769977972,761.0866496001836,761.1867391001433,761.0866496001836,761.1867391001433,761.1867391001433,None,c,1,0.5926932999864221,761.1867391001433,None,,,,,,33,p19,2022_Apr_27_1710,training+cueing,2021.1.4,59.74500831036442,
Stranger.png,Friend,Stranger,m,2.3,17,27,97,,,,,1,0,1,0,,,,,6,3,75,7,,,,,,,,,,,,,,,,,,,,,1.688,1.968,761.9098620000295,None,,,,,,,,,,,,,,,,,,,,762.4521565001924,762.9546806002036,0.5059876698069274,1.006223269738257,762.9380295001902,763.0547716000583,762.9380295001902,763.0547716000583,763.0380207002163,None,m,1,0.6454668999649584,763.0380207002163,None,,,,,,33,p19,2022_Apr_27_1710,training+cueing,2021.1.4,59.74500831036442,
Friend.png,Friend,Friend,c,2,12,22,92,,,,,1,0,1,0,,,,,6,4,76,10,,,,,,,,,,,,,,,,,,,,,1.599,2.325,763.8114830001723,None,,,,,,,,,,,,,,,,,,,,764.3489234000444,764.8560225002002,0.5120296699460596,1.012556369882077,764.8393435000908,764.9560463000089,764.8393435000908,764.9560463000089,764.9394104001112,None,c,1,0.6320027001202106,764.9394104001112,None,,,,,,33,p19,2022_Apr_27_1710,training+cueing,2021.1.4,59.74500831036442,
Stranger.png,You,Stranger,m,1.3,15,25,95,,,,,1,0,1,0,,,,,6,5,77,6,,,,,,,,,,,,,,,,,,,,,1.757,1.332,765.6996025000699,None,,,,,,,,,,,,,,,,,,,,766.2389607001096,766.740803200053,0.5034558700863272,1.00371726998128,766.7240604001563,766.8241278000642,766.7240604001563,766.8241278000642,766.8241278000642,None,m,1,0.6193446998950094,766.8241278000642,None,,,,,,33,p19,2022_Apr_27_1710,training+cueing,2021.1.4,59.74500831036442,
Self.png,You,Self ,c,1,11,21,91,,,,,1,0,1,0,,,,,6,6,78,0,,,,,,,,,,,,,,,,,,,,,1.514,1.858,767.5811531001236,None,,,,,,,,,,,,,,,,,,,,768.1190518999938,768.6254185000435,0.5128418698441237,1.0131211699917912,768.6087639001198,768.7088136000093,768.6087639001198,768.7088136000093,768.7088136000093,None,c,1,0.5585153000429273,768.7088136000093,None,,,,,,33,p19,2022_Apr_27_1710,training+cueing,2021.1.4,59.74500831036442,
Self.png,Stranger,Self ,m,3.1,18,28,98,,,,,1,0,1,0,,,,,6,7,79,2,,,,,,,,,,,,,,,,,,,,,1.607,1.735,769.3986575000454,None,,,,,,,,,,,,,,,,,,,,769.9398294000421,770.4433956001885,0.5044619699474424,1.0047564699780196,770.4267340002116,770.5434596000705,770.4267340002116,770.5434596000705,770.526760000037,None,m,1,0.9967219000682235,770.526760000037,None,,,,,,33,p19,2022_Apr_27_1710,training+cueing,2021.1.4,59.74500831036442,
Friend.png,Friend,Friend,c,2,12,22,92,,,,,1,0,1,0,,,,,6,8,80,4,,,,,,,,,,,,,,,,,,,,,1.586,2.002,771.6497919000685,None,,,,,,,,,,,,,,,,,,,,772.1894997002091,772.69503430021,0.5108970699366182,1.0112494700588286,772.6783860002179,772.7950808000751,772.6783860002179,772.7950808000751,772.7783837001771,None,c,1,0.6009951999876648,772.7783837001771,None,,,,,,33,p19,2022_Apr_27_1710,training+cueing,2021.1.4,59.74500831036442,
Self.png,Friend,Self ,m,2.1,16,26,96,,,,,1,0,1,0,,,,,6,9,81,1,,,,,,,,,,,,,,,,,,,,,1.612,1.458,773.5023711000104,None,,,,,,,,,,,,,,,,,,,,774.04056520015,774.5463344000746,0.511895070085302,1.0122129700612277,774.5296726000961,774.6464180001058,774.5296726000961,774.6464180001058,774.6297093001194,None,m,1,0.6377574999351054,774.6297093001194,None,,,,,,33,p19,2022_Apr_27_1710,training+cueing,2021.1.4,59.74500831036442,
Friend.png,You,Friend,m,1.2,14,24,94,,,,,1,0,1,0,,,,,6,10,82,3,,,,,,,,,,,,,,,,,,,,,1.645,1.638,775.4031770001166,None,,,,,,,,,,,,,,,,,,,,775.942716000136,776.4477193001658,0.5070426699239761,1.0075619700364769,776.4310639000032,776.5311442001257,776.4310639000032,776.5311442001257,776.5311442001257,None,m,1,0.5762805000413209,776.5311442001257,None,,,,,,33,p19,2022_Apr_27_1710,training+cueing,2021.1.4,59.74500831036442,
Friend.png,Stranger,Friend,m,3.2,19,29,99,,,,,1,0,1,0,,,,,6,11,83,5,,,,,,,,,,,,,,,,,,,,,1.724,1.439,777.2391016001347,None,,,,,,,,,,,,,,,,,,,,777.7821301000658,778.2824399000965,0.5010000700131059,1.0012193699367344,778.2657607002184,778.3825678001158,778.2657607002184,778.3825678001158,778.3825678001158,None,m,1,0.6767605999484658,778.3825678001158,None,,,,,,33,p19,2022_Apr_27_1710,training+cueing,2021.1.4,59.74500831036442,
