Image,Name,Face,CorrAns,Match,Face_onset,CResponse_onset,IResponse_onset,Match.thisRepN,Match.thisTrialN,Match.thisN,Match.thisIndex,Blocks.thisRepN,Blocks.thisTrialN,Blocks.thisN,Blocks.thisIndex,trials.thisRepN,trials.thisTrialN,trials.thisN,trials.thisIndex,trials_2.thisRepN,trials_2.thisTrialN,trials_2.thisN,trials_2.thisIndex,text.started,text.stopped,p1.started,p1.stopped,MatchInstructions.started,MatchInstructions.stopped,Name1.started,Name1.stopped,Face_Relevance.started,Face_Relevance.stopped,MismatchInstructions.started,MismatchInstructions.stopped,Rest_trainingInstruct.started,Rest_trainingInstruct.stopped,next8.keys,next8.rt,next8.started,next8.stopped,Ready.started,Ready.stopped,delay_one_picked,delay_two_picked,blank0.started,blank0.stopped,FixationCross1.started,FixationCross1.stopped,Name3.started,Name3.stopped,Face_Relevance3.started,Face_Relevance3.stopped,responseTime.started,responseTime.stopped,resp.keys,resp.corr,resp.rt,resp.started,resp.stopped,Accuracy.started,Accuracy.stopped,questions.started,questions.stopped,p2.started,p2.stopped,FixationCross3.started,FixationCross3.stopped,port_Face_onset.started,port_Face_onset.stopped,Name4.started,Name4.stopped,Face_Relevance4.started,Face_Relevance4.stopped,responseTime2.started,responseTime2.stopped,Response.keys,Response.corr,Response.rt,Response.started,Response.stopped,p3.started,p3.stopped,Finish.started,Finish.stopped,gender,age,participant,date,expName,psychopyVersion,frameRate,
Stranger.png,Stranger,,,,,,,0,0,0,2,,,,,,,,,,,,,9.92334479978308,None,0.012222701217979193,0.5387546010315418,11.904533799737692,None,14.053898099809885,None,14.053898099809885,None,,,,,,,,,,,,,,,,,,,,,,,,,,,,,,,,,,,,,,,,,,,,,,,,,,,,,,,p1,2022_May_12_1320,training+cueing,2021.1.4,59.996532160066586,
Friend.png,Friend,,,,,,,0,1,1,1,,,,,,,,,,,,,,,,,,,33.958766099996865,None,33.958766099996865,None,,,,,,,,,,,,,,,,,,,,,,,,,,,,,,,,,,,,,,,,,,,,,,,,,,,,,,,p1,2022_May_12_1320,training+cueing,2021.1.4,59.996532160066586,
Self.png,You,,,,,,,0,2,2,0,,,,,,,,,,,,,,,,,,,53.952428499702364,None,53.952428499702364,None,,,,,,,,,,,,,,,,,,,,,,,,,,,,,,,,,,,,,,,,,,,,,,,,,,,,,,,p1,2022_May_12_1320,training+cueing,2021.1.4,59.996532160066586,
Stranger.png,You,Stranger,m,1.3,15,25,95,,,,,0,0,0,0,0,0,0,6,,,,,,,,,,,,,,,73.91544849984348,None,80.92048199987039,None,space,-0.11482389969751239,2.0084742000326514,None,82.92210489977151,None,1.589,2.149,85.93785389978439,None,86.57029759977013,87.0749117997475,87.05824310006574,87.15825490001589,87.05824310006574,87.15825490001589,87.15825490001589,None,m,1,0.5445371000096202,87.15825490001589,None,87.73690970009193,None,,,,,,,,,,,,,,,,,,,,,,,,,,p1,2022_May_12_1320,training+cueing,2021.1.4,59.996532160066586,
Friend.png,You,Friend,m,1.2,14,24,94,,,,,0,0,0,0,0,1,1,3,,,,,,,,,,,,,,,,,,,,,,,,,1.771,1.964,88.14242709986866,None,88.67559169977903,89.17650769976899,89.15985389985144,89.25985459983349,89.15985389985144,89.25985459983349,89.25985459983349,None,m,1,0.5386499003507197,89.25985459983349,None,89.8269781996496,None,,,,,,,,,,,,,,,,,,,,,,,,,,p1,2022_May_12_1320,training+cueing,2021.1.4,59.996532160066586,
Stranger.png,Stranger,Stranger,c,3,13,23,93,,,,,0,0,0,0,0,2,2,11,,,,,,,,,,,,,,,,,,,,,,,,,1.739,1.323,90.2272312999703,None,90.7636091997847,91.27799819968641,91.26131389988586,91.37859939970076,91.26131389988586,91.37859939970076,91.36185849970207,None,c,1,0.3087213998660445,91.36185849970207,None,91.69342539971694,None,,,,,,,,,,,,,,,,,,,,,,,,,,p1,2022_May_12_1320,training+cueing,2021.1.4,59.996532160066586,
Friend.png,Friend,Friend,c,2,12,22,92,,,,,0,0,0,0,0,3,3,4,,,,,,,,,,,,,,,,,,,,,,,,,1.754,1.538,92.09535919968039,None,92.63207369996235,93.14597760001197,93.12938819965348,93.24598190002143,93.12938819965348,93.24598190002143,93.22930980008096,None,m,0,0.489355799742043,93.22930980008096,None,93.74682480003685,None,,,,,,,,,,,,,,,,,,,,,,,,,,p1,2022_May_12_1320,training+cueing,2021.1.4,59.996532160066586,
Friend.png,Friend,Friend,c,2,12,22,92,,,,,0,0,0,0,0,4,4,10,,,,,,,,,,,,,,,,,,,,,,,,,1.419,1.62,94.14672289974988,None,94.68936070008203,95.197399799712,95.16409129975364,95.26413619983941,95.16409129975364,95.26413619983941,95.26413619983941,None,c,1,0.5026660999283195,95.26413619983941,None,95.78750499989837,None,,,,,,,,,,,,,,,,,,,,,,,,,,p1,2022_May_12_1320,training+cueing,2021.1.4,59.996532160066586,
Stranger.png,Friend,Stranger,m,2.3,17,27,97,,,,,0,0,0,0,0,5,5,7,,,,,,,,,,,,,,,,,,,,,,,,,1.537,1.918,96.19836639985442,None,96.73443099996075,97.24908029986545,97.23243719991297,97.34908799966797,97.23243719991297,97.34908799966797,97.33237709989771,None,m,1,0.5784022998996079,97.33237709989771,None,97.93516799993813,None,,,,,,,,,,,,,,,,,,,,,,,,,,p1,2022_May_12_1320,training+cueing,2021.1.4,59.996532160066586,
Self.png,Friend,Self ,m,2.1,16,26,96,,,,,0,0,0,0,0,6,6,1,,,,,,,,,,,,,,,,,,,,,,,,,1.644,2.119,98.34986189985648,None,98.88720669969916,99.40047289989889,99.38376199966297,99.50052319979295,99.38376199966297,99.50052319979295,99.48382179997861,None,m,1,0.5070357001386583,99.48382179997861,None,100.01603739988059,None,,,,,,,,,,,,,,,,,,,,,,,,,,p1,2022_May_12_1320,training+cueing,2021.1.4,59.996532160066586,
Self.png,You,Self ,c,1,11,21,91,,,,,0,0,0,0,0,7,7,0,,,,,,,,,,,,,,,,,,,,,,,,,1.441,1.596,100.41846619965509,None,100.95942689990625,101.46864710003138,101.4519491000101,101.55198219977319,101.4519491000101,101.55198219977319,101.55198219977319,None,m,0,0.6305292998440564,101.55198219977319,None,102.20258409995586,None,,,,,,,,,,,,,,,,,,,,,,,,,,p1,2022_May_12_1320,training+cueing,2021.1.4,59.996532160066586,
Stranger.png,Stranger,Stranger,c,3,13,23,93,,,,,0,0,0,0,0,8,8,8,,,,,,,,,,,,,,,,,,,,,,,,,1.424,1.799,102.60298309987411,None,103.13742489973083,103.63685629982501,103.63685629982501,103.73693289980292,103.63685629982501,103.73693289980292,103.73693289980292,None,c,1,0.7014639000408351,103.73693289980292,None,104.45297369966283,None,,,,,,,,,,,,,,,,,,,,,,,,,,p1,2022_May_12_1320,training+cueing,2021.1.4,59.996532160066586,
Self.png,You,Self ,c,1,11,21,91,,,,,0,0,0,0,0,9,9,9,,,,,,,,,,,,,,,,,,,,,,,,,1.594,1.743,104.85439960006624,None,105.38709399988875,105.88848809991032,105.87184729985893,105.97186589986086,105.87184729985893,105.97186589986086,105.97186589986086,None,m,0,0.49852109979838133,105.97186589986086,None,106.4882371998392,None,,,,,,,,,,,,,,,,,,,,,,,,,,p1,2022_May_12_1320,training+cueing,2021.1.4,59.996532160066586,
Friend.png,Stranger,Friend,m,3.2,19,29,99,,,,,0,0,0,0,0,10,10,5,,,,,,,,,,,,,,,,,,,,,,,,,1.423,2.356,106.88935079984367,None,107.42671180004254,107.93999349977821,107.92336639994755,108.04004909982905,107.92336639994755,108.04004909982905,108.02336889971048,None,m,1,0.6392818000167608,108.02336889971048,None,108.68957879999653,None,,,,,,,,,,,,,,,,,,,,,,,,,,p1,2022_May_12_1320,training+cueing,2021.1.4,59.996532160066586,
Self.png,Stranger,Self ,m,3.1,18,28,98,,,,,0,0,0,0,0,11,11,2,,,,,,,,,,,,,,,,,,,,,,,,,1.554,2.417,109.09083430003375,None,109.63124329969287,110.14157880004495,110.12498839991167,110.24159839982167,110.12498839991167,110.24159839982167,110.24159839982167,None,m,1,0.660869600251317,110.24159839982167,None,110.92547649983317,None,,,,,,,,,,,,,,,,,,,,,,,,,,p1,2022_May_12_1320,training+cueing,2021.1.4,59.996532160066586,
Stranger.png,You,Stranger,m,1.3,15,25,95,,,,,0,0,0,0,,,,,0,0,0,6,,,,,,,,,,,,,,,,,,,147.00165629992262,None,1.569,2.316,150.53423349978402,None,,,,,,,,,,,,,,,,111.3257909999229,None,0.014355199411511421,0.5128384996205568,151.15051240008324,151.65507509978488,0.5082020009867847,1.008036500774324,151.63856709981337,151.73831119993702,151.63856709981337,151.73831119993702,151.73831119993702,None,m,1,0.620017200242728,151.73831119993702,None,,,,,,,p1,2022_May_12_1320,training+cueing,2021.1.4,59.996532160066586,
Friend.png,Friend,Friend,c,2,12,22,92,,,,,0,0,0,0,,,,,0,1,1,4,,,,,,,,,,,,,,,,,,,,,1.699,1.75,152.49613970005885,None,,,,,,,,,,,,,,,,,,,,153.03687259973958,153.53978780005127,0.5059307999908924,1.0069526000879705,153.52293249964714,153.63964679976925,153.52293249964714,153.63964679976925,153.6229632999748,None,c,1,0.6236394001170993,153.6229632999748,None,,,,,,,p1,2022_May_12_1320,training+cueing,2021.1.4,59.996532160066586,
Self.png,You,Self ,c,1,11,21,91,,,,,0,0,0,0,,,,,0,2,2,9,,,,,,,,,,,,,,,,,,,,,1.582,1.814,154.38162510003895,None,,,,,,,,,,,,,,,,,,,,154.92162630008534,155.42463949974626,0.5053181000985205,1.0055786999873817,155.40776439988986,155.50776699976996,155.40776439988986,155.50776699976996,155.50776699976996,None,m,0,0.46687780041247606,155.50776699976996,None,,,,,,,p1,2022_May_12_1320,training+cueing,2021.1.4,59.996532160066586,
Self.png,Stranger,Self ,m,3.1,18,28,98,,,,,0,0,0,0,,,,,0,3,3,2,,,,,,,,,,,,,,,,,,,,,1.57,2.078,156.09858699981123,None,,,,,,,,,,,,,,,,,,,,156.6384815997444,157.14225309994072,0.5051051997579634,1.0053750001825392,157.12553850002587,157.24227909976617,157.12553850002587,157.24227909976617,157.22553029982373,None,m,1,0.6848796000704169,157.22553029982373,None,,,,,,,p1,2022_May_12_1320,training+cueing,2021.1.4,59.996532160066586,
Stranger.png,Friend,Stranger,m,2.3,17,27,97,,,,,0,0,0,0,,,,,0,4,4,7,,,,,,,,,,,,,,,,,,,,,1.402,2.474,158.0320782000199,None,,,,,,,,,,,,,,,,,,,,158.57236619992182,159.07700629997998,0.5080999997444451,1.008420899976045,159.06024560006335,159.1769759999588,159.06024560006335,159.1769759999588,159.1602798998356,None,c,0,0.5741971000097692,159.1602798998356,None,,,,,,,p1,2022_May_12_1320,training+cueing,2021.1.4,59.996532160066586,
Self.png,Friend,Self ,m,2.1,16,26,96,,,,,0,0,0,0,,,,,0,5,5,1,,,,,,,,,,,,,,,,,,,,,1.774,2.039,159.86685979971662,None,,,,,,,,,,,,,,,,,,,,160.40536359976977,160.91159769985825,0.512047799769789,1.012319799978286,160.89497449994087,161.01162160001695,160.89497449994087,161.01162160001695,160.99493240006268,None,m,1,0.5794236999936402,160.99493240006268,None,,,,,,,p1,2022_May_12_1320,training+cueing,2021.1.4,59.996532160066586,
Friend.png,Stranger,Friend,m,3.2,19,29,99,,,,,0,0,0,0,,,,,0,6,6,5,,,,,,,,,,,,,,,,,,,,,1.657,2.425,161.7019187998958,None,,,,,,,,,,,,,,,,,,,,162.24086140003055,162.74622510001063,0.5089768003672361,1.0092556001618505,162.7295519998297,162.84631709987298,162.7295519998297,162.84631709987298,162.82960769999772,None,c,0,0.6487862002104521,162.82960769999772,None,,,,,,,p1,2022_May_12_1320,training+cueing,2021.1.4,59.996532160066586,
Stranger.png,Stranger,Stranger,c,3,13,23,93,,,,,0,0,0,0,,,,,0,7,7,11,,,,,,,,,,,,,,,,,,,,,1.543,2.029,163.60327180009335,None,,,,,,,,,,,,,,,,,,,,164.147793199867,164.64759639976546,0.5003022998571396,1.0007020998746157,164.63093469990417,164.74769119964913,164.63093469990417,164.74769119964913,164.74769119964913,None,c,1,0.7469652998261154,164.74769119964913,None,,,,,,,p1,2022_May_12_1320,training+cueing,2021.1.4,59.996532160066586,
Friend.png,You,Friend,m,1.2,14,24,94,,,,,0,0,0,0,,,,,0,8,8,3,,,,,,,,,,,,,,,,,,,,,1.51,2.41,165.62450219970196,None,,,,,,,,,,,,,,,,,,,,166.16143189975992,166.66572450008243,0.5060556996613741,1.0063538998365402,166.64906059997156,166.7493342999369,166.64906059997156,166.7493342999369,166.7493342999369,None,m,1,0.7769945999607444,166.7493342999369,None,,,,,,,p1,2022_May_12_1320,training+cueing,2021.1.4,59.996532160066586,
Friend.png,Friend,Friend,c,2,12,22,92,,,,,0,0,0,0,,,,,0,9,9,10,,,,,,,,,,,,,,,,,,,,,1.61,1.656,167.65587690006942,None,,,,,,,,,,,,,,,,,,,,168.19778139982373,168.70057199988514,0.5070035001263022,1.0072760004550219,168.68390560010448,168.80062090000138,168.68390560010448,168.80062090000138,168.7839154000394,None,m,0,0.7264453996904194,168.7839154000394,None,,,,,,,p1,2022_May_12_1320,training+cueing,2021.1.4,59.996532160066586,
Self.png,You,Self ,c,1,11,21,91,,,,,0,0,0,0,,,,,0,10,10,0,,,,,,,,,,,,,,,,,,,,,1.655,2.098,169.64022359997034,None,,,,,,,,,,,,,,,,,,,,170.18371859984472,170.68537049973384,0.5034511000849307,1.003734600264579,170.66865399992093,170.7687005000189,170.66865399992093,170.7687005000189,170.7687005000189,None,c,1,0.9176270002499223,170.7687005000189,None,,,,,,,p1,2022_May_12_1320,training+cueing,2021.1.4,59.996532160066586,
Stranger.png,Stranger,Stranger,c,3,13,23,93,,,,,0,0,0,0,,,,,0,11,11,8,,,,,,,,,,,,,,,,,,,,,1.452,1.753,171.80901189986616,None,,,,,,,,,,,,,,,,,,,,172.34802719997242,172.85359669988975,0.5087906997650862,1.00907939998433,172.83688469976187,172.95361429965124,172.83688469976187,172.95361429965124,172.93691399972886,None,c,1,0.8295229999348521,172.93691399972886,None,,,,,,,p1,2022_May_12_1320,training+cueing,2021.1.4,59.996532160066586,
Self.png,Stranger,Self ,m,3.1,18,28,98,,,,,0,0,0,0,,,,,1,0,12,2,,,,,,,,,,,,,,,,,,,,,1.463,1.214,173.89353769971058,None,,,,,,,,,,,,,,,,,,,,174.43266499973834,174.9384025996551,0.5117041999474168,1.0119791999459267,174.92172569967806,175.03865509992465,174.92172569967806,175.03865509992465,175.02175699966028,None,m,1,0.536644000094384,175.02175699966028,None,,,,,,,p1,2022_May_12_1320,training+cueing,2021.1.4,59.996532160066586,
Friend.png,Stranger,Friend,m,3.2,19,29,99,,,,,0,0,0,0,,,,,1,1,13,5,,,,,,,,,,,,,,,,,,,,,1.556,1.379,175.69463919987902,None,,,,,,,,,,,,,,,,,,,,176.24304590001702,176.75666619976982,0.5093861003406346,1.0096508003771305,176.73989450000226,176.85661139991134,176.73989450000226,176.85661139991134,176.8398930998519,None,m,1,0.6706007001921535,176.8398930998519,None,,,,,,,p1,2022_May_12_1320,training+cueing,2021.1.4,59.996532160066586,
Stranger.png,Friend,Stranger,m,2.3,17,27,97,,,,,0,0,0,0,,,,,1,2,14,7,,,,,,,,,,,,,,,,,,,,,1.7,1.915,177.64792739972472,None,,,,,,,,,,,,,,,,,,,,178.19140799995512,178.69115739967674,0.5145902996882796,1.0148175996728241,178.69115739967674,178.79113809997216,178.69115739967674,178.79113809997216,178.79113809997216,None,c,0,0.5272880997508764,178.79113809997216,None,,,,,,,p1,2022_May_12_1320,training+cueing,2021.1.4,59.996532160066586,
Self.png,You,Self ,c,1,11,21,91,,,,,0,0,0,0,,,,,1,3,15,0,,,,,,,,,,,,,,,,,,,,,1.42,1.626,179.44750399980694,None,,,,,,,,,,,,,,,,,,,,179.98651729989797,180.4924070998095,0.5113993999548256,1.0116980001330376,180.47573269996792,180.5758124999702,180.47573269996792,180.5758124999702,180.5758124999702,None,c,1,0.5345564000308514,180.5758124999702,None,,,,,,,p1,2022_May_12_1320,training+cueing,2021.1.4,59.996532160066586,
Friend.png,Friend,Friend,c,2,12,22,92,,,,,0,0,0,0,,,,,1,4,16,4,,,,,,,,,,,,,,,,,,,,,1.759,2.407,181.23304249998182,None,,,,,,,,,,,,,,,,,,,,181.77290030010045,182.27704360010102,0.5069344001822174,1.007181300316006,182.2604068000801,182.3771087997593,182.2604068000801,182.3771087997593,182.36038909992203,None,m,0,0.5259762001223862,182.36038909992203,None,,,,,,,p1,2022_May_12_1320,training+cueing,2021.1.4,59.996532160066586,
Friend.png,You,Friend,m,1.2,14,24,94,,,,,0,0,0,0,,,,,1,5,17,3,,,,,,,,,,,,,,,,,,,,,1.498,2.441,183.0169150000438,None,,,,,,,,,,,,,,,,,,,,183.55827429983765,184.06167389964685,0.5073970002122223,None,184.04500370007008,184.1450092997402,184.04500370007008,184.1450092997402,184.1450092997402,None,c,0,0.24547199998050928,184.1450092997402,None,,,,,,,p1,2022_May_12_1320,training+cueing,2021.1.4,59.996532160066586,
Stranger.png,Stranger,Stranger,c,3,13,23,93,,,,,0,0,0,0,,,,,1,6,18,8,,,,,,,,,,,,,,,,,,,,,1.407,1.423,184.51978879980743,None,,,,,,,,,,,,,,,,,,,,185.06151799997315,185.56276379991323,0.5030093998648226,1.0032966998405755,185.54606679966673,185.6628331998363,185.54606679966673,185.6628331998363,185.64625289989635,None,m,0,0.824103600345552,185.64625289989635,None,,,,,,,p1,2022_May_12_1320,training+cueing,2021.1.4,59.996532160066586,
Stranger.png,Stranger,Stranger,c,3,13,23,93,,,,,0,0,0,0,,,,,1,7,19,11,,,,,,,,,,,,,,,,,,,,,1.707,1.765,186.60296420007944,None,,,,,,,,,,,,,,,,,,,,187.1494495999068,187.66430239984766,0.5109256999567151,None,187.64761359989643,187.76432519964874,187.64761359989643,187.76432519964874,187.74760679993778,None,c,1,0.24326290003955364,187.74760679993778,None,,,,,,,p1,2022_May_12_1320,training+cueing,2021.1.4,59.996532160066586,
Self.png,Friend,Self ,m,2.1,16,26,96,,,,,0,0,0,0,,,,,1,8,20,1,,,,,,,,,,,,,,,,,,,,,1.438,1.498,188.12187909986824,None,,,,,,,,,,,,,,,,,,,,188.6796993999742,189.182283999864,0.5065560000948608,1.006869500502944,189.16562459990382,189.28231339994818,189.16562459990382,189.28231339994818,189.2656903997995,None,m,1,0.6606759997084737,189.2656903997995,None,,,,,,,p1,2022_May_12_1320,training+cueing,2021.1.4,59.996532160066586,
Self.png,You,Self ,c,1,11,21,91,,,,,0,0,0,0,,,,,1,9,21,9,,,,,,,,,,,,,,,,,,,,,1.48,1.303,190.05627669999376,None,,,,,,,,,,,,,,,,,,,,190.59648799989372,191.1000715000555,0.506018899846822,1.0063331997953355,191.0834069000557,191.1834593997337,191.0834069000557,191.1834593997337,191.1834593997337,None,c,1,0.694883800111711,191.1834593997337,None,,,,,,,p1,2022_May_12_1320,training+cueing,2021.1.4,59.996532160066586,
Friend.png,Friend,Friend,c,2,12,22,92,,,,,0,0,0,0,,,,,1,10,22,10,,,,,,,,,,,,,,,,,,,,,1.779,2.428,192.0074113998562,None,,,,,,,,,,,,,,,,,,,,192.5477159996517,193.05161489965394,0.5055148997344077,1.0057669999077916,193.03493470000103,193.15155429998413,193.03493470000103,193.15155429998413,193.13486079964787,None,m,0,0.6478001000359654,193.13486079964787,None,,,,,,,p1,2022_May_12_1320,training+cueing,2021.1.4,59.996532160066586,
Stranger.png,You,Stranger,m,1.3,15,25,95,,,,,0,0,0,0,,,,,1,11,23,6,,,,,,,,,,,,,,,,,,,,,1.724,2.291,193.91203260002658,None,,,,,,,,,,,,,,,,,,,,194.4505900000222,194.95287409983575,0.5058655999600887,1.0061647002585232,194.93617879971862,195.0362370996736,194.93617879971862,195.0362370996736,195.0362370996736,None,c,0,0.61809610016644,195.0362370996736,None,,,,,,,p1,2022_May_12_1320,training+cueing,2021.1.4,59.996532160066586,
Self.png,Friend,Self ,m,2.1,16,26,96,,,,,0,0,0,0,,,,,2,0,24,1,,,,,,,,,,,,,,,,,,,,,1.472,1.368,195.77637049974874,None,,,,,,,,,,,,,,,,,,,,196.3167996997945,196.82092749979347,0.5064959996379912,1.0068000997416675,196.80421769991517,196.92095969989896,196.80421769991517,196.92095969989896,196.90421609999612,None,m,1,0.5582109000533819,196.90421609999612,None,,,,,,,p1,2022_May_12_1320,training+cueing,2021.1.4,59.996532160066586,
Stranger.png,Stranger,Stranger,c,3,13,23,93,,,,,0,0,0,0,,,,,2,1,25,8,,,,,,,,,,,,,,,,,,,,,1.524,2.406,197.5944996997714,None,,,,,,,,,,,,,,,,,,,,198.14261129964143,198.65554059995338,0.5095715001225471,1.0098837004043162,198.63888800004497,198.75557739986107,198.63888800004497,198.75557739986107,198.73890569992363,None,c,1,0.6435282002203166,198.73890569992363,None,,,,,,,p1,2022_May_12_1320,training+cueing,2021.1.4,59.996532160066586,
Friend.png,Friend,Friend,c,2,12,22,92,,,,,0,0,0,0,,,,,2,2,26,4,,,,,,,,,,,,,,,,,,,,,1.652,1.425,199.51270329998806,None,,,,,,,,,,,,,,,,,,,,200.05428979964927,200.55711079994217,0.5068529997952282,1.0071237995289266,200.5404261997901,200.65712599968538,200.5404261997901,200.65712599968538,200.64043430006132,None,m,0,0.6939449002966285,200.64043430006132,None,,,,,,,p1,2022_May_12_1320,training+cueing,2021.1.4,59.996532160066586,
Stranger.png,You,Stranger,m,1.3,15,25,95,,,,,0,0,0,0,,,,,2,3,27,6,,,,,,,,,,,,,,,,,,,,,1.419,1.987,201.46465809969231,None,,,,,,,,,,,,,,,,,,,,202.00950630009174,202.5250115999952,0.5127443997189403,1.0130595001392066,202.50834179995582,202.60839749965817,202.50834179995582,202.60839749965817,202.60839749965817,None,c,0,0.46991970017552376,202.60839749965817,None,,,,,,,p1,2022_May_12_1320,training+cueing,2021.1.4,59.996532160066586,
Stranger.png,Friend,Stranger,m,2.3,17,27,97,,,,,0,0,0,0,,,,,2,4,28,7,,,,,,,,,,,,,,,,,,,,,1.474,1.864,203.2150153000839,None,,,,,,,,,,,,,,,,,,,,203.75630469992757,204.25959459971637,0.5070046000182629,1.0072969002649188,204.24293769989163,204.35966779990122,204.24293769989163,204.35966779990122,204.34298559976742,None,c,0,0.7033484000712633,204.34298559976742,None,,,,,,,p1,2022_May_12_1320,training+cueing,2021.1.4,59.996532160066586,
Friend.png,You,Friend,m,1.2,14,24,94,,,,,0,0,0,0,,,,,2,5,29,3,,,,,,,,,,,,,,,,,,,,,1.504,1.408,205.18363029975444,None,,,,,,,,,,,,,,,,,,,,205.72371589997783,206.2277228999883,0.5088669001124799,1.0092616002075374,206.21101909969002,206.31107109971344,206.21101909969002,206.31107109971344,206.31107109971344,None,m,1,0.943206800147891,206.31107109971344,None,,,,,,,p1,2022_May_12_1320,training+cueing,2021.1.4,59.996532160066586,
Self.png,Stranger,Self ,m,3.1,18,28,98,,,,,0,0,0,0,,,,,2,6,30,2,,,,,,,,,,,,,,,,,,,,,1.639,1.201,207.38426529988647,None,,,,,,,,,,,,,,,,,,,,207.92804039968178,208.42928220005706,0.5001253001391888,1.0003446005284786,208.4126879000105,208.52934170002118,208.4126879000105,208.52934170002118,208.52934170002118,None,m,1,0.7252127001993358,208.52934170002118,None,,,,,,,p1,2022_May_12_1320,training+cueing,2021.1.4,59.996532160066586,
Friend.png,Stranger,Friend,m,3.2,19,29,99,,,,,0,0,0,0,,,,,2,7,31,5,,,,,,,,,,,,,,,,,,,,,1.726,1.916,209.39055259991437,None,,,,,,,,,,,,,,,,,,,,209.92594440001994,210.43069180008024,0.5092376000247896,1.0095172002911568,210.41406279988587,210.53077919967473,210.41406279988587,210.53077919967473,210.51407640008256,None,m,1,0.5481297001242638,210.51407640008256,None,,,,,,,p1,2022_May_12_1320,training+cueing,2021.1.4,59.996532160066586,
Self.png,You,Self ,c,1,11,21,91,,,,,0,0,0,0,,,,,2,8,32,9,,,,,,,,,,,,,,,,,,,,,1.771,1.953,211.18747149966657,None,,,,,,,,,,,,,,,,,,,,211.72721599973738,212.23202509991825,0.5066856993362308,1.0070102997124195,212.2153616999276,212.31542179966345,212.2153616999276,212.31542179966345,212.31542179966345,None,c,1,0.5069225002080202,212.31542179966345,None,,,,,,,p1,2022_May_12_1320,training+cueing,2021.1.4,59.996532160066586,
Self.png,You,Self ,c,1,11,21,91,,,,,0,0,0,0,,,,,2,9,33,0,,,,,,,,,,,,,,,,,,,,,1.477,2.203,212.95558569999412,None,,,,,,,,,,,,,,,,,,,,213.49409409984946,213.99998239986598,0.5129253002814949,1.0132351000793278,213.98330979980528,214.0833537997678,213.98330979980528,214.0833537997678,214.0833537997678,None,c,1,0.6429686001501977,214.0833537997678,None,,,,,,,p1,2022_May_12_1320,training+cueing,2021.1.4,59.996532160066586,
Friend.png,Friend,Friend,c,2,12,22,92,,,,,0,0,0,0,,,,,2,10,34,10,,,,,,,,,,,,,,,,,,,,,1.709,1.793,214.85657669976354,None,,,,,,,,,,,,,,,,,,,,215.3982166000642,215.90155320009217,0.50686309998855,1.007174899801612,215.88488689996302,216.0015666000545,215.88488689996302,216.0015666000545,215.98489149985835,None,m,0,0.6615780000574887,215.98489149985835,None,,,,,,,p1,2022_May_12_1320,training+cueing,2021.1.4,59.996532160066586,
Stranger.png,Stranger,Stranger,c,3,13,23,93,,,,,0,0,0,0,,,,,2,11,35,11,,,,,,,,,,,,,,,,,,,,,1.405,2.408,216.77588160010055,None,,,,,,,,,,,,,,,,,,,,217.31689210003242,217.81943630008027,0.5026379004120827,1.0028535001911223,217.80278760008514,217.92003419995308,217.80278760008514,217.92003419995308,217.90278030000627,None,c,1,0.5195410000160336,217.90278030000627,None,,,,,,,p1,2022_May_12_1320,training+cueing,2021.1.4,59.996532160066586,
Stranger.png,Stranger,Stranger,c,3,13,23,93,,,,,0,0,0,0,,,,,3,0,36,11,,,,,,,,,,,,,,,,,,,,,1.752,1.615,218.5590975000523,None,,,,,,,,,,,,,,,,,,,,219.09875119989738,219.60409029992297,0.5116158998571336,1.0120444996282458,219.58737859968096,219.70407889969647,219.58737859968096,219.70407889969647,219.68742939969525,None,m,0,0.7349783000536263,219.68742939969525,None,,,,,,,p1,2022_May_12_1320,training+cueing,2021.1.4,59.996532160066586,
Stranger.png,You,Stranger,m,1.3,15,25,95,,,,,0,0,0,0,,,,,3,1,37,6,,,,,,,,,,,,,,,,,,,,,1.505,1.495,220.54570329980925,None,,,,,,,,,,,,,,,,,,,,221.08551350003108,221.5888203997165,0.5059096999466419,1.006807700265199,221.5721304998733,221.6722078998573,221.5721304998733,221.6722078998573,221.6722078998573,None,m,1,0.7181656998582184,221.6722078998573,None,,,,,,,p1,2022_May_12_1320,training+cueing,2021.1.4,59.996532160066586,
Friend.png,Stranger,Friend,m,3.2,19,29,99,,,,,0,0,0,0,,,,,3,2,38,5,,,,,,,,,,,,,,,,,,,,,1.698,1.441,222.51340419985354,None,,,,,,,,,,,,,,,,,,,,223.05406160000712,223.5569118997082,0.5047108004800975,1.0049299001693726,223.5402651997283,223.65693409973755,223.5402651997283,223.65693409973755,223.6402952997014,None,c,0,0.4780334001407027,223.6402952997014,None,,,,,,,p1,2022_May_12_1320,training+cueing,2021.1.4,59.996532160066586,
Friend.png,You,Friend,m,1.2,14,24,94,,,,,0,0,0,0,,,,,3,3,39,3,,,,,,,,,,,,,,,,,,,,,1.544,1.915,224.24681829987094,None,,,,,,,,,,,,,,,,,,,,224.78655100008473,225.2915988001041,0.5109703000634909,1.0111261000856757,225.27496299985796,225.37486999994144,225.27496299985796,225.37486999994144,225.37486999994144,None,c,0,0.6634468999691308,225.37486999994144,None,,,,,,,p1,2022_May_12_1320,training+cueing,2021.1.4,59.996532160066586,
Self.png,You,Self ,c,1,11,21,91,,,,,0,0,0,0,,,,,3,4,40,0,,,,,,,,,,,,,,,,,,,,,1.608,1.613,226.16471070004627,None,,,,,,,,,,,,,,,,,,,,226.7024006997235,227.20954589964822,0.5117624998092651,1.012018600013107,227.19288579979911,227.2929292996414,227.19288579979911,227.2929292996414,227.2929292996414,None,c,1,0.9213772998191416,227.2929292996414,None,,,,,,,p1,2022_May_12_1320,training+cueing,2021.1.4,59.996532160066586,
Friend.png,Friend,Friend,c,2,12,22,92,,,,,0,0,0,0,,,,,3,5,41,4,,,,,,,,,,,,,,,,,,,,,1.687,1.645,228.34970569983125,None,,,,,,,,,,,,,,,,,,,,228.88995229965076,229.39447579998523,0.5098497001454234,1.0101266000419855,229.3777812998742,229.49452099995688,229.3777812998742,229.49452099995688,229.47782230004668,None,c,1,0.9124929998070002,229.47782230004668,None,,,,,,,p1,2022_May_12_1320,training+cueing,2021.1.4,59.996532160066586,
Self.png,You,Self ,c,1,11,21,91,,,,,0,0,0,0,,,,,3,6,42,9,,,,,,,,,,,,,,,,,,,,,1.544,1.391,230.51812359970063,None,,,,,,,,,,,,,,,,,,,,231.05939179984853,231.5627542999573,0.5068540996871889,1.0070886998437345,231.54609449999407,231.64605189999565,231.54609449999407,231.64605189999565,231.64605189999565,None,m,0,0.4881660998798907,231.64605189999565,None,,,,,,,p1,2022_May_12_1320,training+cueing,2021.1.4,59.996532160066586,
Self.png,Stranger,Self ,m,3.1,18,28,98,,,,,0,0,0,0,,,,,3,7,43,2,,,,,,,,,,,,,,,,,,,,,1.619,2.211,232.26962159993127,None,,,,,,,,,,,,,,,,,,,,232.80893100006506,233.31397529970855,0.5089548001997173,1.0094158998690546,233.2972710998729,233.4139809999615,233.2972710998729,233.4139809999615,233.39730739966035,None,c,0,0.7050546002574265,233.39730739966035,None,,,,,,,p1,2022_May_12_1320,training+cueing,2021.1.4,59.996532160066586,
Self.png,Friend,Self ,m,2.1,16,26,96,,,,,0,0,0,0,,,,,3,8,44,1,,,,,,,,,,,,,,,,,,,,,1.423,2.002,234.2384878997691,None,,,,,,,,,,,,,,,,,,,,234.7794077997096,235.28209069976583,0.5062385997734964,1.0065431999973953,235.26536670001224,235.38212700001895,235.26536670001224,235.38212700001895,235.36535359965637,None,m,1,0.6731794001534581,235.36535359965637,None,,,,,,,p1,2022_May_12_1320,training+cueing,2021.1.4,59.996532160066586,
Friend.png,Friend,Friend,c,2,12,22,92,,,,,0,0,0,0,,,,,3,9,45,10,,,,,,,,,,,,,,,,,,,,,1.428,1.941,236.17215379979461,None,,,,,,,,,,,,,,,,,,,,236.71599239995703,237.21677749976516,0.5015556993894279,1.0021109995432198,237.200108199846,237.31680979998782,237.200108199846,237.31680979998782,237.31680979998782,None,c,1,0.8335044998675585,237.31680979998782,None,,,,,,,p1,2022_May_12_1320,training+cueing,2021.1.4,59.996532160066586,
Stranger.png,Friend,Stranger,m,2.3,17,27,97,,,,,0,0,0,0,,,,,3,10,46,7,,,,,,,,,,,,,,,,,,,,,1.572,2.0,238.27525829989463,None,,,,,,,,,,,,,,,,,,,,238.81295719975606,239.31833190005273,0.5086498004384339,1.008933000266552,239.30179739976302,239.41836489969864,239.30179739976302,239.41836489969864,239.40163940005004,None,m,1,0.572616099845618,239.40163940005004,None,,,,,,,p1,2022_May_12_1320,training+cueing,2021.1.4,59.996532160066586,
Stranger.png,Stranger,Stranger,c,3,13,23,93,,,,,0,0,0,0,,,,,3,11,47,8,,,,,,,,,,,,,,,,,,,,,1.523,1.441,240.10937329987064,None,,,,,,,,,,,,,,,,,,,,240.64998669968918,241.1529226996936,0.5069322995841503,1.0074687995947897,241.13629029970616,241.2530303997919,241.13629029970616,241.2530303997919,241.23628180008382,None,c,1,0.4980332995764911,241.23628180008382,None,,,,,,,p1,2022_May_12_1320,training+cueing,2021.1.4,59.996532160066586,
Self.png,Friend,Self ,m,2.1,16,26,96,,,,,0,0,0,0,,,,,4,0,48,1,,,,,,,,,,,,,,,,,,,,,1.742,2.486,241.8608089997433,None,,,,,,,,,,,,,,,,,,,,242.4023338998668,242.90425729984418,0.5026386003009975,1.0028272001072764,242.88761449977756,243.00428069988266,242.88761449977756,243.00428069988266,242.9875952997245,None,m,1,0.570696999784559,242.9875952997245,None,,,,,,,p1,2022_May_12_1320,training+cueing,2021.1.4,59.996532160066586,
Friend.png,You,Friend,m,1.2,14,24,94,,,,,0,0,0,0,,,,,4,1,49,3,,,,,,,,,,,,,,,,,,,,,1.435,1.571,243.6942575997673,None,,,,,,,,,,,,,,,,,,,,244.23967579985037,244.73888910003006,0.5151154003106058,1.0155824003741145,244.73888910003006,244.83891679998487,244.73888910003006,244.83891679998487,244.83891679998487,None,c,0,0.5434384001418948,244.83891679998487,None,,,,,,,p1,2022_May_12_1320,training+cueing,2021.1.4,59.996532160066586,
Stranger.png,Stranger,Stranger,c,3,13,23,93,,,,,0,0,0,0,,,,,4,2,50,8,,,,,,,,,,,,,,,,,,,,,1.528,1.944,245.51231270004064,None,,,,,,,,,,,,,,,,,,,,246.05456929979846,246.55685359984636,0.5046931002289057,1.0049881003797054,246.5401865998283,246.6569432998076,246.5401865998283,246.6569432998076,246.64025169983506,None,c,1,0.6140755000524223,246.64025169983506,None,,,,,,,p1,2022_May_12_1320,training+cueing,2021.1.4,59.996532160066586,
Self.png,You,Self ,c,1,11,21,91,,,,,0,0,0,0,,,,,4,3,51,0,,,,,,,,,,,,,,,,,,,,,1.542,2.148,247.3802983998321,None,,,,,,,,,,,,,,,,,,,,247.91962289996445,248.42489170003682,0.508026999887079,1.0083297998644412,248.40819909982383,248.50825619976968,248.40819909982383,248.50825619976968,248.50825619976968,None,m,0,0.4420549999922514,248.50825619976968,None,,,,,,,p1,2022_May_12_1320,training+cueing,2021.1.4,59.996532160066586,
Friend.png,Stranger,Friend,m,3.2,19,29,99,,,,,0,0,0,0,,,,,4,4,52,5,,,,,,,,,,,,,,,,,,,,,1.781,1.406,249.08118759980425,None,,,,,,,,,,,,,,,,,,,,249.62278890004382,250.1260935999453,0.5069059003144503,1.0072190999053419,250.10941459983587,250.2261584997177,250.10941459983587,250.2261584997177,250.20944159990177,None,c,0,0.5008328002877533,250.20944159990177,None,,,,,,,p1,2022_May_12_1320,training+cueing,2021.1.4,59.996532160066586,
Stranger.png,Stranger,Stranger,c,3,13,23,93,,,,,0,0,0,0,,,,,4,5,53,11,,,,,,,,,,,,,,,,,,,,,1.495,2.456,250.83299849973992,None,,,,,,,,,,,,,,,,,,,,251.38909009983763,251.89405709970742,0.5092256003990769,None,251.87734979996458,251.99411359988153,251.87734979996458,251.99411359988153,251.97740380000323,None,m,0,0.3014970002695918,251.97740380000323,None,,,,,,,p1,2022_May_12_1320,training+cueing,2021.1.4,59.996532160066586,
Friend.png,Friend,Friend,c,2,12,22,92,,,,,0,0,0,0,,,,,4,6,54,10,,,,,,,,,,,,,,,,,,,,,1.731,1.824,252.4048227998428,None,,,,,,,,,,,,,,,,,,,,252.94357929984108,253.4451627000235,0.5028053997084498,1.003336999565363,253.42851209966466,253.54521899996325,253.42851209966466,253.54521899996325,253.5285384999588,None,m,0,0.7978117000311613,253.5285384999588,None,,,,,,,p1,2022_May_12_1320,training+cueing,2021.1.4,59.996532160066586,
Stranger.png,You,Stranger,m,1.3,15,25,95,,,,,0,0,0,0,,,,,4,7,55,6,,,,,,,,,,,,,,,,,,,,,1.49,1.652,254.45348759973422,None,,,,,,,,,,,,,,,,,,,,254.9952281997539,255.4968015998602,0.5043892003595829,1.0044284001924098,255.48019520007074,255.5800713999197,255.48019520007074,255.5800713999197,255.5800713999197,None,c,0,0.650272199884057,255.5800713999197,None,,,,,,,p1,2022_May_12_1320,training+cueing,2021.1.4,59.996532160066586,
Self.png,You,Self ,c,1,11,21,91,,,,,0,0,0,0,,,,,4,8,56,9,,,,,,,,,,,,,,,,,,,,,1.447,1.225,256.35379389999434,None,,,,,,,,,,,,,,,,,,,,256.891436799895,257.3980962000787,0.511067199986428,1.0113157001323998,257.38139109965414,257.48139180010185,257.38139109965414,257.48139180010185,257.48139180010185,None,m,0,0.6208633002825081,257.48139180010185,None,,,,,,,p1,2022_May_12_1320,training+cueing,2021.1.4,59.996532160066586,
Friend.png,Friend,Friend,c,2,12,22,92,,,,,0,0,0,0,,,,,4,9,57,4,,,,,,,,,,,,,,,,,,,,,1.438,1.835,258.2383846999146,None,,,,,,,,,,,,,,,,,,,,258.8077616998926,259.31631139991805,0.5105408001691103,1.0106815001927316,259.2997082998045,259.4162985999137,259.2997082998045,259.4162985999137,259.3995964997448,None,m,0,0.8146290997974575,259.3995964997448,None,,,,,,,p1,2022_May_12_1320,training+cueing,2021.1.4,59.996532160066586,
Stranger.png,Friend,Stranger,m,2.3,17,27,97,,,,,0,0,0,0,,,,,4,10,58,7,,,,,,,,,,,,,,,,,,,,,1.567,2.162,260.3411995000206,None,,,,,,,,,,,,,,,,,,,,260.8793246001005,261.3842674996704,0.50991279957816,1.0101843997836113,261.36758239986375,261.4843203998171,261.36758239986375,261.4843203998171,261.46760059986264,None,c,0,0.5547189000062644,261.46760059986264,None,,,,,,,p1,2022_May_12_1320,training+cueing,2021.1.4,59.996532160066586,
Self.png,Stranger,Self ,m,3.1,18,28,98,,,,,0,0,0,0,,,,,4,11,59,2,,,,,,,,,,,,,,,,,,,,,1.639,1.657,262.15850599994883,None,,,,,,,,,,,,,,,,,,,,262.6983835999854,263.20225369976833,0.5054172999225557,1.0057218000292778,263.185550800059,263.3024432999082,263.185550800059,263.3024432999082,263.2856176998466,None,c,0,0.8165492000989616,263.2856176998466,None,,,,,,,p1,2022_May_12_1320,training+cueing,2021.1.4,59.996532160066586,
Stranger.png,Stranger,Stranger,c,3,13,23,93,,,,,0,0,0,0,,,,,5,0,60,8,,,,,,,,,,,,,,,,,,,,,1.414,2.334,264.2252247999422,None,,,,,,,,,,,,,,,,,,,,264.7624132996425,265.27040409995243,0.5153236002661288,1.0161977000534534,265.2536992998794,265.37062739999965,265.2536992998794,265.37062739999965,265.35377839999273,None,c,1,0.6366035002283752,265.35377839999273,None,,,,,,,p1,2022_May_12_1320,training+cueing,2021.1.4,59.996532160066586,
Self.png,Stranger,Self ,m,3.1,18,28,98,,,,,0,0,0,0,,,,,5,1,61,2,,,,,,,,,,,,,,,,,,,,,1.489,1.579,266.1286944998428,None,,,,,,,,,,,,,,,,,,,,266.6678589996882,267.1722770999186,0.5074752001091838,1.0077363001182675,267.15515309991315,267.27187500009313,267.15515309991315,267.27187500009313,267.25514459982514,None,m,1,0.6391025995835662,267.25514459982514,None,,,,,,,p1,2022_May_12_1320,training+cueing,2021.1.4,59.996532160066586,
Stranger.png,Friend,Stranger,m,2.3,17,27,97,,,,,0,0,0,0,,,,,5,2,62,7,,,,,,,,,,,,,,,,,,,,,1.494,1.342,268.02852190006524,None,,,,,,,,,,,,,,,,,,,,268.5678264996968,269.07314169965684,0.5087354998104274,1.0091921999119222,269.05651189992204,269.1732274997048,269.05651189992204,269.1732274997048,269.15645950008184,None,c,0,0.6418500002473593,269.15645950008184,None,,,,,,,p1,2022_May_12_1320,training+cueing,2021.1.4,59.996532160066586,
Stranger.png,Stranger,Stranger,c,3,13,23,93,,,,,0,0,0,0,,,,,5,3,63,11,,,,,,,,,,,,,,,,,,,,,1.575,2.141,269.93134569982067,None,,,,,,,,,,,,,,,,,,,,270.4733493998647,270.97452379995957,0.5026179999113083,1.0030113998800516,270.9578589000739,271.07465109974146,270.9578589000739,271.07465109974146,271.05788589967415,None,m,0,0.5803692997433245,271.05788589967415,None,,,,,,,p1,2022_May_12_1320,training+cueing,2021.1.4,59.996532160066586,
Stranger.png,You,Stranger,m,1.3,15,25,95,,,,,0,0,0,0,,,,,5,4,64,6,,,,,,,,,,,,,,,,,,,,,1.64,2.145,271.7642059996724,None,,,,,,,,,,,,,,,,,,,,272.31493259966373,272.8258666996844,0.5022732997313142,1.0026014996692538,272.8091719998047,272.9092186996713,272.8091719998047,272.9092186996713,272.9092186996713,None,c,0,0.3930084998719394,272.9092186996713,None,,,,,,,p1,2022_May_12_1320,training+cueing,2021.1.4,59.996532160066586,
Self.png,You,Self ,c,1,11,21,91,,,,,0,0,0,0,,,,,5,5,65,0,,,,,,,,,,,,,,,,,,,,,1.676,1.61,273.4319505998865,None,,,,,,,,,,,,,,,,,,,,273.9711849000305,274.4771018996835,0.5127710001543164,1.0131666003726423,274.46045979997143,274.56044219993055,274.46045979997143,274.56044219993055,274.56044219993055,None,m,0,0.46977039985358715,274.56044219993055,None,,,,,,,p1,2022_May_12_1320,training+cueing,2021.1.4,59.996532160066586,
Self.png,Friend,Self ,m,2.1,16,26,96,,,,,0,0,0,0,,,,,5,6,66,1,,,,,,,,,,,,,,,,,,,,,1.717,1.447,275.16650389973074,None,,,,,,,,,,,,,,,,,,,,275.70897249970585,276.21182909980416,0.5071104997768998,1.007220299448818,276.19513579970226,276.311710299924,276.19513579970226,276.311710299924,276.2950422996655,None,c,0,0.5751149002462626,276.2950422996655,None,,,,,,,p1,2022_May_12_1320,training+cueing,2021.1.4,59.996532160066586,
Self.png,You,Self ,c,1,11,21,91,,,,,0,0,0,0,,,,,5,7,67,9,,,,,,,,,,,,,,,,,,,,,1.64,1.845,277.0011853999458,None,,,,,,,,,,,,,,,,,,,,277.5592763000168,278.0629795999266,0.5066309003159404,None,278.0465011000633,278.1465872996487,278.0465011000633,278.1465872996487,278.1465872996487,None,m,0,0.32371950009837747,278.1465872996487,None,,,,,,,p1,2022_May_12_1320,training+cueing,2021.1.4,59.996532160066586,
Friend.png,Stranger,Friend,m,3.2,19,29,99,,,,,0,0,0,0,,,,,5,8,68,5,,,,,,,,,,,,,,,,,,,,,1.693,1.745,278.60273229982704,None,,,,,,,,,,,,,,,,,,,,279.14496879978105,279.6474564000964,0.5067622005008161,None,279.6308126999065,279.74753279984,279.6308126999065,279.74753279984,279.73082039970905,None,c,0,0.29134019976481795,279.73082039970905,None,,,,,,,p1,2022_May_12_1320,training+cueing,2021.1.4,59.996532160066586,
Friend.png,Friend,Friend,c,2,12,22,92,,,,,0,0,0,0,,,,,5,9,69,4,,,,,,,,,,,,,,,,,,,,,1.569,1.912,280.1540266000666,None,,,,,,,,,,,,,,,,,,,,280.69536569993943,281.1986114997417,0.5070662000216544,1.007392999716103,281.18190110009164,281.29865789972246,281.18190110009164,281.29865789972246,281.2820790996775,None,c,1,0.7081315997056663,281.2820790996775,None,,,,,,,p1,2022_May_12_1320,training+cueing,2021.1.4,59.996532160066586,
Friend.png,You,Friend,m,1.2,14,24,94,,,,,0,0,0,0,,,,,5,10,70,3,,,,,,,,,,,,,,,,,,,,,1.613,1.686,282.12210209993646,None,,,,,,,,,,,,,,,,,,,,282.6711061997339,283.1833955999464,0.5071565001271665,1.0073994998820126,283.1667204997502,283.26676069991663,283.1667204997502,283.26676069991663,283.26676069991663,None,m,1,0.643567600287497,283.26676069991663,None,,,,,,,p1,2022_May_12_1320,training+cueing,2021.1.4,59.996532160066586,
Friend.png,Friend,Friend,c,2,12,22,92,,,,,0,0,0,0,,,,,5,11,71,10,,,,,,,,,,,,,,,,,,,,,1.69,2.424,284.03986979974434,None,,,,,,,,,,,,,,,,,,,,284.5819538999349,285.0849268999882,0.5059149996377528,1.00644959975034,285.0680510997772,285.1847892999649,285.0680510997772,285.1847892999649,285.1680626999587,None,c,1,0.5021995999850333,285.1680626999587,None,,,,,,,p1,2022_May_12_1320,training+cueing,2021.1.4,59.996532160066586,
Stranger.png,Stranger,Stranger,c,3,13,23,93,,,,,0,0,0,0,,,,,6,0,72,11,,,,,,,,,,,,,,,,,,,,,1.681,2.048,285.7932265996933,None,,,,,,,,,,,,,,,,,,,,286.33404289977625,286.83610239997506,0.5005723000504076,1.003671399783343,286.81746139982715,286.91935080010444,286.81746139982715,286.91935080010444,286.91935080010444,None,m,0,0.5751656000502408,286.91935080010444,None,,,,,,,p1,2022_May_12_1320,training+cueing,2021.1.4,59.996532160066586,
Self.png,You,Self ,c,1,11,21,91,,,,,0,0,0,0,,,,,6,1,73,0,,,,,,,,,,,,,,,,,,,,,1.749,1.567,287.63003750005737,None,,,,,,,,,,,,,,,,,,,,288.1690464997664,288.6706451997161,0.5043837004341185,1.0046856002882123,288.65399059979245,288.75404840009287,288.65399059979245,288.75404840009287,288.75404840009287,None,c,1,0.5640312996692955,288.75404840009287,None,,,,,,,p1,2022_May_12_1320,training+cueing,2021.1.4,59.996532160066586,
Self.png,Stranger,Self ,m,3.1,18,28,98,,,,,0,0,0,0,,,,,6,2,74,2,,,,,,,,,,,,,,,,,,,,,1.763,1.234,289.4439877998084,None,,,,,,,,,,,,,,,,,,,,289.98693209979683,290.4886762998067,0.5055470000952482,1.0059603000991046,290.4720220998861,290.58924750005826,290.4720220998861,290.58924750005826,290.5723464000039,None,m,1,0.569894399959594,290.5723464000039,None,,,,,,,p1,2022_May_12_1320,training+cueing,2021.1.4,59.996532160066586,
Friend.png,You,Friend,m,1.2,14,24,94,,,,,0,0,0,0,,,,,6,3,75,3,,,,,,,,,,,,,,,,,,,,,1.414,2.242,291.27965419972315,None,,,,,,,,,,,,,,,,,,,,291.818700700067,292.3233293998055,0.507744200527668,1.0081861005164683,292.3066648999229,292.40669529978186,292.3066648999229,292.40669529978186,292.40669529978186,None,m,1,0.9115656004287302,292.40669529978186,None,,,,,,,p1,2022_May_12_1320,training+cueing,2021.1.4,59.996532160066586,
Stranger.png,You,Stranger,m,1.3,15,25,95,,,,,0,0,0,0,,,,,6,4,76,6,,,,,,,,,,,,,,,,,,,,,1.505,1.273,293.4478237996809,None,,,,,,,,,,,,,,,,,,,,293.98992529977113,294.49154340010136,0.5044460999779403,1.0048875003121793,294.47486929968,294.57491869991645,294.47486929968,294.57491869991645,294.57491869991645,None,m,1,0.72725690016523,294.57491869991645,None,,,,,,,p1,2022_May_12_1320,training+cueing,2021.1.4,59.996532160066586,
Friend.png,Friend,Friend,c,2,12,22,92,,,,,0,0,0,0,,,,,6,5,77,10,,,,,,,,,,,,,,,,,,,,,1.42,1.469,295.4317640000954,None,,,,,,,,,,,,,,,,,,,,295.9727374999784,296.4764807000756,0.5067313998006284,1.0068977996706963,296.45977000007406,296.57638099975884,296.45977000007406,296.57638099975884,296.55961559992284,None,c,1,0.9186343001201749,296.55961559992284,None,,,,,,,p1,2022_May_12_1320,training+cueing,2021.1.4,59.996532160066586,
Friend.png,Stranger,Friend,m,3.2,19,29,99,,,,,0,0,0,0,,,,,6,6,78,5,,,,,,,,,,,,,,,,,,,,,1.695,1.817,297.60089930007234,None,,,,,,,,,,,,,,,,,,,,298.1411930997856,298.644530300051,0.5050722998566926,1.0053226999007165,298.62787720002234,298.7445832998492,298.62787720002234,298.7445832998492,298.72790119983256,None,m,1,0.8784016999416053,298.72790119983256,None,,,,,,,p1,2022_May_12_1320,training+cueing,2021.1.4,59.996532160066586,
Friend.png,Friend,Friend,c,2,12,22,92,,,,,0,0,0,0,,,,,6,7,79,4,,,,,,,,,,,,,,,,,,,,,1.546,2.37,299.73554839985445,None,,,,,,,,,,,,,,,,,,,,300.27769309980795,300.77945900009945,0.5044780001044273,1.0048199002631009,300.76271989988163,300.8794595999643,300.76271989988163,300.8794595999643,300.8627825998701,None,m,0,0.7914172997698188,300.8627825998701,None,,,,,,,p1,2022_May_12_1320,training+cueing,2021.1.4,59.996532160066586,
Self.png,Friend,Self ,m,2.1,16,26,96,,,,,0,0,0,0,,,,,6,8,80,1,,,,,,,,,,,,,,,,,,,,,1.519,1.501,301.7867747996934,None,,,,,,,,,,,,,,,,,,,,302.3244310999289,302.8309528999962,0.5105565995909274,1.0111072999425232,302.8142238999717,302.93114189989865,302.8142238999717,302.93114189989865,302.9142767996527,None,m,1,0.8039971003308892,302.9142767996527,None,,,,,,,p1,2022_May_12_1320,training+cueing,2021.1.4,59.996532160066586,
Stranger.png,Stranger,Stranger,c,3,13,23,93,,,,,0,0,0,0,,,,,6,9,81,8,,,,,,,,,,,,,,,,,,,,,1.603,2.147,303.8557385997847,None,,,,,,,,,,,,,,,,,,,,304.39641000004485,304.899078999646,0.5059322998858988,1.0062166997231543,304.88239939976484,304.99917580001056,304.88239939976484,304.99917580001056,304.98239949997514,None,c,1,0.6237884000875056,304.98239949997514,None,,,,,,,p1,2022_May_12_1320,training+cueing,2021.1.4,59.996532160066586,
Stranger.png,Friend,Stranger,m,2.3,17,27,97,,,,,0,0,0,0,,,,,6,10,82,7,,,,,,,,,,,,,,,,,,,,,1.619,2.383,305.7390703000128,None,,,,,,,,,,,,,,,,,,,,306.282022499945,306.78377939993516,0.5050567002035677,1.005370399914682,306.76708379993215,306.88383759977296,306.76708379993215,306.88383759977296,306.867130599916,None,m,1,0.7069477001205087,306.867130599916,None,,,,,,,p1,2022_May_12_1320,training+cueing,2021.1.4,59.996532160066586,
Self.png,You,Self ,c,1,11,21,91,,,,,0,0,0,0,,,,,6,11,83,9,,,,,,,,,,,,,,,,,,,,,1.723,2.362,307.7071539000608,None,,,,,,,,,,,,,,,,,,,,308.2468832996674,308.75186219997704,0.5082780998200178,1.0085913999937475,308.7351730996743,308.83523459965363,308.7351730996743,308.83523459965363,308.83523459965363,None,c,1,0.6910234000533819,308.83523459965363,None,,,,,,,p1,2022_May_12_1320,training+cueing,2021.1.4,59.996532160066586,
Stranger.png,Friend,Stranger,m,2.3,17,27,97,,,,,0,0,0,0,,,,,7,0,84,7,,,,,,,,,,,,,,,,,,,,,1.655,1.639,309.6589854997583,None,,,,,,,,,,,,,,,,,,,,310.20118439989164,310.7033688998781,0.5058857002295554,1.0061531998217106,310.686602300033,310.8055565999821,310.686602300033,310.8055565999821,310.78660729993135,None,m,1,0.9797066999599338,310.78660729993135,None,,,,,,,p1,2022_May_12_1320,training+cueing,2021.1.4,59.996532160066586,
Friend.png,You,Friend,m,1.2,14,24,94,,,,,0,0,0,0,,,,,7,1,85,3,,,,,,,,,,,,,,,,,,,,,1.591,2.416,311.9001984000206,None,,,,,,,,,,,,,,,,,,,,312.4408275000751,312.95498199993744,0.5105438996106386,1.0112730995751917,312.9377401997335,313.0383152998984,312.9377401997335,313.0383152998984,313.0383152998984,None,c,0,0.7599110999144614,313.0383152998984,None,,,,,,,p1,2022_May_12_1320,training+cueing,2021.1.4,59.996532160066586,
Stranger.png,Stranger,Stranger,c,3,13,23,93,,,,,0,0,0,0,,,,,7,2,86,11,,,,,,,,,,,,,,,,,,,,,1.506,1.685,313.9283463996835,None,,,,,,,,,,,,,,,,,,,,314.46806459967047,314.97301570000127,0.5083268997259438,None,314.9563511000015,315.0730729000643,314.9563511000015,315.0730729000643,315.0563904000446,None,m,0,0.24581880029290915,315.0563904000446,None,,,,,,,p1,2022_May_12_1320,training+cueing,2021.1.4,59.996532160066586,
Self.png,You,Self ,c,1,11,21,91,,,,,0,0,0,0,,,,,7,3,87,9,,,,,,,,,,,,,,,,,,,,,1.758,2.288,315.4291802998632,None,,,,,,,,,,,,,,,,,,,,315.97018589964136,316.474086899776,0.5084434002637863,None,316.45750589994714,316.5574833997525,316.45750589994714,316.5574833997525,316.5574833997525,None,c,1,0.29668179992586374,316.5574833997525,None,,,,,,,p1,2022_May_12_1320,training+cueing,2021.1.4,59.996532160066586,
Friend.png,Stranger,Friend,m,3.2,19,29,99,,,,,0,0,0,0,,,,,7,4,88,5,,,,,,,,,,,,,,,,,,,,,1.585,1.53,316.9810266997665,None,,,,,,,,,,,,,,,,,,,,317.5421742997132,318.0419601998292,0.5145743004977703,1.0149477003142238,318.0419601998292,318.14214609982446,318.0419601998292,318.14214609982446,318.14214609982446,None,m,1,0.5680637001059949,318.14214609982446,None,,,,,,,p1,2022_May_12_1320,training+cueing,2021.1.4,59.996532160066586,
Stranger.png,Stranger,Stranger,c,3,13,23,93,,,,,0,0,0,0,,,,,7,5,89,8,,,,,,,,,,,,,,,,,,,,,1.41,1.434,318.83310839999467,None,,,,,,,,,,,,,,,,,,,,319.37120559997857,319.87658690009266,0.51024299999699,1.0105423000641167,319.8598925997503,319.9766277996823,319.8598925997503,319.9766277996823,319.9599198997021,None,m,0,0.686289899982512,319.9599198997021,None,,,,,,,p1,2022_May_12_1320,training+cueing,2021.1.4,59.996532160066586,
Friend.png,Friend,Friend,c,2,12,22,92,,,,,0,0,0,0,,,,,7,6,90,4,,,,,,,,,,,,,,,,,,,,,1.562,2.048,320.7836449998431,None,,,,,,,,,,,,,,,,,,,,321.32327959965914,321.8280028998852,0.5081266998313367,1.0084489998407662,321.8112820996903,321.9280586997047,321.8112820996903,321.9280586997047,321.911357099656,None,m,0,0.7508435002528131,321.911357099656,None,,,,,,,p1,2022_May_12_1320,training+cueing,2021.1.4,59.996532160066586,
Self.png,Stranger,Self ,m,3.1,18,28,98,,,,,0,0,0,0,,,,,7,7,91,2,,,,,,,,,,,,,,,,,,,,,1.544,1.307,322.78488409984857,None,,,,,,,,,,,,,,,,,,,,323.32535669999197,323.82943850010633,0.5052747000008821,1.0055227000266314,323.8127971999347,323.9294757996686,323.8127971999347,323.9294757996686,323.91281519969925,None,c,0,0.6213548998348415,323.91281519969925,None,,,,,,,p1,2022_May_12_1320,training+cueing,2021.1.4,59.996532160066586,
Self.png,You,Self ,c,1,11,21,91,,,,,0,0,0,0,,,,,7,8,92,0,,,,,,,,,,,,,,,,,,,,,1.542,2.057,324.6702454998158,None,,,,,,,,,,,,,,,,,,,,325.21724999975413,325.7311868998222,0.5118216997943819,1.0118472999893129,325.7143927998841,325.81418799981475,325.7143927998841,325.81418799981475,325.81418799981475,None,m,0,0.6399050001055002,325.81418799981475,None,,,,,,,p1,2022_May_12_1320,training+cueing,2021.1.4,59.996532160066586,
Self.png,Friend,Self ,m,2.1,16,26,96,,,,,0,0,0,0,,,,,7,9,93,1,,,,,,,,,,,,,,,,,,,,,1.778,1.812,326.58769019972533,None,,,,,,,,,,,,,,,,,,,,327.12934520002455,327.6322393999435,0.5065926001407206,1.0074269999749959,327.61556589975953,327.73229959979653,327.61556589975953,327.73229959979653,327.7155752000399,None,c,0,0.7548589999787509,327.7155752000399,None,,,,,,,p1,2022_May_12_1320,training+cueing,2021.1.4,59.996532160066586,
Stranger.png,You,Stranger,m,1.3,15,25,95,,,,,0,0,0,0,,,,,7,10,94,6,,,,,,,,,,,,,,,,,,,,,1.588,2.017,328.6089759999886,None,,,,,,,,,,,,,,,,,,,,329.1477307998575,329.6503141997382,0.5030530001968145,None,329.6336297998205,329.73363670008257,329.6336297998205,329.73363670008257,329.73363670008257,None,m,1,0.35246740002185106,329.73363670008257,None,,,,,,,p1,2022_May_12_1320,training+cueing,2021.1.4,59.996532160066586,
Friend.png,Friend,Friend,c,2,12,22,92,,,,,0,0,0,0,,,,,7,11,95,10,,,,,,,,,,,,,,,,,,,,,1.55,2.065,330.22406410006806,None,,,,,,,,,,,,,,,,,,,,330.76481280010194,331.26815679995343,0.5060878000222147,None,331.25151970004663,331.3682063999586,331.25151970004663,331.3682063999586,331.3514787997119,None,c,1,0.15867949975654483,331.3514787997119,None,,,,,,,p1,2022_May_12_1320,training+cueing,2021.1.4,59.996532160066586,
Friend.png,You,Friend,m,1.2,14,24,94,,,,,0,0,0,0,,,,,8,0,96,3,,,,,,,,,,,,,,,,,,,,,1.769,2.092,331.6415141997859,None,,,,,,,,,,,,,,,,,,,,332.1929607000202,332.70253890007734,0.500841099768877,1.0017860997468233,332.6858859998174,332.7859308999032,332.6858859998174,332.7859308999032,332.7859308999032,None,m,1,0.5483566001057625,332.7859308999032,None,,,,,,,p1,2022_May_12_1320,training+cueing,2021.1.4,59.996532160066586,
Stranger.png,You,Stranger,m,1.3,15,25,95,,,,,0,0,0,0,,,,,8,1,97,6,,,,,,,,,,,,,,,,,,,,,1.483,1.828,333.46223629964516,None,,,,,,,,,,,,,,,,,,,,333.998383899685,334.50382269965485,0.5106937000527978,1.010977199766785,334.4871551999822,334.58720579976216,334.4871551999822,334.58720579976216,334.58720579976216,None,m,1,0.45898770028725266,334.58720579976216,None,,,,,,,p1,2022_May_12_1320,training+cueing,2021.1.4,59.996532160066586,
Self.png,Friend,Self ,m,2.1,16,26,96,,,,,0,0,0,0,,,,,8,2,98,1,,,,,,,,,,,,,,,,,,,,,1.592,1.959,335.1770325000398,None,,,,,,,,,,,,,,,,,,,,335.73032139986753,336.2384559996426,0.5004664999432862,1.000962299760431,336.221762499772,336.3385005998425,336.221762499772,336.3385005998425,336.3385005998425,None,c,0,0.6437629000283778,336.3385005998425,None,,,,,,,p1,2022_May_12_1320,training+cueing,2021.1.4,59.996532160066586,
Stranger.png,Stranger,Stranger,c,3,13,23,93,,,,,0,0,0,0,,,,,8,3,99,11,,,,,,,,,,,,,,,,,,,,,1.587,2.391,337.1128674997017,None,,,,,,,,,,,,,,,,,,,,337.653493499849,338.1564878998324,0.5030140001326799,None,338.1397881996818,338.2565238000825,338.1397881996818,338.2565238000825,338.2398437997326,None,m,0,0.2782760001718998,338.2398437997326,None,,,,,,,p1,2022_May_12_1320,training+cueing,2021.1.4,59.996532160066586,
Stranger.png,Stranger,Stranger,c,3,13,23,93,,,,,0,0,0,0,,,,,8,4,100,8,,,,,,,,,,,,,,,,,,,,,1.788,1.716,338.646277599968,None,,,,,,,,,,,,,,,,,,,,339.1838920000009,339.69091709982604,0.5142733999527991,None,339.6742207999341,339.79093870008364,339.6742207999341,339.79093870008364,339.774288599845,None,c,1,0.31183840008452535,339.774288599845,None,,,,,,,p1,2022_May_12_1320,training+cueing,2021.1.4,59.996532160066586,
Stranger.png,Friend,Stranger,m,2.3,17,27,97,,,,,0,0,0,0,,,,,8,5,101,7,,,,,,,,,,,,,,,,,,,,,1.766,1.681,340.2141144000925,None,,,,,,,,,,,,,,,,,,,,340.75569249968976,341.2587409000844,0.5071906000375748,None,341.24202540004626,341.3587470999919,341.24202540004626,341.3587470999919,341.3420663001016,None,m,1,0.24796839989721775,341.3420663001016,None,,,,,,,p1,2022_May_12_1320,training+cueing,2021.1.4,59.996532160066586,
Friend.png,Friend,Friend,c,2,12,22,92,,,,,0,0,0,0,,,,,8,6,102,4,,,,,,,,,,,,,,,,,,,,,1.616,1.299,341.71557920007035,None,,,,,,,,,,,,,,,,,,,,342.2538390997797,342.7598027000204,0.5095212003216147,None,342.74313709978014,342.85988410003483,342.74313709978014,342.85988410003483,342.8431502999738,None,m,0,0.2828559996560216,342.8431502999738,None,,,,,,,p1,2022_May_12_1320,training+cueing,2021.1.4,59.996532160066586,
Friend.png,Stranger,Friend,m,3.2,19,29,99,,,,,0,0,0,0,,,,,8,7,103,5,,,,,,,,,,,,,,,,,,,,,1.411,1.207,343.2499341000803,None,,,,,,,,,,,,,,,,,,,,343.79196879966184,344.2942341999151,0.5049952999688685,None,344.27759000007063,344.39438299974427,344.27759000007063,344.39438299974427,344.37777710007504,None,m,1,0.3642096999101341,344.37777710007504,None,,,,,,,p1,2022_May_12_1320,training+cueing,2021.1.4,59.996532160066586,
Self.png,You,Self ,c,1,11,21,91,,,,,0,0,0,0,,,,,8,8,104,0,,,,,,,,,,,,,,,,,,,,,1.531,2.037,344.86722359992564,None,,,,,,,,,,,,,,,,,,,,345.4079509996809,345.9121034001,0.5059297000989318,None,345.89540609996766,345.995451499708,345.89540609996766,345.995451499708,345.995451499708,None,m,0,0.29864879976958036,345.995451499708,None,,,,,,,p1,2022_May_12_1320,training+cueing,2021.1.4,59.996532160066586,
Friend.png,Friend,Friend,c,2,12,22,92,,,,,0,0,0,0,,,,,8,9,105,10,,,,,,,,,,,,,,,,,,,,,1.446,2.433,346.41813569981605,None,,,,,,,,,,,,,,,,,,,,346.9617917998694,347.4632004997693,0.5041716997511685,1.0044307997450233,347.44653399987146,347.56320949969813,347.44653399987146,347.56320949969813,347.5466005997732,None,c,1,0.4754869001917541,347.5466005997732,None,,,,,,,p1,2022_May_12_1320,training+cueing,2021.1.4,59.996532160066586,
Self.png,You,Self ,c,1,11,21,91,,,,,0,0,0,0,,,,,8,10,106,9,,,,,,,,,,,,,,,,,,,,,1.532,1.73,348.15302069997415,None,,,,,,,,,,,,,,,,,,,,348.6987645998597,349.1978090996854,0.499013299588114,0.9993551997467875,349.18105580005795,349.2811115998775,349.18105580005795,349.2811115998775,349.2811115998775,None,c,1,0.7570901997387409,349.2811115998775,None,,,,,,,p1,2022_May_12_1320,training+cueing,2021.1.4,59.996532160066586,
Self.png,Stranger,Self ,m,3.1,18,28,98,,,,,0,0,0,0,,,,,8,11,107,2,,,,,,,,,,,,,,,,,,,,,1.503,1.804,350.17157229967415,None,,,,,,,,,,,,,,,,,,,,350.7129986998625,351.2159445998259,0.5044403001666069,1.0046529001556337,351.1993224998005,351.3159913998097,351.1993224998005,351.3159913998097,351.2993055996485,None,m,1,0.7709662998095155,351.2993055996485,None,,,,,,,p1,2022_May_12_1320,training+cueing,2021.1.4,59.996532160066586,
Friend.png,Stranger,Friend,m,3.2,19,29,99,,,,,0,0,0,0,,,,,9,0,108,5,,,,,,,,,,,,,,,,,,,,,1.614,1.516,352.2103013000451,None,,,,,,,,,,,,,,,,,,,,352.7454233998433,353.2508311998099,0.5105200000107288,1.0108425999060273,353.23405200010166,353.3507773997262,353.23405200010166,353.3507773997262,353.3341063000262,None,m,1,0.6080443998798728,353.3341063000262,None,,,,,,,p1,2022_May_12_1320,training+cueing,2021.1.4,59.996532160066586,
Stranger.png,Stranger,Stranger,c,3,13,23,93,,,,,0,0,0,0,,,,,9,1,109,11,,,,,,,,,,,,,,,,,,,,,1.522,2.24,354.07355650002137,None,,,,,,,,,,,,,,,,,,,,354.61945449979976,355.1187676000409,0.49995650025084615,None,355.1021217000671,355.2188041000627,355.1021217000671,355.2188041000627,355.2188041000627,None,m,0,0.21131640020757914,355.2188041000627,None,,,,,,,p1,2022_May_12_1320,training+cueing,2021.1.4,59.996532160066586,
Stranger.png,Stranger,Stranger,c,3,13,23,93,,,,,0,0,0,0,,,,,9,2,110,8,,,,,,,,,,,,,,,,,,,,,1.741,2.213,355.5587565000169,None,,,,,,,,,,,,,,,,,,,,356.0972489998676,356.6031780000776,0.5103149996139109,None,356.5864514997229,356.7039481000975,356.5864514997229,356.7039481000975,356.68649729993194,None,c,1,0.26382849970832467,356.68649729993194,None,,,,,,,p1,2022_May_12_1320,training+cueing,2021.1.4,59.996532160066586,
Friend.png,Friend,Friend,c,2,12,22,92,,,,,0,0,0,0,,,,,9,3,111,10,,,,,,,,,,,,,,,,,,,,,1.402,2.173,357.0795283000916,None,,,,,,,,,,,,,,,,,,,,357.6201746999286,358.12094479985535,0.5024462002329528,None,358.10426389984787,358.2211257000454,358.10426389984787,358.2211257000454,358.2042788998224,None,m,0,0.24987930012866855,358.2042788998224,None,,,,,,,p1,2022_May_12_1320,training+cueing,2021.1.4,59.996532160066586,
Self.png,Friend,Self ,m,2.1,16,26,96,,,,,0,0,0,0,,,,,9,4,112,1,,,,,,,,,,,,,,,,,,,,,1.508,1.635,358.57836949964985,None,,,,,,,,,,,,,,,,,,,,359.1145508000627,359.6220134999603,0.5123799000866711,1.012917600106448,359.60527820000425,359.72220559976995,359.60527820000425,359.72220559976995,359.7055126996711,None,c,0,0.6845722999423742,359.7055126996711,None,,,,,,,p1,2022_May_12_1320,training+cueing,2021.1.4,59.996532160066586,
Friend.png,Friend,Friend,c,2,12,22,92,,,,,0,0,0,0,,,,,9,5,113,4,,,,,,,,,,,,,,,,,,,,,1.703,2.26,360.5141034000553,None,,,,,,,,,,,,,,,,,,,,361.05250220000744,361.55674779973924,0.5096817002631724,1.0099761001765728,361.5400789999403,361.65679090004414,361.5400789999403,361.65679090004414,361.6400776999071,None,m,0,0.41413010004907846,361.6400776999071,None,,,,,,,p1,2022_May_12_1320,training+cueing,2021.1.4,59.996532160066586,
Self.png,Stranger,Self ,m,3.1,18,28,98,,,,,0,0,0,0,,,,,9,6,114,2,,,,,,,,,,,,,,,,,,,,,1.684,2.121,362.18027370003983,None,,,,,,,,,,,,,,,,,,,,362.7230867999606,363.2246209997684,0.5044426997192204,None,363.20797459967434,363.32466589985415,363.20797459967434,363.32466589985415,363.307948499918,None,c,0,0.10616189986467361,363.307948499918,None,,,,,,,p1,2022_May_12_1320,training+cueing,2021.1.4,59.996532160066586,
Friend.png,You,Friend,m,1.2,14,24,94,,,,,0,0,0,0,,,,,9,7,115,3,,,,,,,,,,,,,,,,,,,,,1.659,1.432,363.54736349964514,None,,,,,,,,,,,,,,,,,,,,364.0952240000479,364.6089588999748,0.508133300114423,None,364.5922686997801,364.6923193000257,364.5922686997801,364.6923193000257,364.6923193000257,None,m,1,0.0016907998360693455,364.6923193000257,None,,,,,,,p1,2022_May_12_1320,training+cueing,2021.1.4,59.996532160066586,
Stranger.png,You,Stranger,m,1.3,15,25,95,,,,,0,0,0,0,,,,,9,8,116,6,,,,,,,,,,,,,,,,,,,,,1.587,1.374,364.81652770005167,None,,,,,,,,,,,,,,,,,,,,365.3572769998573,365.85986110009253,0.5053594997152686,None,365.8431648998521,365.9432231998071,365.8431648998521,365.9432231998071,365.9432231998071,None,m,1,0.19107000017538667,365.9432231998071,None,,,,,,,p1,2022_May_12_1320,training+cueing,2021.1.4,59.996532160066586,
Stranger.png,Friend,Stranger,m,2.3,17,27,97,,,,,0,0,0,0,,,,,9,9,117,7,,,,,,,,,,,,,,,,,,,,,1.748,1.508,366.269520400092,None,,,,,,,,,,,,,,,,,,,,366.81025529978797,367.3109029000625,0.5015170001424849,None,367.2942534000613,367.41093929996714,367.2942534000613,367.41093929996714,367.41093929996714,None,m,1,0.17919349996373057,367.41093929996714,None,,,,,,,p1,2022_May_12_1320,training+cueing,2021.1.4,59.996532160066586,
Self.png,You,Self ,c,1,11,21,91,,,,,0,0,0,0,,,,,9,10,118,9,,,,,,,,,,,,,,,,,,,,,1.704,1.811,367.71722179977223,None,,,,,,,,,,,,,,,,,,,,368.2633205000311,368.7788636996411,0.5152388997375965,None,368.7646031999029,368.8786796997301,368.7646031999029,368.8786796997301,368.86203330010176,None,c,1,0.2640499002300203,368.86203330010176,None,,,,,,,p1,2022_May_12_1320,training+cueing,2021.1.4,59.996532160066586,
Self.png,You,Self ,c,1,11,21,91,,,,,0,0,0,0,,,,,9,11,119,0,,,,,,,,,,,,,,,,,,,,,1.544,1.811,369.2517654998228,None,,,,,,,,,,,,,,,,,,,,369.79001630004495,370.29639049991965,0.5123928999528289,None,370.2796805999242,370.37975810002536,370.2796805999242,370.37975810002536,370.37975810002536,None,c,1,0.28226729994639754,370.37975810002536,None,,,,,,,p1,2022_May_12_1320,training+cueing,2021.1.4,59.996532160066586,
,,,,,,,,,,,,0,0,0,0,,,,,,,,,,,,,,,,,,,,,,,,,,,,,,,,,,,,,,,,,,,,,,,,,,,,,,,,,,,,,,,,,,,0.0011100000701844692,None,,,,,p1,2022_May_12_1320,training+cueing,2021.1.4,59.996532160066586,
Friend.png,Friend,Friend,c,2,12,22,92,,,,,1,0,1,0,0,0,0,10,,,,,,,,,,,,,,,,,371.29714410007,None,space,4.804255600087345,2.0162386996671557,None,378.10226280009374,None,1.432,1.601,381.1116741998121,None,381.65133479982615,382.1550304000266,382.13834320008755,382.25500719994307,382.13834320008755,382.25500719994307,382.23835709970444,None,m,0,0.487669600173831,382.23835709970444,None,382.7557863998227,None,,,,,,,,,,,,,,,,,,,,,,,,,,p1,2022_May_12_1320,training+cueing,2021.1.4,59.996532160066586,
Friend.png,You,Friend,m,1.2,14,24,94,,,,,1,0,1,0,0,1,1,3,,,,,,,,,,,,,,,,,,,,,,,,,1.666,2.153,383.1557133998722,None,383.6865185997449,384.1897756000981,384.1731014000252,384.2731602001004,384.1731014000252,384.2731602001004,384.2731602001004,None,m,1,0.4848695998080075,384.2731602001004,None,384.78891689982265,None,,,,,,,,,,,,,,,,,,,,,,,,,,p1,2022_May_12_1320,training+cueing,2021.1.4,59.996532160066586,
Self.png,You,Self ,c,1,11,21,91,,,,,1,0,1,0,0,2,2,9,,,,,,,,,,,,,,,,,,,,,,,,,1.43,1.439,385.1906296000816,None,385.725426599849,386.2245763996616,386.2245763996616,386.32475699996576,386.2245763996616,386.32475699996576,386.32475699996576,None,m,0,0.481413799803704,386.32475699996576,None,386.84721649996936,None,,,,,,,,,,,,,,,,,,,,,,,,,,p1,2022_May_12_1320,training+cueing,2021.1.4,59.996532160066586,
Stranger.png,Stranger,Stranger,c,3,13,23,93,,,,,1,0,1,0,0,3,3,8,,,,,,,,,,,,,,,,,,,,,,,,,1.77,1.91,387.2589008999057,None,387.79771160008386,388.3094269996509,388.2927868999541,388.4095093999058,388.2927868999541,388.4095093999058,388.39277329994366,None,c,1,0.5102161997929215,388.39277329994366,None,388.9360936000012,None,,,,,,,,,,,,,,,,,,,,,,,,,,p1,2022_May_12_1320,training+cueing,2021.1.4,59.996532160066586,
Self.png,Friend,Self ,m,2.1,16,26,96,,,,,1,0,1,0,0,4,4,1,,,,,,,,,,,,,,,,,,,,,,,,,1.536,1.481,389.34361909981817,None,389.87302519986406,390.37759639974684,390.36088659986854,390.47765949973837,390.36088659986854,390.47765949973837,390.460956200026,None,m,1,0.4734873999841511,390.460956200026,None,390.96137670008466,None,,,,,,,,,,,,,,,,,,,,,,,,,,p1,2022_May_12_1320,training+cueing,2021.1.4,59.996532160066586,
Stranger.png,Stranger,Stranger,c,3,13,23,93,,,,,1,0,1,0,0,5,5,11,,,,,,,,,,,,,,,,,,,,,,,,,1.499,2.074,391.36179929971695,None,391.90642599994317,392.4124278998934,392.39577249996364,392.5124820997007,392.39577249996364,392.5124820997007,392.49575729994103,None,c,1,0.3901772000826895,392.49575729994103,None,392.91278469981626,None,,,,,,,,,,,,,,,,,,,,,,,,,,p1,2022_May_12_1320,training+cueing,2021.1.4,59.996532160066586,
Friend.png,Friend,Friend,c,2,12,22,92,,,,,1,0,1,0,0,6,6,4,,,,,,,,,,,,,,,,,,,,,,,,,1.459,1.416,393.3132442999631,None,393.84258939977735,394.347186899744,394.33044999977574,394.44719319976866,394.33044999977574,394.44719319976866,394.43044940009713,None,m,0,0.5836308002471924,394.43044940009713,None,395.03160170000046,None,,,,,,,,,,,,,,,,,,,,,,,,,,p1,2022_May_12_1320,training+cueing,2021.1.4,59.996532160066586,
Stranger.png,You,Stranger,m,1.3,15,25,95,,,,,1,0,1,0,0,7,7,6,,,,,,,,,,,,,,,,,,,,,,,,,1.538,1.227,395.4312451998703,None,395.9636540999636,396.46538439998403,396.44868949986994,396.5487226000987,396.44868949986994,396.5487226000987,396.5487226000987,None,m,1,0.6413191999308765,396.5487226000987,None,397.21453249966726,None,,,,,,,,,,,,,,,,,,,,,,,,,,p1,2022_May_12_1320,training+cueing,2021.1.4,59.996532160066586,
Stranger.png,Friend,Stranger,m,2.3,17,27,97,,,,,1,0,1,0,0,8,8,7,,,,,,,,,,,,,,,,,,,,,,,,,1.629,1.751,397.61615599971265,None,398.1884853998199,398.70024359971285,398.68357290001586,398.8003197996877,398.68357290001586,398.8003197996877,398.7836493998766,None,c,0,0.4704382000491023,398.7836493998766,None,399.2842831998132,None,,,,,,,,,,,,,,,,,,,,,,,,,,p1,2022_May_12_1320,training+cueing,2021.1.4,59.996532160066586,
Self.png,You,Self ,c,1,11,21,91,,,,,1,0,1,0,0,9,9,0,,,,,,,,,,,,,,,,,,,,,,,,,1.753,1.79,399.6843133000657,None,400.21720369998366,400.71840439969674,400.70173989981413,400.8017921997234,400.70173989981413,400.8017921997234,400.8017921997234,None,c,1,0.5962343998253345,400.8017921997234,None,401.4179690000601,None,,,,,,,,,,,,,,,,,,,,,,,,,,p1,2022_May_12_1320,training+cueing,2021.1.4,59.996532160066586,
Self.png,Stranger,Self ,m,3.1,18,28,98,,,,,1,0,1,0,0,10,10,2,,,,,,,,,,,,,,,,,,,,,,,,,1.723,2.345,401.8199134999886,None,402.3573063998483,402.87003299966455,402.8533414998092,402.97002429980785,402.8533414998092,402.97002429980785,402.9533600998111,None,m,1,0.4607523996382952,402.9533600998111,None,403.437050699722,None,,,,,,,,,,,,,,,,,,,,,,,,,,p1,2022_May_12_1320,training+cueing,2021.1.4,59.996532160066586,
Friend.png,Stranger,Friend,m,3.2,19,29,99,,,,,1,0,1,0,0,11,11,5,,,,,,,,,,,,,,,,,,,,,,,,,1.69,1.516,403.83731530001387,None,404.3653186997399,404.87143629975617,404.8547580996528,404.97145509999245,404.8547580996528,404.97145509999245,404.95477869967,None,m,1,0.6352486000396311,404.95477869967,None,405.62196569982916,None,,,,,,,,,,,,,,,,,,,,,,,,,,p1,2022_May_12_1320,training+cueing,2021.1.4,59.996532160066586,
Friend.png,Friend,Friend,c,2,12,22,92,,,,,1,0,1,0,,,,,0,0,0,4,,,,,,,,,,,,,,,,,,,409.02471049968153,None,1.768,2.289,412.5414847000502,None,,,,,,,,,,,,,,,,406.0224083000794,None,0.014358200132846832,0.5123820998705924,413.0761907999404,413.5779150999151,0.5039722002111375,1.0039499001577497,413.5613539996557,413.6779168997891,413.5613539996557,413.6779168997891,413.66123740002513,None,c,1,0.5368282999843359,413.66123740002513,None,,,,,,,p1,2022_May_12_1320,training+cueing,2021.1.4,59.996532160066586,
Stranger.png,Friend,Stranger,m,2.3,17,27,97,,,,,1,0,1,0,,,,,0,1,1,7,,,,,,,,,,,,,,,,,,,,,1.564,2.319,414.3353764000349,None,,,,,,,,,,,,,,,,,,,,414.8772991998121,415.3789894999936,0.5047166999429464,1.0050250003114343,415.36233810009435,415.47907490003854,415.36233810009435,415.47907490003854,415.46237639989704,None,m,1,0.7518535000272095,415.46237639989704,None,,,,,,,p1,2022_May_12_1320,training+cueing,2021.1.4,59.996532160066586,
Self.png,Stranger,Self ,m,3.1,18,28,98,,,,,1,0,1,0,,,,,0,2,2,2,,,,,,,,,,,,,,,,,,,,,1.557,1.65,416.33917360007763,None,,,,,,,,,,,,,,,,,,,,416.87955499999225,417.38048789976165,0.5008564000017941,1.0011899997480214,417.36386170005426,417.48056919965893,417.36386170005426,417.48056919965893,417.48056919965893,None,c,0,0.5574722997844219,417.48056919965893,None,,,,,,,p1,2022_May_12_1320,training+cueing,2021.1.4,59.996532160066586,
Stranger.png,Stranger,Stranger,c,3,13,23,93,,,,,1,0,1,0,,,,,0,3,3,8,,,,,,,,,,,,,,,,,,,,,1.64,2.104,418.17089909967035,None,,,,,,,,,,,,,,,,,,,,418.71051019988954,419.2151246997528,0.5104342997074127,1.0106961000710726,419.1984792998992,419.31518829986453,419.1984792998992,419.31518829986453,419.2984810997732,None,c,1,0.40353160025551915,419.2984810997732,None,,,,,,,p1,2022_May_12_1320,training+cueing,2021.1.4,59.996532160066586,
Self.png,You,Self ,c,1,11,21,91,,,,,1,0,1,0,,,,,0,4,4,0,,,,,,,,,,,,,,,,,,,,,1.717,1.652,419.8387621999718,None,,,,,,,,,,,,,,,,,,,,420.3783388999291,420.88301169965416,0.5077462000772357,1.0080556999891996,420.8663200996816,420.96638399967924,420.8663200996816,420.96638399967924,420.96638399967924,None,c,1,0.46368899988010526,420.96638399967924,None,,,,,,,p1,2022_May_12_1320,training+cueing,2021.1.4,59.996532160066586,
Self.png,Friend,Self ,m,2.1,16,26,96,,,,,1,0,1,0,,,,,0,5,5,1,,,,,,,,,,,,,,,,,,,,,1.757,2.292,421.5560138998553,None,,,,,,,,,,,,,,,,,,,,422.0982261998579,422.6009332998656,0.5057492000050843,1.006651900243014,422.5842709997669,422.7009585998021,422.5842709997669,422.7009585998021,422.6842525000684,None,m,1,0.7139469003304839,422.6842525000684,None,,,,,,,p1,2022_May_12_1320,training+cueing,2021.1.4,59.996532160066586,
Friend.png,Friend,Friend,c,2,12,22,92,,,,,1,0,1,0,,,,,0,6,6,10,,,,,,,,,,,,,,,,,,,,,1.455,1.654,423.5253904000856,None,,,,,,,,,,,,,,,,,,,,424.0636573000811,424.5690136998892,0.5118255000561476,1.012131500057876,424.5523083000444,424.669058999978,424.5523083000444,424.669058999978,424.6523706000298,None,m,0,0.4895824999548495,424.6523706000298,None,,,,,,,p1,2022_May_12_1320,training+cueing,2021.1.4,59.996532160066586,
Stranger.png,You,Stranger,m,1.3,15,25,95,,,,,1,0,1,0,,,,,0,7,7,6,,,,,,,,,,,,,,,,,,,,,1.576,2.322,425.2800058000721,None,,,,,,,,,,,,,,,,,,,,425.8182461997494,426.32030380005017,0.5026233000680804,1.0037850001826882,426.30357939982787,426.40364719973877,426.30357939982787,426.40364719973877,426.40364719973877,None,c,0,0.5304274996742606,426.40364719973877,None,,,,,,,p1,2022_May_12_1320,training+cueing,2021.1.4,59.996532160066586,
Friend.png,Stranger,Friend,m,3.2,19,29,99,,,,,1,0,1,0,,,,,0,8,8,5,,,,,,,,,,,,,,,,,,,,,1.69,1.627,427.0599332000129,None,,,,,,,,,,,,,,,,,,,,427.6009569000453,428.1048999996856,0.5089817000553012,1.0092806001193821,428.08821860002354,428.2049631997943,428.08821860002354,428.2049631997943,428.18825679970905,None,m,1,0.8577926000580192,428.18825679970905,None,,,,,,,p1,2022_May_12_1320,training+cueing,2021.1.4,59.996532160066586,
Self.png,You,Self ,c,1,11,21,91,,,,,1,0,1,0,,,,,0,9,9,9,,,,,,,,,,,,,,,,,,,,,1.707,1.745,429.17880659969524,None,,,,,,,,,,,,,,,,,,,,429.7190116997808,430.2231119000353,0.5073494003154337,1.0076919002458453,430.20644690003246,430.3064663000405,430.20644690003246,430.3064663000405,430.3064663000405,None,c,1,0.5155121996067464,430.3064663000405,None,,,,,,,p1,2022_May_12_1320,training+cueing,2021.1.4,59.996532160066586,
Friend.png,You,Friend,m,1.2,14,24,94,,,,,1,0,1,0,,,,,0,10,10,3,,,,,,,,,,,,,,,,,,,,,1.425,2.166,430.94603420002386,None,,,,,,,,,,,,,,,,,,,,431.48323379969224,431.99106259969994,0.5128828999586403,1.0139629002660513,431.97436989983544,432.07441549981013,431.97436989983544,432.07441549981013,432.07441549981013,None,m,1,0.6516571999527514,432.07441549981013,None,,,,,,,p1,2022_May_12_1320,training+cueing,2021.1.4,59.996532160066586,
Stranger.png,Stranger,Stranger,c,3,13,23,93,,,,,1,0,1,0,,,,,0,11,11,11,,,,,,,,,,,,,,,,,,,,,1.709,2.266,432.8491794997826,None,,,,,,,,,,,,,,,,,,,,433.3918773997575,433.8924201996997,0.5007042004726827,1.0016087000258267,433.8757287999615,433.9924691999331,433.8757287999615,433.9924691999331,433.9924691999331,None,c,1,0.49372039968147874,433.9924691999331,None,,,,,,,p1,2022_May_12_1320,training+cueing,2021.1.4,59.996532160066586,
Friend.png,Stranger,Friend,m,3.2,19,29,99,,,,,1,0,1,0,,,,,1,0,12,5,,,,,,,,,,,,,,,,,,,,,1.426,1.622,434.6198982000351,None,,,,,,,,,,,,,,,,,,,,435.1665900996886,435.6770532997325,0.5030868998728693,1.0033944002352655,435.66036619991064,435.7770905997604,435.66036619991064,435.7770905997604,435.7604237999767,None,m,1,0.5654996000230312,435.7604237999767,None,,,,,,,p1,2022_May_12_1320,training+cueing,2021.1.4,59.996532160066586,
Self.png,Friend,Self ,m,2.1,16,26,96,,,,,1,0,1,0,,,,,1,1,13,1,,,,,,,,,,,,,,,,,,,,,1.423,1.772,436.4502881998196,None,,,,,,,,,,,,,,,,,,,,436.9911384000443,437.4950338997878,0.5077573996968567,1.0082792998291552,437.47836839966476,437.5950833996758,437.47836839966476,437.5950833996758,437.57843629969284,None,m,1,0.5555805000476539,437.57843629969284,None,,,,,,,p1,2022_May_12_1320,training+cueing,2021.1.4,59.996532160066586,
Friend.png,Friend,Friend,c,2,12,22,92,,,,,1,0,1,0,,,,,1,2,14,10,,,,,,,,,,,,,,,,,,,,,1.785,1.328,438.2689451999031,None,,,,,,,,,,,,,,,,,,,,438.8133370997384,439.31304530007765,0.5113254999741912,1.0117429001256824,439.2963284999132,439.4132181000896,439.2963284999132,439.4132181000896,439.3963452000171,None,c,1,0.46562959998846054,439.3963452000171,None,,,,,,,p1,2022_May_12_1320,training+cueing,2021.1.4,59.996532160066586,
Self.png,Stranger,Self ,m,3.1,18,28,98,,,,,1,0,1,0,,,,,1,3,15,2,,,,,,,,,,,,,,,,,,,,,1.53,1.669,439.986322700046,None,,,,,,,,,,,,,,,,,,,,440.54602489992976,441.0476958998479,0.5023689004592597,1.0026236004196107,441.030931300018,441.1476175999269,441.030931300018,441.1476175999269,441.1309603997506,None,m,1,0.6829981002956629,441.1309603997506,None,,,,,,,p1,2022_May_12_1320,training+cueing,2021.1.4,59.996532160066586,
Stranger.png,Stranger,Stranger,c,3,13,23,93,,,,,1,0,1,0,,,,,1,4,16,11,,,,,,,,,,,,,,,,,,,,,1.787,1.816,441.93845969997346,None,,,,,,,,,,,,,,,,,,,,442.4766231998801,442.98236529994756,0.5118405995890498,1.0121611999347806,442.9656434999779,443.08241159981117,442.9656434999779,443.08241159981117,443.06570199970156,None,m,0,0.7484630001708865,443.06570199970156,None,,,,,,,p1,2022_May_12_1320,training+cueing,2021.1.4,59.996532160066586,
Friend.png,You,Friend,m,1.2,14,24,94,,,,,1,0,1,0,,,,,1,5,17,3,,,,,,,,,,,,,,,,,,,,,1.463,1.651,443.94315989967436,None,,,,,,,,,,,,,,,,,,,,444.4827624000609,444.98380839964375,0.5024421000853181,None,444.9671294,445.067121299915,444.9671294,445.067121299915,445.067121299915,None,c,0,0.3147490997798741,445.067121299915,None,,,,,,,p1,2022_May_12_1320,training+cueing,2021.1.4,59.996532160066586,
Stranger.png,Friend,Stranger,m,2.3,17,27,97,,,,,1,0,1,0,,,,,1,6,18,7,,,,,,,,,,,,,,,,,,,,,1.48,2.154,445.50712030008435,None,,,,,,,,,,,,,,,,,,,,446.0457799998112,446.5516822999343,0.509947800077498,1.010111200157553,446.53500219993293,446.6516538998112,446.53500219993293,446.6516538998112,446.63503920007497,None,c,0,0.6348790000192821,446.63503920007497,None,,,,,,,p1,2022_May_12_1320,training+cueing,2021.1.4,59.996532160066586,
Friend.png,Friend,Friend,c,2,12,22,92,,,,,1,0,1,0,,,,,1,7,19,4,,,,,,,,,,,,,,,,,,,,,1.664,1.5,447.39169979980215,None,,,,,,,,,,,,,,,,,,,,447.93114349991083,448.4363061999902,0.5103890001773834,1.0106572001241148,448.41962369997054,448.5363165996969,448.41962369997054,448.5363165996969,448.51966729993,None,m,0,0.39820179995149374,448.51966729993,None,,,,,,,p1,2022_May_12_1320,training+cueing,2021.1.4,59.996532160066586,
Stranger.png,You,Stranger,m,1.3,15,25,95,,,,,1,0,1,0,,,,,1,8,20,6,,,,,,,,,,,,,,,,,,,,,1.609,1.319,449.0422714999877,None,,,,,,,,,,,,,,,,,,,,449.600288100075,450.10446939989924,0.5067007001489401,1.0069550005719066,450.0877935998142,450.1878434997052,450.0877935998142,450.1878434997052,450.1878434997052,None,m,1,0.5381901003420353,450.1878434997052,None,,,,,,,p1,2022_May_12_1320,training+cueing,2021.1.4,59.996532160066586,
Stranger.png,Stranger,Stranger,c,3,13,23,93,,,,,1,0,1,0,,,,,1,9,21,8,,,,,,,,,,,,,,,,,,,,,1.718,1.747,450.86263419967145,None,,,,,,,,,,,,,,,,,,,,451.40398029983044,451.90548379998654,0.5036971000954509,1.0040122997015715,451.8887944999151,452.00552699994296,451.8887944999151,452.00552699994296,451.9888443998061,None,m,0,0.6091777998954058,451.9888443998061,None,,,,,,,p1,2022_May_12_1320,training+cueing,2021.1.4,59.996532160066586,
Self.png,You,Self ,c,1,11,21,91,,,,,1,0,1,0,,,,,1,10,22,0,,,,,,,,,,,,,,,,,,,,,1.638,1.68,452.7289561997168,None,,,,,,,,,,,,,,,,,,,,453.2706089997664,453.7734820996411,0.5056178998202085,1.0059110997244716,453.756802899763,453.8568786000833,453.756802899763,453.8568786000833,453.8568786000833,None,c,1,0.5971182999201119,453.8568786000833,None,,,,,,,p1,2022_May_12_1320,training+cueing,2021.1.4,59.996532160066586,
Self.png,You,Self ,c,1,11,21,91,,,,,1,0,1,0,,,,,1,11,23,9,,,,,,,,,,,,,,,,,,,,,1.737,1.618,454.57978489995,None,,,,,,,,,,,,,,,,,,,,455.11794209992513,455.62498409999534,0.5128695997409523,1.0128842000849545,455.60857019992545,455.7082046000287,455.60857019992545,455.7082046000287,455.7082046000287,None,c,1,0.6178636001423001,455.7082046000287,None,,,,,,,p1,2022_May_12_1320,training+cueing,2021.1.4,59.996532160066586,
Friend.png,Friend,Friend,c,2,12,22,92,,,,,1,0,1,0,,,,,2,0,24,10,,,,,,,,,,,,,,,,,,,,,1.77,1.658,456.4500504997559,None,,,,,,,,,,,,,,,,,,,,456.99228379968554,457.4929844997823,0.5024266000837088,1.0027265003882349,457.47614939976484,457.5929359998554,457.47614939976484,457.5929359998554,457.57621550001204,None,c,1,0.41366299986839294,457.57621550001204,None,,,,,,,p1,2022_May_12_1320,training+cueing,2021.1.4,59.996532160066586,
Stranger.png,Stranger,Stranger,c,3,13,23,93,,,,,1,0,1,0,,,,,2,1,25,11,,,,,,,,,,,,,,,,,,,,,1.436,1.299,458.1158397998661,None,,,,,,,,,,,,,,,,,,,,458.65845600003377,459.16070490004495,0.5053560002706945,1.0056309001520276,459.14405140001327,459.26074779964983,459.14405140001327,459.26074779964983,459.2440657997504,None,m,0,0.47393579967319965,459.2440657997504,None,,,,,,,p1,2022_May_12_1320,training+cueing,2021.1.4,59.996532160066586,
Stranger.png,Friend,Stranger,m,2.3,17,27,97,,,,,1,0,1,0,,,,,2,2,26,7,,,,,,,,,,,,,,,,,,,,,1.755,1.622,459.85039420006797,None,,,,,,,,,,,,,,,,,,,,460.3903542999178,460.8952953000553,0.5089893997646868,1.0092468997463584,460.8786166999489,460.9953652997501,460.8786166999489,460.9953652997501,460.978658599779,None,m,1,0.6592417000792921,460.978658599779,None,,,,,,,p1,2022_May_12_1320,training+cueing,2021.1.4,59.996532160066586,
Friend.png,Friend,Friend,c,2,12,22,92,,,,,1,0,1,0,,,,,2,3,27,4,,,,,,,,,,,,,,,,,,,,,1.565,1.67,461.7691106996499,None,,,,,,,,,,,,,,,,,,,,462.3082707999274,462.8133473000489,0.5119868000037968,1.010192799847573,462.79876739997417,462.91340239997953,462.79876739997417,462.91340239997953,462.89673849986866,None,c,1,0.5651568998582661,462.89673849986866,None,,,,,,,p1,2022_May_12_1320,training+cueing,2021.1.4,59.996532160066586,
Stranger.png,Stranger,Stranger,c,3,13,23,93,,,,,1,0,1,0,,,,,2,4,28,8,,,,,,,,,,,,,,,,,,,,,1.43,2.1,463.58621879993007,None,,,,,,,,,,,,,,,,,,,,464.1264192000963,464.63134119985625,0.5068866000510752,1.0071665002033114,464.614660799969,464.7313870000653,464.614660799969,464.7313870000653,464.71467259991914,None,m,0,0.4112395001575351,464.71467259991914,None,,,,,,,p1,2022_May_12_1320,training+cueing,2021.1.4,59.996532160066586,
Self.png,Friend,Self ,m,2.1,16,26,96,,,,,1,0,1,0,,,,,2,5,29,1,,,,,,,,,,,,,,,,,,,,,1.786,2.025,465.2548837000504,None,,,,,,,,,,,,,,,,,,,,465.79608829971403,466.29920589970425,0.5061904001049697,None,466.28257660008967,466.39928709995,466.28257660008967,466.39928709995,466.382561000064,None,m,1,0.295318900141865,466.382561000064,None,,,,,,,p1,2022_May_12_1320,training+cueing,2021.1.4,59.996532160066586,
Self.png,You,Self ,c,1,11,21,91,,,,,1,0,1,0,,,,,2,6,30,9,,,,,,,,,,,,,,,,,,,,,1.725,2.113,466.8056542999111,None,,,,,,,,,,,,,,,,,,,,467.34753029979765,467.85034859972075,0.5062521998770535,None,467.8336996999569,467.93373559974134,467.8336996999569,467.93373559974134,467.93373559974134,None,m,0,0.05618980014696717,467.93373559974134,None,,,,,,,p1,2022_May_12_1320,training+cueing,2021.1.4,59.996532160066586,
Self.png,You,Self ,c,1,11,21,91,,,,,1,0,1,0,,,,,2,7,31,0,,,,,,,,,,,,,,,,,,,,,1.577,1.357,468.1228040996939,None,,,,,,,,,,,,,,,,,,,,468.66146519966424,469.16796500002965,0.51079719979316,None,469.15127679985017,469.25131259998307,469.15127679985017,469.25131259998307,469.25131259998307,None,c,1,0.2266424996778369,469.25131259998307,None,,,,,,,p1,2022_May_12_1320,training+cueing,2021.1.4,59.996532160066586,
Friend.png,You,Friend,m,1.2,14,24,94,,,,,1,0,1,0,,,,,2,8,32,3,,,,,,,,,,,,,,,,,,,,,1.779,2.108,469.607719599735,None,,,,,,,,,,,,,,,,,,,,470.1475486997515,470.652356099803,0.5109745999798179,None,470.6357028996572,470.7357414998114,470.6357028996572,470.7357414998114,470.7357414998114,None,m,1,0.134304900187999,470.7357414998114,None,,,,,,,p1,2022_May_12_1320,training+cueing,2021.1.4,59.996532160066586,
Stranger.png,You,Stranger,m,1.3,15,25,95,,,,,1,0,1,0,,,,,2,9,33,6,,,,,,,,,,,,,,,,,,,,,1.409,1.76,470.99221779964864,None,,,,,,,,,,,,,,,,,,,,471.53160939970985,472.036692999769,0.5107534001581371,1.0111088999547064,472.02003789972514,472.1200681999326,472.02003789972514,472.1200681999326,472.1200681999326,None,m,1,0.46176399989053607,472.1200681999326,None,,,,,,,p1,2022_May_12_1320,training+cueing,2021.1.4,59.996532160066586,
Self.png,Stranger,Self ,m,3.1,18,28,98,,,,,1,0,1,0,,,,,2,10,34,2,,,,,,,,,,,,,,,,,,,,,1.642,1.43,472.7104548998177,None,,,,,,,,,,,,,,,,,,,,473.2506991997361,473.7546279998496,0.5059329997748137,1.0062646996229887,473.7379278000444,473.8546209996566,473.7379278000444,473.8546209996566,473.83796729985625,None,c,0,0.6159250000491738,473.83796729985625,None,,,,,,,p1,2022_May_12_1320,training+cueing,2021.1.4,59.996532160066586,
Friend.png,Stranger,Friend,m,3.2,19,29,99,,,,,1,0,1,0,,,,,2,11,35,5,,,,,,,,,,,,,,,,,,,,,1.506,2.206,474.5782568999566,None,,,,,,,,,,,,,,,,,,,,475.11767649976537,475.6226325999014,0.5096098999492824,None,475.60599429998547,475.7226920998655,475.60599429998547,475.7226920998655,475.7059824997559,None,c,0,0.283965399954468,475.7059824997559,None,,,,,,,p1,2022_May_12_1320,training+cueing,2021.1.4,59.996532160066586,
Friend.png,Stranger,Friend,m,3.2,19,29,99,,,,,1,0,1,0,,,,,3,0,36,5,,,,,,,,,,,,,,,,,,,,,1.621,2.483,476.112000499852,None,,,,,,,,,,,,,,,,,,,,476.6514947996475,477.1570568997413,0.5092095998115838,1.0095158000476658,477.1403870997019,477.25714269978926,477.1403870997019,477.25714269978926,477.24044549977407,None,m,1,0.49351399997249246,477.24044549977407,None,,,,,,,p1,2022_May_12_1320,training+cueing,2021.1.4,59.996532160066586,
Self.png,You,Self ,c,1,11,21,91,,,,,1,0,1,0,,,,,3,1,37,9,,,,,,,,,,,,,,,,,,,,,1.699,2.281,477.8639936000109,None,,,,,,,,,,,,,,,,,,,,478.40346279973164,478.9083362999372,0.5100747002288699,1.010368900373578,478.8916613999754,478.99171199975535,478.8916613999754,478.99171199975535,478.99171199975535,None,c,1,0.5502349999733269,478.99171199975535,None,,,,,,,p1,2022_May_12_1320,training+cueing,2021.1.4,59.996532160066586,
Stranger.png,You,Stranger,m,1.3,15,25,95,,,,,1,0,1,0,,,,,3,2,38,6,,,,,,,,,,,,,,,,,,,,,1.526,1.893,479.66560299973935,None,,,,,,,,,,,,,,,,,,,,480.20509380009025,480.7096474999562,0.5105054001323879,1.0108067002147436,480.69295739987865,480.79305469989777,480.69295739987865,480.79305469989777,480.79305469989777,None,m,1,0.5731849996373057,480.79305469989777,None,,,,,,,p1,2022_May_12_1320,training+cueing,2021.1.4,59.996532160066586,
Stranger.png,Friend,Stranger,m,2.3,17,27,97,,,,,1,0,1,0,,,,,3,3,39,7,,,,,,,,,,,,,,,,,,,,,1.658,1.839,481.4998411000706,None,,,,,,,,,,,,,,,,,,,,482.0412599998526,482.54432399990037,0.5051398002542555,1.0053786002099514,482.52765429997817,482.6443810998462,482.52765429997817,482.6443810998462,482.6277030999772,None,m,1,0.7862805998884141,482.6277030999772,None,,,,,,,p1,2022_May_12_1320,training+cueing,2021.1.4,59.996532160066586,
Friend.png,You,Friend,m,1.2,14,24,94,,,,,1,0,1,0,,,,,3,4,40,3,,,,,,,,,,,,,,,,,,,,,1.418,2.346,483.5513526997529,None,,,,,,,,,,,,,,,,,,,,484.0919059999287,484.5958104999736,0.5080328993499279,1.0083159995265305,484.57911229971796,484.67913240008056,484.57911229971796,484.67913240008056,484.67913240008056,None,m,1,0.6547759999521077,484.67913240008056,None,,,,,,,p1,2022_May_12_1320,training+cueing,2021.1.4,59.996532160066586,
Self.png,You,Self ,c,1,11,21,91,,,,,1,0,1,0,,,,,3,5,41,0,,,,,,,,,,,,,,,,,,,,,1.697,1.476,485.46912779984996,None,,,,,,,,,,,,,,,,,,,,486.0089997998439,486.5138832000084,0.5106105003505945,1.0115279001183808,486.49717319989577,486.59721449995413,486.49717319989577,486.59721449995413,486.59721449995413,None,c,1,0.5768094002269208,486.59721449995413,None,,,,,,,p1,2022_May_12_1320,training+cueing,2021.1.4,59.996532160066586,
Friend.png,Friend,Friend,c,2,12,22,92,,,,,1,0,1,0,,,,,3,6,42,4,,,,,,,,,,,,,,,,,,,,,1.758,1.831,487.3053598999977,None,,,,,,,,,,,,,,,,,,,,487.84709429973736,488.34848459996283,0.5020055999048054,1.0024806000292301,488.3318342999555,488.4485364998691,488.3318342999555,488.4485364998691,488.43186850007623,None,m,0,0.5820367000997066,488.43186850007623,None,,,,,,,p1,2022_May_12_1320,training+cueing,2021.1.4,59.996532160066586,
Friend.png,Friend,Friend,c,2,12,22,92,,,,,1,0,1,0,,,,,3,7,43,10,,,,,,,,,,,,,,,,,,,,,1.562,1.3,489.13999089971185,None,,,,,,,,,,,,,,,,,,,,489.67985989991575,490.18317269999534,0.5066071003675461,None,490.16645850008354,490.2832090999,490.16645850008354,490.2832090999,490.26652099983767,None,c,1,0.3154982002452016,490.26652099983767,None,,,,,,,p1,2022_May_12_1320,training+cueing,2021.1.4,59.996532160066586,
Self.png,Stranger,Self ,m,3.1,18,28,98,,,,,1,0,1,0,,,,,3,8,44,2,,,,,,,,,,,,,,,,,,,,,1.575,2.213,490.7100857999176,None,,,,,,,,,,,,,,,,,,,,491.2483740998432,491.7510055997409,0.5037465998902917,1.0040352996438742,491.7343060998246,491.8510181000456,491.7343060998246,491.8510181000456,491.8343450999819,None,c,0,0.6355389999225736,491.8343450999819,None,,,,,,,p1,2022_May_12_1320,training+cueing,2021.1.4,59.996532160066586,
Stranger.png,Stranger,Stranger,c,3,13,23,93,,,,,1,0,1,0,,,,,3,9,45,11,,,,,,,,,,,,,,,,,,,,,1.425,1.919,492.6080879000947,None,,,,,,,,,,,,,,,,,,,,493.1467357999645,493.6523488997482,0.5108567997813225,None,493.6356746996753,493.7524051000364,493.6356746996753,493.7524051000364,493.7357244999148,None,m,0,0.31817980017513037,493.7357244999148,None,,,,,,,p1,2022_May_12_1320,training+cueing,2021.1.4,59.996532160066586,
Stranger.png,Stranger,Stranger,c,3,13,23,93,,,,,1,0,1,0,,,,,3,10,46,8,,,,,,,,,,,,,,,,,,,,,1.779,1.72,494.17597099998966,None,,,,,,,,,,,,,,,,,,,,494.71430259989575,495.2201395998709,0.511090399697423,1.011399199720472,495.20344499964267,495.3202044996433,495.20344499964267,495.3202044996433,495.3034618999809,None,m,0,0.5744918002746999,495.3034618999809,None,,,,,,,p1,2022_May_12_1320,training+cueing,2021.1.4,59.996532160066586,
Self.png,Friend,Self ,m,2.1,16,26,96,,,,,1,0,1,0,,,,,3,11,47,1,,,,,,,,,,,,,,,,,,,,,1.755,2.198,496.0100680999458,None,,,,,,,,,,,,,,,,,,,,496.5513316998258,497.0548136997968,0.5057620997540653,1.0060419999063015,497.03816360002384,497.1550553999841,497.03816360002384,497.1550553999841,497.1381982997991,None,m,1,0.45169709995388985,497.1381982997991,None,,,,,,,p1,2022_May_12_1320,training+cueing,2021.1.4,59.996532160066586,
Stranger.png,Friend,Stranger,m,2.3,17,27,97,,,,,1,0,1,0,,,,,4,0,48,7,,,,,,,,,,,,,,,,,,,,,1.56,1.834,497.71122869988903,None,,,,,,,,,,,,,,,,,,,,498.25108669977635,498.7560263997875,0.5125275999307632,1.012798999901861,498.73936969973147,498.856084600091,498.73936969973147,498.856084600091,498.83941360004246,None,c,0,0.5904912003315985,498.83941360004246,None,,,,,,,p1,2022_May_12_1320,training+cueing,2021.1.4,59.996532160066586,
Stranger.png,Stranger,Stranger,c,3,13,23,93,,,,,1,0,1,0,,,,,4,1,49,11,,,,,,,,,,,,,,,,,,,,,1.461,1.536,499.56316679995507,None,,,,,,,,,,,,,,,,,,,,500.1046563000418,500.60739089967683,0.5051859002560377,1.005488600116223,500.59070440009236,500.7074277997017,500.59070440009236,500.7074277997017,500.69072559988126,None,c,1,0.6111983000300825,500.69072559988126,None,,,,,,,p1,2022_May_12_1320,training+cueing,2021.1.4,59.996532160066586,
Friend.png,Friend,Friend,c,2,12,22,92,,,,,1,0,1,0,,,,,4,2,50,4,,,,,,,,,,,,,,,,,,,,,1.661,1.884,501.4311816999689,None,,,,,,,,,,,,,,,,,,,,501.9708199999295,502.47533660009503,0.5068605998530984,1.0071478001773357,502.458717700094,502.5754491998814,502.458717700094,502.5754491998814,502.5587736000307,None,m,0,0.42323580011725426,502.5587736000307,None,,,,,,,p1,2022_May_12_1320,training+cueing,2021.1.4,59.996532160066586,
Friend.png,Stranger,Friend,m,3.2,19,29,99,,,,,1,0,1,0,,,,,4,3,51,5,,,,,,,,,,,,,,,,,,,,,1.419,1.402,503.11566059989855,None,,,,,,,,,,,,,,,,,,,,503.65841619996354,504.1599238999188,0.5049434001557529,None,504.14324489980936,504.26002839999273,504.14324489980936,504.26002839999273,504.2432861998677,None,m,1,0.33860099967569113,504.2432861998677,None,,,,,,,p1,2022_May_12_1320,training+cueing,2021.1.4,59.996532160066586,
Self.png,You,Self ,c,1,11,21,91,,,,,1,0,1,0,,,,,4,4,52,9,,,,,,,,,,,,,,,,,,,,,1.773,2.243,504.7163410997018,None,,,,,,,,,,,,,,,,,,,,505.25642739981413,505.7611610996537,0.506611299701035,1.0071677998639643,505.74440259998664,505.84452209994197,505.74440259998664,505.84452209994197,505.84452209994197,None,c,1,0.4974556998349726,505.84452209994197,None,,,,,,,p1,2022_May_12_1320,training+cueing,2021.1.4,59.996532160066586,
Stranger.png,Stranger,Stranger,c,3,13,23,93,,,,,1,0,1,0,,,,,4,5,53,8,,,,,,,,,,,,,,,,,,,,,1.578,2.239,506.4694686997682,None,,,,,,,,,,,,,,,,,,,,507.07138040009886,507.5791505998932,0.4998997002840042,None,507.56239139987156,507.6797640998848,507.56239139987156,507.6797640998848,507.6797640998848,None,m,0,0.19813290005549788,507.6797640998848,None,,,,,,,p1,2022_May_12_1320,training+cueing,2021.1.4,59.996532160066586,
Stranger.png,You,Stranger,m,1.3,15,25,95,,,,,1,0,1,0,,,,,4,6,54,6,,,,,,,,,,,,,,,,,,,,,1.412,1.49,508.00317909987643,None,,,,,,,,,,,,,,,,,,,,508.5420229998417,509.0468252999708,0.510408999864012,None,509.0301324999891,509.13019949989393,509.0301324999891,509.13019949989393,509.13019949989393,None,c,0,0.07575349975377321,509.13019949989393,None,,,,,,,p1,2022_May_12_1320,training+cueing,2021.1.4,59.996532160066586,
Friend.png,Friend,Friend,c,2,12,22,92,,,,,1,0,1,0,,,,,4,7,55,10,,,,,,,,,,,,,,,,,,,,,1.639,2.244,509.3365528997965,None,,,,,,,,,,,,,,,,,,,,509.8911275998689,510.39780919998884,0.511880200356245,1.0122899003326893,510.3811836000532,510.4978469000198,510.3811836000532,510.4978469000198,510.4811541996896,None,None,0,,510.4811541996896,None,,,,,,,p1,2022_May_12_1320,training+cueing,2021.1.4,59.996532160066586,
Self.png,Friend,Self ,m,2.1,16,26,96,,,,,1,0,1,0,,,,,4,8,56,1,,,,,,,,,,,,,,,,,,,,,1.758,2.499,512.2382098999806,None,,,,,,,,,,,,,,,,,,,,512.7771087996662,513.2832259000279,0.5113409995101392,1.0115307997912169,513.2666253997013,513.3832783997059,513.2666253997013,513.3832783997059,513.3665815996937,None,c,0,0.4473419999703765,513.3665815996937,None,,,,,,,p1,2022_May_12_1320,training+cueing,2021.1.4,59.996532160066586,
Friend.png,You,Friend,m,1.2,14,24,94,,,,,1,0,1,0,,,,,4,9,57,3,,,,,,,,,,,,,,,,,,,,,1.613,2.423,513.9398141996935,None,,,,,,,,,,,,,,,,,,,,514.4941255999729,515.001101499889,0.5145244002342224,1.0148235000669956,514.9844467998482,515.0845018997788,514.9844467998482,515.0845018997788,515.0845018997788,None,c,0,0.6652887999080122,515.0845018997788,None,,,,,,,p1,2022_May_12_1320,training+cueing,2021.1.4,59.996532160066586,
Self.png,You,Self ,c,1,11,21,91,,,,,1,0,1,0,,,,,4,10,58,0,,,,,,,,,,,,,,,,,,,,,1.589,1.591,515.8742432999425,None,,,,,,,,,,,,,,,,,,,,516.4358867998235,516.9358755000867,0.4994294005446136,0.9996859007515013,516.9192137997597,517.0193338999525,516.9192137997597,517.0193338999525,517.0193338999525,None,c,1,0.6352055999450386,517.0193338999525,None,,,,,,,p1,2022_May_12_1320,training+cueing,2021.1.4,59.996532160066586,
Self.png,Stranger,Self ,m,3.1,18,28,98,,,,,1,0,1,0,,,,,4,11,59,2,,,,,,,,,,,,,,,,,,,,,1.406,2.175,517.7802259000018,None,,,,,,,,,,,,,,,,,,,,518.3174474998377,518.8205480999313,0.5051048998720944,1.0055619995109737,518.8038892997429,518.9208598998375,518.8038892997429,518.9208598998375,518.904079400003,None,m,1,0.4779099998995662,518.904079400003,None,,,,,,,p1,2022_May_12_1320,training+cueing,2021.1.4,59.996532160066586,
Friend.png,Friend,Friend,c,2,12,22,92,,,,,1,0,1,0,,,,,5,0,60,4,,,,,,,,,,,,,,,,,,,,,1.469,1.973,519.5120703000575,None,,,,,,,,,,,,,,,,,,,,520.0526085998863,520.5551407998428,0.5029933000914752,1.0032163001596928,520.5385555000976,520.6552077997476,520.5385555000976,520.6552077997476,520.6384958000854,None,c,1,0.39136110013350844,520.6384958000854,None,,,,,,,p1,2022_May_12_1320,training+cueing,2021.1.4,59.996532160066586,
Friend.png,You,Friend,m,1.2,14,24,94,,,,,1,0,1,0,,,,,5,1,61,3,,,,,,,,,,,,,,,,,,,,,1.449,2.364,521.1618447997607,None,,,,,,,,,,,,,,,,,,,,521.7035309998319,522.2063850997947,0.5053126001730561,1.0056047001853585,522.1896782000549,522.2897346997634,522.1896782000549,522.2897346997634,522.2897346997634,None,c,0,0.42011240031570196,522.2897346997634,None,,,,,,,p1,2022_May_12_1320,training+cueing,2021.1.4,59.996532160066586,
Friend.png,Friend,Friend,c,2,12,22,92,,,,,1,0,1,0,,,,,5,2,62,10,,,,,,,,,,,,,,,,,,,,,1.517,2.232,522.8459844999015,None,,,,,,,,,,,,,,,,,,,,523.3860033997335,523.8909009997733,0.5094424998387694,1.0097578996792436,523.8742104996927,523.9909525997937,523.8742104996927,523.9909525997937,523.974270499777,None,m,0,0.5116232000291348,523.974270499777,None,,,,,,,p1,2022_May_12_1320,training+cueing,2021.1.4,59.996532160066586,
Self.png,Friend,Self ,m,2.1,16,26,96,,,,,1,0,1,0,,,,,5,3,63,1,,,,,,,,,,,,,,,,,,,,,1.448,2.076,524.6146162999794,None,,,,,,,,,,,,,,,,,,,,525.1523509998806,525.6588619998656,0.5106679000891745,1.0109655000269413,525.6421535997652,525.7589027998038,525.6421535997652,525.7589027998038,525.742216499988,None,m,1,0.6156254997476935,525.742216499988,None,,,,,,,p1,2022_May_12_1320,training+cueing,2021.1.4,59.996532160066586,
Self.png,You,Self ,c,1,11,21,91,,,,,1,0,1,0,,,,,5,4,64,9,,,,,,,,,,,,,,,,,,,,,1.519,1.802,526.4833843996748,None,,,,,,,,,,,,,,,,,,,,527.0246732998639,527.5268668998033,0.505825899541378,1.0061881998553872,527.510174700059,527.6102326996624,527.510174700059,527.6102326996624,527.6102326996624,None,c,1,0.39564340002834797,527.6102326996624,None,,,,,,,p1,2022_May_12_1320,training+cueing,2021.1.4,59.996532160066586,
Stranger.png,Stranger,Stranger,c,3,13,23,93,,,,,1,0,1,0,,,,,5,5,65,8,,,,,,,,,,,,,,,,,,,,,1.671,1.828,528.1333041996695,None,,,,,,,,,,,,,,,,,,,,528.6744017996825,529.1780487000942,0.5078978999517858,None,529.1614060997963,529.2782020997256,529.1614060997963,529.2782020997256,529.2614046996459,None,c,1,0.36042159982025623,529.2614046996459,None,,,,,,,p1,2022_May_12_1320,training+cueing,2021.1.4,59.996532160066586,
Self.png,You,Self ,c,1,11,21,91,,,,,1,0,1,0,,,,,5,6,66,0,,,,,,,,,,,,,,,,,,,,,1.711,2.363,529.7505930997431,None,,,,,,,,,,,,,,,,,,,,530.2906047999859,530.7960116998293,0.5082499999552965,1.0085690999403596,530.7793255997822,530.8793798997067,530.7793255997822,530.8793798997067,530.8793798997067,None,c,1,0.45451589999720454,530.8793798997067,None,,,,,,,p1,2022_May_12_1320,training+cueing,2021.1.4,59.996532160066586,
Friend.png,Stranger,Friend,m,3.2,19,29,99,,,,,1,0,1,0,,,,,5,7,67,5,,,,,,,,,,,,,,,,,,,,,1.734,2.0,531.4692114000209,None,,,,,,,,,,,,,,,,,,,,532.0120782000013,532.5138147999533,0.5040215998888016,1.0042976001277566,532.4971320996992,532.6138810999691,532.4971320996992,532.6138810999691,532.5971761997789,None,m,1,0.43267460027709603,532.5971761997789,None,,,,,,,p1,2022_May_12_1320,training+cueing,2021.1.4,59.996532160066586,
Stranger.png,Friend,Stranger,m,2.3,17,27,97,,,,,1,0,1,0,,,,,5,8,68,7,,,,,,,,,,,,,,,,,,,,,1.672,1.784,533.1539364997298,None,,,,,,,,,,,,,,,,,,,,533.6948524001054,534.1985284998082,0.5046131000854075,1.004867000039667,534.1818551998585,534.2985962997191,534.1818551998585,534.2985962997191,534.2818845999427,None,m,1,0.46002430003136396,534.2818845999427,None,,,,,,,p1,2022_May_12_1320,training+cueing,2021.1.4,59.996532160066586,
Stranger.png,You,Stranger,m,1.3,15,25,95,,,,,1,0,1,0,,,,,5,9,69,6,,,,,,,,,,,,,,,,,,,,,1.633,2.247,534.8731666998938,None,,,,,,,,,,,,,,,,,,,,535.4137478000484,535.9162717000581,0.5044960002414882,1.0049146004021168,535.8996293996461,535.9996392000467,535.8996293996461,535.9996392000467,535.9996392000467,None,c,0,0.4542539999820292,535.9996392000467,None,,,,,,,p1,2022_May_12_1320,training+cueing,2021.1.4,59.996532160066586,
Stranger.png,Stranger,Stranger,c,3,13,23,93,,,,,1,0,1,0,,,,,5,10,70,11,,,,,,,,,,,,,,,,,,,,,1.578,1.948,536.5913053997792,None,,,,,,,,,,,,,,,,,,,,537.1334023000672,537.6341935000382,0.502201700117439,None,537.6175404996611,537.734232199844,537.6175404996611,537.734232199844,537.7175544998609,None,m,0,0.3045232999138534,537.7175544998609,None,,,,,,,p1,2022_May_12_1320,training+cueing,2021.1.4,59.996532160066586,
Self.png,Stranger,Self ,m,3.1,18,28,98,,,,,1,0,1,0,,,,,5,11,71,2,,,,,,,,,,,,,,,,,,,,,1.494,1.293,538.1609628996812,None,,,,,,,,,,,,,,,,,,,,538.6978951999918,539.2020200998522,0.5068471999838948,None,539.1853259997442,539.3020444996655,539.1853259997442,539.3020444996655,539.285300000105,None,c,0,0.3685708995908499,539.285300000105,None,,,,,,,p1,2022_May_12_1320,training+cueing,2021.1.4,59.996532160066586,
Friend.png,Friend,Friend,c,2,12,22,92,,,,,1,0,1,0,,,,,6,0,72,10,,,,,,,,,,,,,,,,,,,,,1.424,1.471,539.7919433997013,None,,,,,,,,,,,,,,,,,,,,540.3332571997307,540.8365138997324,0.5064566996879876,None,540.8198289996944,540.9365491000935,540.8198289996944,540.9365491000935,540.9198627998121,None,c,1,0.23795370012521744,540.9198627998121,None,,,,,,,p1,2022_May_12_1320,training+cueing,2021.1.4,59.996532160066586,
Stranger.png,Stranger,Stranger,c,3,13,23,93,,,,,1,0,1,0,,,,,6,1,73,8,,,,,,,,,,,,,,,,,,,,,1.609,2.131,541.2933332999237,None,,,,,,,,,,,,,,,,,,,,541.8359233997762,542.3376193000004,0.504184499848634,None,542.3209069999866,542.437645799946,542.3209069999866,542.437645799946,542.4209702997468,None,m,0,0.38489139964804053,542.4209702997468,None,,,,,,,p1,2022_May_12_1320,training+cueing,2021.1.4,59.996532160066586,
Self.png,Friend,Self ,m,2.1,16,26,96,,,,,1,0,1,0,,,,,6,2,74,1,,,,,,,,,,,,,,,,,,,,,1.404,2.029,542.9278831998818,None,,,,,,,,,,,,,,,,,,,,543.4676439999603,543.9721332998015,0.5078353001736104,None,543.9554180996493,544.0721545000561,543.9554180996493,544.0721545000561,544.0554448999465,None,c,0,0.17432260001078248,544.0554448999465,None,,,,,,,p1,2022_May_12_1320,training+cueing,2021.1.4,59.996532160066586,
Self.png,You,Self ,c,1,11,21,91,,,,,1,0,1,0,,,,,6,3,75,0,,,,,,,,,,,,,,,,,,,,,1.549,2.486,544.3619488999248,None,,,,,,,,,,,,,,,,,,,,544.9025131999515,545.4064695998095,0.5075925998389721,None,545.3898467998952,545.4898520000279,545.3898467998952,545.4898520000279,545.4898520000279,None,m,0,0.3562386999838054,545.4898520000279,None,,,,,,,p1,2022_May_12_1320,training+cueing,2021.1.4,59.996532160066586,
Friend.png,Stranger,Friend,m,3.2,19,29,99,,,,,1,0,1,0,,,,,6,4,76,5,,,,,,,,,,,,,,,,,,,,,1.413,1.338,545.9799758000299,None,,,,,,,,,,,,,,,,,,,,546.5198289998807,547.0243722996674,0.5061580999754369,None,547.0078189997002,547.1243941998109,547.0078189997002,547.1243941998109,547.1076654996723,None,m,1,0.3223393000662327,547.1076654996723,None,,,,,,,p1,2022_May_12_1320,training+cueing,2021.1.4,59.996532160066586,
Stranger.png,Stranger,Stranger,c,3,13,23,93,,,,,1,0,1,0,,,,,6,5,77,11,,,,,,,,,,,,,,,,,,,,,1.692,2.039,547.5646402998827,None,,,,,,,,,,,,,,,,,,,,548.1033274997026,548.6087762997486,0.5104030002839863,None,548.5921176997945,548.7093620998785,548.5921176997945,548.7093620998785,548.6927197999321,None,m,0,0.3692223997786641,548.6927197999321,None,,,,,,,p1,2022_May_12_1320,training+cueing,2021.1.4,59.996532160066586,
Self.png,Stranger,Self ,m,3.1,18,28,98,,,,,1,0,1,0,,,,,6,6,78,2,,,,,,,,,,,,,,,,,,,,,1.484,1.742,549.2001368999481,None,,,,,,,,,,,,,,,,,,,,549.7535554999486,550.2602368998341,0.5142710004001856,None,550.2435416998342,550.3602710999548,550.2435416998342,550.3602710999548,550.3435602998361,None,c,0,0.22236000001430511,550.3435602998361,None,,,,,,,p1,2022_May_12_1320,training+cueing,2021.1.4,59.996532160066586,
Stranger.png,You,Stranger,m,1.3,15,25,95,,,,,1,0,1,0,,,,,6,7,79,6,,,,,,,,,,,,,,,,,,,,,1.624,1.542,550.7011204999872,None,,,,,,,,,,,,,,,,,,,,551.2415290996432,551.7443999000825,0.5032198000699282,None,551.7277196999639,551.827809299808,551.7277196999639,551.827809299808,551.827809299808,None,m,1,0.27407489996403456,551.827809299808,None,,,,,,,p1,2022_May_12_1320,training+cueing,2021.1.4,59.996532160066586,
Friend.png,You,Friend,m,1.2,14,24,94,,,,,1,0,1,0,,,,,6,8,80,3,,,,,,,,,,,,,,,,,,,,,1.77,2.076,552.2340704998933,None,,,,,,,,,,,,,,,,,,,,552.773892399855,553.2788468999788,0.5104216998443007,None,553.2621872997843,553.3622149000876,553.2621872997843,553.3622149000876,553.3622149000876,None,c,0,0.2915953998453915,553.3622149000876,None,,,,,,,p1,2022_May_12_1320,training+cueing,2021.1.4,59.996532160066586,
Self.png,You,Self ,c,1,11,21,91,,,,,1,0,1,0,,,,,6,9,81,9,,,,,,,,,,,,,,,,,,,,,1.41,1.251,553.7861977000721,None,,,,,,,,,,,,,,,,,,,,554.3443650999106,554.8466689996421,0.5063776997849345,None,554.8299830998294,554.930025300011,554.8299830998294,554.930025300011,554.930025300011,None,m,0,0.2597777000628412,554.930025300011,None,,,,,,,p1,2022_May_12_1320,training+cueing,2021.1.4,59.996532160066586,
Friend.png,Friend,Friend,c,2,12,22,92,,,,,1,0,1,0,,,,,6,10,82,4,,,,,,,,,,,,,,,,,,,,,1.502,1.703,555.3195780999959,None,,,,,,,,,,,,,,,,,,,,555.8656444996595,556.3811202999204,0.5133309001103044,None,556.3644043998793,556.481211700011,556.3644043998793,556.481211700011,556.4645422999747,None,m,0,0.341304499655962,556.4645422999747,None,,,,,,,p1,2022_May_12_1320,training+cueing,2021.1.4,59.996532160066586,
Stranger.png,Friend,Stranger,m,2.3,17,27,97,,,,,1,0,1,0,,,,,6,11,83,7,,,,,,,,,,,,,,,,,,,,,1.725,1.634,556.9379988000728,None,,,,,,,,,,,,,,,,,,,,557.475400199648,557.9822537000291,0.5147587996907532,None,557.9655708000064,558.0823260997422,557.9655708000064,558.0823260997422,558.0655763996765,None,c,0,0.30820220010355115,558.0655763996765,None,,,,,,,p1,2022_May_12_1320,training+cueing,2021.1.4,59.996532160066586,
Self.png,You,Self ,c,1,11,21,91,,,,,1,0,1,0,,,,,7,0,84,0,,,,,,,,,,,,,,,,,,,,,1.461,2.487,558.5050781997852,None,,,,,,,,,,,,,,,,,,,,559.043889099732,559.5501568000764,0.5101767997257411,None,559.5334982997738,559.6333840000443,559.5334982997738,559.6333840000443,559.6333840000443,None,m,0,0.06841879989951849,559.6333840000443,None,,,,,,,p1,2022_May_12_1320,training+cueing,2021.1.4,59.996532160066586,
Stranger.png,Stranger,Stranger,c,3,13,23,93,,,,,1,0,1,0,,,,,7,1,85,8,,,,,,,,,,,,,,,,,,,,,1.778,2.256,559.8402796997689,None,,,,,,,,,,,,,,,,,,,,560.3860096000135,560.9010016997345,0.5144881997257471,None,560.8843351998366,561.0010474999435,560.8843351998366,561.0010474999435,560.984350499697,None,c,1,0.09345819987356663,560.984350499697,None,,,,,,,p1,2022_May_12_1320,training+cueing,2021.1.4,59.996532160066586,
