Image,Name,Face,CorrAns,Match,Face_onset,CResponse_onset,IResponse_onset,Match.thisRepN,Match.thisTrialN,Match.thisN,Match.thisIndex,Blocks.thisRepN,Blocks.thisTrialN,Blocks.thisN,Blocks.thisIndex,trials.thisRepN,trials.thisTrialN,trials.thisN,trials.thisIndex,trials_2.thisRepN,trials_2.thisTrialN,trials_2.thisN,trials_2.thisIndex,text.started,text.stopped,p1.started,p1.stopped,MatchInstructions.started,MatchInstructions.stopped,Name1.started,Name1.stopped,Face_Relevance.started,Face_Relevance.stopped,MismatchInstructions.started,MismatchInstructions.stopped,Rest_trainingInstruct.started,Rest_trainingInstruct.stopped,next8.keys,next8.rt,next8.started,next8.stopped,Ready.started,Ready.stopped,delay_one_picked,delay_two_picked,blank0.started,blank0.stopped,FixationCross1.started,FixationCross1.stopped,Name3.started,Name3.stopped,Face_Relevance3.started,Face_Relevance3.stopped,responseTime.started,responseTime.stopped,resp.keys,resp.corr,resp.started,resp.stopped,Accuracy.started,Accuracy.stopped,resp.rt,questions.started,questions.stopped,p2.started,p2.stopped,FixationCross3.started,FixationCross3.stopped,port_Face_onset.started,port_Face_onset.stopped,Name4.started,Name4.stopped,Face_Relevance4.started,Face_Relevance4.stopped,responseTime2.started,responseTime2.stopped,Response.keys,Response.corr,Response.rt,Response.started,Response.stopped,p3.started,p3.stopped,Finish.started,Finish.stopped,gender,age,participant,date,expName,psychopyVersion,frameRate,
Friend.png,Friend,,,,,,,0,0,0,1,,,,,,,,,,,,,15.17316950019449,None,0.014533299952745438,0.5399519000202417,33.26266400003806,None,46.54782210011035,None,46.54782210011035,None,,,,,,,,,,,,,,,,,,,,,,,,,,,,,,,,,,,,,,,,,,,,,,,,,,,,,,,p20,2022_Apr_28_1044,training+cueing,2021.1.4,60.02141566443008,
Stranger.png,Stranger,,,,,,,0,1,1,2,,,,,,,,,,,,,,,,,,,66.44878870015964,None,66.44878870015964,None,,,,,,,,,,,,,,,,,,,,,,,,,,,,,,,,,,,,,,,,,,,,,,,,,,,,,,,p20,2022_Apr_28_1044,training+cueing,2021.1.4,60.02141566443008,
Self.png,You,,,,,,,0,2,2,0,,,,,,,,,,,,,,,,,,,86.43732989998534,None,86.43732989998534,None,,,,,,,,,,,,,,,,,,,,,,,,,,,,,,,,,,,,,,,,,,,,,,,,,,,,,,,p20,2022_Apr_28_1044,training+cueing,2021.1.4,60.02141566443008,
Self.png,Stranger,Self ,m,3.1,18,28,98,,,,,0,0,0,0,0,0,0,2,,,,,,,,,,,,,,,106.3993071001023,None,153.34973610006273,None,space,1.9189784999471158,2.0082242998760194,None,157.2694263001904,None,1.431,1.912,160.28405870008282,None,160.9115278001409,161.42235190002248,161.40567590016872,161.52232540003024,161.40567590016872,161.52232540003024,161.50565900001675,None,None,0,161.50565900001675,None,162.93871000013314,None,,,,,,,,,,,,,,,,,,,,,,,,,,,p20,2022_Apr_28_1044,training+cueing,2021.1.4,60.02141566443008,
Friend.png,Stranger,Friend,m,3.2,19,29,99,,,,,0,0,0,0,0,1,1,5,,,,,,,,,,,,,,,,,,,,,,,,,1.547,1.386,163.3403315001633,None,163.87026970018633,164.37441070005298,164.3577756001614,164.47444920009002,164.3577756001614,164.47444920009002,164.45777700003237,None,c,0,164.45777700003237,None,165.2084088001866,None,0.731788800098002,,,,,,,,,,,,,,,,,,,,,,,,,,p20,2022_Apr_28_1044,training+cueing,2021.1.4,60.02141566443008,
Stranger.png,You,Stranger,m,1.3,15,25,95,,,,,0,0,0,0,0,2,2,6,,,,,,,,,,,,,,,,,,,,,,,,,1.704,1.82,165.6086747001391,None,166.1411888001021,166.64270270010456,166.62601900007576,166.7260764001403,166.62601900007576,166.7260764001403,166.7260764001403,None,m,1,166.7260764001403,None,167.44194330018945,None,0.6875813000369817,,,,,,,,,,,,,,,,,,,,,,,,,,p20,2022_Apr_28_1044,training+cueing,2021.1.4,60.02141566443008,
Self.png,You,Self ,c,1,11,21,91,,,,,0,0,0,0,0,3,3,9,,,,,,,,,,,,,,,,,,,,,,,,,1.679,1.222,167.84356850013137,None,168.36972529999912,168.87764080008492,168.86095340014435,168.9610572999809,168.86095340014435,168.9610572999809,168.9610572999809,None,c,1,168.9610572999809,None,169.82835120009258,None,0.8366634999401867,,,,,,,,,,,,,,,,,,,,,,,,,,p20,2022_Apr_28_1044,training+cueing,2021.1.4,60.02141566443008,
Self.png,Friend,Self ,m,2.1,16,26,96,,,,,0,0,0,0,0,4,4,1,,,,,,,,,,,,,,,,,,,,,,,,,1.697,2.496,170.2286355001852,None,170.76156010013074,171.2627389000263,171.2460444001481,171.36277490016073,171.2460444001481,171.36277490016073,171.34607070009224,None,m,1,171.34607070009224,None,172.19534830003977,None,0.819656299892813,,,,,,,,,,,,,,,,,,,,,,,,,,p20,2022_Apr_28_1044,training+cueing,2021.1.4,60.02141566443008,
Stranger.png,Stranger,Stranger,c,3,13,23,93,,,,,0,0,0,0,0,5,5,8,,,,,,,,,,,,,,,,,,,,,,,,,1.769,1.593,172.59706390020438,None,173.12993490020745,173.63110800017603,173.61442620004527,173.73110299999826,173.61442620004527,173.73110299999826,173.71444460004568,None,c,1,173.71444460004568,None,175.0821842001751,None,1.3471739999949932,,,,,,,,,,,,,,,,,,,,,,,,,,p20,2022_Apr_28_1044,training+cueing,2021.1.4,60.02141566443008,
Self.png,You,Self ,c,1,11,21,91,,,,,0,0,0,0,0,6,6,0,,,,,,,,,,,,,,,,,,,,,,,,,1.795,1.368,175.48241350008175,None,176.0146129000932,176.5164835001342,176.49985210015438,176.59983200021088,176.49985210015438,176.59983200021088,176.59983200021088,None,c,1,176.59983200021088,None,177.4338450001087,None,0.8137898000422865,,,,,,,,,,,,,,,,,,,,,,,,,,p20,2022_Apr_28_1044,training+cueing,2021.1.4,60.02141566443008,
Friend.png,You,Friend,m,1.2,14,24,94,,,,,0,0,0,0,0,7,7,3,,,,,,,,,,,,,,,,,,,,,,,,,1.431,1.436,177.83439400000498,None,178.37299110018648,178.88487140019424,178.86819260008633,178.96822580019943,178.86819260008633,178.96822580019943,178.96822580019943,None,m,1,178.96822580019943,None,179.73554980009794,None,0.7493249999824911,,,,,,,,,,,,,,,,,,,,,,,,,,p20,2022_Apr_28_1044,training+cueing,2021.1.4,60.02141566443008,
Stranger.png,Stranger,Stranger,c,3,13,23,93,,,,,0,0,0,0,0,8,8,11,,,,,,,,,,,,,,,,,,,,,,,,,1.792,1.813,180.13576570013538,None,180.67842120002024,181.18654230004176,181.1698448001407,181.2866064000409,181.1698448001407,181.2866064000409,181.26988240005448,None,c,1,181.26988240005448,None,182.1859971000813,None,0.8957803999073803,,,,,,,,,,,,,,,,,,,,,,,,,,p20,2022_Apr_28_1044,training+cueing,2021.1.4,60.02141566443008,
Friend.png,Friend,Friend,c,2,12,22,92,,,,,0,0,0,0,0,9,9,4,,,,,,,,,,,,,,,,,,,,,,,,,1.753,1.486,182.58754230011255,None,183.1367372001987,183.6383053001482,183.6216925000772,183.73846510006115,183.6216925000772,183.73846510006115,183.7216560000088,None,c,1,183.7216560000088,None,184.35509410011582,None,0.6043194001540542,,,,,,,,,,,,,,,,,,,,,,,,,,p20,2022_Apr_28_1044,training+cueing,2021.1.4,60.02141566443008,
Stranger.png,Friend,Stranger,m,2.3,17,27,97,,,,,0,0,0,0,0,10,10,7,,,,,,,,,,,,,,,,,,,,,,,,,1.791,1.33,184.7559009999968,None,185.2836596001871,185.78979980014265,185.77317370008677,185.88988450006582,185.77317370008677,185.88988450006582,185.87320830021054,None,c,0,185.87320830021054,None,187.1909076999873,None,1.3003477999009192,,,,,,,,,,,,,,,,,,,,,,,,,,p20,2022_Apr_28_1044,training+cueing,2021.1.4,60.02141566443008,
Friend.png,Friend,Friend,c,2,12,22,92,,,,,0,0,0,0,0,11,11,10,,,,,,,,,,,,,,,,,,,,,,,,,1.436,1.978,187.5911845001392,None,188.11945420014672,188.62521299999207,188.6085497001186,188.7252689001616,188.6085497001186,188.7252689001616,188.70857690018602,None,c,1,188.70857690018602,None,189.63439370016567,None,0.8972751998808235,,,,,,,,,,,,,,,,,,,,,,,,,,p20,2022_Apr_28_1044,training+cueing,2021.1.4,60.02141566443008,
Stranger.png,Friend,Stranger,m,2.3,17,27,97,,,,,0,0,0,0,,,,,0,0,0,7,,,,,,,,,,,,,,,,,,,254.78979970002547,None,1.591,1.847,258.30652670003474,None,,,,,,,,,,,,,,,,190.0430099000223,None,0.014417900005355477,0.5125072000082582,258.93321750010364,259.443063700106,0.5003235000185668,1.0004102000966668,259.4263096000068,259.5430192002095,259.4263096000068,259.5430192002095,259.5430192002095,None,c,0,0.8143641999922693,259.5430192002095,None,,,,,,,p20,2022_Apr_28_1044,training+cueing,2021.1.4,60.02141566443008,
Self.png,Friend,Self ,m,2.1,16,26,96,,,,,0,0,0,0,,,,,0,1,1,1,,,,,,,,,,,,,,,,,,,,,1.77,2.311,260.4847059000749,None,,,,,,,,,,,,,,,,,,,,261.02294220007025,261.52779770013876,0.5098891002126038,1.0102068001870066,261.51114250021055,261.6278507001698,261.51114250021055,261.6278507001698,261.611171600176,None,m,1,0.7782620000652969,261.611171600176,None,,,,,,,p20,2022_Apr_28_1044,training+cueing,2021.1.4,60.02141566443008,
Friend.png,Friend,Friend,c,2,12,22,92,,,,,0,0,0,0,,,,,0,2,2,10,,,,,,,,,,,,,,,,,,,,,1.659,2.004,262.5178061001934,None,,,,,,,,,,,,,,,,,,,,263.0623888000846,263.5626521999948,0.5012652000878006,1.0021012001670897,263.54592980002053,263.6626797001809,263.54592980002053,263.6626797001809,263.6626797001809,None,c,1,0.695018099853769,263.6626797001809,None,,,,,,,p20,2022_Apr_28_1044,training+cueing,2021.1.4,60.02141566443008,
Self.png,You,Self ,c,1,11,21,91,,,,,0,0,0,0,,,,,0,3,3,9,,,,,,,,,,,,,,,,,,,,,1.705,1.521,264.4897216001991,None,,,,,,,,,,,,,,,,,,,,265.0265731001273,265.53071440011263,0.505763900000602,1.0060598000418395,265.5140082000289,265.614052799996,265.5140082000289,265.614052799996,265.614052799996,None,c,1,1.0313417001161724,265.614052799996,None,,,,,,,p20,2022_Apr_28_1044,training+cueing,2021.1.4,60.02141566443008,
Friend.png,Friend,Friend,c,2,12,22,92,,,,,0,0,0,0,,,,,0,4,4,4,,,,,,,,,,,,,,,,,,,,,1.657,1.322,266.77150000003166,None,,,,,,,,,,,,,,,,,,,,267.30933180009015,267.8156948001124,0.5123964000958949,1.0131590000819415,267.7990664001554,267.9162588000763,267.7990664001554,267.9162588000763,267.8990451002028,None,c,1,0.6345162999350578,267.8990451002028,None,,,,,,,p20,2022_Apr_28_1044,training+cueing,2021.1.4,60.02141566443008,
Friend.png,You,Friend,m,1.2,14,24,94,,,,,0,0,0,0,,,,,0,5,5,3,,,,,,,,,,,,,,,,,,,,,1.7,1.747,268.6571163001936,None,,,,,,,,,,,,,,,,,,,,269.1956683001481,269.70035260007717,0.5098723000846803,1.0101715999189764,269.6836984001566,269.78376790019684,269.6836984001566,269.78376790019684,269.78376790019684,None,m,1,0.8777032000944018,269.78376790019684,None,,,,,,,p20,2022_Apr_28_1044,training+cueing,2021.1.4,60.02141566443008,
Self.png,You,Self ,c,1,11,21,91,,,,,0,0,0,0,,,,,0,6,6,0,,,,,,,,,,,,,,,,,,,,,1.469,2.116,270.7908656001091,None,,,,,,,,,,,,,,,,,,,,271.3253078002017,271.83527640020475,0.5005312000866979,1.0008667001966387,271.81856010016054,271.91860980005004,271.81856010016054,271.91860980005004,271.91860980005004,None,c,1,0.8068266999907792,271.91860980005004,None,,,,,,,p20,2022_Apr_28_1044,training+cueing,2021.1.4,60.02141566443008,
Friend.png,Stranger,Friend,m,3.2,19,29,99,,,,,0,0,0,0,,,,,0,7,7,5,,,,,,,,,,,,,,,,,,,,,1.523,2.327,272.8583771002013,None,,,,,,,,,,,,,,,,,,,,273.4001937999856,273.9034439001698,0.5063799999188632,1.0066504999995232,273.88671920006163,274.00347900018096,273.88671920006163,274.00347900018096,273.9867377001792,None,m,1,0.7229448000434786,273.9867377001792,None,,,,,,,p20,2022_Apr_28_1044,training+cueing,2021.1.4,60.02141566443008,
Self.png,Stranger,Self ,m,3.1,18,28,98,,,,,0,0,0,0,,,,,0,8,8,2,,,,,,,,,,,,,,,,,,,,,1.658,1.491,274.84682280011475,None,,,,,,,,,,,,,,,,,,,,275.38096590014175,275.8881690001581,0.5129249000456184,1.0132367999758571,275.8714649002068,275.9882110999897,275.8714649002068,275.9882110999897,275.9715205000248,None,m,1,0.8339454000815749,275.9715205000248,None,,,,,,,p20,2022_Apr_28_1044,training+cueing,2021.1.4,60.02141566443008,
Stranger.png,Stranger,Stranger,c,3,13,23,93,,,,,0,0,0,0,,,,,0,9,9,8,,,,,,,,,,,,,,,,,,,,,1.44,1.904,276.92820820002817,None,,,,,,,,,,,,,,,,,,,,277.46728360001,277.97302150004543,0.5113206000532955,1.0115394000895321,277.9563831000123,278.0730597001966,277.9563831000123,278.0730597001966,278.0563723000232,None,c,1,1.2451631999574602,278.0563723000232,None,,,,,,,p20,2022_Apr_28_1044,training+cueing,2021.1.4,60.02141566443008,
Stranger.png,You,Stranger,m,1.3,15,25,95,,,,,0,0,0,0,,,,,0,10,10,6,,,,,,,,,,,,,,,,,,,,,1.734,2.09,279.43332040007226,None,,,,,,,,,,,,,,,,,,,,279.97240840015,280.47486160020344,0.5046400998253375,1.0049344999715686,280.4581164000556,280.5581946000457,280.4581164000556,280.5581946000457,280.5581946000457,None,m,1,0.8552667999174446,280.5581946000457,None,,,,,,,p20,2022_Apr_28_1044,training+cueing,2021.1.4,60.02141566443008,
Stranger.png,Stranger,Stranger,c,3,13,23,93,,,,,0,0,0,0,,,,,0,11,11,11,,,,,,,,,,,,,,,,,,,,,1.626,2.433,281.54871530015953,None,,,,,,,,,,,,,,,,,,,,282.0889411000535,282.59300740016624,0.5064336999785155,1.0067124001216143,282.57635470014066,282.6930780999828,282.57635470014066,282.6930780999828,282.676357800141,None,c,1,1.4733106000348926,282.676357800141,None,,,,,,,p20,2022_Apr_28_1044,training+cueing,2021.1.4,60.02141566443008,
Friend.png,Stranger,Friend,m,3.2,19,29,99,,,,,0,0,0,0,,,,,1,0,12,5,,,,,,,,,,,,,,,,,,,,,1.531,1.232,284.28406670014374,None,,,,,,,,,,,,,,,,,,,,284.8267242000438,285.3282908999827,0.5051392000168562,1.0054095000959933,285.3116291000042,285.42839840007946,285.3116291000042,285.42839840007946,285.4116543000564,None,m,1,0.8817427000030875,285.4116543000564,None,,,,,,,p20,2022_Apr_28_1044,training+cueing,2021.1.4,60.02141566443008,
Self.png,You,Self ,c,1,11,21,91,,,,,0,0,0,0,,,,,1,1,13,0,,,,,,,,,,,,,,,,,,,,,1.67,1.26,286.41886620013975,None,,,,,,,,,,,,,,,,,,,,286.9573224000633,287.463160000043,0.5128840000834316,1.0131794000044465,287.44653960014693,287.5465967000928,287.44653960014693,287.5465967000928,287.5465967000928,None,c,1,1.4510854000691324,287.5465967000928,None,,,,,,,p20,2022_Apr_28_1044,training+cueing,2021.1.4,60.02141566443008,
Stranger.png,Stranger,Stranger,c,3,13,23,93,,,,,0,0,0,0,,,,,1,2,14,8,,,,,,,,,,,,,,,,,,,,,1.511,1.744,289.1241001000162,None,,,,,,,,,,,,,,,,,,,,289.66202440019697,290.1651451000944,0.5043240000959486,1.004745400045067,290.14844520017505,290.26522260019556,290.14844520017505,290.26522260019556,290.24849620019086,None,None,0,,290.24849620019086,None,,,,,,,p20,2022_Apr_28_1044,training+cueing,2021.1.4,60.02141566443008,
Stranger.png,Stranger,Stranger,c,3,13,23,93,,,,,0,0,0,0,,,,,1,3,15,11,,,,,,,,,,,,,,,,,,,,,1.633,1.718,291.8711204000283,None,,,,,,,,,,,,,,,,,,,,292.4109897001181,292.9172298000194,0.512216700008139,1.0127264999318868,292.90048990002833,293.0177438000683,292.90048990002833,293.0177438000683,293.00106070004404,None,None,0,,293.00106070004404,None,,,,,,,p20,2022_Apr_28_1044,training+cueing,2021.1.4,60.02141566443008,
Self.png,Friend,Self ,m,2.1,16,26,96,,,,,0,0,0,0,,,,,1,4,16,1,,,,,,,,,,,,,,,,,,,,,1.499,1.97,294.73921440006234,None,,,,,,,,,,,,,,,,,,,,295.27859900007024,295.7858603000641,0.5127352001145482,1.0130334000568837,295.7691569000017,295.8859234000556,295.7691569000017,295.8859234000556,295.86920489999466,None,m,1,1.1282800999470055,295.86920489999466,None,,,,,,,p20,2022_Apr_28_1044,training+cueing,2021.1.4,60.02141566443008,
Self.png,Stranger,Self ,m,3.1,18,28,98,,,,,0,0,0,0,,,,,1,5,17,2,,,,,,,,,,,,,,,,,,,,,1.53,1.795,297.1257415001746,None,,,,,,,,,,,,,,,,,,,,297.6691912000533,298.1709404999856,0.5045528998598456,1.0048538998235017,298.1542938000057,298.2709445999935,298.1542938000057,298.2709445999935,298.2543248999864,None,m,1,0.9670742000453174,298.2543248999864,None,,,,,,,p20,2022_Apr_28_1044,training+cueing,2021.1.4,60.02141566443008,
Friend.png,You,Friend,m,1.2,14,24,94,,,,,0,0,0,0,,,,,1,6,18,3,,,,,,,,,,,,,,,,,,,,,1.654,2.162,299.3444678999949,None,,,,,,,,,,,,,,,,,,,,299.8888271001633,300.3891638000496,0.5012789000757039,1.0015966000501066,300.37251740018837,300.47259070002474,300.37251740018837,300.47259070002474,300.47259070002474,None,m,1,0.748805700102821,300.47259070002474,None,,,,,,,p20,2022_Apr_28_1044,training+cueing,2021.1.4,60.02141566443008,
Friend.png,Friend,Friend,c,2,12,22,92,,,,,0,0,0,0,,,,,1,7,19,10,,,,,,,,,,,,,,,,,,,,,1.612,1.911,301.3464387001004,None,,,,,,,,,,,,,,,,,,,,301.8838544001337,302.39067270001397,0.5120117999613285,1.014710099902004,302.3741349000484,302.4907079001423,302.3741349000484,302.4907079001423,302.4740020001773,None,c,1,1.1313413998577744,302.4740020001773,None,,,,,,,p20,2022_Apr_28_1044,training+cueing,2021.1.4,60.02141566443008,
Self.png,You,Self ,c,1,11,21,91,,,,,0,0,0,0,,,,,1,8,20,9,,,,,,,,,,,,,,,,,,,,,1.758,1.422,303.7311068000272,None,,,,,,,,,,,,,,,,,,,,304.2691339000594,304.7758391001262,0.5125239999033511,1.012861100025475,304.7591060001869,304.8591928000096,304.7591060001869,304.8591928000096,304.8591928000096,None,c,1,0.7943754999432713,304.8591928000096,None,,,,,,,p20,2022_Apr_28_1044,training+cueing,2021.1.4,60.02141566443008,
Stranger.png,You,Stranger,m,1.3,15,25,95,,,,,0,0,0,0,,,,,1,9,21,6,,,,,,,,,,,,,,,,,,,,,1.567,2.447,305.78390310006216,None,,,,,,,,,,,,,,,,,,,,306.3226185000967,306.8271840000525,0.5087665000464767,1.009054700145498,306.81049790000543,306.9105754001066,306.81049790000543,306.9105754001066,306.9105754001066,None,m,1,0.870787899941206,306.9105754001066,None,,,,,,,p20,2022_Apr_28_1044,training+cueing,2021.1.4,60.02141566443008,
Stranger.png,Friend,Stranger,m,2.3,17,27,97,,,,,0,0,0,0,,,,,1,10,22,7,,,,,,,,,,,,,,,,,,,,,1.7,1.532,307.9177502000239,None,,,,,,,,,,,,,,,,,,,,308.45717389998026,308.9620125000365,0.5085813000332564,1.00884860008955,308.94534109998494,309.0621149002109,308.94534109998494,309.0621149002109,309.04539049998857,None,c,0,1.1201321000698954,309.04539049998857,None,,,,,,,p20,2022_Apr_28_1044,training+cueing,2021.1.4,60.02141566443008,
Friend.png,Friend,Friend,c,2,12,22,92,,,,,0,0,0,0,,,,,1,11,23,4,,,,,,,,,,,,,,,,,,,,,1.514,2.113,310.30259850015864,None,,,,,,,,,,,,,,,,,,,,310.8399740001187,311.3471023000311,0.5148504001554102,1.0152032000478357,311.33039370016195,311.44715430005454,311.33039370016195,311.44715430005454,311.43043900001794,None,m,0,1.2469097001012415,311.43043900001794,None,,,,,,,p20,2022_Apr_28_1044,training+cueing,2021.1.4,60.02141566443008,
Self.png,You,Self ,c,1,11,21,91,,,,,0,0,0,0,,,,,2,0,24,9,,,,,,,,,,,,,,,,,,,,,1.526,1.367,312.80387040018104,None,,,,,,,,,,,,,,,,,,,,313.3420117001515,313.8489167999942,0.5121175001841038,1.0124081000685692,313.8322101000231,313.93226380017586,313.8322101000231,313.93226380017586,313.93226380017586,None,m,0,0.6653593999799341,313.93226380017586,None,,,,,,,p20,2022_Apr_28_1044,training+cueing,2021.1.4,60.02141566443008,
Stranger.png,Stranger,Stranger,c,3,13,23,93,,,,,0,0,0,0,,,,,2,1,25,11,,,,,,,,,,,,,,,,,,,,,1.712,1.589,314.7257018000819,None,,,,,,,,,,,,,,,,,,,,315.2658297000453,315.7669877000153,0.5029103001579642,1.0032068002037704,315.750264900038,315.86702110012993,315.750264900038,315.86702110012993,315.8503022000659,None,m,0,0.7471300000324845,315.8503022000659,None,,,,,,,p20,2022_Apr_28_1044,training+cueing,2021.1.4,60.02141566443008,
Friend.png,You,Friend,m,1.2,14,24,94,,,,,0,0,0,0,,,,,2,2,26,3,,,,,,,,,,,,,,,,,,,,,1.508,2.086,316.7234364000615,None,,,,,,,,,,,,,,,,,,,,317.2615004000254,317.7683873001952,0.5129408000502735,1.0132102000061423,317.7517547002062,317.8517654000316,317.7517547002062,317.8517654000316,317.8517654000316,None,m,1,0.7297001001425087,317.8517654000316,None,,,,,,,p20,2022_Apr_28_1044,training+cueing,2021.1.4,60.02141566443008,
Friend.png,Friend,Friend,c,2,12,22,92,,,,,0,0,0,0,,,,,2,3,27,10,,,,,,,,,,,,,,,,,,,,,1.519,2.27,318.7078890001867,None,,,,,,,,,,,,,,,,,,,,319.24864340014756,319.75316329998896,0.5061254999600351,1.0064107000362128,319.7364919001702,319.85315530002117,319.7364919001702,319.85315530002117,319.83650330011733,None,c,1,0.6648168000392616,319.83650330011733,None,,,,,,,p20,2022_Apr_28_1044,training+cueing,2021.1.4,60.02141566443008,
Stranger.png,Friend,Stranger,m,2.3,17,27,97,,,,,0,0,0,0,,,,,2,4,28,7,,,,,,,,,,,,,,,,,,,,,1.747,2.227,320.6260510000866,None,,,,,,,,,,,,,,,,,,,,321.1630044002086,321.6711866001133,0.4992732999380678,0.9995913000311702,321.6378419001121,321.7379087000154,321.6378419001121,321.7379087000154,321.7379087000154,None,m,1,1.227878199890256,321.7379087000154,None,,,,,,,p20,2022_Apr_28_1044,training+cueing,2021.1.4,60.02141566443008,
Stranger.png,Stranger,Stranger,c,3,13,23,93,,,,,0,0,0,0,,,,,2,5,29,8,,,,,,,,,,,,,,,,,,,,,1.603,1.264,323.09885639999993,None,,,,,,,,,,,,,,,,,,,,323.6365410001017,324.13970950013027,0.506679099984467,1.0069750000257045,324.1229711000342,324.23971500014886,324.1229711000342,324.23971500014886,324.22300650016405,None,c,1,1.1263425999786705,324.22300650016405,None,,,,,,,p20,2022_Apr_28_1044,training+cueing,2021.1.4,60.02141566443008,
Stranger.png,You,Stranger,m,1.3,15,25,95,,,,,0,0,0,0,,,,,2,6,30,6,,,,,,,,,,,,,,,,,,,,,1.716,1.212,325.48074960010126,None,,,,,,,,,,,,,,,,,,,,326.0175259001553,326.5247017000802,0.513305600034073,1.0136540001258254,326.5079983000178,326.60808510007337,326.5079983000178,326.60808510007337,326.60808510007337,None,m,1,0.6933172000572085,326.60808510007337,None,,,,,,,p20,2022_Apr_28_1044,training+cueing,2021.1.4,60.02141566443008,
Self.png,You,Self ,c,1,11,21,91,,,,,0,0,0,0,,,,,2,7,31,0,,,,,,,,,,,,,,,,,,,,,1.747,1.249,327.4320158001501,None,,,,,,,,,,,,,,,,,,,,327.98212549998425,328.4933335001115,0.5053272000513971,1.005072200205177,328.4767287999857,328.57628670008853,328.4767287999857,328.57628670008853,328.57628670008853,None,c,1,1.141596799949184,328.57628670008853,None,,,,,,,p20,2022_Apr_28_1044,training+cueing,2021.1.4,60.02141566443008,
Self.png,Stranger,Self ,m,3.1,18,28,98,,,,,0,0,0,0,,,,,2,8,32,2,,,,,,,,,,,,,,,,,,,,,1.412,1.926,329.85065859998576,None,,,,,,,,,,,,,,,,,,,,330.3903797001112,330.89451800007373,0.5060979002155364,1.0063697001896799,330.87786660017446,330.9945888000075,330.87786660017446,330.9945888000075,330.97788660018705,None,m,1,1.1557461998891085,330.97788660018705,None,,,,,,,p20,2022_Apr_28_1044,training+cueing,2021.1.4,60.02141566443008,
Self.png,Friend,Self ,m,2.1,16,26,96,,,,,0,0,0,0,,,,,2,9,33,1,,,,,,,,,,,,,,,,,,,,,1.649,1.285,332.2720155999996,None,,,,,,,,,,,,,,,,,,,,332.81141840014607,333.3129391002003,0.5040313999634236,1.0045400999952108,333.2962544001639,333.41324850008823,333.2962544001639,333.41324850008823,333.3964313000906,None,m,1,1.1210497000720352,333.3964313000906,None,,,,,,,p20,2022_Apr_28_1044,training+cueing,2021.1.4,60.02141566443008,
Friend.png,Friend,Friend,c,2,12,22,92,,,,,0,0,0,0,,,,,2,10,34,4,,,,,,,,,,,,,,,,,,,,,1.616,2.376,334.6543409000151,None,,,,,,,,,,,,,,,,,,,,335.1899839001708,335.698041100055,0.5125166999641806,1.0157431999687105,335.66420420003124,335.76474550017156,335.66420420003124,335.76474550017156,335.78142950008623,None,c,1,0.5280441001523286,335.78142950008623,None,,,,,,,p20,2022_Apr_28_1044,training+cueing,2021.1.4,60.02141566443008,
Friend.png,Stranger,Friend,m,3.2,19,29,99,,,,,0,0,0,0,,,,,2,11,35,5,,,,,,,,,,,,,,,,,,,,,1.417,1.312,336.43828690005466,None,,,,,,,,,,,,,,,,,,,,336.97858640016057,337.4826754000969,0.506701999809593,1.0069859996438026,337.4659581000451,337.5826787999831,337.4659581000451,337.5826787999831,337.56597000011243,None,None,0,,337.56597000011243,None,,,,,,,p20,2022_Apr_28_1044,training+cueing,2021.1.4,60.02141566443008,
Stranger.png,Friend,Stranger,m,2.3,17,27,97,,,,,0,0,0,0,,,,,3,0,36,7,,,,,,,,,,,,,,,,,,,,,1.427,1.691,339.0881784001831,None,,,,,,,,,,,,,,,,,,,,339.63126080017537,340.13469380000606,0.5065375999547541,1.0068067000247538,340.1178915000055,340.23460030020215,340.1178915000055,340.23460030020215,340.21789920004085,None,m,1,1.0675391000695527,340.21789920004085,None,,,,,,,p20,2022_Apr_28_1044,training+cueing,2021.1.4,60.02141566443008,
Self.png,Friend,Self ,m,2.1,16,26,96,,,,,0,0,0,0,,,,,3,1,37,1,,,,,,,,,,,,,,,,,,,,,1.782,2.114,341.4087966000661,None,,,,,,,,,,,,,,,,,,,,341.94540910003707,342.45286230021156,0.5146935000084341,1.0150131999980658,342.4361880000215,342.55290140002035,342.4361880000215,342.55290140002035,342.53620950016193,None,m,1,0.8611596999689937,342.53620950016193,None,,,,,,,p20,2022_Apr_28_1044,training+cueing,2021.1.4,60.02141566443008,
Self.png,You,Self ,c,1,11,21,91,,,,,0,0,0,0,,,,,3,2,38,9,,,,,,,,,,,,,,,,,,,,,1.605,2.471,343.52712240000255,None,,,,,,,,,,,,,,,,,,,,344.06701760017313,344.5710967001505,0.5065618001390249,1.0074052000418305,344.55439659999683,344.6546812001616,344.55439659999683,344.6546812001616,344.6546812001616,None,m,0,0.9827315001748502,344.6546812001616,None,,,,,,,p20,2022_Apr_28_1044,training+cueing,2021.1.4,60.02141566443008,
Stranger.png,You,Stranger,m,1.3,15,25,95,,,,,0,0,0,0,,,,,3,3,39,6,,,,,,,,,,,,,,,,,,,,,1.54,1.615,345.761732700048,None,,,,,,,,,,,,,,,,,,,,346.3001606001053,346.8060228000395,0.5119927998166531,1.012924199923873,346.78932580002584,346.8895870000124,346.78932580002584,346.8895870000124,346.8895870000124,None,m,1,0.7639592997729778,346.8895870000124,None,,,,,,,p20,2022_Apr_28_1044,training+cueing,2021.1.4,60.02141566443008,
Friend.png,Friend,Friend,c,2,12,22,92,,,,,0,0,0,0,,,,,3,4,40,4,,,,,,,,,,,,,,,,,,,,,1.78,1.579,347.78422260005027,None,,,,,,,,,,,,,,,,,,,,348.3188774001319,348.8241497001145,0.5084382998757064,1.008903499925509,348.8074445000384,348.9243515001144,348.8074445000384,348.9243515001144,348.9076513000764,None,c,1,0.6497363999951631,348.9076513000764,None,,,,,,,p20,2022_Apr_28_1044,training+cueing,2021.1.4,60.02141566443008,
Stranger.png,Stranger,Stranger,c,3,13,23,93,,,,,0,0,0,0,,,,,3,5,41,11,,,,,,,,,,,,,,,,,,,,,1.714,1.447,349.6867329000961,None,,,,,,,,,,,,,,,,,,,,350.2238398999907,350.7254990001675,0.5032477001659572,1.0035807001404464,350.7088072001934,350.8255865999963,350.7088072001934,350.8255865999963,350.80888190004043,None,c,1,1.1804482000879943,350.80888190004043,None,,,,,,,p20,2022_Apr_28_1044,training+cueing,2021.1.4,60.02141566443008,
Friend.png,You,Friend,m,1.2,14,24,94,,,,,0,0,0,0,,,,,3,6,42,3,,,,,,,,,,,,,,,,,,,,,1.403,2.317,352.11659230012447,None,,,,,,,,,,,,,,,,,,,,352.6660548001528,353.1772679002024,0.5062706999015063,1.0071749999187887,353.16061620018445,353.2607379001565,353.16061620018445,353.2607379001565,353.2607379001565,None,m,1,0.6485470000188798,353.2607379001565,None,,,,,,,p20,2022_Apr_28_1044,training+cueing,2021.1.4,60.02141566443008,
Stranger.png,Stranger,Stranger,c,3,13,23,93,,,,,0,0,0,0,,,,,3,7,43,8,,,,,,,,,,,,,,,,,,,,,1.791,1.487,354.0400696999859,None,,,,,,,,,,,,,,,,,,,,354.57326990016736,355.0786211001687,0.5085968999192119,1.0088872998021543,355.0619983000215,355.17869670013897,355.0619983000215,355.17869670013897,355.16203160001896,None,m,0,1.1474160999059677,355.16203160001896,None,,,,,,,p20,2022_Apr_28_1044,training+cueing,2021.1.4,60.02141566443008,
Self.png,You,Self ,c,1,11,21,91,,,,,0,0,0,0,,,,,3,8,44,0,,,,,,,,,,,,,,,,,,,,,1.712,2.3,356.4363208001014,None,,,,,,,,,,,,,,,,,,,,356.97673550015315,357.480393800186,0.507281000027433,1.0075302000623196,357.4637292001862,357.5637551001273,357.4637292001862,357.5637551001273,357.5637551001273,None,m,0,1.5297172998543829,357.5637551001273,None,,,,,,,p20,2022_Apr_28_1044,training+cueing,2021.1.4,60.02141566443008,
Friend.png,Stranger,Friend,m,3.2,19,29,99,,,,,0,0,0,0,,,,,3,9,45,5,,,,,,,,,,,,,,,,,,,,,1.584,2.137,359.2223807000555,None,,,,,,,,,,,,,,,,,,,,359.75952860014513,360.26572040002793,0.5119501000735909,1.012139700120315,360.2491609000135,360.36577340005897,360.2491609000135,360.36577340005897,360.3491001999937,None,m,1,1.4322336001787335,360.3491001999937,None,,,,,,,p20,2022_Apr_28_1044,training+cueing,2021.1.4,60.02141566443008,
Friend.png,Friend,Friend,c,2,12,22,92,,,,,0,0,0,0,,,,,3,10,46,10,,,,,,,,,,,,,,,,,,,,,1.504,1.777,361.9076640000567,None,,,,,,,,,,,,,,,,,,,,362.4621398001909,362.9677093999926,0.5098355000372976,1.0102033000439405,362.9509750001598,363.0677855000831,362.9509750001598,363.0677855000831,363.0510309000965,None,None,0,,363.0510309000965,None,,,,,,,p20,2022_Apr_28_1044,training+cueing,2021.1.4,60.02141566443008,
Self.png,Stranger,Self ,m,3.1,18,28,98,,,,,0,0,0,0,,,,,3,11,47,2,,,,,,,,,,,,,,,,,,,,,1.52,1.852,364.67324870009907,None,,,,,,,,,,,,,,,,,,,,365.22255500010215,365.73634870001115,0.5106567998882383,1.0109375000465661,365.7196563000325,365.83641790016554,365.7196563000325,365.83641790016554,365.8196955001913,None,m,1,1.0656394998077303,365.8196955001913,None,,,,,,,p20,2022_Apr_28_1044,training+cueing,2021.1.4,60.02141566443008,
Friend.png,Friend,Friend,c,2,12,22,92,,,,,0,0,0,0,,,,,4,0,48,4,,,,,,,,,,,,,,,,,,,,,1.448,1.451,367.01102860015817,None,,,,,,,,,,,,,,,,,,,,367.55630530021153,368.0713979001157,0.5121571002528071,1.0124684001784772,368.05467860004865,368.17143890005536,368.05467860004865,368.17143890005536,368.15473640011624,None,None,0,,368.15473640011624,None,,,,,,,p20,2022_Apr_28_1044,training+cueing,2021.1.4,60.02141566443008,
Friend.png,Friend,Friend,c,2,12,22,92,,,,,0,0,0,0,,,,,4,1,49,10,,,,,,,,,,,,,,,,,,,,,1.684,1.915,369.71241760021076,None,,,,,,,,,,,,,,,,,,,,370.250176000176,370.75663439999335,0.5130196998361498,1.0133209000341594,370.7399498000741,370.8566672001034,370.7399498000741,370.8566672001034,370.8399896000046,None,m,0,0.6213609001133591,370.8399896000046,None,,,,,,,p20,2022_Apr_28_1044,training+cueing,2021.1.4,60.02141566443008,
Self.png,Friend,Self ,m,2.1,16,26,96,,,,,0,0,0,0,,,,,4,2,50,1,,,,,,,,,,,,,,,,,,,,,1.406,1.956,371.5959795000963,None,,,,,,,,,,,,,,,,,,,,372.1364469002001,372.6413246002048,0.5111547999549657,1.011566299945116,372.62477460014634,372.74192530009896,372.62477460014634,372.74192530009896,372.7252943001222,None,m,1,0.8640192998573184,372.7252943001222,None,,,,,,,p20,2022_Apr_28_1044,training+cueing,2021.1.4,60.02141566443008,
Friend.png,Stranger,Friend,m,3.2,19,29,99,,,,,0,0,0,0,,,,,4,3,51,5,,,,,,,,,,,,,,,,,,,,,1.708,2.478,373.71588400006294,None,,,,,,,,,,,,,,,,,,,,374.25548609998077,374.75952520011924,0.5068889998365194,1.0072188000194728,374.74281150009483,374.85957080009393,374.74281150009483,374.85957080009393,374.8428846001625,None,c,0,0.8264621999114752,374.8428846001625,None,,,,,,,p20,2022_Apr_28_1044,training+cueing,2021.1.4,60.02141566443008,
Friend.png,You,Friend,m,1.2,14,24,94,,,,,0,0,0,0,,,,,4,4,52,3,,,,,,,,,,,,,,,,,,,,,1.738,1.553,375.7997489001136,None,,,,,,,,,,,,,,,,,,,,376.3486925000325,376.8610696999822,0.5084705001208931,1.0087841001804918,376.84437780012377,376.944424000103,376.84437780012377,376.944424000103,376.944424000103,None,m,1,1.0609345000702888,376.944424000103,None,,,,,,,p20,2022_Apr_28_1044,training+cueing,2021.1.4,60.02141566443008,
Stranger.png,Friend,Stranger,m,2.3,17,27,97,,,,,0,0,0,0,,,,,4,5,53,7,,,,,,,,,,,,,,,,,,,,,1.534,1.658,378.13456090004183,None,,,,,,,,,,,,,,,,,,,,378.6762908999808,379.1793854001444,0.5062531000003219,1.0066013000905514,379.1627329001203,379.279417200014,379.1627329001203,379.279417200014,379.2627532000188,None,m,1,0.5825602998957038,379.2627532000188,None,,,,,,,p20,2022_Apr_28_1044,training+cueing,2021.1.4,60.02141566443008,
Stranger.png,You,Stranger,m,1.3,15,25,95,,,,,0,0,0,0,,,,,4,6,54,6,,,,,,,,,,,,,,,,,,,,,1.516,1.404,379.96975839999504,None,,,,,,,,,,,,,,,,,,,,380.5071944000665,381.0140777002089,0.5117526000831276,1.0120467999950051,380.9973825002089,381.09757700003684,380.9973825002089,381.09757700003684,381.09757700003684,None,m,1,0.5397348999977112,381.09757700003684,None,,,,,,,p20,2022_Apr_28_1044,training+cueing,2021.1.4,60.02141566443008,
Self.png,You,Self ,c,1,11,21,91,,,,,0,0,0,0,,,,,4,7,55,0,,,,,,,,,,,,,,,,,,,,,1.753,1.563,381.7705801001284,None,,,,,,,,,,,,,,,,,,,,382.3191604001913,382.8320737001486,0.5094618999864906,1.0098834000527859,382.8154244001489,382.91537340008654,382.8154244001489,382.91537340008654,382.91537340008654,None,m,0,0.577996299834922,382.91537340008654,None,,,,,,,p20,2022_Apr_28_1044,training+cueing,2021.1.4,60.02141566443008,
Self.png,Stranger,Self ,m,3.1,18,28,98,,,,,0,0,0,0,,,,,4,8,56,2,,,,,,,,,,,,,,,,,,,,,1.587,1.383,383.6230182000436,None,,,,,,,,,,,,,,,,,,,,384.1813656000886,384.68334010010585,0.5034087998792529,1.0037066999357194,384.66669620014727,384.78340150020085,384.66669620014727,384.78340150020085,384.7667076000944,None,None,0,,384.7667076000944,None,,,,,,,p20,2022_Apr_28_1044,training+cueing,2021.1.4,60.02141566443008,
Self.png,You,Self ,c,1,11,21,91,,,,,0,0,0,0,,,,,4,9,57,9,,,,,,,,,,,,,,,,,,,,,1.581,1.898,386.4733872001525,None,,,,,,,,,,,,,,,,,,,,387.01353620016016,387.51878240006045,0.5099786000791937,1.0103649999946356,387.5020804000087,387.6020758000668,387.5020804000087,387.6020758000668,387.6020758000668,None,None,0,,387.6020758000668,None,,,,,,,p20,2022_Apr_28_1044,training+cueing,2021.1.4,60.02141566443008,
Stranger.png,Stranger,Stranger,c,3,13,23,93,,,,,0,0,0,0,,,,,4,10,58,11,,,,,,,,,,,,,,,,,,,,,1.455,1.623,389.2916461999994,None,,,,,,,,,,,,,,,,,,,,389.83352040010504,390.3374332000967,0.5069987000897527,1.0072982001584023,390.3207723000087,390.4375150001142,390.3207723000087,390.4375150001142,390.42101650009863,None,m,0,0.9282767998520285,390.42101650009863,None,,,,,,,p20,2022_Apr_28_1044,training+cueing,2021.1.4,60.02141566443008,
Stranger.png,Stranger,Stranger,c,3,13,23,93,,,,,0,0,0,0,,,,,4,11,59,8,,,,,,,,,,,,,,,,,,,,,1.715,1.607,391.4766963000875,None,,,,,,,,,,,,,,,,,,,,392.026166500058,392.5390416001901,0.508358099963516,1.0087280999869108,392.52235640003346,392.6391180001665,392.52235640003346,392.6391180001665,392.6224182001315,None,None,0,,392.6224182001315,None,,,,,,,p20,2022_Apr_28_1044,training+cueing,2021.1.4,60.02141566443008,
Self.png,Stranger,Self ,m,3.1,18,28,98,,,,,0,0,0,0,,,,,5,0,60,2,,,,,,,,,,,,,,,,,,,,,1.537,1.491,394.4450241001323,None,,,,,,,,,,,,,,,,,,,,394.98534610006027,395.4911805000156,0.5111248001921922,1.0114024002104998,395.4744876001496,395.5911944999825,395.4744876001496,395.5911944999825,395.57455160003155,None,None,0,,395.57455160003155,None,,,,,,,p20,2022_Apr_28_1044,training+cueing,2021.1.4,60.02141566443008,
Self.png,You,Self ,c,1,11,21,91,,,,,0,0,0,0,,,,,5,1,61,0,,,,,,,,,,,,,,,,,,,,,1.593,1.618,397.23240390000865,None,,,,,,,,,,,,,,,,,,,,397.7827551001683,398.2931825001724,0.5040360002312809,1.0043053000699729,398.2765074002091,398.3765627001412,398.2765074002091,398.3765627001412,398.3765627001412,None,m,0,0.6527014998719096,398.3765627001412,None,,,,,,,p20,2022_Apr_28_1044,training+cueing,2021.1.4,60.02141566443008,
Stranger.png,You,Stranger,m,1.3,15,25,95,,,,,0,0,0,0,,,,,5,2,62,6,,,,,,,,,,,,,,,,,,,,,1.704,1.575,399.1662221001461,None,,,,,,,,,,,,,,,,,,,,399.7222965999972,400.2279421000276,0.5103951001074165,1.0106751001439989,400.21124120010063,400.3112633000128,400.21124120010063,400.3112633000128,400.3112633000128,None,m,1,0.7659662000369281,400.3112633000128,None,,,,,,,p20,2022_Apr_28_1044,training+cueing,2021.1.4,60.02141566443008,
Friend.png,Friend,Friend,c,2,12,22,92,,,,,0,0,0,0,,,,,5,3,63,4,,,,,,,,,,,,,,,,,,,,,1.682,1.635,401.2012505000457,None,,,,,,,,,,,,,,,,,,,,401.7405083000194,402.2460734001361,0.5121460997033864,1.0124493998009712,402.2293718000874,402.3460933000315,402.2293718000874,402.3460933000315,402.3294127001427,None,c,1,1.1478947000578046,402.3294127001427,None,,,,,,,p20,2022_Apr_28_1044,training+cueing,2021.1.4,60.02141566443008,
Stranger.png,Stranger,Stranger,c,3,13,23,93,,,,,0,0,0,0,,,,,5,4,64,11,,,,,,,,,,,,,,,,,,,,,1.645,2.095,403.60356780001894,None,,,,,,,,,,,,,,,,,,,,404.14268180006184,404.64792000013404,0.5081609000917524,1.0084532999899238,404.63124710018747,404.7479923001956,404.63124710018747,404.7479923001956,404.73129060002975,None,c,1,1.210104800062254,404.73129060002975,None,,,,,,,p20,2022_Apr_28_1044,training+cueing,2021.1.4,60.02141566443008,
Friend.png,Friend,Friend,c,2,12,22,92,,,,,0,0,0,0,,,,,5,5,65,10,,,,,,,,,,,,,,,,,,,,,1.678,2.46,406.0730882000644,None,,,,,,,,,,,,,,,,,,,,406.615450900048,407.11622620001435,0.5021021000575274,1.002368900226429,407.0995853000786,407.21627050009556,407.0995853000786,407.21627050009556,407.19958420004696,None,c,1,0.9177971000317484,407.19958420004696,None,,,,,,,p20,2022_Apr_28_1044,training+cueing,2021.1.4,60.02141566443008,
Friend.png,You,Friend,m,1.2,14,24,94,,,,,0,0,0,0,,,,,5,6,66,3,,,,,,,,,,,,,,,,,,,,,1.412,2.197,408.23973310017027,None,,,,,,,,,,,,,,,,,,,,408.7870248002,409.3011690999847,0.5122895000968128,1.0123792001977563,409.28458620002493,409.384489600081,409.28458620002493,409.384489600081,409.384489600081,None,m,1,0.8447818998247385,409.384489600081,None,,,,,,,p20,2022_Apr_28_1044,training+cueing,2021.1.4,60.02141566443008,
Self.png,You,Self ,c,1,11,21,91,,,,,0,0,0,0,,,,,5,7,67,9,,,,,,,,,,,,,,,,,,,,,1.51,2.417,410.3581195999868,None,,,,,,,,,,,,,,,,,,,,410.89598190016113,411.40263220015913,0.5119380000978708,1.0122912002261728,411.38593270001,411.48599510011263,411.38593270001,411.48599510011263,411.48599510011263,None,c,1,0.7112799000460654,411.48599510011263,None,,,,,,,p20,2022_Apr_28_1044,training+cueing,2021.1.4,60.02141566443008,
Stranger.png,Friend,Stranger,m,2.3,17,27,97,,,,,0,0,0,0,,,,,5,8,68,7,,,,,,,,,,,,,,,,,,,,,1.66,1.88,412.32589630014263,None,,,,,,,,,,,,,,,,,,,,412.8685143000912,413.37074160017073,0.5061094998382032,1.0063840998336673,413.3540655001998,413.4707948002033,413.3540655001998,413.4707948002033,413.45406200014986,None,m,1,1.159118999959901,413.45406200014986,None,,,,,,,p20,2022_Apr_28_1044,training+cueing,2021.1.4,60.02141566443008,
Stranger.png,Stranger,Stranger,c,3,13,23,93,,,,,0,0,0,0,,,,,5,9,69,8,,,,,,,,,,,,,,,,,,,,,1.457,1.894,414.74400860001333,None,,,,,,,,,,,,,,,,,,,,415.28673570021056,415.78913180017844,0.5052841997239739,1.006178899668157,415.7724313000217,415.8892250000499,415.7724313000217,415.8892250000499,415.8724750999827,None,c,1,1.108841500012204,415.8724750999827,None,,,,,,,p20,2022_Apr_28_1044,training+cueing,2021.1.4,60.02141566443008,
Friend.png,Stranger,Friend,m,3.2,19,29,99,,,,,0,0,0,0,,,,,5,10,70,5,,,,,,,,,,,,,,,,,,,,,1.651,1.536,417.11437269998714,None,,,,,,,,,,,,,,,,,,,,417.65197960007936,418.1575468000956,0.5083977002650499,1.0086727002635598,418.14084040001035,418.2576491001528,418.14084040001035,418.2576491001528,418.2408362000715,None,m,1,0.756442700047046,418.2408362000715,None,,,,,,,p20,2022_Apr_28_1044,training+cueing,2021.1.4,60.02141566443008,
Self.png,Friend,Self ,m,2.1,16,26,96,,,,,0,0,0,0,,,,,5,11,71,1,,,,,,,,,,,,,,,,,,,,,1.408,2.339,419.1326882999856,None,,,,,,,,,,,,,,,,,,,,419.6909630000591,420.19236790016294,0.5035509001463652,1.0042363000102341,420.1757971001789,420.292938800063,420.1757971001789,420.292938800063,420.2761946001556,None,m,1,0.8811608001124114,420.2761946001556,None,,,,,,,p20,2022_Apr_28_1044,training+cueing,2021.1.4,60.02141566443008,
Stranger.png,Stranger,Stranger,c,3,13,23,93,,,,,0,0,0,0,,,,,6,0,72,11,,,,,,,,,,,,,,,,,,,,,1.498,2.379,421.28620020020753,None,,,,,,,,,,,,,,,,,,,,421.82559250015765,422.3273807000369,0.5024350001476705,1.0028243002016097,422.3107084000949,422.4275005001109,422.3107084000949,422.4275005001109,422.41084650019184,None,m,0,1.4504635999910533,422.41084650019184,None,,,,,,,p20,2022_Apr_28_1044,training+cueing,2021.1.4,60.02141566443008,
Friend.png,You,Friend,m,1.2,14,24,94,,,,,0,0,0,0,,,,,6,1,73,3,,,,,,,,,,,,,,,,,,,,,1.41,2.273,423.986039099982,None,,,,,,,,,,,,,,,,,,,,424.52552220015787,425.0291433001403,0.5082483000587672,1.0085283000953496,425.01248860009946,425.1125628000591,425.01248860009946,425.1125628000591,425.1125628000591,None,m,1,0.7007309999316931,425.1125628000591,None,,,,,,,p20,2022_Apr_28_1044,training+cueing,2021.1.4,60.02141566443008,
Stranger.png,Stranger,Stranger,c,3,13,23,93,,,,,0,0,0,0,,,,,6,2,74,8,,,,,,,,,,,,,,,,,,,,,1.628,2.148,425.93640760006383,None,,,,,,,,,,,,,,,,,,,,426.47474920004606,426.9806807001587,0.5106802000664175,1.0110180000774562,426.9639328001067,427.0806005001068,426.9639328001067,427.0806005001068,427.06393840000965,None,c,1,0.5892869001254439,427.06393840000965,None,,,,,,,p20,2022_Apr_28_1044,training+cueing,2021.1.4,60.02141566443008,
Self.png,You,Self ,c,1,11,21,91,,,,,0,0,0,0,,,,,6,3,75,0,,,,,,,,,,,,,,,,,,,,,1.787,1.253,427.7876069000922,None,,,,,,,,,,,,,,,,,,,,428.3277952000499,428.831879200181,0.5060564002487808,1.006360900355503,428.8152127000503,428.9152781001758,428.8152127000503,428.9152781001758,428.9152781001758,None,c,1,0.7059339000843465,428.9152781001758,None,,,,,,,p20,2022_Apr_28_1044,training+cueing,2021.1.4,60.02141566443008,
Self.png,Stranger,Self ,m,3.1,18,28,98,,,,,0,0,0,0,,,,,6,4,76,2,,,,,,,,,,,,,,,,,,,,,1.621,1.204,429.75490900012664,None,,,,,,,,,,,,,,,,,,,,430.2938171001151,430.7999800001271,0.5116185999941081,1.0118854001630098,430.78331920015626,430.90003110002726,430.78331920015626,430.90003110002726,430.8833372001536,None,c,0,1.3779030998703092,430.8833372001536,None,,,,,,,p20,2022_Apr_28_1044,training+cueing,2021.1.4,60.02141566443008,
Friend.png,Stranger,Friend,m,3.2,19,29,99,,,,,0,0,0,0,,,,,6,5,77,5,,,,,,,,,,,,,,,,,,,,,1.543,1.863,432.39060370018706,None,,,,,,,,,,,,,,,,,,,,432.9290124999825,433.43523030006327,0.5114628002047539,1.0119218002073467,433.41855030017905,433.53540659998544,433.41855030017905,433.53540659998544,433.5188211000059,None,m,1,1.0785646999720484,433.5188211000059,None,,,,,,,p20,2022_Apr_28_1044,training+cueing,2021.1.4,60.02141566443008,
Stranger.png,You,Stranger,m,1.3,15,25,95,,,,,0,0,0,0,,,,,6,6,78,6,,,,,,,,,,,,,,,,,,,,,1.41,2.498,434.7271714999806,None,,,,,,,,,,,,,,,,,,,,435.2667710999958,435.7702395999804,0.5040463998448104,1.0043326998129487,435.75354730011895,435.8535865000449,435.75354730011895,435.8535865000449,435.8535865000449,None,m,1,0.8075758998747915,435.8535865000449,None,,,,,,,p20,2022_Apr_28_1044,training+cueing,2021.1.4,60.02141566443008,
Self.png,Friend,Self ,m,2.1,16,26,96,,,,,0,0,0,0,,,,,6,7,79,1,,,,,,,,,,,,,,,,,,,,,1.569,1.498,436.79352750000544,None,,,,,,,,,,,,,,,,,,,,437.3481386001222,437.8550810001325,0.5141628000419587,1.014466700144112,437.83841810002923,437.95513000013307,437.83841810002923,437.95513000013307,437.93850270006806,None,m,1,0.8507625998463482,437.93850270006806,None,,,,,,,p20,2022_Apr_28_1044,training+cueing,2021.1.4,60.02141566443008,
Friend.png,Friend,Friend,c,2,12,22,92,,,,,0,0,0,0,,,,,6,8,80,10,,,,,,,,,,,,,,,,,,,,,1.533,1.821,438.9117109000217,None,,,,,,,,,,,,,,,,,,,,439.44712630007416,439.9568156001624,0.49910670006647706,0.9999601000454277,439.9227873000782,440.0234328000806,439.9227873000782,440.0234328000806,440.0234328000806,None,c,1,0.765869399998337,440.0234328000806,None,,,,,,,p20,2022_Apr_28_1044,training+cueing,2021.1.4,60.02141566443008,
Friend.png,Friend,Friend,c,2,12,22,92,,,,,0,0,0,0,,,,,6,9,81,4,,,,,,,,,,,,,,,,,,,,,1.684,1.731,440.9148791001644,None,,,,,,,,,,,,,,,,,,,,441.45296740019694,441.9580991000403,0.5108054000884295,1.0110708000138402,441.9414125001058,442.0580900001805,441.9414125001058,442.0580900001805,442.0413963000756,None,c,1,0.635826800018549,442.0413963000756,None,,,,,,,p20,2022_Apr_28_1044,training+cueing,2021.1.4,60.02141566443008,
Stranger.png,Friend,Stranger,m,2.3,17,27,97,,,,,0,0,0,0,,,,,6,10,82,7,,,,,,,,,,,,,,,,,,,,,1.454,1.467,442.81505040009506,None,,,,,,,,,,,,,,,,,,,,443.35324030020274,443.85937700001523,0.5119113998953253,1.0122329997830093,443.842715700157,443.9594416001346,443.842715700157,443.9594416001346,443.9427773000207,None,m,1,0.830362900160253,443.9427773000207,None,,,,,,,p20,2022_Apr_28_1044,training+cueing,2021.1.4,60.02141566443008,
Self.png,You,Self ,c,1,11,21,91,,,,,0,0,0,0,,,,,6,11,83,9,,,,,,,,,,,,,,,,,,,,,1.781,1.233,444.8997774000745,None,,,,,,,,,,,,,,,,,,,,445.4373288000934,445.9442613001447,0.5121693999972194,1.0124665000475943,445.92757460009307,446.02761350013316,445.92757460009307,446.02761350013316,446.02761350013316,None,c,1,0.8577056999783963,446.02761350013316,None,,,,,,,p20,2022_Apr_28_1044,training+cueing,2021.1.4,60.02141566443008,
Friend.png,Friend,Friend,c,2,12,22,92,,,,,0,0,0,0,,,,,7,0,84,10,,,,,,,,,,,,,,,,,,,,,1.744,2.037,447.0177541000303,None,,,,,,,,,,,,,,,,,,,,447.55935480003245,448.0624464000575,0.505787500180304,1.0061140002217144,448.04573050001636,448.1625089000445,448.04573050001636,448.1625089000445,448.1457909999881,None,c,1,0.6594529000576586,448.1457909999881,None,,,,,,,p20,2022_Apr_28_1044,training+cueing,2021.1.4,60.02141566443008,
Stranger.png,Stranger,Stranger,c,3,13,23,93,,,,,0,0,0,0,,,,,7,1,85,8,,,,,,,,,,,,,,,,,,,,,1.732,1.293,448.93545200000517,None,,,,,,,,,,,,,,,,,,,,449.47694040019996,449.98052090010606,0.5066674998961389,1.0069772999268025,449.9638166001532,450.0805371000897,449.9638166001532,450.0805371000897,450.063829400111,None,c,1,0.901361099909991,450.063829400111,None,,,,,,,p20,2022_Apr_28_1044,training+cueing,2021.1.4,60.02141566443008,
Self.png,Stranger,Self ,m,3.1,18,28,98,,,,,0,0,0,0,,,,,7,2,86,2,,,,,,,,,,,,,,,,,,,,,1.762,1.692,451.0869831000455,None,,,,,,,,,,,,,,,,,,,,451.6261248001829,452.1320784999989,0.5110534001141787,1.011359800118953,452.1153796000872,452.23209890001453,452.1153796000872,452.23209890001453,452.2154042001348,None,m,1,0.7659130000974983,452.2154042001348,None,,,,,,,p20,2022_Apr_28_1044,training+cueing,2021.1.4,60.02141566443008,
Self.png,You,Self ,c,1,11,21,91,,,,,0,0,0,0,,,,,7,3,87,9,,,,,,,,,,,,,,,,,,,,,1.54,1.757,453.1098604002036,None,,,,,,,,,,,,,,,,,,,,453.6561734001152,454.16685270005837,0.5047770002856851,1.0050813001580536,454.1501904001925,454.25024359999225,454.1501904001925,454.25024359999225,454.25024359999225,None,c,1,0.8109830999746919,454.25024359999225,None,,,,,,,p20,2022_Apr_28_1044,training+cueing,2021.1.4,60.02141566443008,
Self.png,You,Self ,c,1,11,21,91,,,,,0,0,0,0,,,,,7,4,88,0,,,,,,,,,,,,,,,,,,,,,1.581,1.974,455.1907736000139,None,,,,,,,,,,,,,,,,,,,,455.72783119999804,456.2350167001132,0.5125515998806804,1.012859300011769,456.21830460010096,456.3183222000953,456.21830460010096,456.3183222000953,456.3183222000953,None,c,1,0.6468853999394923,456.3183222000953,None,,,,,,,p20,2022_Apr_28_1044,training+cueing,2021.1.4,60.02141566443008,
Stranger.png,Friend,Stranger,m,2.3,17,27,97,,,,,0,0,0,0,,,,,7,5,89,7,,,,,,,,,,,,,,,,,,,,,1.471,2.301,457.09201910020784,None,,,,,,,,,,,,,,,,,,,,457.6348828000482,458.1363962001633,0.5048018002416939,1.0055233002640307,458.11976090003736,458.2369662001729,458.11976090003736,458.2369662001729,458.2197259000968,None,m,1,0.9695902999956161,458.2197259000968,None,,,,,,,p20,2022_Apr_28_1044,training+cueing,2021.1.4,60.02141566443008,
Friend.png,Friend,Friend,c,2,12,22,92,,,,,0,0,0,0,,,,,7,6,90,4,,,,,,,,,,,,,,,,,,,,,1.508,1.603,459.32796500017866,None,,,,,,,,,,,,,,,,,,,,459.86483480012976,460.3713492001407,0.5127309001982212,1.0130978000815958,460.35462860018015,460.4713699000422,460.35462860018015,460.4713699000422,460.443918999983,None,c,1,0.4893708999734372,460.443918999983,None,,,,,,,p20,2022_Apr_28_1044,training+cueing,2021.1.4,60.02141566443008,
Friend.png,You,Friend,m,1.2,14,24,94,,,,,0,0,0,0,,,,,7,7,91,3,,,,,,,,,,,,,,,,,,,,,1.785,1.603,461.0617104000412,None,,,,,,,,,,,,,,,,,,,,461.6018632000778,462.10592300002463,0.5068084001541138,1.0070353001356125,462.0893000999931,462.18931210017763,462.0893000999931,462.18931210017763,462.18931210017763,None,m,1,0.9838793999515474,462.18931210017763,None,,,,,,,p20,2022_Apr_28_1044,training+cueing,2021.1.4,60.02141566443008,
Self.png,Friend,Self ,m,2.1,16,26,96,,,,,0,0,0,0,,,,,7,8,92,1,,,,,,,,,,,,,,,,,,,,,1.52,1.304,463.2958435001783,None,,,,,,,,,,,,,,,,,,,,463.83725620014593,464.3408575002104,0.5064780998509377,1.0067393998615444,464.3242053000722,464.440932800062,464.3242053000722,464.440932800062,464.4241943000816,None,m,1,0.7491615999024361,464.4241943000816,None,,,,,,,p20,2022_Apr_28_1044,training+cueing,2021.1.4,60.02141566443008,
Stranger.png,Stranger,Stranger,c,3,13,23,93,,,,,0,0,0,0,,,,,7,9,93,11,,,,,,,,,,,,,,,,,,,,,1.58,1.889,465.3014314000029,None,,,,,,,,,,,,,,,,,,,,465.8396270000376,466.3422950000968,0.5065257998649031,1.006758799776435,466.32565380004235,466.4423884002026,466.32565380004235,466.4423884002026,466.42568830004893,None,c,1,0.7314188000746071,466.42568830004893,None,,,,,,,p20,2022_Apr_28_1044,training+cueing,2021.1.4,60.02141566443008,
Friend.png,Stranger,Friend,m,3.2,19,29,99,,,,,0,0,0,0,,,,,7,10,94,5,,,,,,,,,,,,,,,,,,,,,1.457,2.137,467.282681300072,None,,,,,,,,,,,,,,,,,,,,467.82103090011515,468.32708870014176,0.510034800041467,1.0102979000657797,468.3104077000171,468.42714080004953,468.3104077000171,468.42714080004953,468.4104246001225,None,m,1,0.7790083999279886,468.4104246001225,None,,,,,,,p20,2022_Apr_28_1044,training+cueing,2021.1.4,60.02141566443008,
Stranger.png,You,Stranger,m,1.3,15,25,95,,,,,0,0,0,0,,,,,7,11,95,6,,,,,,,,,,,,,,,,,,,,,1.431,1.416,469.3209791001864,None,,,,,,,,,,,,,,,,,,,,469.87763970019296,470.37864950019866,0.5045227999798954,1.0046786998864263,470.3620080000255,470.4620651002042,470.3620080000255,470.4620651002042,470.4620651002042,None,m,1,0.8713827000465244,470.4620651002042,None,,,,,,,p20,2022_Apr_28_1044,training+cueing,2021.1.4,60.02141566443008,
Friend.png,Friend,Friend,c,2,12,22,92,,,,,0,0,0,0,,,,,8,0,96,10,,,,,,,,,,,,,,,,,,,,,1.494,1.981,471.4722064000089,None,,,,,,,,,,,,,,,,,,,,472.024087900063,472.5301314999815,0.5098419000860304,1.0101262000389397,472.51343809999526,472.63017810019664,472.51343809999526,472.63017810019664,472.61345430021174,None,c,1,0.7996946999337524,472.61345430021174,None,,,,,,,p20,2022_Apr_28_1044,training+cueing,2021.1.4,60.02141566443008,
Self.png,You,Self ,c,1,11,21,91,,,,,0,0,0,0,,,,,8,1,97,0,,,,,,,,,,,,,,,,,,,,,1.663,2.025,473.53572689997964,None,,,,,,,,,,,,,,,,,,,,474.0756328999996,474.5815972001292,0.5130320000462234,1.0133078000508249,474.5648873001337,474.66494630021043,474.5648873001337,474.66494630021043,474.66494630021043,None,m,0,0.7002332000993192,474.66494630021043,None,,,,,,,p20,2022_Apr_28_1044,training+cueing,2021.1.4,60.02141566443008,
Stranger.png,You,Stranger,m,1.3,15,25,95,,,,,0,0,0,0,,,,,8,2,98,6,,,,,,,,,,,,,,,,,,,,,1.634,1.876,475.48878620006144,None,,,,,,,,,,,,,,,,,,,,476.02756100008264,476.53305120021105,0.5119040999561548,1.0122600998729467,476.51631930004805,476.6163713000715,476.51631930004805,476.6163713000715,476.6163713000715,None,m,1,0.6048043998889625,476.6163713000715,None,,,,,,,p20,2022_Apr_28_1044,training+cueing,2021.1.4,60.02141566443008,
Self.png,You,Self ,c,1,11,21,91,,,,,0,0,0,0,,,,,8,3,99,9,,,,,,,,,,,,,,,,,,,,,1.644,2.472,477.3566535001155,None,,,,,,,,,,,,,,,,,,,,477.8995986999944,478.40104180015624,0.5023238998837769,1.0026227000635117,478.3843247999903,478.48439890006557,478.3843247999903,478.48439890006557,478.48439890006557,None,m,0,0.7528274001087993,478.48439890006557,None,,,,,,,p20,2022_Apr_28_1044,training+cueing,2021.1.4,60.02141566443008,
Friend.png,You,Friend,m,1.2,14,24,94,,,,,0,0,0,0,,,,,8,4,100,3,,,,,,,,,,,,,,,,,,,,,1.721,2.395,479.374710300006,None,,,,,,,,,,,,,,,,,,,,479.91149820014834,480.4191251001321,0.5146646997891366,1.0149698997847736,480.4024563001003,480.5025183001999,480.4024563001003,480.5025183001999,480.5025183001999,None,m,1,0.6867113998159766,480.5025183001999,None,,,,,,,p20,2022_Apr_28_1044,training+cueing,2021.1.4,60.02141566443008,
Self.png,Stranger,Self ,m,3.1,18,28,98,,,,,0,0,0,0,,,,,8,5,101,2,,,,,,,,,,,,,,,,,,,,,1.464,1.718,481.3263916000724,None,,,,,,,,,,,,,,,,,,,,481.8674698001705,482.3705290001817,0.5070304002147168,1.0076193001586944,482.3538727001287,482.4706069000531,482.3538727001287,482.4706069000531,482.4538911001291,None,c,0,0.7675737000536174,482.4538911001291,None,,,,,,,p20,2022_Apr_28_1044,training+cueing,2021.1.4,60.02141566443008,
Friend.png,Stranger,Friend,m,3.2,19,29,99,,,,,0,0,0,0,,,,,8,6,102,5,,,,,,,,,,,,,,,,,,,,,1.627,1.942,483.34551230003126,None,,,,,,,,,,,,,,,,,,,,483.8830948001705,484.38863450009376,0.5083265001885593,1.0086433002725244,484.3719723999966,484.48870860016905,484.3719723999966,484.48870860016905,484.4720188002102,None,m,1,0.8131442999001592,484.4720188002102,None,,,,,,,p20,2022_Apr_28_1044,training+cueing,2021.1.4,60.02141566443008,
Stranger.png,Stranger,Stranger,c,3,13,23,93,,,,,0,0,0,0,,,,,8,7,103,8,,,,,,,,,,,,,,,,,,,,,1.401,1.404,485.4126289000269,None,,,,,,,,,,,,,,,,,,,,485.9556201000232,486.45684410003014,0.5082221999764442,1.0084957000799477,486.4401783000212,486.55687210010365,486.4401783000212,486.55687210010365,486.54019180010073,None,c,1,0.6489674998447299,486.54019180010073,None,,,,,,,p20,2022_Apr_28_1044,training+cueing,2021.1.4,60.02141566443008,
Self.png,Friend,Self ,m,2.1,16,26,96,,,,,0,0,0,0,,,,,8,8,104,1,,,,,,,,,,,,,,,,,,,,,1.789,2.03,487.31313770008273,None,,,,,,,,,,,,,,,,,,,,487.8543221000582,488.3581847001333,0.5048457998782396,1.0049952999688685,488.34162680013105,488.4582519000396,488.34162680013105,488.4582519000396,488.4416006000247,None,m,1,0.7956357998773456,488.4416006000247,None,,,,,,,p20,2022_Apr_28_1044,training+cueing,2021.1.4,60.02141566443008,
Stranger.png,Stranger,Stranger,c,3,13,23,93,,,,,0,0,0,0,,,,,8,9,105,11,,,,,,,,,,,,,,,,,,,,,1.627,2.28,489.36544180009514,None,,,,,,,,,,,,,,,,,,,,489.9069825001061,490.4098209000658,0.5063908000010997,1.0066742999479175,490.3929934001062,490.5097655002028,490.3929934001062,490.5097655002028,490.49298220011406,None,m,0,0.8401282001286745,490.49298220011406,None,,,,,,,p20,2022_Apr_28_1044,training+cueing,2021.1.4,60.02141566443008,
Friend.png,Friend,Friend,c,2,12,22,92,,,,,0,0,0,0,,,,,8,10,106,4,,,,,,,,,,,,,,,,,,,,,1.753,2.049,491.46679360000417,None,,,,,,,,,,,,,,,,,,,,492.033216800075,492.5446700002067,0.5088768999557942,1.0091760999057442,492.527965700021,492.6447129000444,492.527965700021,492.6447129000444,492.62805730011314,None,c,1,0.561074199853465,492.62805730011314,None,,,,,,,p20,2022_Apr_28_1044,training+cueing,2021.1.4,60.02141566443008,
Stranger.png,Friend,Stranger,m,2.3,17,27,97,,,,,0,0,0,0,,,,,8,11,107,7,,,,,,,,,,,,,,,,,,,,,1.74,2.248,493.31756400014274,None,,,,,,,,,,,,,,,,,,,,493.85590850003064,494.3625193000771,0.5115328999236226,1.0120207997970283,494.34590429998934,494.4627430001274,494.34590429998934,494.4627430001274,494.4458924999926,None,m,1,0.615239400183782,494.4458924999926,None,,,,,,,p20,2022_Apr_28_1044,training+cueing,2021.1.4,60.02141566443008,
Stranger.png,Stranger,Stranger,c,3,13,23,93,,,,,0,0,0,0,,,,,9,0,108,8,,,,,,,,,,,,,,,,,,,,,1.53,2.17,495.18670950015076,None,,,,,,,,,,,,,,,,,,,,495.7255649000872,496.23053960013203,0.5106454000342637,1.0109836000483483,496.2138648000546,496.3305712000001,496.2138648000546,496.3305712000001,496.3138866000809,None,c,1,1.0352803999558091,496.3138866000809,None,,,,,,,p20,2022_Apr_28_1044,training+cueing,2021.1.4,60.02141566443008,
Friend.png,Friend,Friend,c,2,12,22,92,,,,,0,0,0,0,,,,,9,1,109,10,,,,,,,,,,,,,,,,,,,,,1.612,1.83,497.4716467000544,None,,,,,,,,,,,,,,,,,,,,498.00938550010324,498.5156303001568,0.5131324999965727,1.0133696999400854,498.4990091000218,498.6156836000737,498.4990091000218,498.6156836000737,498.59898030012846,None,c,1,0.7501685000024736,498.59898030012846,None,,,,,,,p20,2022_Apr_28_1044,training+cueing,2021.1.4,60.02141566443008,
Stranger.png,Stranger,Stranger,c,3,13,23,93,,,,,0,0,0,0,,,,,9,2,110,11,,,,,,,,,,,,,,,,,,,,,1.41,2.263,499.4727875001263,None,,,,,,,,,,,,,,,,,,,,500.013588400092,500.5169909000397,0.5057379000354558,1.0060028000734746,500.50030470010825,500.61707570008,500.50030470010825,500.61707570008,500.6003250000067,None,c,1,0.6528024000581354,500.6003250000067,None,,,,,,,p20,2022_Apr_28_1044,training+cueing,2021.1.4,60.02141566443008,
Friend.png,Friend,Friend,c,2,12,22,92,,,,,0,0,0,0,,,,,9,3,111,4,,,,,,,,,,,,,,,,,,,,,1.699,2.026,501.39082460012287,None,,,,,,,,,,,,,,,,,,,,501.9354187999852,502.43505460000597,0.5003375001251698,1.0011833999305964,502.4183486001566,502.53511420008726,502.4183486001566,502.53511420008726,502.53511420008726,None,m,0,0.7979409000836313,502.53511420008726,None,,,,,,,p20,2022_Apr_28_1044,training+cueing,2021.1.4,60.02141566443008,
Self.png,Friend,Self ,m,2.1,16,26,96,,,,,0,0,0,0,,,,,9,4,112,1,,,,,,,,,,,,,,,,,,,,,1.405,2.097,503.4583591001574,None,,,,,,,,,,,,,,,,,,,,503.99694800004363,504.50317500019446,0.511357800103724,1.0117254999931902,504.48660630011,504.60338490013964,504.48660630011,504.60338490013964,504.58654460008256,None,c,0,0.7947078999131918,504.58654460008256,None,,,,,,,p20,2022_Apr_28_1044,training+cueing,2021.1.4,60.02141566443008,
Self.png,You,Self ,c,1,11,21,91,,,,,0,0,0,0,,,,,9,5,113,0,,,,,,,,,,,,,,,,,,,,,1.6,2.029,505.5114857000299,None,,,,,,,,,,,,,,,,,,,,506.05031309998594,506.55464530014433,0.5099291997030377,1.0102037996985018,506.53800420020707,506.6380414001178,506.53800420020707,506.6380414001178,506.6380414001178,None,m,0,0.8711041999049485,506.6380414001178,None,,,,,,,p20,2022_Apr_28_1044,training+cueing,2021.1.4,60.02141566443008,
Self.png,You,Self ,c,1,11,21,91,,,,,0,0,0,0,,,,,9,6,114,9,,,,,,,,,,,,,,,,,,,,,1.437,2.009,507.64430240006186,None,,,,,,,,,,,,,,,,,,,,508.18404310010374,508.6895585001912,0.5105063000228256,1.0113578999880701,508.6728729000315,508.7729286001995,508.6728729000315,508.7729286001995,508.7729286001995,None,c,1,0.7843190000858158,508.7729286001995,None,,,,,,,p20,2022_Apr_28_1044,training+cueing,2021.1.4,60.02141566443008,
Stranger.png,Friend,Stranger,m,2.3,17,27,97,,,,,0,0,0,0,,,,,9,7,115,7,,,,,,,,,,,,,,,,,,,,,1.433,1.802,509.68283170019276,None,,,,,,,,,,,,,,,,,,,,510.22130249999464,510.72434200020507,0.5044448999688029,1.004846499999985,510.7076721000485,510.82492520008236,510.7076721000485,510.82492520008236,510.8077224001754,None,c,0,0.669400000013411,510.8077224001754,None,,,,,,,p20,2022_Apr_28_1044,training+cueing,2021.1.4,60.02141566443008,
Friend.png,You,Friend,m,1.2,14,24,94,,,,,0,0,0,0,,,,,9,8,116,3,,,,,,,,,,,,,,,,,,,,,1.609,2.14,511.61503070010804,None,,,,,,,,,,,,,,,,,,,,512.1583250002004,512.6591963001993,0.5024312001187354,1.003139000153169,512.6425579001661,512.7425897000358,512.6425579001661,512.7425897000358,512.7425897000358,None,m,1,0.6707700998522341,512.7425897000358,None,,,,,,,p20,2022_Apr_28_1044,training+cueing,2021.1.4,60.02141566443008,
Self.png,Stranger,Self ,m,3.1,18,28,98,,,,,0,0,0,0,,,,,9,9,117,2,,,,,,,,,,,,,,,,,,,,,1.749,1.903,513.552381800022,None,,,,,,,,,,,,,,,,,,,,514.0994342002086,514.6104987000581,0.5062186000868678,1.007147500058636,514.5937862000428,514.7105405000038,514.5937862000428,514.7105405000038,514.6938375001773,None,c,0,0.8633818000089377,514.6938375001773,None,,,,,,,p20,2022_Apr_28_1044,training+cueing,2021.1.4,60.02141566443008,
Friend.png,Stranger,Friend,m,3.2,19,29,99,,,,,0,0,0,0,,,,,9,10,118,5,,,,,,,,,,,,,,,,,,,,,1.743,1.718,515.6854414001573,None,,,,,,,,,,,,,,,,,,,,516.2269787001424,516.7287065000273,0.5016791000962257,1.0027383998967707,516.7119680000469,516.8292951001786,516.7119680000469,516.8292951001786,516.8292951001786,None,m,1,0.7439249998424202,516.8292951001786,None,,,,,,,p20,2022_Apr_28_1044,training+cueing,2021.1.4,60.02141566443008,
Stranger.png,You,Stranger,m,1.3,15,25,95,,,,,0,0,0,0,,,,,9,11,119,6,,,,,,,,,,,,,,,,,,,,,1.572,1.717,517.7020639001857,None,,,,,,,,,,,,,,,,,,,,518.2433516001329,518.7468183999881,0.5070261000655591,1.0072864000685513,518.7301417000126,518.8301828000695,518.7301417000126,518.8301828000695,518.8301828000695,None,m,1,0.7109379000030458,518.8301828000695,None,,,,,,,p20,2022_Apr_28_1044,training+cueing,2021.1.4,60.02141566443008,
,,,,,,,,,,,,0,0,0,0,,,,,,,,,,,,,,,,,,,,,,,,,,,,,,,,,,,,,,,,,,,,,,,,,,,,,,,,,,,,,,,,,,,0.0018740999512374401,None,,,,,p20,2022_Apr_28_1044,training+cueing,2021.1.4,60.02141566443008,
Friend.png,Friend,Friend,c,2,12,22,92,,,,,1,0,1,0,0,0,0,4,,,,,,,,,,,,,,,,,520.1813860000111,None,space,35.454969900194556,2.015255299862474,None,557.6415171001572,None,1.471,1.922,560.6519167001825,None,561.1805997001939,561.6944893000182,561.6778148000594,561.7945503999945,561.6778148000594,561.7945503999945,561.7778143000323,None,c,1,561.7778143000323,None,562.4116615999956,None,0.6111630001105368,,,,,,,,,,,,,,,,,,,,,,,,,,p20,2022_Apr_28_1044,training+cueing,2021.1.4,60.02141566443008,
Self.png,You,Self ,c,1,11,21,91,,,,,1,0,1,0,0,1,1,0,,,,,,,,,,,,,,,,,,,,,,,,,1.419,1.595,562.8124966002069,None,563.3587921001017,563.8627173001878,563.8460587000009,563.9460905001033,563.8460587000009,563.9460905001033,563.9460905001033,None,m,0,563.9460905001033,None,564.7302427000832,None,0.7629583000671118,,,,,,,,,,,,,,,,,,,,,,,,,,p20,2022_Apr_28_1044,training+cueing,2021.1.4,60.02141566443008,
Self.png,Stranger,Self ,m,3.1,18,28,98,,,,,1,0,1,0,0,2,2,2,,,,,,,,,,,,,,,,,,,,,,,,,1.423,1.344,565.1304483001586,None,565.6722011000384,566.1810455999803,566.1643781000748,566.2810942002106,566.1643781000748,566.2810942002106,566.2810942002106,None,c,0,566.2810942002106,None,567.0466348000336,None,0.7478889999911189,,,,,,,,,,,,,,,,,,,,,,,,,,p20,2022_Apr_28_1044,training+cueing,2021.1.4,60.02141566443008,
Stranger.png,Stranger,Stranger,c,3,13,23,93,,,,,1,0,1,0,0,3,3,11,,,,,,,,,,,,,,,,,,,,,,,,,1.752,2.137,567.4487128001638,None,567.9752728000749,568.4827106001321,568.4661310000811,568.5829352000728,568.4661310000811,568.5829352000728,568.5660920001101,None,c,1,568.5660920001101,None,569.6492578000762,None,1.0549379999283701,,,,,,,,,,,,,,,,,,,,,,,,,,p20,2022_Apr_28_1044,training+cueing,2021.1.4,60.02141566443008,
Friend.png,Friend,Friend,c,2,12,22,92,,,,,1,0,1,0,0,4,4,10,,,,,,,,,,,,,,,,,,,,,,,,,1.718,1.721,570.0504855001345,None,570.5805832000915,571.084588700207,571.0679103001021,571.1846152001526,571.0679103001021,571.1846152001526,571.1679025001358,None,c,1,571.1679025001358,None,571.9352133001667,None,0.7410158000420779,,,,,,,,,,,,,,,,,,,,,,,,,,p20,2022_Apr_28_1044,training+cueing,2021.1.4,60.02141566443008,
Stranger.png,You,Stranger,m,1.3,15,25,95,,,,,1,0,1,0,0,5,5,6,,,,,,,,,,,,,,,,,,,,,,,,,1.777,1.762,572.3359938000795,None,572.8719074002001,573.3862821001094,573.3696133000776,573.469641600037,573.3696133000776,573.469641600037,573.469641600037,None,m,1,573.469641600037,None,574.1853177000303,None,0.6954437999520451,,,,,,,,,,,,,,,,,,,,,,,,,,p20,2022_Apr_28_1044,training+cueing,2021.1.4,60.02141566443008,
Friend.png,Stranger,Friend,m,3.2,19,29,99,,,,,1,0,1,0,0,6,6,5,,,,,,,,,,,,,,,,,,,,,,,,,1.769,1.662,574.5872225000057,None,575.1182812000625,575.6211985000409,575.6046578001697,575.7212702000979,575.6046578001697,575.7212702000979,575.7047067000531,None,m,1,575.7047067000531,None,576.521879900014,None,0.7963688999880105,,,,,,,,,,,,,,,,,,,,,,,,,,p20,2022_Apr_28_1044,training+cueing,2021.1.4,60.02141566443008,
Stranger.png,Stranger,Stranger,c,3,13,23,93,,,,,1,0,1,0,0,7,7,8,,,,,,,,,,,,,,,,,,,,,,,,,1.65,2.264,576.9226900001522,None,577.4565674001351,577.9562155001331,577.9562155001331,578.056277200114,577.9562155001331,578.056277200114,578.056277200114,None,c,1,578.056277200114,None,578.7735351000447,None,0.7008028000127524,,,,,,,,,,,,,,,,,,,,,,,,,,p20,2022_Apr_28_1044,training+cueing,2021.1.4,60.02141566443008,
Stranger.png,Friend,Stranger,m,2.3,17,27,97,,,,,1,0,1,0,0,8,8,7,,,,,,,,,,,,,,,,,,,,,,,,,1.768,2.491,579.1738011999987,None,579.7061680001207,580.2078767002095,580.1911991001107,580.3078942000866,580.1911991001107,580.3078942000866,580.2911704001017,None,m,1,580.2911704001017,None,581.1421125000343,None,0.8181108999997377,,,,,,,,,,,,,,,,,,,,,,,,,,p20,2022_Apr_28_1044,training+cueing,2021.1.4,60.02141566443008,
Friend.png,You,Friend,m,1.2,14,24,94,,,,,1,0,1,0,0,9,9,3,,,,,,,,,,,,,,,,,,,,,,,,,1.548,1.657,581.5421367001254,None,582.0938191001769,582.5929453000426,582.5929453000426,582.6929366001859,582.5929453000426,582.6929366001859,582.6929366001859,None,m,1,582.6929366001859,None,583.476885400014,None,0.7680793998297304,,,,,,,,,,,,,,,,,,,,,,,,,,p20,2022_Apr_28_1044,training+cueing,2021.1.4,60.02141566443008,
Self.png,You,Self ,c,1,11,21,91,,,,,1,0,1,0,0,10,10,9,,,,,,,,,,,,,,,,,,,,,,,,,1.603,1.68,583.8771389001049,None,584.4066379000433,584.9112674000207,584.8945646001957,584.9946201001294,584.8945646001957,584.9946201001294,584.9946201001294,None,c,1,584.9946201001294,None,585.7785409002099,None,0.7543817001860589,,,,,,,,,,,,,,,,,,,,,,,,,,p20,2022_Apr_28_1044,training+cueing,2021.1.4,60.02141566443008,
Self.png,Friend,Self ,m,2.1,16,26,96,,,,,1,0,1,0,0,11,11,1,,,,,,,,,,,,,,,,,,,,,,,,,1.52,1.279,586.1787845999934,None,586.7080759999808,587.2128900000826,587.1962111000903,587.3129426001105,587.1962111000903,587.3129426001105,587.2962289000861,None,m,1,587.2962289000861,None,588.3804403000977,None,1.0607781999278814,,,,,,,,,,,,,,,,,,,,,,,,,,p20,2022_Apr_28_1044,training+cueing,2021.1.4,60.02141566443008,
Friend.png,Friend,Friend,c,2,12,22,92,,,,,1,0,1,0,,,,,0,0,0,4,,,,,,,,,,,,,,,,,,,605.1426528000738,None,1.608,1.383,608.6588883001823,None,,,,,,,,,,,,,,,,588.7808125000447,None,0.01471179979853332,0.5130061998497695,609.1928342001047,609.6957651001867,0.5054360998328775,1.0065107999835163,609.67910700012,609.7958313000854,609.67910700012,609.7958313000854,609.7791598001495,None,c,1,0.5138890000525862,609.7791598001495,None,,,,,,,p20,2022_Apr_28_1044,training+cueing,2021.1.4,60.02141566443008,
Friend.png,Stranger,Friend,m,3.2,19,29,99,,,,,1,0,1,0,,,,,0,1,1,5,,,,,,,,,,,,,,,,,,,,,1.597,2.11,610.4202460001688,None,,,,,,,,,,,,,,,,,,,,610.9624442001805,611.4637447001878,0.5037876002024859,1.00404840009287,611.4470437001437,611.5638006001245,611.4470437001437,611.5638006001245,611.5470801000483,None,m,1,0.7779099999461323,611.5470801000483,None,,,,,,,p20,2022_Apr_28_1044,training+cueing,2021.1.4,60.02141566443008,
Stranger.png,Stranger,Stranger,c,3,13,23,93,,,,,1,0,1,0,,,,,0,2,2,8,,,,,,,,,,,,,,,,,,,,,1.673,2.429,612.4541627001017,None,,,,,,,,,,,,,,,,,,,,612.9890068999957,613.4985437002033,0.500522400252521,1.000801400281489,613.4818988000043,613.5986032001674,613.4818988000043,613.5986032001674,613.5986032001674,None,c,1,0.5823475001379848,613.5986032001674,None,,,,,,,p20,2022_Apr_28_1044,training+cueing,2021.1.4,60.02141566443008,
Stranger.png,Stranger,Stranger,c,3,13,23,93,,,,,1,0,1,0,,,,,0,3,3,11,,,,,,,,,,,,,,,,,,,,,1.441,1.868,614.3053349000402,None,,,,,,,,,,,,,,,,,,,,614.8593714002054,615.3666800002102,0.512748499866575,1.0160379998851568,615.3333320000675,615.4334151002113,615.3333320000675,615.4334151002113,615.4334151002113,None,c,1,0.715614499989897,615.4334151002113,None,,,,,,,p20,2022_Apr_28_1044,training+cueing,2021.1.4,60.02141566443008,
Self.png,You,Self ,c,1,11,21,91,,,,,1,0,1,0,,,,,0,4,4,9,,,,,,,,,,,,,,,,,,,,,1.733,1.921,616.2748689001892,None,,,,,,,,,,,,,,,,,,,,616.8115509001072,617.3179616001435,0.5102554000914097,1.0111513000447303,617.3013522999827,617.4013624000363,617.3013522999827,617.4013624000363,617.4013624000363,None,c,1,0.6035995001439005,617.4013624000363,None,,,,,,,p20,2022_Apr_28_1044,training+cueing,2021.1.4,60.02141566443008,
Self.png,Friend,Self ,m,2.1,16,26,96,,,,,1,0,1,0,,,,,0,5,5,1,,,,,,,,,,,,,,,,,,,,,1.58,1.339,618.1413938000333,None,,,,,,,,,,,,,,,,,,,,618.6918214000762,619.2026601000689,0.5060333001893014,1.006484200246632,619.1859269000124,619.3027900999878,619.1859269000124,619.3027900999878,619.2862143001985,None,m,1,0.6547244999092072,619.2862143001985,None,,,,,,,p20,2022_Apr_28_1044,training+cueing,2021.1.4,60.02141566443008,
Friend.png,Friend,Friend,c,2,12,22,92,,,,,1,0,1,0,,,,,0,6,6,10,,,,,,,,,,,,,,,,,,,,,1.76,1.854,620.0760990001727,None,,,,,,,,,,,,,,,,,,,,620.615782200126,621.1207054001279,0.510016500018537,1.0104335001669824,621.1040182001889,621.2207260001451,621.1040182001889,621.2207260001451,621.2040520000737,None,c,1,0.5929463999345899,621.2040520000737,None,,,,,,,p20,2022_Apr_28_1044,training+cueing,2021.1.4,60.02141566443008,
Self.png,You,Self ,c,1,11,21,91,,,,,1,0,1,0,,,,,0,7,7,0,,,,,,,,,,,,,,,,,,,,,1.484,2.309,621.9281419001054,None,,,,,,,,,,,,,,,,,,,,622.4680242000613,622.9721984001808,0.5066534001380205,1.0070961001329124,622.9555010001641,623.055558900116,622.9555010001641,623.055558900116,623.055558900116,None,c,1,0.6134776000399143,623.055558900116,None,,,,,,,p20,2022_Apr_28_1044,training+cueing,2021.1.4,60.02141566443008,
Stranger.png,Friend,Stranger,m,2.3,17,27,97,,,,,1,0,1,0,,,,,0,8,8,7,,,,,,,,,,,,,,,,,,,,,1.431,1.67,623.7970484001562,None,,,,,,,,,,,,,,,,,,,,624.33893060009,624.8400856000371,0.5030646999366581,1.0033354999031872,624.8234109000769,624.9401166001335,624.8234109000769,624.9401166001335,624.9234011000954,None,m,1,0.8094549002125859,624.9234011000954,None,,,,,,,p20,2022_Apr_28_1044,training+cueing,2021.1.4,60.02141566443008,
Self.png,Stranger,Self ,m,3.1,18,28,98,,,,,1,0,1,0,,,,,0,9,9,2,,,,,,,,,,,,,,,,,,,,,1.778,1.205,625.8638434000313,None,,,,,,,,,,,,,,,,,,,,626.4038639001083,626.9082295000553,0.5082181000616401,1.008436300093308,626.891548700165,627.0082884000149,626.891548700165,627.0082884000149,626.9916080001276,None,m,1,0.8852977000642568,626.9916080001276,None,,,,,,,p20,2022_Apr_28_1044,training+cueing,2021.1.4,60.02141566443008,
Friend.png,You,Friend,m,1.2,14,24,94,,,,,1,0,1,0,,,,,0,10,10,3,,,,,,,,,,,,,,,,,,,,,1.719,1.55,628.0154313000385,None,,,,,,,,,,,,,,,,,,,,628.5520510000642,629.0597527001519,0.5136204001028091,1.014119900064543,629.0431068001781,629.1431413001847,629.0431068001781,629.1431413001847,629.1431413001847,None,m,1,0.6857965998351574,629.1431413001847,None,,,,,,,p20,2022_Apr_28_1044,training+cueing,2021.1.4,60.02141566443008,
Stranger.png,You,Stranger,m,1.3,15,25,95,,,,,1,0,1,0,,,,,0,11,11,6,,,,,,,,,,,,,,,,,,,,,1.523,1.723,629.9666923000477,None,,,,,,,,,,,,,,,,,,,,630.5191117001232,631.0278881001286,0.500250400044024,1.0005584999453276,631.0112166001927,631.1112631000578,631.0112166001927,631.1112631000578,631.1112631000578,None,m,1,0.7496920998673886,631.1112631000578,None,,,,,,,p20,2022_Apr_28_1044,training+cueing,2021.1.4,60.02141566443008,
Stranger.png,Friend,Stranger,m,2.3,17,27,97,,,,,1,0,1,0,,,,,1,0,12,7,,,,,,,,,,,,,,,,,,,,,1.532,1.373,631.9847524000797,None,,,,,,,,,,,,,,,,,,,,632.5233674000483,633.0293017001823,0.5103408999275416,1.0106303999200463,633.0126698000822,633.1293419001158,633.0126698000822,633.1293419001158,633.1126649000216,None,m,1,1.1002136999741197,633.1126649000216,None,,,,,,,p20,2022_Apr_28_1044,training+cueing,2021.1.4,60.02141566443008,
Friend.png,Friend,Friend,c,2,12,22,92,,,,,1,0,1,0,,,,,1,1,13,10,,,,,,,,,,,,,,,,,,,,,1.448,1.511,634.3358295999933,None,,,,,,,,,,,,,,,,,,,,634.8723495001905,635.3811085000634,0.5004608002491295,1.0007363001350313,635.3477927001659,635.4477929000277,635.3477927001659,635.4477929000277,635.4477929000277,None,c,1,0.5412789999973029,635.4477929000277,None,,,,,,,p20,2022_Apr_28_1044,training+cueing,2021.1.4,60.02141566443008,
Stranger.png,You,Stranger,m,1.3,15,25,95,,,,,1,0,1,0,,,,,1,2,14,6,,,,,,,,,,,,,,,,,,,,,1.562,1.267,636.122302000178,None,,,,,,,,,,,,,,,,,,,,636.6730845000129,637.1823904002085,0.5017679000739008,1.0018639999907464,637.1657885999884,637.2656919001602,637.1657885999884,637.2656919001602,637.2656919001602,None,m,1,0.6271907000336796,637.2656919001602,None,,,,,,,p20,2022_Apr_28_1044,training+cueing,2021.1.4,60.02141566443008,
Friend.png,You,Friend,m,1.2,14,24,94,,,,,1,0,1,0,,,,,1,3,15,3,,,,,,,,,,,,,,,,,,,,,1.752,2.01,638.0227457000874,None,,,,,,,,,,,,,,,,,,,,638.5640105002094,639.0671663000248,0.5037146001122892,1.0039801001548767,639.0504846000113,639.1505472001154,639.0504846000113,639.1505472001154,639.1505472001154,None,m,1,0.8543763000052422,639.1505472001154,None,,,,,,,p20,2022_Apr_28_1044,training+cueing,2021.1.4,60.02141566443008,
Self.png,You,Self ,c,1,11,21,91,,,,,1,0,1,0,,,,,1,4,16,0,,,,,,,,,,,,,,,,,,,,,1.574,2.136,640.1404914001469,None,,,,,,,,,,,,,,,,,,,,640.6930124000646,641.2019105001818,0.5010211002081633,1.0018595003057271,641.1852089001331,641.2852417000104,641.1852089001331,641.2852417000104,641.2852417000104,None,c,1,1.0717541000340134,641.2852417000104,None,,,,,,,p20,2022_Apr_28_1044,training+cueing,2021.1.4,60.02141566443008,
Friend.png,Friend,Friend,c,2,12,22,92,,,,,1,0,1,0,,,,,1,5,17,4,,,,,,,,,,,,,,,,,,,,,1.534,1.949,642.492199000204,None,,,,,,,,,,,,,,,,,,,,643.0538800000213,643.5537726001348,0.5008016999345273,1.0010458000469953,643.5370654000435,643.6538152000867,643.5370654000435,643.6538152000867,643.6538152000867,None,c,1,0.7831198999192566,643.6538152000867,None,,,,,,,p20,2022_Apr_28_1044,training+cueing,2021.1.4,60.02141566443008,
Stranger.png,Stranger,Stranger,c,3,13,23,93,,,,,1,0,1,0,,,,,1,6,18,8,,,,,,,,,,,,,,,,,,,,,1.668,2.348,644.5620142000262,None,,,,,,,,,,,,,,,,,,,,645.1114135000389,645.6217191000469,0.5027610000688583,1.0030924000311643,645.6050404000562,645.7217788000125,645.6050404000562,645.7217788000125,645.7050564000383,None,c,1,0.6838956999126822,645.7050564000383,None,,,,,,,p20,2022_Apr_28_1044,training+cueing,2021.1.4,60.02141566443008,
Friend.png,Stranger,Friend,m,3.2,19,29,99,,,,,1,0,1,0,,,,,1,7,19,5,,,,,,,,,,,,,,,,,,,,,1.77,2.059,646.5122921001166,None,,,,,,,,,,,,,,,,,,,,647.051406300161,647.5564875002019,0.511458900058642,1.0117046001832932,647.5398433001246,647.6565274000168,647.5398433001246,647.6565274000168,647.6398138001096,None,m,1,0.8772360999137163,647.6398138001096,None,,,,,,,p20,2022_Apr_28_1044,training+cueing,2021.1.4,60.02141566443008,
Self.png,Stranger,Self ,m,3.1,18,28,98,,,,,1,0,1,0,,,,,1,8,20,2,,,,,,,,,,,,,,,,,,,,,1.427,1.299,648.6504783001728,None,,,,,,,,,,,,,,,,,,,,649.1841005000751,649.6913485000841,0.5112662001047283,1.0115363001823425,649.6746539000887,649.7914255000651,649.6746539000887,649.7914255000651,649.7748801000416,None,m,1,0.6780644999817014,649.7748801000416,None,,,,,,,p20,2022_Apr_28_1044,training+cueing,2021.1.4,60.02141566443008,
Stranger.png,Stranger,Stranger,c,3,13,23,93,,,,,1,0,1,0,,,,,1,9,21,11,,,,,,,,,,,,,,,,,,,,,1.617,2.225,650.5814580000006,None,,,,,,,,,,,,,,,,,,,,651.1212018001825,651.6260830999818,0.5106504000723362,1.0109306999947876,651.6093854000792,651.7261024001054,651.6093854000792,651.7261024001054,651.7094370000996,None,c,1,0.6954801001120359,651.7094370000996,None,,,,,,,p20,2022_Apr_28_1044,training+cueing,2021.1.4,60.02141566443008,
Self.png,You,Self ,c,1,11,21,91,,,,,1,0,1,0,,,,,1,10,22,9,,,,,,,,,,,,,,,,,,,,,1.405,2.223,652.5329371001571,None,,,,,,,,,,,,,,,,,,,,653.0725289999973,653.5775666001718,0.5102381000760943,1.0110023999586701,653.5609156000428,653.6608522001188,653.5609156000428,653.6608522001188,653.6608522001188,None,c,1,0.7922472001519054,653.6608522001188,None,,,,,,,p20,2022_Apr_28_1044,training+cueing,2021.1.4,60.02141566443008,
Self.png,Friend,Self ,m,2.1,16,26,96,,,,,1,0,1,0,,,,,1,11,23,1,,,,,,,,,,,,,,,,,,,,,1.51,2.254,654.5852942001075,None,,,,,,,,,,,,,,,,,,,,655.1276505000424,655.6289297000039,0.5017018001526594,1.0025994000025094,655.6122714001685,655.7289911000989,655.6122714001685,655.7289911000989,655.7289911000989,None,m,1,0.6919454999733716,655.7289911000989,None,,,,,,,p20,2022_Apr_28_1044,training+cueing,2021.1.4,60.02141566443008,
Stranger.png,Stranger,Stranger,c,3,13,23,93,,,,,1,0,1,0,,,,,2,0,24,8,,,,,,,,,,,,,,,,,,,,,1.746,2.45,656.5526099000126,None,,,,,,,,,,,,,,,,,,,,657.0944425000343,657.5970605001785,0.5066440999507904,1.0069512999616563,657.5803595001344,657.697139200056,657.5803595001344,657.697139200056,657.6804642002098,None,c,1,1.0764405999798328,657.6804642002098,None,,,,,,,p20,2022_Apr_28_1044,training+cueing,2021.1.4,60.02141566443008,
Friend.png,Stranger,Friend,m,3.2,19,29,99,,,,,1,0,1,0,,,,,2,1,25,5,,,,,,,,,,,,,,,,,,,,,1.641,2.309,658.8876904000062,None,,,,,,,,,,,,,,,,,,,,659.4268183000386,659.9320519000757,0.5092909000813961,1.0096162999980152,659.915371300187,660.0321081001312,659.915371300187,660.0321081001312,660.0153894000687,None,m,1,0.6615139998029917,660.0153894000687,None,,,,,,,p20,2022_Apr_28_1044,training+cueing,2021.1.4,60.02141566443008,
Friend.png,Friend,Friend,c,2,12,22,92,,,,,1,0,1,0,,,,,2,2,26,10,,,,,,,,,,,,,,,,,,,,,1.611,1.603,660.8051187000237,None,,,,,,,,,,,,,,,,,,,,661.3459884000476,661.8501395001076,0.505824499996379,1.006113399984315,661.8334455001168,661.9501774001401,661.8334455001168,661.9501774001401,661.9334500001278,None,c,1,0.6156381000764668,661.9334500001278,None,,,,,,,p20,2022_Apr_28_1044,training+cueing,2021.1.4,60.02141566443008,
Self.png,Friend,Self ,m,2.1,16,26,96,,,,,1,0,1,0,,,,,2,3,27,1,,,,,,,,,,,,,,,,,,,,,1.455,1.252,662.6752501002047,None,,,,,,,,,,,,,,,,,,,,663.2119400000665,663.7181754000485,0.5116089000366628,1.0119339998345822,663.7014638001565,663.8182165001053,663.7014638001565,663.8182165001053,663.8014715001918,None,m,1,0.747395700076595,663.8014715001918,None,,,,,,,p20,2022_Apr_28_1044,training+cueing,2021.1.4,60.02141566443008,
Friend.png,Friend,Friend,c,2,12,22,92,,,,,1,0,1,0,,,,,2,4,28,4,,,,,,,,,,,,,,,,,,,,,1.749,1.843,664.6753710000776,None,,,,,,,,,,,,,,,,,,,,665.225033499999,665.7362523002084,0.5039351999294013,1.004206399898976,665.7196017000824,665.8363100001588,665.7196017000824,665.8363100001588,665.8196142001543,None,c,1,0.7132846999447793,665.8196142001543,None,,,,,,,p20,2022_Apr_28_1044,training+cueing,2021.1.4,60.02141566443008,
Friend.png,You,Friend,m,1.2,14,24,94,,,,,1,0,1,0,,,,,2,5,29,3,,,,,,,,,,,,,,,,,,,,,1.707,1.819,666.6597224001307,None,,,,,,,,,,,,,,,,,,,,667.1981722000055,667.7043188000098,0.5117446000222117,1.0120178000070155,667.6876589001622,667.7877007999923,667.6876589001622,667.7877007999923,667.7877007999923,None,m,1,0.8734979000873864,667.7877007999923,None,,,,,,,p20,2022_Apr_28_1044,training+cueing,2021.1.4,60.02141566443008,
Stranger.png,Friend,Stranger,m,2.3,17,27,97,,,,,1,0,1,0,,,,,2,6,30,7,,,,,,,,,,,,,,,,,,,,,1.643,2.349,668.7947350000031,None,,,,,,,,,,,,,,,,,,,,669.3465703001712,669.8558985001873,0.5014655003324151,1.0017377003096044,669.8392376000993,669.955926900031,669.8392376000993,669.955926900031,669.955926900031,None,m,1,0.784961799858138,669.955926900031,None,,,,,,,p20,2022_Apr_28_1044,training+cueing,2021.1.4,60.02141566443008,
Self.png,You,Self ,c,1,11,21,91,,,,,1,0,1,0,,,,,2,7,31,0,,,,,,,,,,,,,,,,,,,,,1.644,1.302,670.8646565000527,None,,,,,,,,,,,,,,,,,,,,671.4032579001505,671.9073671000078,0.5064592999406159,1.0068057000171393,671.8906553001143,671.9907709001563,671.8906553001143,671.9907709001563,671.9907709001563,None,c,1,0.8141530000139028,671.9907709001563,None,,,,,,,p20,2022_Apr_28_1044,training+cueing,2021.1.4,60.02141566443008,
Stranger.png,You,Stranger,m,1.3,15,25,95,,,,,1,0,1,0,,,,,2,8,32,6,,,,,,,,,,,,,,,,,,,,,1.655,2.306,672.9325261001941,None,,,,,,,,,,,,,,,,,,,,673.4689313999843,673.9755269000307,0.5128578003495932,1.0135435003321618,673.9588155001402,674.058882900048,673.9588155001402,674.058882900048,674.058882900048,None,m,1,0.6819637999869883,674.058882900048,None,,,,,,,p20,2022_Apr_28_1044,training+cueing,2021.1.4,60.02141566443008,
Self.png,You,Self ,c,1,11,21,91,,,,,1,0,1,0,,,,,2,9,33,9,,,,,,,,,,,,,,,,,,,,,1.727,2.134,674.8663878000807,None,,,,,,,,,,,,,,,,,,,,675.4060991001315,675.9103208000306,0.5080434002447873,1.0089040000457317,675.8936270000413,675.9936546999961,675.8936270000413,675.9936546999961,675.9936546999961,None,m,0,0.6033200998790562,675.9936546999961,None,,,,,,,p20,2022_Apr_28_1044,training+cueing,2021.1.4,60.02141566443008,
Self.png,Stranger,Self ,m,3.1,18,28,98,,,,,1,0,1,0,,,,,2,10,34,2,,,,,,,,,,,,,,,,,,,,,1.65,1.97,676.734775400022,None,,,,,,,,,,,,,,,,,,,,677.2732278001495,677.7782803000882,0.5090713002718985,1.0093718003481627,677.7615847000852,677.8783507000189,677.7615847000852,677.8783507000189,677.8616014001891,None,m,1,0.8795340000651777,677.8616014001891,None,,,,,,,p20,2022_Apr_28_1044,training+cueing,2021.1.4,60.02141566443008,
Stranger.png,Stranger,Stranger,c,3,13,23,93,,,,,1,0,1,0,,,,,2,11,35,11,,,,,,,,,,,,,,,,,,,,,1.698,2.389,678.8727072000038,None,,,,,,,,,,,,,,,,,,,,679.4143872000277,679.929826100124,0.5135899998713285,1.013865299988538,679.9131734000985,680.0298648001626,679.9131734000985,680.0298648001626,680.0132042001933,None,c,1,0.9035898998845369,680.0132042001933,None,,,,,,,p20,2022_Apr_28_1044,training+cueing,2021.1.4,60.02141566443008,
Friend.png,Friend,Friend,c,2,12,22,92,,,,,1,0,1,0,,,,,3,0,36,4,,,,,,,,,,,,,,,,,,,,,1.704,1.813,681.0535244001076,None,,,,,,,,,,,,,,,,,,,,681.5940939001739,682.098079000134,0.5055358002427965,1.0058436002582312,682.0813724000473,682.1981236999854,682.0813724000473,682.1981236999854,682.1814745001029,None,c,1,0.7674114999826998,682.1814745001029,None,,,,,,,p20,2022_Apr_28_1044,training+cueing,2021.1.4,60.02141566443008,
Self.png,Friend,Self ,m,2.1,16,26,96,,,,,1,0,1,0,,,,,3,1,37,1,,,,,,,,,,,,,,,,,,,,,1.757,2.273,683.0716771001462,None,,,,,,,,,,,,,,,,,,,,683.6080695001874,684.1161731001921,0.5002265002112836,1.001116300234571,684.0828248001635,684.1830347001087,684.0828248001635,684.1830347001087,684.1830347001087,None,m,1,0.7498045999091119,684.1830347001087,None,,,,,,,p20,2022_Apr_28_1044,training+cueing,2021.1.4,60.02141566443008,
Self.png,Stranger,Self ,m,3.1,18,28,98,,,,,1,0,1,0,,,,,3,2,38,2,,,,,,,,,,,,,,,,,,,,,1.63,1.293,685.057966100052,None,,,,,,,,,,,,,,,,,,,,685.599593100138,686.1009422000498,0.5036877999082208,1.0039872999768704,686.0842965000775,686.2010330001358,686.0842965000775,686.2010330001358,686.1843548000325,None,m,1,0.7967022999655455,686.1843548000325,None,,,,,,,p20,2022_Apr_28_1044,training+cueing,2021.1.4,60.02141566443008,
Friend.png,Stranger,Friend,m,3.2,19,29,99,,,,,1,0,1,0,,,,,3,3,39,5,,,,,,,,,,,,,,,,,,,,,1.77,1.62,687.1117903001141,None,,,,,,,,,,,,,,,,,,,,687.6482313000597,688.1524557000957,0.506935500074178,1.007723400136456,688.1357871000655,688.2525148000568,688.1357871000655,688.2525148000568,688.2358169001527,None,c,0,1.1131523998919874,688.2358169001527,None,,,,,,,p20,2022_Apr_28_1044,training+cueing,2021.1.4,60.02141566443008,
Stranger.png,Stranger,Stranger,c,3,13,23,93,,,,,1,0,1,0,,,,,3,4,40,11,,,,,,,,,,,,,,,,,,,,,1.558,2.126,689.4766218999866,None,,,,,,,,,,,,,,,,,,,,690.012864400167,690.5207286002114,0.4998562999535352,1.000154399778694,690.4874674000312,690.5875248000957,690.4874674000312,690.5875248000957,690.5875248000957,None,c,1,1.0172335000243038,690.5875248000957,None,,,,,,,p20,2022_Apr_28_1044,training+cueing,2021.1.4,60.02141566443008,
Stranger.png,You,Stranger,m,1.3,15,25,95,,,,,1,0,1,0,,,,,3,5,41,6,,,,,,,,,,,,,,,,,,,,,1.754,1.8,691.7282458001282,None,,,,,,,,,,,,,,,,,,,,692.2902655000798,692.7892181000207,0.5146100001875311,1.0148922002408653,692.7892181000207,692.8892900000792,692.7892181000207,692.8892900000792,692.8892900000792,None,m,1,0.7635375999379903,692.8892900000792,None,,,,,,,p20,2022_Apr_28_1044,training+cueing,2021.1.4,60.02141566443008,
Stranger.png,Stranger,Stranger,c,3,13,23,93,,,,,1,0,1,0,,,,,3,6,42,8,,,,,,,,,,,,,,,,,,,,,1.436,2.289,693.7787411999889,None,,,,,,,,,,,,,,,,,,,,694.3183903000318,694.8239280001726,0.5093702001031488,1.0104601001366973,694.8072292001452,694.9241259000264,694.8072292001452,694.9241259000264,694.9072654000483,None,c,1,0.7616873001679778,694.9072654000483,None,,,,,,,p20,2022_Apr_28_1044,training+cueing,2021.1.4,60.02141566443008,
Stranger.png,Friend,Stranger,m,2.3,17,27,97,,,,,1,0,1,0,,,,,3,7,43,7,,,,,,,,,,,,,,,,,,,,,1.69,2.473,695.798418099992,None,,,,,,,,,,,,,,,,,,,,696.3614558000118,696.8754697002005,0.5119598002638668,1.0129482001066208,696.8587423001882,696.9756169000175,696.8587423001882,696.9756169000175,696.9606707000639,None,m,1,0.916216499870643,696.9606707000639,None,,,,,,,p20,2022_Apr_28_1044,training+cueing,2021.1.4,60.02141566443008,
Self.png,You,Self ,c,1,11,21,91,,,,,1,0,1,0,,,,,3,8,44,9,,,,,,,,,,,,,,,,,,,,,1.528,2.041,697.9993722999934,None,,,,,,,,,,,,,,,,,,,,698.5474657001905,699.0603024000302,0.5060657002031803,1.0069748000241816,699.0436436000746,699.1437302001286,699.0436436000746,699.1437302001286,699.1437302001286,None,c,1,0.8131526000797749,699.1437302001286,None,,,,,,,p20,2022_Apr_28_1044,training+cueing,2021.1.4,60.02141566443008,
Friend.png,Friend,Friend,c,2,12,22,92,,,,,1,0,1,0,,,,,3,9,45,10,,,,,,,,,,,,,,,,,,,,,1.574,1.82,700.0848846000154,None,,,,,,,,,,,,,,,,,,,,700.62407790008,701.1284680000972,0.5093129999004304,1.0095640998333693,701.1118324000854,701.2285262001678,701.1118324000854,701.2285262001678,701.2118377001025,None,c,1,0.585110500222072,701.2118377001025,None,,,,,,,p20,2022_Apr_28_1044,training+cueing,2021.1.4,60.02141566443008,
Self.png,You,Self ,c,1,11,21,91,,,,,1,0,1,0,,,,,3,10,46,0,,,,,,,,,,,,,,,,,,,,,1.788,1.81,701.9186013999861,None,,,,,,,,,,,,,,,,,,,,702.4689578001853,702.9798087000381,0.5054568003397435,1.0057507001329213,702.9631710001267,703.0632138000801,702.9631710001267,703.0632138000801,703.0632138000801,None,c,1,0.8617211999371648,703.0632138000801,None,,,,,,,p20,2022_Apr_28_1044,training+cueing,2021.1.4,60.02141566443008,
Friend.png,You,Friend,m,1.2,14,24,94,,,,,1,0,1,0,,,,,3,11,47,3,,,,,,,,,,,,,,,,,,,,,1.588,2.454,704.0533529000822,None,,,,,,,,,,,,,,,,,,,,704.5888902000152,705.0980134999845,0.49945590016432106,0.9997423000168055,705.0646635000594,705.1647199001163,705.0646635000594,705.1647199001163,705.1647199001163,None,m,1,0.632095200009644,705.1647199001163,None,,,,,,,p20,2022_Apr_28_1044,training+cueing,2021.1.4,60.02141566443008,
Friend.png,Stranger,Friend,m,3.2,19,29,99,,,,,1,0,1,0,,,,,4,0,48,5,,,,,,,,,,,,,,,,,,,,,1.658,1.896,705.9217408001423,None,,,,,,,,,,,,,,,,,,,,706.4698585001752,706.9827370999847,0.5087634001392871,1.0091644001659006,706.9660472001415,707.082894399995,706.9660472001415,707.082894399995,707.0661590001546,None,m,1,1.0507652999367565,707.0661590001546,None,,,,,,,p20,2022_Apr_28_1044,training+cueing,2021.1.4,60.02141566443008,
Stranger.png,You,Stranger,m,1.3,15,25,95,,,,,1,0,1,0,,,,,4,1,49,6,,,,,,,,,,,,,,,,,,,,,1.775,1.864,708.2395508000627,None,,,,,,,,,,,,,,,,,,,,708.7794094001874,709.2843544001225,0.5089748001191765,1.0092680000234395,709.2676766000222,709.3677252000198,709.2676766000222,709.3677252000198,709.3677252000198,None,m,1,0.7809989000670612,709.3677252000198,None,,,,,,,p20,2022_Apr_28_1044,training+cueing,2021.1.4,60.02141566443008,
Stranger.png,Stranger,Stranger,c,3,13,23,93,,,,,1,0,1,0,,,,,4,2,50,11,,,,,,,,,,,,,,,,,,,,,1.433,2.244,710.2749828000087,None,,,,,,,,,,,,,,,,,,,,710.8153314001393,711.3191635000985,0.505784799810499,1.0061737997457385,711.3024449001532,711.4192188000306,711.3024449001532,711.4192188000306,711.4025147000793,None,c,1,0.7303900998085737,711.4025147000793,None,,,,,,,p20,2022_Apr_28_1044,training+cueing,2021.1.4,60.02141566443008,
Self.png,Stranger,Self ,m,3.1,18,28,98,,,,,1,0,1,0,,,,,4,3,51,2,,,,,,,,,,,,,,,,,,,,,1.684,1.872,712.2591163001489,None,,,,,,,,,,,,,,,,,,,,712.7979578000959,713.3039148000535,0.512818600051105,1.0130078000947833,713.2873360000085,713.4040247001685,713.2873360000085,713.4040247001685,713.387316300068,None,m,1,1.049574499949813,713.387316300068,None,,,,,,,p20,2022_Apr_28_1044,training+cueing,2021.1.4,60.02141566443008,
Friend.png,Friend,Friend,c,2,12,22,92,,,,,1,0,1,0,,,,,4,4,52,4,,,,,,,,,,,,,,,,,,,,,1.59,1.492,714.5650567000266,None,,,,,,,,,,,,,,,,,,,,715.1012595000211,715.6055566000286,0.505866400199011,1.0061680001672357,715.5889127000701,715.705626900075,715.5889127000701,715.705626900075,715.688980899984,None,c,1,0.572077700169757,715.688980899984,None,,,,,,,p20,2022_Apr_28_1044,training+cueing,2021.1.4,60.02141566443008,
Stranger.png,Friend,Stranger,m,2.3,17,27,97,,,,,1,0,1,0,,,,,4,5,53,7,,,,,,,,,,,,,,,,,,,,,1.601,2.248,716.3991981002036,None,,,,,,,,,,,,,,,,,,,,716.9360139002092,717.4404450000729,0.5072287996299565,1.0087699997238815,717.422422000207,717.540420900099,717.422422000207,717.540420900099,717.5236912001856,None,m,1,0.993270100094378,717.5236912001856,None,,,,,,,p20,2022_Apr_28_1044,training+cueing,2021.1.4,60.02141566443008,
Self.png,You,Self ,c,1,11,21,91,,,,,1,0,1,0,,,,,4,6,54,9,,,,,,,,,,,,,,,,,,,,,1.669,1.463,718.647936000023,None,,,,,,,,,,,,,,,,,,,,719.1877974001691,719.6918924001511,0.5071986999828368,1.0074273999780416,719.6752273000311,719.7752582000103,719.6752273000311,719.7752582000103,719.7752582000103,None,c,1,0.5495535000227392,719.7752582000103,None,,,,,,,p20,2022_Apr_28_1044,training+cueing,2021.1.4,60.02141566443008,
Friend.png,You,Friend,m,1.2,14,24,94,,,,,1,0,1,0,,,,,4,7,55,3,,,,,,,,,,,,,,,,,,,,,1.539,2.41,720.4486076000612,None,,,,,,,,,,,,,,,,,,,,720.9844037001021,721.4931839001365,0.49900460010394454,0.9992911000736058,721.4598417000379,721.5598819002043,721.4598417000379,721.5598819002043,721.5598819002043,None,None,0,,721.5598819002043,None,,,,,,,p20,2022_Apr_28_1044,training+cueing,2021.1.4,60.02141566443008,
Friend.png,Friend,Friend,c,2,12,22,92,,,,,1,0,1,0,,,,,4,8,56,10,,,,,,,,,,,,,,,,,,,,,1.616,1.415,723.216355800163,None,,,,,,,,,,,,,,,,,,,,723.7574992000591,724.2618488001171,0.508756099967286,1.0090478998608887,724.2451554001309,724.3619286001194,724.2451554001309,724.3619286001194,724.3451998000965,None,c,1,0.6356180999428034,724.3451998000965,None,,,,,,,p20,2022_Apr_28_1044,training+cueing,2021.1.4,60.02141566443008,
Self.png,Friend,Self ,m,2.1,16,26,96,,,,,1,0,1,0,,,,,4,9,57,1,,,,,,,,,,,,,,,,,,,,,1.563,1.682,725.1187045001425,None,,,,,,,,,,,,,,,,,,,,725.6574264001101,726.163254900137,0.5110549000091851,1.0114829000085592,726.1465492001735,726.2633001001086,726.1465492001735,726.2633001001086,726.2465708001982,None,m,1,0.670256600016728,726.2465708001982,None,,,,,,,p20,2022_Apr_28_1044,training+cueing,2021.1.4,60.02141566443008,
Stranger.png,Stranger,Stranger,c,3,13,23,93,,,,,1,0,1,0,,,,,4,10,58,8,,,,,,,,,,,,,,,,,,,,,1.43,1.722,727.0539144000504,None,,,,,,,,,,,,,,,,,,,,727.592257300159,728.0979675000999,0.5101495999842882,1.0104540002066642,728.0812648001593,728.1980008000974,728.0812648001593,728.1980008000974,728.181310800137,None,c,1,1.0235889998730272,728.181310800137,None,,,,,,,p20,2022_Apr_28_1044,training+cueing,2021.1.4,60.02141566443008,
Self.png,You,Self ,c,1,11,21,91,,,,,1,0,1,0,,,,,4,11,59,0,,,,,,,,,,,,,,,,,,,,,1.45,2.302,729.3382003000006,None,,,,,,,,,,,,,,,,,,,,729.879335100064,730.382959500188,0.5061931000091136,1.0066317000892013,730.3662572000176,730.4663370000198,730.3662572000176,730.4663370000198,730.4663370000198,None,c,1,0.7544845000375062,730.4663370000198,None,,,,,,,p20,2022_Apr_28_1044,training+cueing,2021.1.4,60.02141566443008,
Friend.png,Friend,Friend,c,2,12,22,92,,,,,1,0,1,0,,,,,5,0,60,10,,,,,,,,,,,,,,,,,,,,,1.754,1.484,731.356273500016,None,,,,,,,,,,,,,,,,,,,,731.8959431000985,732.4010495000985,0.5085010000038892,1.0088040998671204,732.3844056001399,732.5011055001523,732.3844056001399,732.5011055001523,732.4844186000992,None,c,1,0.6083899000659585,732.4844186000992,None,,,,,,,p20,2022_Apr_28_1044,training+cueing,2021.1.4,60.02141566443008,
Stranger.png,Friend,Stranger,m,2.3,17,27,97,,,,,1,0,1,0,,,,,5,1,61,7,,,,,,,,,,,,,,,,,,,,,1.768,1.216,733.2245209000539,None,,,,,,,,,,,,,,,,,,,,733.7635648001451,734.2690202000085,0.5103301999624819,1.0106318001635373,734.2523817000911,734.3691114000976,734.2523817000911,734.3691114000976,734.352416299982,None,c,0,1.2845507999882102,734.352416299982,None,,,,,,,p20,2022_Apr_28_1044,training+cueing,2021.1.4,60.02141566443008,
Friend.png,Friend,Friend,c,2,12,22,92,,,,,1,0,1,0,,,,,5,2,62,4,,,,,,,,,,,,,,,,,,,,,1.587,1.364,735.7601138001774,None,,,,,,,,,,,,,,,,,,,,736.2981501000468,736.8042419000994,0.5118519000243396,1.0121210999786854,736.7875920999795,736.9042820001487,736.7875920999795,736.9042820001487,736.8875985001214,None,c,1,0.6051620000507683,736.8875985001214,None,,,,,,,p20,2022_Apr_28_1044,training+cueing,2021.1.4,60.02141566443008,
Friend.png,You,Friend,m,1.2,14,24,94,,,,,1,0,1,0,,,,,5,3,63,3,,,,,,,,,,,,,,,,,,,,,1.679,1.856,737.6277862000279,None,,,,,,,,,,,,,,,,,,,,738.1657192001585,738.6723279000726,0.5106377003248781,1.0109551001805812,738.6555797001347,738.7555758000817,738.6555797001347,738.7555758000817,738.7555758000817,None,m,1,0.7851828001439571,738.7555758000817,None,,,,,,,p20,2022_Apr_28_1044,training+cueing,2021.1.4,60.02141566443008,
Self.png,Stranger,Self ,m,3.1,18,28,98,,,,,1,0,1,0,,,,,5,4,64,2,,,,,,,,,,,,,,,,,,,,,1.524,2.129,739.6622710002121,None,,,,,,,,,,,,,,,,,,,,740.2158592001069,740.7239351000171,0.5139871998690069,1.0155019997619092,740.7059135001618,740.8238679000642,740.7059135001618,740.8238679000642,740.8071821001358,None,m,1,0.7016115000005811,740.8071821001358,None,,,,,,,p20,2022_Apr_28_1044,training+cueing,2021.1.4,60.02141566443008,
Self.png,You,Self ,c,1,11,21,91,,,,,1,0,1,0,,,,,5,5,65,0,,,,,,,,,,,,,,,,,,,,,1.652,1.843,741.6302306000143,None,,,,,,,,,,,,,,,,,,,,742.168878100114,742.6752707001287,0.5118515000212938,1.0125977999996394,742.6585580999963,742.7586157000624,742.6585580999963,742.7586157000624,742.7586157000624,None,c,1,0.8303197999484837,742.7586157000624,None,,,,,,,p20,2022_Apr_28_1044,training+cueing,2021.1.4,60.02141566443008,
Stranger.png,Stranger,Stranger,c,3,13,23,93,,,,,1,0,1,0,,,,,5,6,66,11,,,,,,,,,,,,,,,,,,,,,1.588,1.619,743.7195793001447,None,,,,,,,,,,,,,,,,,,,,744.2553609001916,744.7599371001124,0.5077678000088781,1.00789300003089,744.7434425000101,744.8600274000783,744.7434425000101,744.8600274000783,744.8433295001741,None,c,1,1.0813585999421775,744.8433295001741,None,,,,,,,p20,2022_Apr_28_1044,training+cueing,2021.1.4,60.02141566443008,
Friend.png,Stranger,Friend,m,3.2,19,29,99,,,,,1,0,1,0,,,,,5,7,67,5,,,,,,,,,,,,,,,,,,,,,1.675,1.685,746.0506467001978,None,,,,,,,,,,,,,,,,,,,,746.5893591002095,747.0951761000324,0.5110390998888761,1.0114378000143915,747.0784767000005,747.195205300115,747.0784767000005,747.195205300115,747.1785380002111,None,m,1,0.7942710998468101,747.1785380002111,None,,,,,,,p20,2022_Apr_28_1044,training+cueing,2021.1.4,60.02141566443008,
Stranger.png,Stranger,Stranger,c,3,13,23,93,,,,,1,0,1,0,,,,,5,8,68,8,,,,,,,,,,,,,,,,,,,,,1.785,1.732,748.1029976001009,None,,,,,,,,,,,,,,,,,,,,748.6383073001634,749.1464459002018,0.5146091000642627,1.01491740019992,749.1298046000302,749.2465061000548,749.1298046000302,749.2465061000548,749.2298445000779,None,c,1,0.8869775000493973,749.2298445000779,None,,,,,,,p20,2022_Apr_28_1044,training+cueing,2021.1.4,60.02141566443008,
Self.png,Friend,Self ,m,2.1,16,26,96,,,,,1,0,1,0,,,,,5,9,69,1,,,,,,,,,,,,,,,,,,,,,1.747,2.16,750.2536601000465,None,,,,,,,,,,,,,,,,,,,,750.7923185001127,751.2980079001281,0.5111978000495583,1.0115059001836926,751.2813633000478,751.3981016001198,751.2813633000478,751.3981016001198,751.3813827000558,None,m,1,1.0393666999880224,751.3813827000558,None,,,,,,,p20,2022_Apr_28_1044,training+cueing,2021.1.4,60.02141566443008,
Self.png,You,Self ,c,1,11,21,91,,,,,1,0,1,0,,,,,5,10,70,9,,,,,,,,,,,,,,,,,,,,,1.787,2.38,752.5556465000845,None,,,,,,,,,,,,,,,,,,,,753.0929392001126,753.5997949000448,0.5132852003443986,1.014129700139165,753.5830184000079,753.6831149000209,753.5830184000079,753.6831149000209,753.6831149000209,None,c,1,0.8016124998684973,753.6831149000209,None,,,,,,,p20,2022_Apr_28_1044,training+cueing,2021.1.4,60.02141566443008,
Stranger.png,You,Stranger,m,1.3,15,25,95,,,,,1,0,1,0,,,,,5,11,71,6,,,,,,,,,,,,,,,,,,,,,1.421,1.992,754.6065888002049,None,,,,,,,,,,,,,,,,,,,,755.1442196001299,755.6512014002074,0.5118555000517517,1.0120799001306295,755.6345248001162,755.7345536001958,755.6345248001162,755.7345536001958,755.7345536001958,None,m,1,0.958208000054583,755.7345536001958,None,,,,,,,p20,2022_Apr_28_1044,training+cueing,2021.1.4,60.02141566443008,
Friend.png,You,Friend,m,1.2,14,24,94,,,,,1,0,1,0,,,,,6,0,72,3,,,,,,,,,,,,,,,,,,,,,1.529,1.658,756.8245061000343,None,,,,,,,,,,,,,,,,,,,,757.3626767001115,757.8694488001056,0.5134511000942439,1.0137431002222002,757.8528056000359,757.9528358001262,757.8528056000359,757.9528358001262,757.9528358001262,None,m,1,0.7241581999696791,757.9528358001262,None,,,,,,,p20,2022_Apr_28_1044,training+cueing,2021.1.4,60.02141566443008,
Stranger.png,Stranger,Stranger,c,3,13,23,93,,,,,1,0,1,0,,,,,6,1,73,8,,,,,,,,,,,,,,,,,,,,,1.614,1.716,758.8136142001022,None,,,,,,,,,,,,,,,,,,,,759.3503533001058,759.8542122000363,0.5075830998830497,1.0078724999912083,759.8375243002083,759.954271200113,759.8375243002083,759.954271200113,759.9375629001297,None,c,1,0.755170299904421,759.9375629001297,None,,,,,,,p20,2022_Apr_28_1044,training+cueing,2021.1.4,60.02141566443008,
Friend.png,Friend,Friend,c,2,12,22,92,,,,,1,0,1,0,,,,,6,2,74,10,,,,,,,,,,,,,,,,,,,,,1.776,1.41,760.8282176000066,None,,,,,,,,,,,,,,,,,,,,761.367975700181,761.8723495001905,0.506806300021708,1.0070857999380678,761.8556941000279,761.9724118001759,761.8556941000279,761.9724118001759,761.9557068001013,None,c,1,0.6892000001389533,761.9557068001013,None,,,,,,,p20,2022_Apr_28_1044,training+cueing,2021.1.4,60.02141566443008,
Self.png,You,Self ,c,1,11,21,91,,,,,1,0,1,0,,,,,6,3,75,0,,,,,,,,,,,,,,,,,,,,,1.619,1.939,762.7788566001691,None,,,,,,,,,,,,,,,,,,,,763.3344287001528,763.8404139000922,0.5142298999708146,1.0142272000666708,763.8239754000679,763.9238024000078,763.8239754000679,763.9238024000078,763.9238024000078,None,c,1,0.9932321000378579,763.9238024000078,None,,,,,,,p20,2022_Apr_28_1044,training+cueing,2021.1.4,60.02141566443008,
Friend.png,Stranger,Friend,m,3.2,19,29,99,,,,,1,0,1,0,,,,,6,4,76,5,,,,,,,,,,,,,,,,,,,,,1.723,2.083,765.0508841001429,None,,,,,,,,,,,,,,,,,,,,765.6469256000128,766.1587582000066,0.5061036001425236,1.0064815001096576,766.1420873000752,766.258794200141,766.1420873000752,766.258794200141,766.2421269000042,None,m,1,0.7065542000345886,766.2421269000042,None,,,,,,,p20,2022_Apr_28_1044,training+cueing,2021.1.4,60.02141566443008,
Friend.png,Friend,Friend,c,2,12,22,92,,,,,1,0,1,0,,,,,6,5,77,4,,,,,,,,,,,,,,,,,,,,,1.411,2.126,767.0822292000521,None,,,,,,,,,,,,,,,,,,,,767.642312400043,768.1437036001589,0.5034654000774026,1.003753500059247,768.1270262000617,768.2437664000317,768.1270262000617,768.2437664000317,768.22706140019,None,c,1,0.6257168999873102,768.22706140019,None,,,,,,,p20,2022_Apr_28_1044,training+cueing,2021.1.4,60.02141566443008,
Self.png,You,Self ,c,1,11,21,91,,,,,1,0,1,0,,,,,6,6,78,9,,,,,,,,,,,,,,,,,,,,,1.413,2.156,768.9847223001998,None,,,,,,,,,,,,,,,,,,,,769.5253496000078,770.0282006000634,0.5071870996616781,1.0074543997179717,770.0115375001915,770.1115794000216,770.0115375001915,770.1115794000216,770.1115794000216,None,c,1,0.7892970000393689,770.1115794000216,None,,,,,,,p20,2022_Apr_28_1044,training+cueing,2021.1.4,60.02141566443008,
Stranger.png,Friend,Stranger,m,2.3,17,27,97,,,,,1,0,1,0,,,,,6,7,79,7,,,,,,,,,,,,,,,,,,,,,1.567,1.736,771.0343877000269,None,,,,,,,,,,,,,,,,,,,,771.5886365000624,772.0963636001106,0.5149184002075344,1.0152462001424283,772.079680000199,772.1966117999982,772.079680000199,772.1966117999982,772.179885199992,None,None,0,,772.179885199992,None,,,,,,,p20,2022_Apr_28_1044,training+cueing,2021.1.4,60.02141566443008,
Self.png,Stranger,Self ,m,3.1,18,28,98,,,,,1,0,1,0,,,,,6,8,80,2,,,,,,,,,,,,,,,,,,,,,1.699,1.826,773.8514764001593,None,,,,,,,,,,,,,,,,,,,,774.3984020000789,774.8984649002086,0.5010975999757648,1.0011458001099527,774.8819262001198,774.9984529002104,774.8819262001198,774.9984529002104,774.9984529002104,None,m,1,0.7664345998782665,774.9984529002104,None,,,,,,,p20,2022_Apr_28_1044,training+cueing,2021.1.4,60.02141566443008,
Stranger.png,You,Stranger,m,1.3,15,25,95,,,,,1,0,1,0,,,,,6,9,81,6,,,,,,,,,,,,,,,,,,,,,1.715,1.938,775.8918383000419,None,,,,,,,,,,,,,,,,,,,,776.427863900084,776.9333733001258,0.5100099998526275,1.0101933998521417,776.9166161001194,777.0167313001584,776.9166161001194,777.0167313001584,777.0167313001584,None,m,1,1.2600080000702292,777.0167313001584,None,,,,,,,p20,2022_Apr_28_1044,training+cueing,2021.1.4,60.02141566443008,
Self.png,Friend,Self ,m,2.1,16,26,96,,,,,1,0,1,0,,,,,6,10,82,1,,,,,,,,,,,,,,,,,,,,,1.76,1.415,778.4068014000077,None,,,,,,,,,,,,,,,,,,,,778.9451693000738,779.4516902000178,0.5123928999528289,1.012691600015387,779.4350488001946,779.5517506999895,779.4350488001946,779.5517506999895,779.5350503001828,None,m,1,0.8377048999536783,779.5350503001828,None,,,,,,,p20,2022_Apr_28_1044,training+cueing,2021.1.4,60.02141566443008,
Stranger.png,Stranger,Stranger,c,3,13,23,93,,,,,1,0,1,0,,,,,6,11,83,11,,,,,,,,,,,,,,,,,,,,,1.673,1.789,780.5085283000953,None,,,,,,,,,,,,,,,,,,,,781.0504622000735,781.5532349001151,0.5054000997915864,1.005952199921012,781.5365475001745,781.6532376001123,781.5365475001745,781.6532376001123,781.6365397002082,None,c,1,0.6564434000756592,781.6365397002082,None,,,,,,,p20,2022_Apr_28_1044,training+cueing,2021.1.4,60.02141566443008,
Self.png,Stranger,Self ,m,3.1,18,28,98,,,,,1,0,1,0,,,,,7,0,84,2,,,,,,,,,,,,,,,,,,,,,1.574,1.207,782.4308037001174,None,,,,,,,,,,,,,,,,,,,,782.963770700153,783.471252300078,0.5123060001060367,1.0126265999861062,783.4545944000129,783.5713111001533,783.4545944000129,783.5713111001533,783.5546488000546,None,m,1,0.8820859999395907,783.5546488000546,None,,,,,,,p20,2022_Apr_28_1044,training+cueing,2021.1.4,60.02141566443008,
Stranger.png,Stranger,Stranger,c,3,13,23,93,,,,,1,0,1,0,,,,,7,1,85,11,,,,,,,,,,,,,,,,,,,,,1.426,1.543,784.5629458001349,None,,,,,,,,,,,,,,,,,,,,785.1064750000369,785.6061259000562,0.5002690001856536,1.0011586002074182,785.5894421001431,785.7063525000121,785.5894421001431,785.7063525000121,785.7063525000121,None,c,1,1.0183755001053214,785.7063525000121,None,,,,,,,p20,2022_Apr_28_1044,training+cueing,2021.1.4,60.02141566443008,
