Image,Name,Face,CorrAns,Match,Face_onset,CResponse_onset,IResponse_onset,Match.thisRepN,Match.thisTrialN,Match.thisN,Match.thisIndex,Blocks.thisRepN,Blocks.thisTrialN,Blocks.thisN,Blocks.thisIndex,trials.thisRepN,trials.thisTrialN,trials.thisN,trials.thisIndex,trials_2.thisRepN,trials_2.thisTrialN,trials_2.thisN,trials_2.thisIndex,text.started,text.stopped,p1.started,p1.stopped,MatchInstructions.started,MatchInstructions.stopped,Name1.started,Name1.stopped,Face_Relevance.started,Face_Relevance.stopped,MismatchInstructions.started,MismatchInstructions.stopped,Rest_trainingInstruct.started,Rest_trainingInstruct.stopped,next8.keys,next8.rt,next8.started,next8.stopped,Ready.started,Ready.stopped,delay_one_picked,delay_two_picked,blank0.started,blank0.stopped,FixationCross1.started,FixationCross1.stopped,Name3.started,Name3.stopped,Face_Relevance3.started,Face_Relevance3.stopped,responseTime.started,responseTime.stopped,resp.keys,resp.corr,resp.rt,resp.started,resp.stopped,Accuracy.started,Accuracy.stopped,questions.started,questions.stopped,p2.started,p2.stopped,FixationCross3.started,FixationCross3.stopped,port_Face_onset.started,port_Face_onset.stopped,Name4.started,Name4.stopped,Face_Relevance4.started,Face_Relevance4.stopped,responseTime2.started,responseTime2.stopped,Response.keys,Response.corr,Response.rt,Response.started,Response.stopped,p3.started,p3.stopped,Finish.started,Finish.stopped,gender,age,participant,date,expName,psychopyVersion,frameRate,
Friend.png,Friend,,,,,,,0,0,0,1,,,,,,,,,,,,,13.563384999986738,None,0.0021332695614546537,0.5196803696453571,15.549686799990013,None,17.71142730000429,None,17.71142730000429,None,,,,,,,,,,,,,,,,,,,,,,,,,,,,,,,,,,,,,,,,,,,,,,,,,,,,,,,p21,2022_Apr_28_1438,training+cueing,2021.1.4,59.92796664952425,
Self.png,You,,,,,,,0,1,1,0,,,,,,,,,,,,,,,,,,,37.61511230003089,None,37.61511230003089,None,,,,,,,,,,,,,,,,,,,,,,,,,,,,,,,,,,,,,,,,,,,,,,,,,,,,,,,p21,2022_Apr_28_1438,training+cueing,2021.1.4,59.92796664952425,
Stranger.png,Stranger,,,,,,,0,2,2,2,,,,,,,,,,,,,,,,,,,57.603010500082746,None,57.603010500082746,None,,,,,,,,,,,,,,,,,,,,,,,,,,,,,,,,,,,,,,,,,,,,,,,,,,,,,,,p21,2022_Apr_28_1438,training+cueing,2021.1.4,59.92796664952425,
Friend.png,Friend,Friend,c,2,12,22,92,,,,,0,0,0,0,0,0,0,4,,,,,,,,,,,,,,,77.56173490011133,None,105.44769189995714,None,space,16.047498400090262,2.0088292099535465,None,123.50945140002295,None,1.744,2.277,126.5303235000465,None,127.17134280013852,127.68035520007834,127.66369109996594,127.78039600001648,127.66369109996594,127.78039600001648,127.76369690010324,None,c,1,1.028246199944988,127.76369690010324,None,128.81448410009034,None,,,,,,,,,,,,,,,,,,,,,,,,,,p21,2022_Apr_28_1438,training+cueing,2021.1.4,59.92796664952425,
Friend.png,Friend,Friend,c,2,12,22,92,,,,,0,0,0,0,0,1,1,10,,,,,,,,,,,,,,,,,,,,,,,,,1.79,1.729,129.2148029000964,None,129.74580359994434,130.2489356000442,130.2323801999446,130.34890830004588,130.2323801999446,130.34890830004588,130.33221230003983,None,c,1,0.6998891998082399,130.33221230003983,None,131.0520464000292,None,,,,,,,,,,,,,,,,,,,,,,,,,,p21,2022_Apr_28_1438,training+cueing,2021.1.4,59.92796664952425,
Friend.png,You,Friend,m,1.2,14,24,94,,,,,0,0,0,0,0,2,2,3,,,,,,,,,,,,,,,,,,,,,,,,,1.681,2.044,131.46655590017326,None,132.0014135001693,132.50046610017307,132.50046610017307,132.60050399997272,132.50046610017307,132.60050399997272,132.60050399997272,None,c,0,0.7034636999014765,132.60050399997272,None,133.33403760008514,None,,,,,,,,,,,,,,,,,,,,,,,,,,p21,2022_Apr_28_1438,training+cueing,2021.1.4,59.92796664952425,
Self.png,Stranger,Self ,m,3.1,18,28,98,,,,,0,0,0,0,0,3,3,2,,,,,,,,,,,,,,,,,,,,,,,,,1.546,1.802,133.734843299957,None,134.27255770005286,134.78545140009373,134.76880050008185,134.88549330015667,134.76880050008185,134.88549330015667,134.8687989001628,None,m,1,0.8191619000863284,134.8687989001628,None,135.71955170016736,None,,,,,,,,,,,,,,,,,,,,,,,,,,p21,2022_Apr_28_1438,training+cueing,2021.1.4,59.92796664952425,
Stranger.png,You,Stranger,m,1.3,15,25,95,,,,,0,0,0,0,0,4,4,6,,,,,,,,,,,,,,,,,,,,,,,,,1.424,1.68,136.11980550014414,None,136.65100740012713,137.15394959994592,137.13738570013084,137.2372777001001,137.13738570013084,137.2372777001001,137.2372777001001,None,m,1,0.9949632999487221,137.2372777001001,None,138.25775999994949,None,,,,,,,,,,,,,,,,,,,,,,,,,,p21,2022_Apr_28_1438,training+cueing,2021.1.4,59.92796664952425,
Self.png,You,Self ,c,1,11,21,91,,,,,0,0,0,0,0,5,5,9,,,,,,,,,,,,,,,,,,,,,,,,,1.511,2.186,138.67176910000853,None,139.20325420005247,139.7056551000569,139.6890988999512,139.78907890012488,139.6890988999512,139.78907890012488,139.78907890012488,None,c,1,0.6669836998917162,139.78907890012488,None,140.47297050012276,None,,,,,,,,,,,,,,,,,,,,,,,,,,p21,2022_Apr_28_1438,training+cueing,2021.1.4,59.92796664952425,
Stranger.png,Friend,Stranger,m,2.3,17,27,97,,,,,0,0,0,0,0,6,6,7,,,,,,,,,,,,,,,,,,,,,,,,,1.565,2.271,140.87319370009936,None,141.4052995000966,141.90724590001628,141.89061450003646,142.00730880000629,141.89061450003646,142.00730880000629,141.99065840011463,None,m,1,1.249369699973613,141.99065840011463,None,143.2615012000315,None,,,,,,,,,,,,,,,,,,,,,,,,,,p21,2022_Apr_28_1438,training+cueing,2021.1.4,59.92796664952425,
Stranger.png,Stranger,Stranger,c,3,13,23,93,,,,,0,0,0,0,0,7,7,11,,,,,,,,,,,,,,,,,,,,,,,,,1.557,2.5,143.67525089997798,None,144.22000430012122,144.72592999995686,144.70931129995733,144.8259952000808,144.70931129995733,144.8259952000808,144.80934970011003,None,c,1,1.1665729000233114,144.80934970011003,None,145.9935624001082,None,,,,,,,,,,,,,,,,,,,,,,,,,,p21,2022_Apr_28_1438,training+cueing,2021.1.4,59.92796664952425,
Friend.png,Stranger,Friend,m,3.2,19,29,99,,,,,0,0,0,0,0,8,8,5,,,,,,,,,,,,,,,,,,,,,,,,,1.611,2.388,146.3940100001637,None,146.93161360011436,147.44458270003088,147.42791169998236,147.54465420008637,147.42791169998236,147.54465420008637,147.52793960017152,None,m,1,0.8318692001048476,147.52793960017152,None,148.3786445001606,None,,,,,,,,,,,,,,,,,,,,,,,,,,p21,2022_Apr_28_1438,training+cueing,2021.1.4,59.92796664952425,
Self.png,Friend,Self ,m,2.1,16,26,96,,,,,0,0,0,0,0,9,9,1,,,,,,,,,,,,,,,,,,,,,,,,,1.583,2.417,148.7790431000758,None,149.32220520009287,149.82961999997497,149.81298359995708,149.9296578001231,149.81298359995708,149.9296578001231,149.91299980017357,None,m,1,0.7353668001014739,149.91299980017357,None,150.66610729997046,None,,,,,,,,,,,,,,,,,,,,,,,,,,p21,2022_Apr_28_1438,training+cueing,2021.1.4,59.92796664952425,
Self.png,You,Self ,c,1,11,21,91,,,,,0,0,0,0,0,10,10,0,,,,,,,,,,,,,,,,,,,,,,,,,1.562,2.402,151.08072430011816,None,151.6177228000015,152.13134049996734,152.11464020004496,152.2146572000347,152.11464020004496,152.2146572000347,152.2146572000347,None,c,1,0.7213680997956544,152.2146572000347,None,152.9639465000946,None,,,,,,,,,,,,,,,,,,,,,,,,,,p21,2022_Apr_28_1438,training+cueing,2021.1.4,59.92796664952425,
Stranger.png,Stranger,Stranger,c,3,13,23,93,,,,,0,0,0,0,0,11,11,8,,,,,,,,,,,,,,,,,,,,,,,,,1.404,2.133,153.36561730015092,None,153.9107429999858,154.416295300005,154.39969190000556,154.51633200002834,154.39969190000556,154.51633200002834,154.4996642000042,None,c,1,0.8203683998435736,154.4996642000042,None,155.34900770010427,None,,,,,,,,,,,,,,,,,,,,,,,,,,p21,2022_Apr_28_1438,training+cueing,2021.1.4,59.92796664952425,
Friend.png,Friend,Friend,c,2,12,22,92,,,,,0,0,0,0,,,,,0,0,0,4,,,,,,,,,,,,,,,,,,,180.13510129996575,None,1.596,1.91,183.650260000024,None,,,,,,,,,,,,,,,,155.7507488001138,None,0.014522209763526917,0.5127034096512944,184.2763076000847,184.7881849000696,0.5043379799462855,1.0044812797568738,184.77167130005546,184.8881894000806,184.77167130005546,184.8881894000806,184.87156540015712,None,m,0,1.040510900085792,184.87156540015712,None,,,,,,,p21,2022_Apr_28_1438,training+cueing,2021.1.4,59.92796664952425,
Friend.png,Friend,Friend,c,2,12,22,92,,,,,0,0,0,0,,,,,0,1,1,10,,,,,,,,,,,,,,,,,,,,,1.748,2.071,186.05235550017096,None,,,,,,,,,,,,,,,,,,,,186.58572660014033,187.0898351999931,0.5079789303708822,1.0083053302951157,187.07319180015475,187.1898821000941,187.07319180015475,187.1898821000941,187.17322860006243,None,m,0,0.6587327998131514,187.17322860006243,None,,,,,,,p21,2022_Apr_28_1438,training+cueing,2021.1.4,59.92796664952425,
Self.png,Friend,Self ,m,2.1,16,26,96,,,,,0,0,0,0,,,,,0,2,2,1,,,,,,,,,,,,,,,,,,,,,1.51,2.491,187.96472169994377,None,,,,,,,,,,,,,,,,,,,,188.50464410008863,189.0078930000309,0.5063231301028281,1.0067390301264822,188.99129170016386,189.10870500002056,188.99129170016386,189.10870500002056,189.09202960017137,None,m,1,0.8039099997840822,189.09202960017137,None,,,,,,,p21,2022_Apr_28_1438,training+cueing,2021.1.4,59.92796664952425,
Stranger.png,You,Stranger,m,1.3,15,25,95,,,,,0,0,0,0,,,,,0,3,3,6,,,,,,,,,,,,,,,,,,,,,1.616,1.722,190.0327781001106,None,,,,,,,,,,,,,,,,,,,,190.57182980002835,191.0760441001039,0.5067884298041463,1.0070852297358215,191.05942520010285,191.15945759997703,191.05942520010285,191.15945759997703,191.15945759997703,None,m,1,0.7044966001994908,191.15945759997703,None,,,,,,,p21,2022_Apr_28_1438,training+cueing,2021.1.4,59.92796664952425,
Self.png,You,Self ,c,1,11,21,91,,,,,0,0,0,0,,,,,0,4,4,9,,,,,,,,,,,,,,,,,,,,,1.457,1.228,192.0007811000105,None,,,,,,,,,,,,,,,,,,,,192.5408405000344,193.04414870007895,0.5053434302099049,1.0056549303699285,193.02751290006563,193.1275857000146,193.02751290006563,193.1275857000146,193.1275857000146,None,c,1,0.7203097001183778,193.1275857000146,None,,,,,,,p21,2022_Apr_28_1438,training+cueing,2021.1.4,59.92796664952425,
Friend.png,Stranger,Friend,m,3.2,19,29,99,,,,,0,0,0,0,,,,,0,5,5,5,,,,,,,,,,,,,,,,,,,,,1.48,1.453,193.98468770016916,None,,,,,,,,,,,,,,,,,,,,194.5394566000905,195.0458988000173,0.5126577401533723,1.01293084025383,195.02917880006135,195.14616809994914,195.02917880006135,195.14616809994914,195.12949419999495,None,m,1,0.6864565000869334,195.12949419999495,None,,,,,,,p21,2022_Apr_28_1438,training+cueing,2021.1.4,59.92796664952425,
Friend.png,You,Friend,m,1.2,14,24,94,,,,,0,0,0,0,,,,,0,6,6,3,,,,,,,,,,,,,,,,,,,,,1.475,1.299,195.95385499997064,None,,,,,,,,,,,,,,,,,,,,196.49887989996932,197.0136921000667,0.5119636300951242,1.012293430045247,196.9970102000516,197.09705039998516,196.9970102000516,197.09705039998516,197.09705039998516,None,m,1,0.6708150999620557,197.09705039998516,None,,,,,,,p21,2022_Apr_28_1438,training+cueing,2021.1.4,59.92796664952425,
Self.png,Stranger,Self ,m,3.1,18,28,98,,,,,0,0,0,0,,,,,0,7,7,2,,,,,,,,,,,,,,,,,,,,,1.43,1.732,197.90370970009826,None,,,,,,,,,,,,,,,,,,,,198.44766529998742,198.9483994001057,0.5024025298189372,1.0028343298472464,198.93179340008646,199.04844789998606,198.93179340008646,199.04844789998606,199.0318164001219,None,m,1,0.6400435999967158,199.0318164001219,None,,,,,,,p21,2022_Apr_28_1438,training+cueing,2021.1.4,59.92796664952425,
Stranger.png,Stranger,Stranger,c,3,13,23,93,,,,,0,0,0,0,,,,,0,8,8,8,,,,,,,,,,,,,,,,,,,,,1.517,1.714,199.80633360007778,None,,,,,,,,,,,,,,,,,,,,200.34192369994707,200.84975940012373,0.5125002302229404,1.0128313302993774,200.8331045000814,200.94982019998133,200.8331045000814,200.94982019998133,200.93315579998307,None,c,1,0.8347130001056939,200.93315579998307,None,,,,,,,p21,2022_Apr_28_1438,training+cueing,2021.1.4,59.92796664952425,
Stranger.png,Friend,Stranger,m,2.3,17,27,97,,,,,0,0,0,0,,,,,0,9,9,7,,,,,,,,,,,,,,,,,,,,,1.513,1.46,201.8900931000244,None,,,,,,,,,,,,,,,,,,,,202.43234269996174,202.93463290017098,0.5059833300765604,1.007030830020085,202.91795050003566,203.03469790006056,202.91795050003566,203.03469790006056,203.01796710002236,None,m,1,0.8939304000232369,203.01796710002236,None,,,,,,,p21,2022_Apr_28_1438,training+cueing,2021.1.4,59.92796664952425,
Self.png,You,Self ,c,1,11,21,91,,,,,0,0,0,0,,,,,0,10,10,0,,,,,,,,,,,,,,,,,,,,,1.637,2.459,204.04204400000162,None,,,,,,,,,,,,,,,,,,,,204.582228400046,205.08618270000443,0.5082310298457742,1.00831983005628,205.06970580015332,205.16953220008872,205.06970580015332,205.16953220008872,205.16953220008872,None,c,1,0.534270100062713,205.16953220008872,None,,,,,,,p21,2022_Apr_28_1438,training+cueing,2021.1.4,59.92796664952425,
Stranger.png,Stranger,Stranger,c,3,13,23,93,,,,,0,0,0,0,,,,,0,11,11,11,,,,,,,,,,,,,,,,,,,,,1.537,2.211,205.82646180014126,None,,,,,,,,,,,,,,,,,,,,206.366989800008,206.87076349998824,0.5051395301707089,1.005571730202064,206.854200999951,206.9709954999853,206.854200999951,206.9709954999853,206.95434599998407,None,c,1,0.8935717998538166,206.95434599998407,None,,,,,,,p21,2022_Apr_28_1438,training+cueing,2021.1.4,59.92796664952425,
Self.png,Friend,Self ,m,2.1,16,26,96,,,,,0,0,0,0,,,,,1,0,12,1,,,,,,,,,,,,,,,,,,,,,1.459,2.487,207.979131200118,None,,,,,,,,,,,,,,,,,,,,208.5206559000071,209.0223620000761,0.5028764298185706,1.004007029812783,209.00565700000152,209.12241960014217,209.00565700000152,209.12241960014217,209.10568749997765,None,m,1,0.7901910000946373,209.10568749997765,None,,,,,,,p21,2022_Apr_28_1438,training+cueing,2021.1.4,59.92796664952425,
Stranger.png,Stranger,Stranger,c,3,13,23,93,,,,,0,0,0,0,,,,,1,1,13,11,,,,,,,,,,,,,,,,,,,,,1.775,2.148,210.03047450003214,None,,,,,,,,,,,,,,,,,,,,210.5721839000471,211.07383030001074,0.5036879300605506,1.0040005301125348,211.05713650002144,211.17384800012223,211.05713650002144,211.17384800012223,211.15715810004622,None,c,1,0.6907174000516534,211.15715810004622,None,,,,,,,p21,2022_Apr_28_1438,training+cueing,2021.1.4,59.92796664952425,
Friend.png,Friend,Friend,c,2,12,22,92,,,,,0,0,0,0,,,,,1,2,14,4,,,,,,,,,,,,,,,,,,,,,1.795,2.107,211.98036199994385,None,,,,,,,,,,,,,,,,,,,,212.52136890008114,213.0252450001426,0.5061253299936652,1.006408330053091,213.008567500161,213.12532520014793,213.008567500161,213.12532520014793,213.10871780011803,None,c,1,0.5791007000952959,213.10871780011803,None,,,,,,,p21,2022_Apr_28_1438,training+cueing,2021.1.4,59.92796664952425,
Self.png,You,Self ,c,1,11,21,91,,,,,0,0,0,0,,,,,1,3,15,9,,,,,,,,,,,,,,,,,,,,,1.727,1.334,213.81492980010808,None,,,,,,,,,,,,,,,,,,,,214.35753819998354,214.85992230009288,0.5063523298595101,1.0066423297394067,214.8432331001386,214.94325880007818,214.8432331001386,214.94325880007818,214.94325880007818,None,c,1,0.45664620003663003,214.94325880007818,None,,,,,,,p21,2022_Apr_28_1438,training+cueing,2021.1.4,59.92796664952425,
Stranger.png,Friend,Stranger,m,2.3,17,27,97,,,,,0,0,0,0,,,,,1,4,16,7,,,,,,,,,,,,,,,,,,,,,1.755,1.526,215.5335633000359,None,,,,,,,,,,,,,,,,,,,,216.08143340004608,216.59445330011658,0.5080957300961018,1.0085729300044477,216.57783000008203,216.69451780011877,216.57783000008203,216.69451780011877,216.6778178999666,None,m,1,0.8179769001435488,216.6778178999666,None,,,,,,,p21,2022_Apr_28_1438,training+cueing,2021.1.4,59.92796664952425,
Friend.png,You,Friend,m,1.2,14,24,94,,,,,0,0,0,0,,,,,1,5,17,3,,,,,,,,,,,,,,,,,,,,,1.705,1.879,217.61731230001897,None,,,,,,,,,,,,,,,,,,,,218.17402520007454,218.67931729997508,0.5124856401234865,1.013526740251109,218.66266539995559,218.76271020015702,218.66266539995559,218.76271020015702,218.76271020015702,None,m,1,0.7011981001123786,218.76271020015702,None,,,,,,,p21,2022_Apr_28_1438,training+cueing,2021.1.4,59.92796664952425,
Self.png,You,Self ,c,1,11,21,91,,,,,0,0,0,0,,,,,1,6,18,0,,,,,,,,,,,,,,,,,,,,,1.77,1.703,219.58755260007456,None,,,,,,,,,,,,,,,,,,,,220.12697840016335,220.6307004999835,0.5077406300697476,1.008214530069381,220.61404659994878,220.7140818000771,220.61404659994878,220.7140818000771,220.7140818000771,None,c,1,0.5098220000509173,220.7140818000771,None,,,,,,,p21,2022_Apr_28_1438,training+cueing,2021.1.4,59.92796664952425,
Self.png,Stranger,Self ,m,3.1,18,28,98,,,,,0,0,0,0,,,,,1,7,19,2,,,,,,,,,,,,,,,,,,,,,1.518,1.316,221.36108139995486,None,,,,,,,,,,,,,,,,,,,,221.9118437001016,222.41555250016972,0.5057171401567757,1.0063168401829898,222.3988574000541,222.5155460999813,222.3988574000541,222.5155460999813,222.49884320003912,None,m,1,1.3490196999628097,222.49884320003912,None,,,,,,,p21,2022_Apr_28_1438,training+cueing,2021.1.4,59.92796664952425,
Friend.png,Friend,Friend,c,2,12,22,92,,,,,0,0,0,0,,,,,1,8,20,10,,,,,,,,,,,,,,,,,,,,,1.794,1.545,223.9740230999887,None,,,,,,,,,,,,,,,,,,,,224.51442639995366,225.01721920003183,0.50480902986601,1.0052325299475342,225.00059049995616,225.11758109997027,225.00059049995616,225.11758109997027,225.1006055001635,None,c,1,0.8112544000614434,225.1006055001635,None,,,,,,,p21,2022_Apr_28_1438,training+cueing,2021.1.4,59.92796664952425,
Stranger.png,You,Stranger,m,1.3,15,25,95,,,,,0,0,0,0,,,,,1,9,21,6,,,,,,,,,,,,,,,,,,,,,1.594,1.856,226.04156200005673,None,,,,,,,,,,,,,,,,,,,,226.58225630014203,227.08540890016593,0.5061423301231116,1.0072202300652862,227.0687113001477,227.16875299997628,227.0687113001477,227.16875299997628,227.16875299997628,None,m,1,0.7271388999652117,227.16875299997628,None,,,,,,,p21,2022_Apr_28_1438,training+cueing,2021.1.4,59.92796664952425,
Stranger.png,Stranger,Stranger,c,3,13,23,93,,,,,0,0,0,0,,,,,1,10,22,8,,,,,,,,,,,,,,,,,,,,,1.754,2.274,228.02539990004152,None,,,,,,,,,,,,,,,,,,,,228.57036130013876,229.07015070016496,0.5135190300643444,1.0138238300569355,229.07015070016496,229.1701853000559,229.07015070016496,229.1701853000559,229.1701853000559,None,c,1,0.45362860010936856,229.1701853000559,None,,,,,,,p21,2022_Apr_28_1438,training+cueing,2021.1.4,59.92796664952425,
Friend.png,Stranger,Friend,m,3.2,19,29,99,,,,,0,0,0,0,,,,,1,11,23,5,,,,,,,,,,,,,,,,,,,,,1.701,2.122,229.7599837000016,None,,,,,,,,,,,,,,,,,,,,230.31873820000328,230.8215829001274,0.5073175400029868,1.0075788400135934,230.80489300005138,230.92162190005183,230.80489300005138,230.92162190005183,230.9049090000335,None,m,1,1.0869020000100136,230.9049090000335,None,,,,,,,p21,2022_Apr_28_1438,training+cueing,2021.1.4,59.92796664952425,
Self.png,Stranger,Self ,m,3.1,18,28,98,,,,,0,0,0,0,,,,,2,0,24,2,,,,,,,,,,,,,,,,,,,,,1.791,1.376,232.1298949001357,None,,,,,,,,,,,,,,,,,,,,232.6682041999884,233.1731080999598,0.5079233299475163,1.008334529818967,233.1564694000408,233.27318440005183,233.1564694000408,233.27318440005183,233.25644280016422,None,m,1,0.6713408001232892,233.25644280016422,None,,,,,,,p21,2022_Apr_28_1438,training+cueing,2021.1.4,59.92796664952425,
Self.png,Friend,Self ,m,2.1,16,26,96,,,,,0,0,0,0,,,,,2,1,25,1,,,,,,,,,,,,,,,,,,,,,1.474,1.59,234.06285780016333,None,,,,,,,,,,,,,,,,,,,,234.6048169999849,235.1081179000903,0.5057149298954755,1.006307829869911,235.09162850002758,235.2082031001337,235.09162850002758,235.2082031001337,235.19136469997466,None,m,1,0.7846419999841601,235.19136469997466,None,,,,,,,p21,2022_Apr_28_1438,training+cueing,2021.1.4,59.92796664952425,
Friend.png,Stranger,Friend,m,3.2,19,29,99,,,,,0,0,0,0,,,,,2,2,26,5,,,,,,,,,,,,,,,,,,,,,1.651,2.161,236.09969169995748,None,,,,,,,,,,,,,,,,,,,,236.64105490013026,237.14260220015422,0.5023005299735814,1.003319829935208,237.1260124000255,237.2426804001443,237.1260124000255,237.2426804001443,237.2260364999529,None,m,1,0.861845700070262,237.2260364999529,None,,,,,,,p21,2022_Apr_28_1438,training+cueing,2021.1.4,59.92796664952425,
Friend.png,Friend,Friend,c,2,12,22,92,,,,,0,0,0,0,,,,,2,3,27,4,,,,,,,,,,,,,,,,,,,,,1.746,2.165,238.21809840016067,None,,,,,,,,,,,,,,,,,,,,238.75996390008368,239.26081570005044,0.49965103017166257,1.0001501301303506,239.24421030003577,239.36084660002962,239.24421030003577,239.36084660002962,239.36084660002962,None,c,1,0.42295109992846847,239.36084660002962,None,,,,,,,p21,2022_Apr_28_1438,training+cueing,2021.1.4,59.92796664952425,
Friend.png,You,Friend,m,1.2,14,24,94,,,,,0,0,0,0,,,,,2,4,28,3,,,,,,,,,,,,,,,,,,,,,1.642,1.872,239.9182615999598,None,,,,,,,,,,,,,,,,,,,,240.4589210001286,240.9620956000872,0.5070563300978392,None,240.94544330006465,241.0454287000466,240.94544330006465,241.0454287000466,241.0454287000466,None,c,0,0.322338700061664,241.0454287000466,None,,,,,,,p21,2022_Apr_28_1438,training+cueing,2021.1.4,59.92796664952425,
Stranger.png,Stranger,Stranger,c,3,13,23,93,,,,,0,0,0,0,,,,,2,5,29,8,,,,,,,,,,,,,,,,,,,,,1.447,1.336,241.5027956000995,None,,,,,,,,,,,,,,,,,,,,242.0672585000284,242.58007260016166,0.5098195399623364,1.010054440004751,242.56342920009047,242.6801075001713,242.56342920009047,242.6801075001713,242.6633906001225,None,c,1,0.46439610002562404,242.6633906001225,None,,,,,,,p21,2022_Apr_28_1438,training+cueing,2021.1.4,59.92796664952425,
Stranger.png,You,Stranger,m,1.3,15,25,95,,,,,0,0,0,0,,,,,2,6,30,6,,,,,,,,,,,,,,,,,,,,,1.761,1.675,243.25463160010986,None,,,,,,,,,,,,,,,,,,,,243.79626170010306,244.29782970016822,0.5015052300877869,1.001819830155,244.2811376999598,244.381166000152,244.2811376999598,244.381166000152,244.381166000152,None,m,1,0.7945995999034494,244.381166000152,None,,,,,,,p21,2022_Apr_28_1438,training+cueing,2021.1.4,59.92796664952425,
Stranger.png,Stranger,Stranger,c,3,13,23,93,,,,,0,0,0,0,,,,,2,7,31,11,,,,,,,,,,,,,,,,,,,,,1.769,1.734,245.30389060010202,None,,,,,,,,,,,,,,,,,,,,245.84717099997215,246.35018750000745,0.5056027299724519,1.0058783299755305,246.3325056999456,246.44945199997164,246.3325056999456,246.44945199997164,246.43274420010857,None,c,1,0.711073299869895,246.43274420010857,None,,,,,,,p21,2022_Apr_28_1438,training+cueing,2021.1.4,59.92796664952425,
Friend.png,Friend,Friend,c,2,12,22,92,,,,,0,0,0,0,,,,,2,8,32,10,,,,,,,,,,,,,,,,,,,,,1.683,1.866,247.27406560000964,None,,,,,,,,,,,,,,,,,,,,247.8224615000654,248.33410069998354,0.505099429981783,1.0054625298362225,248.3175246999599,248.4340834999457,248.3175246999599,248.4340834999457,248.41743390006013,None,c,1,0.7267247999552637,248.41743390006013,None,,,,,,,p21,2022_Apr_28_1438,training+cueing,2021.1.4,59.92796664952425,
Self.png,You,Self ,c,1,11,21,91,,,,,0,0,0,0,,,,,2,9,33,0,,,,,,,,,,,,,,,,,,,,,1.437,1.66,249.27818990009837,None,,,,,,,,,,,,,,,,,,,,249.81731469999067,250.31881309999153,0.5031571299768984,1.0034317299723625,250.30214309995063,250.40219050017186,250.30214309995063,250.40219050017186,250.40219050017186,None,c,1,0.40592449996620417,250.40219050017186,None,,,,,,,p21,2022_Apr_28_1438,training+cueing,2021.1.4,59.92796664952425,
Stranger.png,Friend,Stranger,m,2.3,17,27,97,,,,,0,0,0,0,,,,,2,10,34,7,,,,,,,,,,,,,,,,,,,,,1.711,1.807,250.94207100011408,None,,,,,,,,,,,,,,,,,,,,251.48386409995146,251.98669359995984,0.5050436300225556,1.0053233299404383,251.97003110009246,252.0868017000612,251.97003110009246,252.0868017000612,252.07002230011858,None,m,1,0.8497307000216097,252.07002230011858,None,,,,,,,p21,2022_Apr_28_1438,training+cueing,2021.1.4,59.92796664952425,
Self.png,You,Self ,c,1,11,21,91,,,,,0,0,0,0,,,,,2,11,35,9,,,,,,,,,,,,,,,,,,,,,1.738,2.418,253.04454140015878,None,,,,,,,,,,,,,,,,,,,,253.59057640004903,254.1050846001599,0.5106392300222069,1.010917330160737,254.08836860000156,254.18837800016627,254.08836860000156,254.18837800016627,254.18837800016627,None,c,1,0.491411600029096,254.18837800016627,None,,,,,,,p21,2022_Apr_28_1438,training+cueing,2021.1.4,59.92796664952425,
Self.png,You,Self ,c,1,11,21,91,,,,,0,0,0,0,,,,,3,0,36,0,,,,,,,,,,,,,,,,,,,,,1.659,2.257,254.8125370000489,None,,,,,,,,,,,,,,,,,,,,255.3516780999489,255.85615950007923,0.5101028298959136,1.010140229947865,255.8396920999512,255.93951390008442,255.8396920999512,255.93951390008442,255.93951390008442,None,c,1,0.612348300172016,255.93951390008442,None,,,,,,,p21,2022_Apr_28_1438,training+cueing,2021.1.4,59.92796664952425,
Friend.png,Friend,Friend,c,2,12,22,92,,,,,0,0,0,0,,,,,3,1,37,4,,,,,,,,,,,,,,,,,,,,,1.798,1.9,256.6810572000686,None,,,,,,,,,,,,,,,,,,,,257.22111050016247,257.72417440009303,0.5055338297970593,1.0058045298792422,257.7075171000324,257.82420959998854,257.7075171000324,257.82420959998854,257.8074972999748,None,c,1,0.6001891999039799,257.8074972999748,None,,,,,,,p21,2022_Apr_28_1438,training+cueing,2021.1.4,59.92796664952425,
Stranger.png,Friend,Stranger,m,2.3,17,27,97,,,,,0,0,0,0,,,,,3,2,38,7,,,,,,,,,,,,,,,,,,,,,1.664,1.379,258.5341235001106,None,,,,,,,,,,,,,,,,,,,,259.07116050017066,259.5754909000825,0.5066315298900008,1.0069270299281925,259.55882230005227,259.675544800004,259.55882230005227,259.675544800004,259.658837800147,None,m,1,0.7009485999587923,259.658837800147,None,,,,,,,p21,2022_Apr_28_1438,training+cueing,2021.1.4,59.92796664952425,
Friend.png,Stranger,Friend,m,3.2,19,29,99,,,,,0,0,0,0,,,,,3,3,39,5,,,,,,,,,,,,,,,,,,,,,1.764,1.933,260.48263190011494,None,,,,,,,,,,,,,,,,,,,,261.0233259999659,261.526889400091,0.5076975303236395,1.0079360301606357,261.51031629997306,261.62693620007485,261.51031629997306,261.62693620007485,261.6102930000052,None,m,1,0.6854634000919759,261.6102930000052,None,,,,,,,p21,2022_Apr_28_1438,training+cueing,2021.1.4,59.92796664952425,
Stranger.png,Stranger,Stranger,c,3,13,23,93,,,,,0,0,0,0,,,,,3,4,40,8,,,,,,,,,,,,,,,,,,,,,1.554,1.724,262.41804060013965,None,,,,,,,,,,,,,,,,,,,,262.9756327001378,263.4785081001464,0.5038091400638223,1.004126540152356,263.46176430000924,263.5785726001486,263.46176430000924,263.5785726001486,263.5618253001012,None,c,1,0.5420372998341918,263.5618253001012,None,,,,,,,p21,2022_Apr_28_1438,training+cueing,2021.1.4,59.92796664952425,
Self.png,You,Self ,c,1,11,21,91,,,,,0,0,0,0,,,,,3,5,41,9,,,,,,,,,,,,,,,,,,,,,1.58,2.029,264.2363484001253,None,,,,,,,,,,,,,,,,,,,,264.7783562000841,265.27962579997256,0.5019124299287796,1.0021839297842234,265.26299370010383,265.36301030009054,265.26299370010383,265.36301030009054,265.36301030009054,None,c,1,0.43676229985430837,265.36301030009054,None,,,,,,,p21,2022_Apr_28_1438,training+cueing,2021.1.4,59.92796664952425,
Self.png,Friend,Self ,m,2.1,16,26,96,,,,,0,0,0,0,,,,,3,6,42,1,,,,,,,,,,,,,,,,,,,,,1.49,2.056,265.9366246999707,None,,,,,,,,,,,,,,,,,,,,266.4774065001402,266.9808615001384,0.5060428301803768,1.006513330154121,266.96417820011266,267.0809198000934,266.96417820011266,267.0809198000934,267.0641928999685,None,c,0,0.9916658001020551,267.0641928999685,None,,,,,,,p21,2022_Apr_28_1438,training+cueing,2021.1.4,59.92796664952425,
Stranger.png,Stranger,Stranger,c,3,13,23,93,,,,,0,0,0,0,,,,,3,7,43,11,,,,,,,,,,,,,,,,,,,,,1.454,1.814,268.1916096000932,None,,,,,,,,,,,,,,,,,,,,268.73058820003644,269.23246780014597,0.5027773298788816,1.0037728298921138,269.2158034001477,269.33251140010543,269.2158034001477,269.33251140010543,269.31579630007036,None,m,0,0.8841421001125127,269.31579630007036,None,,,,,,,p21,2022_Apr_28_1438,training+cueing,2021.1.4,59.92796664952425,
Self.png,Stranger,Self ,m,3.1,18,28,98,,,,,0,0,0,0,,,,,3,8,44,2,,,,,,,,,,,,,,,,,,,,,1.522,1.513,270.32440589996986,None,,,,,,,,,,,,,,,,,,,,270.86443660012446,271.3673841001,0.504507530014962,1.0048012300394475,271.35070049995556,271.4674285999499,271.35070049995556,271.4674285999499,271.45068709994666,None,m,1,0.7173530000727624,271.45068709994666,None,,,,,,,p21,2022_Apr_28_1438,training+cueing,2021.1.4,59.92796664952425,
Friend.png,Friend,Friend,c,2,12,22,92,,,,,0,0,0,0,,,,,3,9,45,10,,,,,,,,,,,,,,,,,,,,,1.775,1.317,272.29410160006955,None,,,,,,,,,,,,,,,,,,,,272.8344360999763,273.3354675001465,0.5021889300551265,1.002476530149579,273.3187700000126,273.4355105001014,273.3187700000126,273.4355105001014,273.4187666999642,None,c,1,0.6369735000189394,273.4187666999642,None,,,,,,,p21,2022_Apr_28_1438,training+cueing,2021.1.4,59.92796664952425,
Stranger.png,You,Stranger,m,1.3,15,25,95,,,,,0,0,0,0,,,,,3,10,46,6,,,,,,,,,,,,,,,,,,,,,1.618,1.813,274.19251970015466,None,,,,,,,,,,,,,,,,,,,,274.7495558001101,275.2535854000598,0.5074300398118794,None,275.23686520010233,275.33690680004656,275.23686520010233,275.33690680004656,275.33690680004656,None,c,0,0.3349668001756072,275.33690680004656,None,,,,,,,p21,2022_Apr_28_1438,training+cueing,2021.1.4,59.92796664952425,
Friend.png,You,Friend,m,1.2,14,24,94,,,,,0,0,0,0,,,,,3,11,47,3,,,,,,,,,,,,,,,,,,,,,1.62,2.304,275.79515410005115,None,,,,,,,,,,,,,,,,,,,,276.34232089994475,276.8548959000036,0.5083249302115291,1.0086747303139418,276.8380611001048,276.93814960005693,276.8380611001048,276.93814960005693,276.93814960005693,None,m,1,0.7655650998931378,276.93814960005693,None,,,,,,,p21,2022_Apr_28_1438,training+cueing,2021.1.4,59.92796664952425,
Stranger.png,You,Stranger,m,1.3,15,25,95,,,,,0,0,0,0,,,,,4,0,48,6,,,,,,,,,,,,,,,,,,,,,1.717,2.359,277.8294560001232,None,,,,,,,,,,,,,,,,,,,,278.3797568001319,278.8894724000711,0.5004748299252242,1.0007634300272912,278.87279690010473,278.97285720007494,278.87279690010473,278.97285720007494,278.97285720007494,None,m,1,0.6188628000672907,278.97285720007494,None,,,,,,,p21,2022_Apr_28_1438,training+cueing,2021.1.4,59.92796664952425,
Self.png,You,Self ,c,1,11,21,91,,,,,0,0,0,0,,,,,4,1,49,9,,,,,,,,,,,,,,,,,,,,,1.537,1.969,279.7130589999724,None,,,,,,,,,,,,,,,,,,,,280.2514462999534,280.75742120016366,0.51291963015683,1.0131953302770853,280.7408178001642,280.8408624001313,280.7408178001642,280.8408624001313,280.8408624001313,None,c,1,0.5909120999276638,280.8408624001313,None,,,,,,,p21,2022_Apr_28_1438,training+cueing,2021.1.4,59.92796664952425,
Friend.png,You,Friend,m,1.2,14,24,94,,,,,0,0,0,0,,,,,4,2,50,3,,,,,,,,,,,,,,,,,,,,,1.789,2.096,281.5641541001387,None,,,,,,,,,,,,,,,,,,,,282.1029678999912,282.6087734999601,0.5113363303244114,1.0125498303677887,282.5921410000883,282.6921771001071,282.5921410000883,282.6921771001071,282.6921771001071,None,m,1,0.8356763001065701,282.6921771001071,None,,,,,,,p21,2022_Apr_28_1438,training+cueing,2021.1.4,59.92796664952425,
Friend.png,Stranger,Friend,m,3.2,19,29,99,,,,,0,0,0,0,,,,,4,3,51,5,,,,,,,,,,,,,,,,,,,,,1.468,1.453,283.6507582999766,None,,,,,,,,,,,,,,,,,,,,284.21459139999934,284.7270086000208,0.5069272401742637,1.007300240220502,284.71031869994476,284.8271033000201,284.71031869994476,284.8271033000201,284.8104137999471,None,m,1,0.9255059999413788,284.8104137999471,None,,,,,,,p21,2022_Apr_28_1438,training+cueing,2021.1.4,59.92796664952425,
Self.png,Friend,Self ,m,2.1,16,26,96,,,,,0,0,0,0,,,,,4,4,52,1,,,,,,,,,,,,,,,,,,,,,1.744,2.116,285.87056950014085,None,,,,,,,,,,,,,,,,,,,,286.41111079999246,286.9118693000637,0.5021138300653547,1.0024188300594687,286.8952599000186,287.0119517000858,286.8952599000186,287.0119517000858,286.99527820013463,None,m,1,0.9324213000945747,286.99527820013463,None,,,,,,,p21,2022_Apr_28_1438,training+cueing,2021.1.4,59.92796664952425,
Self.png,You,Self ,c,1,11,21,91,,,,,0,0,0,0,,,,,4,5,53,0,,,,,,,,,,,,,,,,,,,,,1.644,2.379,288.0531838000752,None,,,,,,,,,,,,,,,,,,,,288.6078914999962,289.11351120006293,0.5108579399529845,1.0111186399590224,289.0968437001575,289.1968620000407,289.0968437001575,289.1968620000407,289.1968620000407,None,c,1,0.7948934999294579,289.1968620000407,None,,,,,,,p21,2022_Apr_28_1438,training+cueing,2021.1.4,59.92796664952425,
Friend.png,Friend,Friend,c,2,12,22,92,,,,,0,0,0,0,,,,,4,6,54,10,,,,,,,,,,,,,,,,,,,,,1.598,1.274,290.1211228000466,None,,,,,,,,,,,,,,,,,,,,290.6638869999442,291.16497420007363,0.4995256301481277,0.9998110299929976,291.1483146001119,291.2650071999524,291.1483146001119,291.2650071999524,291.2650071999524,None,c,1,0.8230479001067579,291.2650071999524,None,,,,,,,p21,2022_Apr_28_1438,training+cueing,2021.1.4,59.92796664952425,
Self.png,Stranger,Self ,m,3.1,18,28,98,,,,,0,0,0,0,,,,,4,7,55,2,,,,,,,,,,,,,,,,,,,,,1.759,1.267,292.22200229996815,None,,,,,,,,,,,,,,,,,,,,292.76482930011116,293.2665901000146,0.5045764301903546,1.0048035301733762,293.2500155000016,293.36665019998327,293.2500155000016,293.36665019998327,293.35134320007637,None,m,1,0.5764450000133365,293.35134320007637,None,,,,,,,p21,2022_Apr_28_1438,training+cueing,2021.1.4,59.92796664952425,
Stranger.png,Stranger,Stranger,c,3,13,23,93,,,,,0,0,0,0,,,,,4,8,56,11,,,,,,,,,,,,,,,,,,,,,1.581,2.073,294.05638410011306,None,,,,,,,,,,,,,,,,,,,,294.594225600129,295.1012560001109,0.5119657299946994,1.0131642299238592,295.08449270017445,295.20122239994816,295.08449270017445,295.20122239994816,295.1844761001412,None,c,1,0.5672114000190049,295.1844761001412,None,,,,,,,p21,2022_Apr_28_1438,training+cueing,2021.1.4,59.92796664952425,
Friend.png,Friend,Friend,c,2,12,22,92,,,,,0,0,0,0,,,,,4,9,57,4,,,,,,,,,,,,,,,,,,,,,1.453,2.398,295.87499650008976,None,,,,,,,,,,,,,,,,,,,,296.41570300003514,296.9191905001644,0.506329030264169,1.0066071301698685,296.9024630000349,297.0192007999867,296.9024630000349,297.0192007999867,297.002466800157,None,c,1,0.9732334997970611,297.002466800157,None,,,,,,,p21,2022_Apr_28_1438,training+cueing,2021.1.4,59.92796664952425,
Stranger.png,Stranger,Stranger,c,3,13,23,93,,,,,0,0,0,0,,,,,4,10,58,8,,,,,,,,,,,,,,,,,,,,,1.429,1.847,298.1096654001158,None,,,,,,,,,,,,,,,,,,,,298.650626800023,299.1540775001049,0.5060654301196337,1.0065940299537033,299.137442599982,299.2541084999684,299.137442599982,299.2541084999684,299.23746219999157,None,c,1,1.0424271000083536,299.23746219999157,None,,,,,,,p21,2022_Apr_28_1438,training+cueing,2021.1.4,59.92796664952425,
Stranger.png,Friend,Stranger,m,2.3,17,27,97,,,,,0,0,0,0,,,,,4,11,59,7,,,,,,,,,,,,,,,,,,,,,1.577,1.553,300.412842300022,None,,,,,,,,,,,,,,,,,,,,300.9524741000496,301.45579600008205,0.5040754301007837,1.004549730103463,301.43903889996,301.55580590013415,301.43903889996,301.55580590013415,301.53908960008994,None,m,1,0.7886182998772711,301.53908960008994,None,,,,,,,p21,2022_Apr_28_1438,training+cueing,2021.1.4,59.92796664952425,
Friend.png,Friend,Friend,c,2,12,22,92,,,,,0,0,0,0,,,,,5,0,60,10,,,,,,,,,,,,,,,,,,,,,1.424,1.632,302.46226990013383,None,,,,,,,,,,,,,,,,,,,,303.00157580012456,303.50729160010815,0.5111277299001813,1.0115823298692703,303.4905537001323,303.60739180003293,303.4905537001323,303.60739180003293,303.59067149995826,None,c,1,0.737191499909386,303.59067149995826,None,,,,,,,p21,2022_Apr_28_1438,training+cueing,2021.1.4,59.92796664952425,
Stranger.png,You,Stranger,m,1.3,15,25,95,,,,,0,0,0,0,,,,,5,1,61,6,,,,,,,,,,,,,,,,,,,,,1.629,1.713,304.4653239999898,None,,,,,,,,,,,,,,,,,,,,305.00689340010285,305.508656400023,0.5041144301649183,1.0043958299793303,305.4919974000659,305.59201800008304,305.4919974000659,305.59201800008304,305.59201800008304,None,m,1,0.8315756001975387,305.59201800008304,None,,,,,,,p21,2022_Apr_28_1438,training+cueing,2021.1.4,59.92796664952425,
Self.png,Stranger,Self ,m,3.1,18,28,98,,,,,0,0,0,0,,,,,5,2,62,2,,,,,,,,,,,,,,,,,,,,,1.49,1.463,306.54901640000753,None,,,,,,,,,,,,,,,,,,,,307.09939820016734,307.61017210013233,0.503571130335331,1.0038637302350253,307.5935560001526,307.7103567000013,307.5935560001526,307.7103567000013,307.69360710005276,None,m,1,0.746084300102666,307.69360710005276,None,,,,,,,p21,2022_Apr_28_1438,training+cueing,2021.1.4,59.92796664952425,
Friend.png,Stranger,Friend,m,3.2,19,29,99,,,,,0,0,0,0,,,,,5,3,63,5,,,,,,,,,,,,,,,,,,,,,1.587,1.943,308.5669372000266,None,,,,,,,,,,,,,,,,,,,,309.10537190013565,309.61165890004486,0.5123026301153004,1.0123969302512705,309.595161100151,309.71166360005736,309.595161100151,309.71166360005736,309.6949943001382,None,m,1,1.1289584999904037,309.6949943001382,None,,,,,,,p21,2022_Apr_28_1438,training+cueing,2021.1.4,59.92796664952425,
Self.png,You,Self ,c,1,11,21,91,,,,,0,0,0,0,,,,,5,4,64,0,,,,,,,,,,,,,,,,,,,,,1.74,2.286,310.95532670011744,None,,,,,,,,,,,,,,,,,,,,311.51513930014335,312.03007740015164,0.5112333400174975,1.0115354401059449,312.0133661001455,312.1134019000456,312.0133661001455,312.1134019000456,312.1134019000456,None,c,1,0.5822290999349207,312.1134019000456,None,,,,,,,p21,2022_Apr_28_1438,training+cueing,2021.1.4,59.92796664952425,
Friend.png,You,Friend,m,1.2,14,24,94,,,,,0,0,0,0,,,,,5,5,65,3,,,,,,,,,,,,,,,,,,,,,1.523,2.237,312.82071210001595,None,,,,,,,,,,,,,,,,,,,,313.3780420999974,313.88135519996285,0.5071899399627,1.0074201400857419,313.8647580000106,313.964790500002,313.8647580000106,313.964790500002,313.964790500002,None,m,1,0.7311259999405593,313.964790500002,None,,,,,,,p21,2022_Apr_28_1438,training+cueing,2021.1.4,59.92796664952425,
Self.png,Friend,Self ,m,2.1,16,26,96,,,,,0,0,0,0,,,,,5,6,66,1,,,,,,,,,,,,,,,,,,,,,1.538,1.857,314.8260282999836,None,,,,,,,,,,,,,,,,,,,,315.3640428001527,315.8662783000618,0.505045129917562,1.005329230101779,315.8496126001701,315.9663418000564,315.8496126001701,315.9663418000564,315.9496387001127,None,m,1,0.8421688999515027,315.9496387001127,None,,,,,,,p21,2022_Apr_28_1438,training+cueing,2021.1.4,59.92796664952425,
Stranger.png,Friend,Stranger,m,2.3,17,27,97,,,,,0,0,0,0,,,,,5,7,67,7,,,,,,,,,,,,,,,,,,,,,1.713,2.286,316.9244951000437,None,,,,,,,,,,,,,,,,,,,,317.46144710015506,317.96764590009116,0.5101659297943115,1.0104546297807246,317.95097410003655,318.0677143000066,317.95097410003655,318.0677143000066,318.0509828000795,None,m,1,0.7885883001144975,318.0509828000795,None,,,,,,,p21,2022_Apr_28_1438,training+cueing,2021.1.4,59.92796664952425,
Stranger.png,Stranger,Stranger,c,3,13,23,93,,,,,0,0,0,0,,,,,5,8,68,8,,,,,,,,,,,,,,,,,,,,,1.664,1.418,318.9739846000448,None,,,,,,,,,,,,,,,,,,,,319.51630410016514,320.019139100099,0.505299529992044,1.0063873301260173,320.0025059999898,320.1191980999429,320.0025059999898,320.1191980999429,320.1025227000937,None,c,1,0.6573483000975102,320.1025227000937,None,,,,,,,p21,2022_Apr_28_1438,training+cueing,2021.1.4,59.92796664952425,
Stranger.png,Stranger,Stranger,c,3,13,23,93,,,,,0,0,0,0,,,,,5,9,69,11,,,,,,,,,,,,,,,,,,,,,1.787,2.368,320.89629980013706,None,,,,,,,,,,,,,,,,,,,,321.43257870012894,321.93719279998913,0.5085119297727942,1.0088040297850966,321.9205005001277,322.0372354001738,321.9205005001277,322.0372354001738,322.0205145000946,None,c,1,0.8033458001445979,322.0205145000946,None,,,,,,,p21,2022_Apr_28_1438,training+cueing,2021.1.4,59.92796664952425,
Self.png,You,Self ,c,1,11,21,91,,,,,0,0,0,0,,,,,5,10,70,9,,,,,,,,,,,,,,,,,,,,,1.597,2.369,322.94536880007945,None,,,,,,,,,,,,,,,,,,,,323.48966399999335,323.9886648999527,0.5121626302134246,1.0131834300700575,323.9886648999527,324.08870259998366,323.9886648999527,324.08870259998366,324.08870259998366,None,c,1,0.44723840011283755,324.08870259998366,None,,,,,,,p21,2022_Apr_28_1438,training+cueing,2021.1.4,59.92796664952425,
Friend.png,Friend,Friend,c,2,12,22,92,,,,,0,0,0,0,,,,,5,11,71,4,,,,,,,,,,,,,,,,,,,,,1.448,1.458,324.66556090000086,None,,,,,,,,,,,,,,,,,,,,325.2040383000858,325.7066033000592,0.5046939300373197,1.0049783298745751,325.6899478000123,325.80663200002164,325.6899478000123,325.80663200002164,325.7899605000857,None,c,1,0.4417108001653105,325.7899605000857,None,,,,,,,p21,2022_Apr_28_1438,training+cueing,2021.1.4,59.92796664952425,
Self.png,You,Self ,c,1,11,21,91,,,,,0,0,0,0,,,,,6,0,72,0,,,,,,,,,,,,,,,,,,,,,1.448,1.901,326.36354990000837,None,,,,,,,,,,,,,,,,,,,,326.91979790013283,327.42449859995395,0.5077442398760468,1.0080235400237143,327.4078456000425,327.50787840015255,327.4078456000425,327.50787840015255,327.50787840015255,None,c,1,0.4677931999322027,327.50787840015255,None,,,,,,,p21,2022_Apr_28_1438,training+cueing,2021.1.4,59.92796664952425,
Stranger.png,You,Stranger,m,1.3,15,25,95,,,,,0,0,0,0,,,,,6,1,73,6,,,,,,,,,,,,,,,,,,,,,1.786,1.448,328.09730040002614,None,,,,,,,,,,,,,,,,,,,,328.63640760001726,329.14237520005554,0.5109282301273197,1.0112217301502824,329.1257201000117,329.2257654001005,329.1257201000117,329.2257654001005,329.2257654001005,None,m,1,0.670188199961558,329.2257654001005,None,,,,,,,p21,2022_Apr_28_1438,training+cueing,2021.1.4,59.92796664952425,
Stranger.png,Friend,Stranger,m,2.3,17,27,97,,,,,0,0,0,0,,,,,6,2,74,7,,,,,,,,,,,,,,,,,,,,,1.798,2.437,330.0367217999883,None,,,,,,,,,,,,,,,,,,,,330.57542070001364,331.07713420013897,0.503544129896909,1.0038271299563348,331.06045019999146,331.17718320013955,331.06045019999146,331.17718320013955,331.16044900007546,None,m,1,0.8952614001464099,331.16044900007546,None,,,,,,,p21,2022_Apr_28_1438,training+cueing,2021.1.4,59.92796664952425,
Friend.png,Friend,Friend,c,2,12,22,92,,,,,0,0,0,0,,,,,6,3,75,10,,,,,,,,,,,,,,,,,,,,,1.731,1.732,332.1837494999636,None,,,,,,,,,,,,,,,,,,,,332.72190090012737,333.2287014001049,0.5108584300614893,1.0110988300293684,333.2120431000367,333.3287657001056,333.2120431000367,333.3287657001056,333.3120232000947,None,c,1,0.855600600130856,333.3120232000947,None,,,,,,,p21,2022_Apr_28_1438,training+cueing,2021.1.4,59.92796664952425,
Stranger.png,Stranger,Stranger,c,3,13,23,93,,,,,0,0,0,0,,,,,6,4,76,8,,,,,,,,,,,,,,,,,,,,,1.511,1.453,334.3031254000962,None,,,,,,,,,,,,,,,,,,,,334.84346890007146,335.34688020008616,0.5057050297036767,1.0067527298815548,335.33019779995084,335.4469254000578,335.33019779995084,335.4469254000578,335.430218399968,None,m,0,0.8814089999068528,335.430218399968,None,,,,,,,p21,2022_Apr_28_1438,training+cueing,2021.1.4,59.92796664952425,
Self.png,You,Self ,c,1,11,21,91,,,,,0,0,0,0,,,,,6,5,77,9,,,,,,,,,,,,,,,,,,,,,1.522,1.532,336.43829710013233,None,,,,,,,,,,,,,,,,,,,,336.9774909999687,337.4817423999775,0.5083194300532341,1.0086425300687551,337.4650747999549,337.56510860007256,337.4650747999549,337.56510860007256,337.56510860007256,None,c,1,0.5226141000166535,337.56510860007256,None,,,,,,,p21,2022_Apr_28_1438,training+cueing,2021.1.4,59.92796664952425,
Friend.png,Stranger,Friend,m,3.2,19,29,99,,,,,0,0,0,0,,,,,6,6,78,5,,,,,,,,,,,,,,,,,,,,,1.57,2.498,338.22223210008815,None,,,,,,,,,,,,,,,,,,,,338.76222470006905,339.2663865000941,0.5059148299042135,1.006170429987833,339.24976010015234,339.3664053999819,339.24976010015234,339.3664053999819,339.3497397999745,None,None,0,,339.3497397999745,None,,,,,,,p21,2022_Apr_28_1438,training+cueing,2021.1.4,59.92796664952425,
Friend.png,You,Friend,m,1.2,14,24,94,,,,,0,0,0,0,,,,,6,7,79,3,,,,,,,,,,,,,,,,,,,,,1.647,1.812,341.03888910007663,None,,,,,,,,,,,,,,,,,,,,341.63012190000154,342.1351134001743,0.5007901499047875,1.0011060498654842,342.1184247999918,342.21850980003364,342.1184247999918,342.21850980003364,342.21850980003364,None,m,1,1.0210365001112223,342.21850980003364,None,,,,,,,p21,2022_Apr_28_1438,training+cueing,2021.1.4,59.92796664952425,
Self.png,Friend,Self ,m,2.1,16,26,96,,,,,0,0,0,0,,,,,6,8,80,1,,,,,,,,,,,,,,,,,,,,,1.462,1.66,343.3763933000155,None,,,,,,,,,,,,,,,,,,,,343.91573590016924,344.42007340001874,0.5060389300342649,1.0063091302290559,344.4034724000376,344.52011430007406,344.4034724000376,344.52011430007406,344.5034584000241,None,m,1,0.9602624999824911,344.5034584000241,None,,,,,,,p21,2022_Apr_28_1438,training+cueing,2021.1.4,59.92796664952425,
Self.png,Stranger,Self ,m,3.1,18,28,98,,,,,0,0,0,0,,,,,6,9,81,2,,,,,,,,,,,,,,,,,,,,,1.483,1.242,345.5946007000748,None,,,,,,,,,,,,,,,,,,,,346.1345436000265,346.6383263999596,0.5062613303307444,1.006540930364281,346.6216840001289,346.73836129996926,346.6216840001289,346.73836129996926,346.72170220012777,None,m,1,0.7099547998514026,346.72170220012777,None,,,,,,,p21,2022_Apr_28_1438,training+cueing,2021.1.4,59.92796664952425,
Friend.png,Friend,Friend,c,2,12,22,92,,,,,0,0,0,0,,,,,6,10,82,4,,,,,,,,,,,,,,,,,,,,,1.401,1.41,347.56179310008883,None,,,,,,,,,,,,,,,,,,,,348.1028536001686,348.6065482001286,0.5072219299618155,1.0075185301247984,348.58984749997035,348.70662830001675,348.58984749997035,348.70662830001675,348.6898648000788,None,c,1,0.6777880999725312,348.6898648000788,None,,,,,,,p21,2022_Apr_28_1438,training+cueing,2021.1.4,59.92796664952425,
Stranger.png,Stranger,Stranger,c,3,13,23,93,,,,,0,0,0,0,,,,,6,11,83,11,,,,,,,,,,,,,,,,,,,,,1.673,1.308,349.49736010003835,None,,,,,,,,,,,,,,,,,,,,350.0413987999782,350.54119220003486,0.5138958301395178,1.0142166300211102,350.54119220003486,350.6412255000323,350.54119220003486,350.6412255000323,350.6412255000323,None,c,1,0.5982872000895441,350.6412255000323,None,,,,,,,p21,2022_Apr_28_1438,training+cueing,2021.1.4,59.92796664952425,
Friend.png,Stranger,Friend,m,3.2,19,29,99,,,,,0,0,0,0,,,,,7,0,84,5,,,,,,,,,,,,,,,,,,,,,1.439,2.202,351.36428160010837,None,,,,,,,,,,,,,,,,,,,,351.90343780000694,352.4091978999786,0.511618830030784,1.0126611299347132,352.39255520002916,352.50924000004306,352.39255520002916,352.50924000004306,352.49257420003414,None,m,1,0.7790695999283344,352.49257420003414,None,,,,,,,p21,2022_Apr_28_1438,training+cueing,2021.1.4,59.92796664952425,
Friend.png,Friend,Friend,c,2,12,22,92,,,,,0,0,0,0,,,,,7,1,85,10,,,,,,,,,,,,,,,,,,,,,1.634,1.662,353.40006220014766,None,,,,,,,,,,,,,,,,,,,,353.9403880001046,354.4439902000595,0.5072165301535279,1.0075201301369816,354.4273088001646,354.54397690016776,354.4273088001646,354.54397690016776,354.5272852999624,None,c,1,0.6323142000474036,354.5272852999624,None,,,,,,,p21,2022_Apr_28_1438,training+cueing,2021.1.4,59.92796664952425,
Stranger.png,You,Stranger,m,1.3,15,25,95,,,,,0,0,0,0,,,,,7,2,86,6,,,,,,,,,,,,,,,,,,,,,1.566,1.955,355.28400770016015,None,,,,,,,,,,,,,,,,,,,,355.8246087001171,356.3286729999818,0.5065774300601333,1.0069729301612824,356.3120675999671,356.4120934000239,356.3120675999671,356.4120934000239,356.4120934000239,None,m,1,0.7155041999649256,356.4120934000239,None,,,,,,,p21,2022_Apr_28_1438,training+cueing,2021.1.4,59.92796664952425,
Self.png,You,Self ,c,1,11,21,91,,,,,0,0,0,0,,,,,7,3,87,9,,,,,,,,,,,,,,,,,,,,,1.503,1.395,357.2526537999511,None,,,,,,,,,,,,,,,,,,,,357.8012898999732,358.3134532000404,0.5074060300830752,1.0077098300680518,358.29680659994483,358.39682270004414,358.29680659994483,358.39682270004414,358.39682270004414,None,c,1,0.4588703999761492,358.39682270004414,None,,,,,,,p21,2022_Apr_28_1438,training+cueing,2021.1.4,59.92796664952425,
Self.png,Stranger,Self ,m,3.1,18,28,98,,,,,0,0,0,0,,,,,7,4,88,2,,,,,,,,,,,,,,,,,,,,,1.449,1.784,358.9873291000258,None,,,,,,,,,,,,,,,,,,,,359.5267851999961,360.03140670014545,0.5059840301983058,1.0062922302167863,360.0146924001165,360.13142380001955,360.0146924001165,360.13142380001955,360.114713100018,None,None,0,,360.114713100018,None,,,,,,,p21,2022_Apr_28_1438,training+cueing,2021.1.4,59.92796664952425,
Self.png,You,Self ,c,1,11,21,91,,,,,0,0,0,0,,,,,7,5,89,0,,,,,,,,,,,,,,,,,,,,,1.715,1.707,361.6703799001407,None,,,,,,,,,,,,,,,,,,,,362.21265640016645,362.71663739997894,0.5080186300911009,1.0082916300743818,362.6999679999426,362.8000012000557,362.6999679999426,362.8000012000557,362.8000012000557,None,c,1,0.4555621000472456,362.8000012000557,None,,,,,,,p21,2022_Apr_28_1438,training+cueing,2021.1.4,59.92796664952425,
Stranger.png,Friend,Stranger,m,2.3,17,27,97,,,,,0,0,0,0,,,,,7,6,90,7,,,,,,,,,,,,,,,,,,,,,1.693,2.478,363.390533400001,None,,,,,,,,,,,,,,,,,,,,363.9288674001582,364.43461020011455,0.5105427298694849,1.0108205298893154,364.4178804999683,364.53462829999626,364.4178804999683,364.53462829999626,364.51787610002793,None,m,1,0.753715300001204,364.51787610002793,None,,,,,,,p21,2022_Apr_28_1438,training+cueing,2021.1.4,59.92796664952425,
Friend.png,You,Friend,m,1.2,14,24,94,,,,,0,0,0,0,,,,,7,7,91,3,,,,,,,,,,,,,,,,,,,,,1.619,1.488,365.408331300132,None,,,,,,,,,,,,,,,,,,,,365.9675668000709,366.4693589999806,0.5018425399903208,1.0021462400909513,366.45266070007347,366.55274930014275,366.45266070007347,366.55274930014275,366.55274930014275,None,m,1,0.7347420998848975,366.55274930014275,None,,,,,,,p21,2022_Apr_28_1438,training+cueing,2021.1.4,59.92796664952425,
Self.png,Friend,Self ,m,2.1,16,26,96,,,,,0,0,0,0,,,,,7,8,92,1,,,,,,,,,,,,,,,,,,,,,1.472,1.642,367.41003839997575,None,,,,,,,,,,,,,,,,,,,,367.9506582999602,368.4542461000383,0.5069029300939292,1.0077673301566392,368.43763409997337,368.55429590004496,368.43763409997337,368.55429590004496,368.5376266001258,None,m,1,0.7021178998984396,368.5376266001258,None,,,,,,,p21,2022_Apr_28_1438,training+cueing,2021.1.4,59.92796664952425,
Stranger.png,Stranger,Stranger,c,3,13,23,93,,,,,0,0,0,0,,,,,7,9,93,11,,,,,,,,,,,,,,,,,,,,,1.447,2.084,369.36222530016676,None,,,,,,,,,,,,,,,,,,,,369.9033803001512,370.4055336001329,0.5051558301784098,1.0062453302089125,370.38885340001434,370.5056042999495,370.38885340001434,370.5056042999495,370.48884360003285,None,c,1,0.4950254999566823,370.48884360003285,None,,,,,,,p21,2022_Apr_28_1438,training+cueing,2021.1.4,59.92796664952425,
Stranger.png,Stranger,Stranger,c,3,13,23,93,,,,,0,0,0,0,,,,,7,10,94,8,,,,,,,,,,,,,,,,,,,,,1.453,2.323,371.11569540016353,None,,,,,,,,,,,,,,,,,,,,371.66163890017197,372.1734800999984,0.5055696303024888,1.0058613303117454,372.1568078000564,372.27355249994434,372.1568078000564,372.27355249994434,372.2567769000307,None,c,1,0.9348770000506192,372.2567769000307,None,,,,,,,p21,2022_Apr_28_1438,training+cueing,2021.1.4,59.92796664952425,
Friend.png,Friend,Friend,c,2,12,22,92,,,,,0,0,0,0,,,,,7,11,95,4,,,,,,,,,,,,,,,,,,,,,1.516,1.373,373.31403490016237,None,,,,,,,,,,,,,,,,,,,,373.8544386001304,374.35834200005047,0.5073223302606493,1.007642230251804,374.3416689001024,374.45838710013777,374.3416689001024,374.45838710013777,374.44176029996015,None,c,1,0.4938533999957144,374.44176029996015,None,,,,,,,p21,2022_Apr_28_1438,training+cueing,2021.1.4,59.92796664952425,
Friend.png,You,Friend,m,1.2,14,24,94,,,,,0,0,0,0,,,,,8,0,96,3,,,,,,,,,,,,,,,,,,,,,1.434,2.012,375.065166400047,None,,,,,,,,,,,,,,,,,,,,375.60475410008803,376.10963510000147,0.507410230115056,1.0084954302292317,376.09294630005024,376.19300870015286,376.09294630005024,376.19300870015286,376.19300870015286,None,m,1,0.6310290999244899,376.19300870015286,None,,,,,,,p21,2022_Apr_28_1438,training+cueing,2021.1.4,59.92796664952425,
Self.png,Friend,Self ,m,2.1,16,26,96,,,,,0,0,0,0,,,,,8,1,97,1,,,,,,,,,,,,,,,,,,,,,1.437,1.984,376.9540327000432,None,,,,,,,,,,,,,,,,,,,,377.4916910000611,377.9943514999468,0.5057023300323635,1.0067954300902784,377.9776745000854,378.0951797000598,377.9776745000854,378.0951797000598,378.07766850013286,None,m,1,0.6178745999932289,378.07766850013286,None,,,,,,,p21,2022_Apr_28_1438,training+cueing,2021.1.4,59.92796664952425,
Stranger.png,You,Stranger,m,1.3,15,25,95,,,,,0,0,0,0,,,,,8,2,98,6,,,,,,,,,,,,,,,,,,,,,1.591,2.357,378.81802190002054,None,,,,,,,,,,,,,,,,,,,,379.3790633000899,379.8790106000379,0.5019101400393993,1.0021807400044054,379.86237230012193,379.96238450007513,379.86237230012193,379.96238450007513,379.96238450007513,None,m,1,0.6531893000937998,379.96238450007513,None,,,,,,,p21,2022_Apr_28_1438,training+cueing,2021.1.4,59.92796664952425,
Self.png,You,Self ,c,1,11,21,91,,,,,0,0,0,0,,,,,8,3,99,0,,,,,,,,,,,,,,,,,,,,,1.554,1.913,380.7532524999697,None,,,,,,,,,,,,,,,,,,,,381.2908803001046,381.79706150013953,0.5106435301713645,1.0109432300087065,381.7804219999816,381.88049140013754,381.7804219999816,381.88049140013754,381.88049140013754,None,m,0,0.7993183999788016,381.88049140013754,None,,,,,,,p21,2022_Apr_28_1438,training+cueing,2021.1.4,59.92796664952425,
Self.png,You,Self ,c,1,11,21,91,,,,,0,0,0,0,,,,,8,4,100,9,,,,,,,,,,,,,,,,,,,,,1.428,2.404,382.80782620003447,None,,,,,,,,,,,,,,,,,,,,383.3537832000293,383.86528760008514,0.5055226301774383,1.0058276301715523,383.84856900013983,383.9486601999961,383.84856900013983,383.9486601999961,383.9486601999961,None,c,1,0.4269471999723464,383.9486601999961,None,,,,,,,p21,2022_Apr_28_1438,training+cueing,2021.1.4,59.92796664952425,
Stranger.png,Stranger,Stranger,c,3,13,23,93,,,,,0,0,0,0,,,,,8,5,101,11,,,,,,,,,,,,,,,,,,,,,1.721,1.96,384.50483160000294,None,,,,,,,,,,,,,,,,,,,,385.04704229999334,385.5497823001351,0.5052348300814629,1.0055282299872488,385.5330845999997,385.64983300003223,385.5330845999997,385.64983300003223,385.63312440016307,None,c,1,0.9185355000663549,385.63312440016307,None,,,,,,,p21,2022_Apr_28_1438,training+cueing,2021.1.4,59.92796664952425,
Stranger.png,Friend,Stranger,m,2.3,17,27,97,,,,,0,0,0,0,,,,,8,6,102,7,,,,,,,,,,,,,,,,,,,,,1.767,2.118,386.67329449998215,None,,,,,,,,,,,,,,,,,,,,387.21422170009464,387.7180494000204,0.5060851301532239,1.0063482301775366,387.7013668001164,387.81810180004686,387.7013668001164,387.81810180004686,387.80139299994335,None,m,1,0.7980510999914259,387.80139299994335,None,,,,,,,p21,2022_Apr_28_1438,training+cueing,2021.1.4,59.92796664952425,
Friend.png,Friend,Friend,c,2,12,22,92,,,,,0,0,0,0,,,,,8,7,103,10,,,,,,,,,,,,,,,,,,,,,1.567,1.754,388.72569230012596,None,,,,,,,,,,,,,,,,,,,,389.2618138999678,389.76952500012703,0.5146519299596548,1.014936130028218,389.75282700010575,389.8695851000957,389.75282700010575,389.8695851000957,389.8528458001092,None,None,0,,389.8528458001092,None,,,,,,,p21,2022_Apr_28_1438,training+cueing,2021.1.4,59.92796664952425,
Self.png,Stranger,Self ,m,3.1,18,28,98,,,,,0,0,0,0,,,,,8,8,104,2,,,,,,,,,,,,,,,,,,,,,1.424,2.434,391.5251422999427,None,,,,,,,,,,,,,,,,,,,,392.0714422001038,392.57156440010294,0.5152650298550725,1.0155576299875975,392.57156440010294,392.6717446001712,392.57156440010294,392.6717446001712,392.6717446001712,None,None,0,,392.6717446001712,None,,,,,,,p21,2022_Apr_28_1438,training+cueing,2021.1.4,59.92796664952425,
Friend.png,Stranger,Friend,m,3.2,19,29,99,,,,,0,0,0,0,,,,,8,9,105,5,,,,,,,,,,,,,,,,,,,,,1.482,2.275,394.21014680014923,None,,,,,,,,,,,,,,,,,,,,394.7508629001677,395.25677180010825,0.5123381302691996,1.012634530197829,395.24015820003115,395.3568363999948,395.24015820003115,395.3568363999948,395.34019030001946,None,m,1,1.1152919000014663,395.34019030001946,None,,,,,,,p21,2022_Apr_28_1438,training+cueing,2021.1.4,59.92796664952425,
Friend.png,Friend,Friend,c,2,12,22,92,,,,,0,0,0,0,,,,,8,10,106,4,,,,,,,,,,,,,,,,,,,,,1.676,1.259,396.58035199996084,None,,,,,,,,,,,,,,,,,,,,397.1203026000876,397.62515570013784,0.5084761299658567,1.0088933298829943,397.60851279995404,397.72523230011575,397.60851279995404,397.72523230011575,397.70853920001537,None,c,1,0.5549970001447946,397.70853920001537,None,,,,,,,p21,2022_Apr_28_1438,training+cueing,2021.1.4,59.92796664952425,
Stranger.png,Stranger,Stranger,c,3,13,23,93,,,,,0,0,0,0,,,,,8,11,107,8,,,,,,,,,,,,,,,,,,,,,1.527,2.073,398.39870490017347,None,,,,,,,,,,,,,,,,,,,,398.9531813999638,399.4599914001301,0.5118880399968475,1.012139240046963,399.4432971000206,399.55998040013947,399.4432971000206,399.55998040013947,399.5432986000087,None,c,1,0.5602750999387354,399.5432986000087,None,,,,,,,p21,2022_Apr_28_1438,training+cueing,2021.1.4,59.92796664952425,
Stranger.png,You,Stranger,m,1.3,15,25,95,,,,,0,0,0,0,,,,,9,0,108,6,,,,,,,,,,,,,,,,,,,,,1.768,1.686,400.234383800067,None,,,,,,,,,,,,,,,,,,,,400.77555170003325,401.27782830013894,0.5048853298649192,None,401.2611402000766,401.3611761999782,401.2611402000766,401.3611761999782,401.3611761999782,None,c,0,0.29437460005283356,401.3611761999782,None,,,,,,,p21,2022_Apr_28_1438,training+cueing,2021.1.4,59.92796664952425,
Friend.png,Friend,Friend,c,2,12,22,92,,,,,0,0,0,0,,,,,9,1,109,4,,,,,,,,,,,,,,,,,,,,,1.474,1.471,401.78497630008496,None,,,,,,,,,,,,,,,,,,,,402.3258387001697,402.8289387000259,0.5070756301283836,1.0073740303050727,402.81231910013594,402.92897100001574,402.81231910013594,402.92897100001574,402.9122717999853,None,c,1,0.7112030000425875,402.9122717999853,None,,,,,,,p21,2022_Apr_28_1438,training+cueing,2021.1.4,59.92796664952425,
Stranger.png,Stranger,Stranger,c,3,13,23,93,,,,,0,0,0,0,,,,,9,2,110,8,,,,,,,,,,,,,,,,,,,,,1.673,2.219,403.7521504999604,None,,,,,,,,,,,,,,,,,,,,404.29337590001523,404.79705679998733,0.5054596299305558,1.0057511299382895,404.78035650006495,404.89704519999214,404.78035650006495,404.89704519999214,404.8803976001218,None,c,1,0.7271207000594586,404.8803976001218,None,,,,,,,p21,2022_Apr_28_1438,training+cueing,2021.1.4,59.92796664952425,
Self.png,Friend,Self ,m,2.1,16,26,96,,,,,0,0,0,0,,,,,9,3,111,1,,,,,,,,,,,,,,,,,,,,,1.409,2.148,405.73788370005786,None,,,,,,,,,,,,,,,,,,,,406.27837279997766,406.7817689999938,0.5067852300126106,1.0070953299291432,406.76518120011315,406.8818229001481,406.76518120011315,406.8818229001481,406.8651707000099,None,m,1,0.6303421000484377,406.8651707000099,None,,,,,,,p21,2022_Apr_28_1438,training+cueing,2021.1.4,59.92796664952425,
Self.png,You,Self ,c,1,11,21,91,,,,,0,0,0,0,,,,,9,4,112,9,,,,,,,,,,,,,,,,,,,,,1.434,1.843,407.62225170014426,None,,,,,,,,,,,,,,,,,,,,408.1615532999858,408.66652079997584,0.5073582301847637,1.0076638301834464,408.6498002000153,408.74983460013755,408.6498002000153,408.74983460013755,408.74983460013755,None,c,1,0.6049893000163138,408.74983460013755,None,,,,,,,p21,2022_Apr_28_1438,training+cueing,2021.1.4,59.92796664952425,
Stranger.png,Stranger,Stranger,c,3,13,23,93,,,,,0,0,0,0,,,,,9,5,113,11,,,,,,,,,,,,,,,,,,,,,1.523,1.921,409.4769824000541,None,,,,,,,,,,,,,,,,,,,,410.0151325999759,410.5178006000351,0.5059989299625158,1.0064057298004627,410.50114209996536,410.61795270000584,410.50114209996536,410.61795270000584,410.60127099999227,None,c,1,0.6383155998773873,410.60127099999227,None,,,,,,,p21,2022_Apr_28_1438,training+cueing,2021.1.4,59.92796664952425,
Stranger.png,Friend,Stranger,m,2.3,17,27,97,,,,,0,0,0,0,,,,,9,6,114,7,,,,,,,,,,,,,,,,,,,,,1.737,1.933,411.3747105000075,None,,,,,,,,,,,,,,,,,,,,411.91557470010594,412.4192040001508,0.5066349301487207,1.0069334299769253,412.40250640013255,412.5192363001406,412.40250640013255,412.5192363001406,412.502507600002,None,m,1,0.6890830998308957,412.502507600002,None,,,,,,,p21,2022_Apr_28_1438,training+cueing,2021.1.4,59.92796664952425,
Friend.png,You,Friend,m,1.2,14,24,94,,,,,0,0,0,0,,,,,9,7,115,3,,,,,,,,,,,,,,,,,,,,,1.547,1.572,413.32635019999,None,,,,,,,,,,,,,,,,,,,,413.86671680002473,414.37060050014406,0.5065089301206172,1.0075885301921517,414.35392530006357,414.45395590015687,414.35392530006357,414.45395590015687,414.45395590015687,None,m,1,0.8817764997947961,414.45395590015687,None,,,,,,,p21,2022_Apr_28_1438,training+cueing,2021.1.4,59.92796664952425,
Self.png,You,Self ,c,1,11,21,91,,,,,0,0,0,0,,,,,9,8,116,0,,,,,,,,,,,,,,,,,,,,,1.711,1.726,415.4640808000695,None,,,,,,,,,,,,,,,,,,,,416.0015935001429,416.50547970016487,0.5078050300944597,1.0080635300837457,416.4888577000238,416.58887420012616,416.4888577000238,416.58887420012616,416.58887420012616,None,c,1,0.42675040010362864,416.58887420012616,None,,,,,,,p21,2022_Apr_28_1438,training+cueing,2021.1.4,59.92796664952425,
Friend.png,Stranger,Friend,m,3.2,19,29,99,,,,,0,0,0,0,,,,,9,9,117,5,,,,,,,,,,,,,,,,,,,,,1.795,1.808,417.1456697001122,None,,,,,,,,,,,,,,,,,,,,417.68745409999974,418.19007600005716,0.5053582300897688,1.0056624300777912,418.1733440000098,418.29007740016095,418.1733440000098,418.29007740016095,418.27337990002707,None,m,1,0.9661981000099331,418.27337990002707,None,,,,,,,p21,2022_Apr_28_1438,training+cueing,2021.1.4,59.92796664952425,
Friend.png,Friend,Friend,c,2,12,22,92,,,,,0,0,0,0,,,,,9,10,118,10,,,,,,,,,,,,,,,,,,,,,1.429,1.934,419.3640540000051,None,,,,,,,,,,,,,,,,,,,,419.9037013000343,420.4083523999434,0.5063191298395395,1.0066524299327284,420.39158789999783,420.5084141001571,420.39158789999783,420.5084141001571,420.49167000013404,None,c,1,0.6678816999774426,420.49167000013404,None,,,,,,,p21,2022_Apr_28_1438,training+cueing,2021.1.4,59.92796664952425,
Self.png,Stranger,Self ,m,3.1,18,28,98,,,,,0,0,0,0,,,,,9,11,119,2,,,,,,,,,,,,,,,,,,,,,1.706,2.488,421.2821144000627,None,,,,,,,,,,,,,,,,,,,,421.8225865000859,422.3263294000644,0.5076070299837738,1.0078807300888002,422.30972380004823,422.4264024000149,422.30972380004823,422.4264024000149,422.4097566001583,None,m,1,0.6858761000912637,422.4097566001583,None,,,,,,,p21,2022_Apr_28_1438,training+cueing,2021.1.4,59.92796664952425,
,,,,,,,,,,,,0,0,0,0,,,,,,,,,,,,,,,,,,,,,,,,,,,,,,,,,,,,,,,,,,,,,,,,,,,,,,,,,,,,,,,,,,,0.0005169699434190989,None,,,,,p21,2022_Apr_28_1438,training+cueing,2021.1.4,59.92796664952425,
Friend.png,Friend,Friend,c,2,12,22,92,,,,,1,0,1,0,0,0,0,10,,,,,,,,,,,,,,,,,423.74483050010167,None,space,3.606821099994704,2.013350309804082,None,429.3668843000196,None,1.739,2.381,432.3747555001173,None,432.9136098001618,433.417755600065,433.40104930009693,433.51779199996963,433.40104930009693,433.51779199996963,433.5010645999573,None,c,1,0.8104320000857115,433.5010645999573,None,434.3350855000317,None,,,,,,,,,,,,,,,,,,,,,,,,,,p21,2022_Apr_28_1438,training+cueing,2021.1.4,59.92796664952425,
Self.png,You,Self ,c,1,11,21,91,,,,,1,0,1,0,0,1,1,0,,,,,,,,,,,,,,,,,,,,,,,,,1.441,1.927,434.73528300016187,None,435.26557489996776,435.7693672000896,435.75277699995786,435.85277530015446,435.75277699995786,435.85277530015446,435.85277530015446,None,c,1,0.4109877001028508,435.85277530015446,None,436.2887246001046,None,,,,,,,,,,,,,,,,,,,,,,,,,,p21,2022_Apr_28_1438,training+cueing,2021.1.4,59.92796664952425,
Stranger.png,Stranger,Stranger,c,3,13,23,93,,,,,1,0,1,0,0,2,2,11,,,,,,,,,,,,,,,,,,,,,,,,,1.45,2.449,436.7036860000808,None,437.2445176001638,437.75414990005083,437.73751560016535,437.8544880000409,437.73751560016535,437.8544880000409,437.83767190016806,None,c,1,0.5698233000002801,437.83767190016806,None,438.4380121000577,None,,,,,,,,,,,,,,,,,,,,,,,,,,p21,2022_Apr_28_1438,training+cueing,2021.1.4,59.92796664952425,
Self.png,Friend,Self ,m,2.1,16,26,96,,,,,1,0,1,0,0,3,3,1,,,,,,,,,,,,,,,,,,,,,,,,,1.72,2.332,438.8382564999629,None,439.3686194999609,439.87254850007594,439.85577090014704,439.97239300003275,439.85577090014704,439.97239300003275,439.95572660001926,None,m,1,0.6920605001505464,439.95572660001926,None,440.672427700134,None,,,,,,,,,,,,,,,,,,,,,,,,,,p21,2022_Apr_28_1438,training+cueing,2021.1.4,59.92796664952425,
Stranger.png,Stranger,Stranger,c,3,13,23,93,,,,,1,0,1,0,0,4,4,8,,,,,,,,,,,,,,,,,,,,,,,,,1.48,2.442,441.07340670004487,None,441.61633340013213,442.12403089995496,442.1073406001087,442.22405280009843,442.1073406001087,442.22405280009843,442.207388299983,None,c,1,0.5360956001095474,442.207388299983,None,442.77451270003803,None,,,,,,,,,,,,,,,,,,,,,,,,,,p21,2022_Apr_28_1438,training+cueing,2021.1.4,59.92796664952425,
Stranger.png,Friend,Stranger,m,2.3,17,27,97,,,,,1,0,1,0,0,5,5,7,,,,,,,,,,,,,,,,,,,,,,,,,1.501,2.048,443.17481670016423,None,443.706007800065,444.2088157001417,444.19214150006883,444.30886840005405,444.19214150006883,444.30886840005405,444.29215910006315,None,m,1,0.819310300052166,444.29215910006315,None,445.1428412999958,None,,,,,,,,,,,,,,,,,,,,,,,,,,p21,2022_Apr_28_1438,training+cueing,2021.1.4,59.92796664952425,
Friend.png,Friend,Friend,c,2,12,22,92,,,,,1,0,1,0,0,6,6,4,,,,,,,,,,,,,,,,,,,,,,,,,1.505,1.733,445.5443180000875,None,446.08635440003127,446.5938636001665,446.57718700007536,446.69392740004696,446.57718700007536,446.69392740004696,446.67722379998304,None,c,1,0.5782598999794573,446.67722379998304,None,447.27768780011684,None,,,,,,,,,,,,,,,,,,,,,,,,,,p21,2022_Apr_28_1438,training+cueing,2021.1.4,59.92796664952425,
Stranger.png,You,Stranger,m,1.3,15,25,95,,,,,1,0,1,0,0,7,7,6,,,,,,,,,,,,,,,,,,,,,,,,,1.411,1.314,447.6787714001257,None,448.2192528001033,448.72893260000274,448.71205620002,448.8121824001428,448.71205620002,448.8121824001428,448.8121824001428,None,m,1,0.6033397999126464,448.8121824001428,None,449.4461074999999,None,,,,,,,,,,,,,,,,,,,,,,,,,,p21,2022_Apr_28_1438,training+cueing,2021.1.4,59.92796664952425,
Friend.png,Stranger,Friend,m,3.2,19,29,99,,,,,1,0,1,0,0,8,8,5,,,,,,,,,,,,,,,,,,,,,,,,,1.432,2.484,449.8463467999827,None,450.38212339999154,450.8970226000529,450.8803078001365,450.99705120013095,450.8803078001365,450.99705120013095,450.9802954001352,None,m,1,1.059119899990037,450.9802954001352,None,452.06452620006166,None,,,,,,,,,,,,,,,,,,,,,,,,,,p21,2022_Apr_28_1438,training+cueing,2021.1.4,59.92796664952425,
Friend.png,You,Friend,m,1.2,14,24,94,,,,,1,0,1,0,0,9,9,3,,,,,,,,,,,,,,,,,,,,,,,,,1.663,1.99,452.4649394999724,None,452.99990110006183,453.51555550005287,453.4989249999635,453.59894459997304,453.4989249999635,453.59894459997304,453.59894459997304,None,m,1,0.520528299966827,453.59894459997304,None,454.14935530000366,None,,,,,,,,,,,,,,,,,,,,,,,,,,p21,2022_Apr_28_1438,training+cueing,2021.1.4,59.92796664952425,
Self.png,You,Self ,c,1,11,21,91,,,,,1,0,1,0,0,10,10,9,,,,,,,,,,,,,,,,,,,,,,,,,1.476,2.43,454.549781100126,None,455.08779740007594,455.60039909998886,455.5837254000362,455.6837394000031,455.5837254000362,455.6837394000031,455.6837394000031,None,c,1,0.4516495999414474,455.6837394000031,None,456.1508574001491,None,,,,,,,,,,,,,,,,,,,,,,,,,,p21,2022_Apr_28_1438,training+cueing,2021.1.4,59.92796664952425,
Self.png,Stranger,Self ,m,3.1,18,28,98,,,,,1,0,1,0,0,11,11,2,,,,,,,,,,,,,,,,,,,,,,,,,1.683,1.272,456.5512359000277,None,457.0852608999703,457.58532140008174,457.58532140008174,457.6854350999929,457.58532140008174,457.6854350999929,457.6854350999929,None,m,1,0.8020741001237184,457.6854350999929,None,458.50098410015926,None,,,,,,,,,,,,,,,,,,,,,,,,,,p21,2022_Apr_28_1438,training+cueing,2021.1.4,59.92796664952425,
Stranger.png,You,Stranger,m,1.3,15,25,95,,,,,1,0,1,0,,,,,0,0,0,6,,,,,,,,,,,,,,,,,,,461.9884401001036,None,1.615,1.256,465.5032057999633,None,,,,,,,,,,,,,,,,458.90291720000096,None,0.01469001010991633,None,466.02006700006314,466.52494790009223,0.5096606300212443,1.0099507300183177,466.5082799999509,466.60828540008515,466.5082799999509,466.60828540008515,466.60828540008515,None,m,1,0.5352189999539405,466.60828540008515,None,,,,,,,p21,2022_Apr_28_1438,training+cueing,2021.1.4,59.92796664952425,
Stranger.png,Stranger,Stranger,c,3,13,23,93,,,,,1,0,1,0,,,,,0,1,1,8,,,,,,,,,,,,,,,,,,,,,1.787,2.373,467.28310830006376,None,,,,,,,,,,,,,,,,,,,,467.8464586001355,468.3601697999984,0.5095976402517408,1.0097909402102232,468.34341490012594,468.46018060017377,468.34341490012594,468.46018060017377,468.44336990010925,None,c,1,0.7160267999861389,468.44336990010925,None,,,,,,,p21,2022_Apr_28_1438,training+cueing,2021.1.4,59.92796664952425,
Stranger.png,Friend,Stranger,m,2.3,17,27,97,,,,,1,0,1,0,,,,,0,2,2,7,,,,,,,,,,,,,,,,,,,,,1.611,2.329,469.28393320017494,None,,,,,,,,,,,,,,,,,,,,469.8259849001188,470.3277186001651,0.502199930138886,1.0025041301269084,470.3109997001011,470.4277691000607,470.3109997001011,470.4277691000607,470.4110487001017,None,m,1,0.7003504000604153,470.4110487001017,None,,,,,,,p21,2022_Apr_28_1438,training+cueing,2021.1.4,59.92796664952425,
Self.png,You,Self ,c,1,11,21,91,,,,,1,0,1,0,,,,,0,3,3,0,,,,,,,,,,,,,,,,,,,,,1.71,1.43,471.2348689001519,None,,,,,,,,,,,,,,,,,,,,471.77741840016097,472.2792685001623,0.5042377300560474,1.0045332300942391,472.26241820002906,472.362451300025,472.26241820002906,472.362451300025,472.362451300025,None,c,1,0.4130830999929458,472.362451300025,None,,,,,,,p21,2022_Apr_28_1438,training+cueing,2021.1.4,59.92796664952425,
Friend.png,Friend,Friend,c,2,12,22,92,,,,,1,0,1,0,,,,,0,4,4,4,,,,,,,,,,,,,,,,,,,,,1.71,1.49,472.9030431001447,None,,,,,,,,,,,,,,,,,,,,473.4618349999655,473.96375899994746,0.5034394401591271,1.0036873400676996,473.9471477000043,474.0638622001279,473.9471477000043,474.0638622001279,474.04715250013396,None,c,1,0.6323092000093311,474.04715250013396,None,,,,,,,p21,2022_Apr_28_1438,training+cueing,2021.1.4,59.92796664952425,
Self.png,Stranger,Self ,m,3.1,18,28,98,,,,,1,0,1,0,,,,,0,5,5,2,,,,,,,,,,,,,,,,,,,,,1.742,2.132,474.8047194001265,None,,,,,,,,,,,,,,,,,,,,475.346580500016,475.8483623000793,0.5038615299854428,1.0041596300434321,475.8316613000352,475.9484113000799,475.8316613000352,475.9484113000799,475.9316746001132,None,m,1,0.6997705001849681,475.9316746001132,None,,,,,,,p21,2022_Apr_28_1438,training+cueing,2021.1.4,59.92796664952425,
Friend.png,Stranger,Friend,m,3.2,19,29,99,,,,,1,0,1,0,,,,,0,6,6,5,,,,,,,,,,,,,,,,,,,,,1.651,2.331,476.75561630004086,None,,,,,,,,,,,,,,,,,,,,477.31270250002854,477.8164862000849,0.5079920401331037,1.0090263402089477,477.7998154000379,477.9165054000914,477.7998154000379,477.9165054000914,477.8997844001278,None,m,1,1.2277194000780582,477.8997844001278,None,,,,,,,p21,2022_Apr_28_1438,training+cueing,2021.1.4,59.92796664952425,
Self.png,You,Self ,c,1,11,21,91,,,,,1,0,1,0,,,,,0,7,7,9,,,,,,,,,,,,,,,,,,,,,1.72,2.314,479.25823720009066,None,,,,,,,,,,,,,,,,,,,,479.80031409999356,480.30148539994843,0.5001699300482869,1.000481229973957,480.2848968000617,480.38494330015965,480.2848968000617,480.38494330015965,480.38494330015965,None,c,1,0.438479500124231,480.38494330015965,None,,,,,,,p21,2022_Apr_28_1438,training+cueing,2021.1.4,59.92796664952425,
Self.png,Friend,Self ,m,2.1,16,26,96,,,,,1,0,1,0,,,,,0,8,8,1,,,,,,,,,,,,,,,,,,,,,1.586,1.759,480.9584623000119,None,,,,,,,,,,,,,,,,,,,,481.5148633001372,482.0197113000322,0.50851314002648,1.0087485401891172,482.0031284999568,482.11972910002805,482.0031284999568,482.11972910002805,482.10323740006424,None,m,1,0.848089599981904,482.10323740006424,None,,,,,,,p21,2022_Apr_28_1438,training+cueing,2021.1.4,59.92796664952425,
Friend.png,You,Friend,m,1.2,14,24,94,,,,,1,0,1,0,,,,,0,9,9,3,,,,,,,,,,,,,,,,,,,,,1.651,2.411,483.076811700128,None,,,,,,,,,,,,,,,,,,,,483.6258021001704,484.1376368000638,0.5065517302136868,1.006802230142057,484.1210135000292,484.2210363999475,484.1210135000292,484.2210363999475,484.2210363999475,None,m,1,0.7144356002099812,484.2210363999475,None,,,,,,,p21,2022_Apr_28_1438,training+cueing,2021.1.4,59.92796664952425,
Friend.png,Friend,Friend,c,2,12,22,92,,,,,1,0,1,0,,,,,0,10,10,10,,,,,,,,,,,,,,,,,,,,,1.794,1.587,485.06071910005994,None,,,,,,,,,,,,,,,,,,,,485.6027951000724,486.1057249000296,0.5036127301864326,1.0042776300106198,486.0891025001183,486.2057775000576,486.0891025001183,486.2057775000576,486.189119100105,None,c,1,0.8742764999624342,486.189119100105,None,,,,,,,p21,2022_Apr_28_1438,training+cueing,2021.1.4,59.92796664952425,
Stranger.png,Stranger,Stranger,c,3,13,23,93,,,,,1,0,1,0,,,,,0,11,11,11,,,,,,,,,,,,,,,,,,,,,1.47,2.201,487.1971169000026,None,,,,,,,,,,,,,,,,,,,,487.7387545001693,488.240603600163,0.5033661301713437,1.0045116301625967,488.22388900001533,488.3406863999553,488.22388900001533,488.3406863999553,488.32397960009985,None,c,1,0.38775999983772635,488.32397960009985,None,,,,,,,p21,2022_Apr_28_1438,training+cueing,2021.1.4,59.92796664952425,
Self.png,Friend,Self ,m,2.1,16,26,96,,,,,1,0,1,0,,,,,1,0,12,1,,,,,,,,,,,,,,,,,,,,,1.682,2.431,488.8495714000892,None,,,,,,,,,,,,,,,,,,,,489.3939491000492,489.9086391001474,0.5096783300396055,1.0099744298495352,489.89196819998324,490.00869720010087,489.89196819998324,490.00869720010087,489.99196820007637,None,m,1,0.5596324000507593,489.99196820007637,None,,,,,,,p21,2022_Apr_28_1438,training+cueing,2021.1.4,59.92796664952425,
Self.png,Stranger,Self ,m,3.1,18,28,98,,,,,1,0,1,0,,,,,1,1,13,2,,,,,,,,,,,,,,,,,,,,,1.672,2.275,490.68319829995744,None,,,,,,,,,,,,,,,,,,,,491.23942030011676,491.74315250013024,0.5079667398240417,1.0082422399427742,491.7264779000543,491.8432215000503,491.7264779000543,491.8432215000503,491.8264901000075,None,c,0,0.7088860999792814,491.8264901000075,None,,,,,,,p21,2022_Apr_28_1438,training+cueing,2021.1.4,59.92796664952425,
Friend.png,Stranger,Friend,m,3.2,19,29,99,,,,,1,0,1,0,,,,,1,2,14,5,,,,,,,,,,,,,,,,,,,,,1.593,1.992,492.66615439997986,None,,,,,,,,,,,,,,,,,,,,493.20654210005887,493.7112281001173,0.5096668300684541,1.0107125299982727,493.6946090001147,493.8112669000402,493.6946090001147,493.8112669000402,493.7946067000739,None,m,1,0.7089951999951154,493.7946067000739,None,,,,,,,p21,2022_Apr_28_1438,training+cueing,2021.1.4,59.92796664952425,
Friend.png,Friend,Friend,c,2,12,22,92,,,,,1,0,1,0,,,,,1,3,15,4,,,,,,,,,,,,,,,,,,,,,1.77,2.13,494.6384294000454,None,,,,,,,,,,,,,,,,,,,,495.17883000010625,495.6792983999476,0.5151005301158875,1.0159974300768226,495.6792983999476,495.7793455000501,495.6792983999476,495.7793455000501,495.7793455000501,None,c,1,0.7881219999399036,495.7793455000501,None,,,,,,,p21,2022_Apr_28_1438,training+cueing,2021.1.4,59.92796664952425,
Friend.png,You,Friend,m,1.2,14,24,94,,,,,1,0,1,0,,,,,1,4,16,3,,,,,,,,,,,,,,,,,,,,,1.781,1.528,496.704025400104,None,,,,,,,,,,,,,,,,,,,,497.26062469999306,497.76431010011584,0.5079524398315698,1.0090523399412632,497.7475372001063,497.8476108999457,497.7475372001063,497.8476108999457,497.8476108999457,None,m,1,0.7358520000707358,497.8476108999457,None,,,,,,,p21,2022_Apr_28_1438,training+cueing,2021.1.4,59.92796664952425,
Stranger.png,Stranger,Stranger,c,3,13,23,93,,,,,1,0,1,0,,,,,1,5,17,8,,,,,,,,,,,,,,,,,,,,,1.437,2.463,498.72238419996575,None,,,,,,,,,,,,,,,,,,,,499.26609140005894,499.7656203000806,0.49930793000385165,1.0002904299180955,499.7489669001661,499.8656805001665,499.7489669001661,499.8656805001665,499.8656805001665,None,c,1,0.49400670011527836,499.8656805001665,None,,,,,,,p21,2022_Apr_28_1438,training+cueing,2021.1.4,59.92796664952425,
Stranger.png,You,Stranger,m,1.3,15,25,95,,,,,1,0,1,0,,,,,1,6,18,6,,,,,,,,,,,,,,,,,,,,,1.637,1.878,500.49326320015825,None,,,,,,,,,,,,,,,,,,,,501.03291120007634,501.5336063001305,0.5006160300690681,1.0008581299334764,501.51692570000887,501.6169125000015,501.51692570000887,501.6169125000015,501.6169125000015,None,m,1,0.5983672000002116,501.6169125000015,None,,,,,,,p21,2022_Apr_28_1438,training+cueing,2021.1.4,59.92796664952425,
Stranger.png,Friend,Stranger,m,2.3,17,27,97,,,,,1,0,1,0,,,,,1,7,19,7,,,,,,,,,,,,,,,,,,,,,1.641,2.209,502.33987390017137,None,,,,,,,,,,,,,,,,,,,,502.8811968001537,503.38491809996776,0.5072137298993766,1.0082307299599051,503.3682220999617,503.4849755000323,503.3682220999617,503.4849755000323,503.46828320017084,None,m,1,0.651245400076732,503.46828320017084,None,,,,,,,p21,2022_Apr_28_1438,training+cueing,2021.1.4,59.92796664952425,
Stranger.png,Stranger,Stranger,c,3,13,23,93,,,,,1,0,1,0,,,,,1,8,20,11,,,,,,,,,,,,,,,,,,,,,1.561,1.356,504.2430126001127,None,,,,,,,,,,,,,,,,,,,,504.7858800000977,505.2862603000831,0.4996315299067646,0.9999096300452948,505.26958240009844,505.38628970016725,505.26958240009844,505.38628970016725,505.38628970016725,None,c,1,0.6050966999027878,505.38628970016725,None,,,,,,,p21,2022_Apr_28_1438,training+cueing,2021.1.4,59.92796664952425,
Self.png,You,Self ,c,1,11,21,91,,,,,1,0,1,0,,,,,1,9,21,0,,,,,,,,,,,,,,,,,,,,,1.729,1.961,506.1267667999491,None,,,,,,,,,,,,,,,,,,,,506.68390750000253,507.1875843000598,0.5061910401564091,1.0064742402173579,507.17100550001487,507.2710225000046,507.17100550001487,507.2710225000046,507.2710225000046,None,c,1,0.6723946998827159,507.2710225000046,None,,,,,,,p21,2022_Apr_28_1438,training+cueing,2021.1.4,59.92796664952425,
Self.png,You,Self ,c,1,11,21,91,,,,,1,0,1,0,,,,,1,10,22,9,,,,,,,,,,,,,,,,,,,,,1.491,1.523,508.07792249997146,None,,,,,,,,,,,,,,,,,,,,508.6170163000934,509.1223937999457,0.5094479299150407,1.0099509300198406,509.1056799001526,509.2056877000723,509.1056799001526,509.2056877000723,509.2056877000723,None,c,1,0.5617627000901848,509.2056877000723,None,,,,,,,p21,2022_Apr_28_1438,training+cueing,2021.1.4,59.92796664952425,
Friend.png,Friend,Friend,c,2,12,22,92,,,,,1,0,1,0,,,,,1,11,23,10,,,,,,,,,,,,,,,,,,,,,1.618,1.905,509.89619240001775,None,,,,,,,,,,,,,,,,,,,,510.4371826001443,510.940475899959,0.5030917301774025,1.0033926302567124,510.92364920000546,511.04041610006243,510.92364920000546,511.04041610006243,511.0236722000409,None,c,1,0.7117111999541521,511.0236722000409,None,,,,,,,p21,2022_Apr_28_1438,training+cueing,2021.1.4,59.92796664952425,
Friend.png,Friend,Friend,c,2,12,22,92,,,,,1,0,1,0,,,,,2,0,24,10,,,,,,,,,,,,,,,,,,,,,1.771,1.959,511.8634793001693,None,,,,,,,,,,,,,,,,,,,,512.416888399981,512.9251057000365,0.50061823008582,1.0016818300355226,512.9085077999625,513.0251738999505,512.9085077999625,513.0251738999505,513.0251738999505,None,c,1,0.6303193001076579,513.0251738999505,None,,,,,,,p21,2022_Apr_28_1438,training+cueing,2021.1.4,59.92796664952425,
Stranger.png,Stranger,Stranger,c,3,13,23,93,,,,,1,0,1,0,,,,,2,1,25,11,,,,,,,,,,,,,,,,,,,,,1.669,1.905,513.7834085000213,None,,,,,,,,,,,,,,,,,,,,514.326557100052,514.8265460000839,0.49961713002994657,0.9999601298477501,514.8098365000915,514.9266496000346,514.8098365000915,514.9266496000346,514.9266496000346,None,c,1,0.6008287000004202,514.9266496000346,None,,,,,,,p21,2022_Apr_28_1438,training+cueing,2021.1.4,59.92796664952425,
Stranger.png,You,Stranger,m,1.3,15,25,95,,,,,1,0,1,0,,,,,2,2,26,6,,,,,,,,,,,,,,,,,,,,,1.46,1.718,515.6509193000384,None,,,,,,,,,,,,,,,,,,,,516.191035100026,516.6945192001294,0.5057091298513114,1.0061541297473013,516.6778683001176,516.7778776001651,516.6778683001176,516.7778776001651,516.7778776001651,None,m,1,0.6535666999407113,516.7778776001651,None,,,,,,,p21,2022_Apr_28_1438,training+cueing,2021.1.4,59.92796664952425,
Self.png,Friend,Self ,m,2.1,16,26,96,,,,,1,0,1,0,,,,,2,3,27,1,,,,,,,,,,,,,,,,,,,,,1.494,1.662,517.5680478999857,None,,,,,,,,,,,,,,,,,,,,518.1336525001097,518.6460782000795,0.5079804400447756,1.0082622398622334,518.6294432000723,518.7460811000783,518.6294432000723,518.7460811000783,518.7294503999874,None,m,1,0.686051300028339,518.7294503999874,None,,,,,,,p21,2022_Apr_28_1438,training+cueing,2021.1.4,59.92796664952425,
Friend.png,Friend,Friend,c,2,12,22,92,,,,,1,0,1,0,,,,,2,4,28,4,,,,,,,,,,,,,,,,,,,,,1.68,1.394,519.5540885999799,None,,,,,,,,,,,,,,,,,,,,520.1074898000807,520.6140914000571,0.5108231401536614,1.0111222402192652,520.5974719000515,520.7141406000592,520.5974719000515,520.7141406000592,520.6974917000625,None,c,1,0.7019742000848055,520.6974917000625,None,,,,,,,p21,2022_Apr_28_1438,training+cueing,2021.1.4,59.92796664952425,
Stranger.png,Friend,Stranger,m,2.3,17,27,97,,,,,1,0,1,0,,,,,2,5,29,7,,,,,,,,,,,,,,,,,,,,,1.497,2.449,521.5213051999453,None,,,,,,,,,,,,,,,,,,,,522.0611811999697,522.5654146000743,0.5083072299603373,1.008606829913333,522.5487828000914,522.6654272000305,522.5487828000914,522.6654272000305,522.6487869999837,None,m,1,0.7505005998536944,522.6487869999837,None,,,,,,,p21,2022_Apr_28_1438,training+cueing,2021.1.4,59.92796664952425,
Stranger.png,Stranger,Stranger,c,3,13,23,93,,,,,1,0,1,0,,,,,2,6,30,8,,,,,,,,,,,,,,,,,,,,,1.711,1.323,523.5219938999508,None,,,,,,,,,,,,,,,,,,,,524.0648368000984,524.5668854999822,0.5046702302061021,1.0057530300691724,524.5501908001024,524.6669056999963,524.5501908001024,524.6669056999963,524.6502068000846,None,c,1,0.6211325000040233,524.6502068000846,None,,,,,,,p21,2022_Apr_28_1438,training+cueing,2021.1.4,59.92796664952425,
Self.png,You,Self ,c,1,11,21,91,,,,,1,0,1,0,,,,,2,7,31,9,,,,,,,,,,,,,,,,,,,,,1.795,1.692,525.4068337001372,None,,,,,,,,,,,,,,,,,,,,525.9472708001267,526.4515520001296,0.5061214298475534,1.0064854298252612,526.4348500000779,526.5348988000769,526.4348500000779,526.5348988000769,526.5348988000769,None,c,1,0.40060349996201694,526.5348988000769,None,,,,,,,p21,2022_Apr_28_1438,training+cueing,2021.1.4,59.92796664952425,
Friend.png,You,Friend,m,1.2,14,24,94,,,,,1,0,1,0,,,,,2,8,32,3,,,,,,,,,,,,,,,,,,,,,1.692,1.824,527.057984800078,None,,,,,,,,,,,,,,,,,,,,527.604113599984,528.1194400000386,0.5136902299709618,1.014202930033207,528.1027492000721,528.202772699995,528.1027492000721,528.202772699995,528.202772699995,None,m,1,0.6205261000432074,528.202772699995,None,,,,,,,p21,2022_Apr_28_1438,training+cueing,2021.1.4,59.92796664952425,
Self.png,You,Self ,c,1,11,21,91,,,,,1,0,1,0,,,,,2,9,33,0,,,,,,,,,,,,,,,,,,,,,1.782,1.761,528.959200900048,None,,,,,,,,,,,,,,,,,,,,529.4979212000035,530.0040994000155,0.5121408300474286,1.0126886300276965,529.9874778999947,530.0875171001535,529.9874778999947,530.0875171001535,530.0875171001535,None,c,1,0.52783969999291,530.0875171001535,None,,,,,,,p21,2022_Apr_28_1438,training+cueing,2021.1.4,59.92796664952425,
Friend.png,Stranger,Friend,m,3.2,19,29,99,,,,,1,0,1,0,,,,,2,10,34,5,,,,,,,,,,,,,,,,,,,,,1.639,1.347,530.7445976000745,None,,,,,,,,,,,,,,,,,,,,531.3010720000602,531.8056111000478,0.5070442401338369,1.0073535402771086,531.788768999977,531.905501200119,531.788768999977,531.905501200119,531.8887645001523,None,m,1,0.7265854999423027,531.8887645001523,None,,,,,,,p21,2022_Apr_28_1438,training+cueing,2021.1.4,59.92796664952425,
Self.png,Stranger,Self ,m,3.1,18,28,98,,,,,1,0,1,0,,,,,2,11,35,2,,,,,,,,,,,,,,,,,,,,,1.433,1.715,532.7455327999778,None,,,,,,,,,,,,,,,,,,,,533.2842089999467,533.7902037999593,0.5126839301083237,1.0133711299858987,533.7735274001025,533.8902195000555,533.7735274001025,533.8902195000555,533.8735402000602,None,m,1,0.757852999959141,533.8735402000602,None,,,,,,,p21,2022_Apr_28_1438,training+cueing,2021.1.4,59.92796664952425,
Friend.png,You,Friend,m,1.2,14,24,94,,,,,1,0,1,0,,,,,3,0,36,3,,,,,,,,,,,,,,,,,,,,,1.671,2.41,534.7650852000806,None,,,,,,,,,,,,,,,,,,,,535.3047950000037,535.8083355000708,0.5044918300118297,1.0048003299161792,535.7916464000009,535.8916778001003,535.7916464000009,535.8916778001003,535.8916778001003,None,m,1,0.7236178000457585,535.8916778001003,None,,,,,,,p21,2022_Apr_28_1438,training+cueing,2021.1.4,59.92796664952425,
Friend.png,Stranger,Friend,m,3.2,19,29,99,,,,,1,0,1,0,,,,,3,1,37,5,,,,,,,,,,,,,,,,,,,,,1.486,1.433,536.7490024999715,None,,,,,,,,,,,,,,,,,,,,537.3064638001379,537.8098129001446,0.5080083401408046,1.0082999400328845,537.7931305000093,537.9098185000475,537.7931305000093,537.9098185000475,537.8931239000522,None,m,1,0.8023248000536114,537.8931239000522,None,,,,,,,p21,2022_Apr_28_1438,training+cueing,2021.1.4,59.92796664952425,
Self.png,You,Self ,c,1,11,21,91,,,,,1,0,1,0,,,,,3,2,38,9,,,,,,,,,,,,,,,,,,,,,1.745,1.444,538.8175238999538,None,,,,,,,,,,,,,,,,,,,,539.3574264000636,539.8613897999749,0.5078482299577445,1.0081185300368816,539.8447778001428,539.9449696999509,539.8447778001428,539.9449696999509,539.9449696999509,None,c,1,0.5104319001547992,539.9449696999509,None,,,,,,,p21,2022_Apr_28_1438,training+cueing,2021.1.4,59.92796664952425,
Stranger.png,Stranger,Stranger,c,3,13,23,93,,,,,1,0,1,0,,,,,3,3,39,8,,,,,,,,,,,,,,,,,,,,,1.652,1.99,540.5858793000225,None,,,,,,,,,,,,,,,,,,,,541.1273380999919,541.6291739000008,0.501347630051896,1.001642530085519,541.6125470001716,541.729210200021,541.6125470001716,541.729210200021,541.729210200021,None,c,1,0.47009470011107624,541.729210200021,None,,,,,,,p21,2022_Apr_28_1438,training+cueing,2021.1.4,59.92796664952425,
Stranger.png,You,Stranger,m,1.3,15,25,95,,,,,1,0,1,0,,,,,3,4,40,6,,,,,,,,,,,,,,,,,,,,,1.412,1.972,542.3356628001202,None,,,,,,,,,,,,,,,,,,,,542.8804962001741,543.3804799001664,0.5004976300988346,1.000808130018413,543.363732600119,543.4638624000363,543.363732600119,543.4638624000363,543.4638624000363,None,m,1,0.6074823997914791,543.4638624000363,None,,,,,,,p21,2022_Apr_28_1438,training+cueing,2021.1.4,59.92796664952425,
Friend.png,Friend,Friend,c,2,12,22,92,,,,,1,0,1,0,,,,,3,5,41,10,,,,,,,,,,,,,,,,,,,,,1.541,2.014,544.2043546000496,None,,,,,,,,,,,,,,,,,,,,544.7556420001201,545.2651121001691,0.5021449301857501,1.0024796300567687,545.248503100127,545.3652554999571,545.248503100127,545.3652554999571,545.3489817001391,None,c,1,0.8023415999487042,545.3489817001391,None,,,,,,,p21,2022_Apr_28_1438,training+cueing,2021.1.4,59.92796664952425,
Friend.png,Friend,Friend,c,2,12,22,92,,,,,1,0,1,0,,,,,3,6,42,4,,,,,,,,,,,,,,,,,,,,,1.544,2.494,546.2886047000065,None,,,,,,,,,,,,,,,,,,,,546.8256538000423,547.3333183999639,0.5130051299929619,1.0133553298655897,547.3166346000507,547.433355800109,547.3166346000507,547.433355800109,547.4166372001637,None,c,1,0.47866169991903007,547.4166372001637,None,,,,,,,p21,2022_Apr_28_1438,training+cueing,2021.1.4,59.92796664952425,
Self.png,You,Self ,c,1,11,21,91,,,,,1,0,1,0,,,,,3,7,43,0,,,,,,,,,,,,,,,,,,,,,1.58,2.253,548.0234018000774,None,,,,,,,,,,,,,,,,,,,,548.5799565999769,549.0845676001627,0.5088491400238127,1.0091077401302755,549.0679550000932,549.1679577000905,549.0679550000932,549.1679577000905,549.1679577000905,None,c,1,0.4873889998998493,549.1679577000905,None,,,,,,,p21,2022_Apr_28_1438,training+cueing,2021.1.4,59.92796664952425,
Self.png,Friend,Self ,m,2.1,16,26,96,,,,,1,0,1,0,,,,,3,8,44,1,,,,,,,,,,,,,,,,,,,,,1.726,1.235,549.7916364001576,None,,,,,,,,,,,,,,,,,,,,550.3326062001288,550.8358778001275,0.505133830010891,1.0054299298208207,550.8191816001199,550.9359361999668,550.8191816001199,550.9359361999668,550.9192013000138,None,m,1,1.0081517999060452,550.9192013000138,None,,,,,,,p21,2022_Apr_28_1438,training+cueing,2021.1.4,59.92796664952425,
Self.png,Stranger,Self ,m,3.1,18,28,98,,,,,1,0,1,0,,,,,3,9,45,2,,,,,,,,,,,,,,,,,,,,,1.567,1.982,552.0589252000209,None,,,,,,,,,,,,,,,,,,,,552.6017565000802,553.1041737999767,0.5056367299985141,1.005859229946509,553.0875415001065,553.2043590000831,553.0875415001065,553.2043590000831,553.1876346000936,None,m,1,0.7236775998026133,553.1876346000936,None,,,,,,,p21,2022_Apr_28_1438,training+cueing,2021.1.4,59.92796664952425,
Stranger.png,Stranger,Stranger,c,3,13,23,93,,,,,1,0,1,0,,,,,3,10,46,11,,,,,,,,,,,,,,,,,,,,,1.617,2.447,554.0446886999998,None,,,,,,,,,,,,,,,,,,,,554.582499000011,555.0889051000122,0.512501530116424,1.0127506300341338,555.0722519000992,555.1889372000005,555.0722519000992,555.1889372000005,555.1722430000082,None,c,1,0.6430883998982608,555.1722430000082,None,,,,,,,p21,2022_Apr_28_1438,training+cueing,2021.1.4,59.92796664952425,
Stranger.png,Friend,Stranger,m,2.3,17,27,97,,,,,1,0,1,0,,,,,3,11,47,7,,,,,,,,,,,,,,,,,,,,,1.709,1.89,555.9462846000679,None,,,,,,,,,,,,,,,,,,,,556.5012411000207,557.0070021001156,0.5098454398103058,1.010121539933607,556.9903009999543,557.1070062001236,556.9903009999543,557.1070062001236,557.0902973001357,None,m,1,0.6132663998287171,557.0902973001357,None,,,,,,,p21,2022_Apr_28_1438,training+cueing,2021.1.4,59.92796664952425,
Stranger.png,Friend,Stranger,m,2.3,17,27,97,,,,,1,0,1,0,,,,,4,0,48,7,,,,,,,,,,,,,,,,,,,,,1.642,1.942,557.8350275000557,None,,,,,,,,,,,,,,,,,,,,558.3778150000144,558.8916766999755,0.511590929934755,1.011976829962805,558.8749895000365,558.9918323999736,558.8749895000365,558.9918323999736,558.9750986001454,None,m,1,0.600223499815911,558.9750986001454,None,,,,,,,p21,2022_Apr_28_1438,training+cueing,2021.1.4,59.92796664952425,
Stranger.png,Stranger,Stranger,c,3,13,23,93,,,,,1,0,1,0,,,,,4,1,49,11,,,,,,,,,,,,,,,,,,,,,1.431,1.312,559.6991906000767,None,,,,,,,,,,,,,,,,,,,,560.2404669001698,560.7430002000183,0.5055435299873352,1.0058826301246881,560.7262787001673,560.8430513001513,560.7262787001673,560.8430513001513,560.8263187999837,None,m,0,0.6049920001532882,560.8263187999837,None,,,,,,,p21,2022_Apr_28_1438,training+cueing,2021.1.4,59.92796664952425,
Self.png,You,Self ,c,1,11,21,91,,,,,1,0,1,0,,,,,4,2,50,9,,,,,,,,,,,,,,,,,,,,,1.44,2.315,561.5667542000301,None,,,,,,,,,,,,,,,,,,,,562.1368838001508,562.6444868999533,0.504563040100038,1.0048372400924563,562.6278003000189,562.7277852001134,562.6278003000189,562.7277852001134,562.7277852001134,None,c,1,0.5755803999491036,562.7277852001134,None,,,,,,,p21,2022_Apr_28_1438,training+cueing,2021.1.4,59.92796664952425,
Stranger.png,Stranger,Stranger,c,3,13,23,93,,,,,1,0,1,0,,,,,4,3,51,8,,,,,,,,,,,,,,,,,,,,,1.42,1.526,563.4347815001383,None,,,,,,,,,,,,,,,,,,,,563.9766816999763,564.4792027999647,0.5059347299393266,1.0060600298456848,564.4624124001712,564.5790665000677,564.4624124001712,564.5790665000677,564.5623986001592,None,c,1,0.6929540000855923,564.5623986001592,None,,,,,,,p21,2022_Apr_28_1438,training+cueing,2021.1.4,59.92796664952425,
Self.png,Stranger,Self ,m,3.1,18,28,98,,,,,1,0,1,0,,,,,4,4,52,2,,,,,,,,,,,,,,,,,,,,,1.705,1.217,565.3862834000029,None,,,,,,,,,,,,,,,,,,,,565.9335533999838,566.4471092999447,0.5079815299250185,1.008234430104494,566.4304991001263,566.5471536000259,566.4304991001263,566.5471536000259,566.5304883001372,None,m,1,0.5487795998342335,566.5304883001372,None,,,,,,,p21,2022_Apr_28_1438,training+cueing,2021.1.4,59.92796664952425,
Self.png,Friend,Self ,m,2.1,16,26,96,,,,,1,0,1,0,,,,,4,5,53,1,,,,,,,,,,,,,,,,,,,,,1.517,2.216,567.2036516000517,None,,,,,,,,,,,,,,,,,,,,567.7445072000846,568.2486578000244,0.5076877300161868,1.0080110300332308,568.2317524000537,568.3484694000799,568.2317524000537,568.3484694000799,568.3317905000877,None,m,1,0.6035317999776453,568.3317905000877,None,,,,,,,p21,2022_Apr_28_1438,training+cueing,2021.1.4,59.92796664952425,
Self.png,You,Self ,c,1,11,21,91,,,,,1,0,1,0,,,,,4,6,54,0,,,,,,,,,,,,,,,,,,,,,1.737,1.558,569.0726382001303,None,,,,,,,,,,,,,,,,,,,,569.6860521000344,570.1999830000568,0.5111620698589832,1.0114240699913353,570.1833141001407,570.2833481000271,570.1833141001407,570.2833481000271,570.2833481000271,None,c,1,0.5400019001681358,570.2833481000271,None,,,,,,,p21,2022_Apr_28_1438,training+cueing,2021.1.4,59.92796664952425,
Friend.png,You,Friend,m,1.2,14,24,94,,,,,1,0,1,0,,,,,4,7,55,3,,,,,,,,,,,,,,,,,,,,,1.654,1.242,570.9577083000913,None,,,,,,,,,,,,,,,,,,,,571.4955052000005,572.0011142999865,0.5099948300048709,1.01027772994712,571.9844601999503,572.0844767000526,571.9844601999503,572.0844767000526,572.0844767000526,None,m,1,0.7068670000880957,572.0844767000526,None,,,,,,,p21,2022_Apr_28_1438,training+cueing,2021.1.4,59.92796664952425,
Friend.png,Stranger,Friend,m,3.2,19,29,99,,,,,1,0,1,0,,,,,4,8,56,5,,,,,,,,,,,,,,,,,,,,,1.674,1.906,572.9258439999539,None,,,,,,,,,,,,,,,,,,,,573.4667022000067,573.9692433001474,0.5056758301798254,1.0061573300044984,573.9526065001264,574.0692448001355,573.9526065001264,574.0692448001355,574.0525307999924,None,m,1,0.6428771000355482,574.0525307999924,None,,,,,,,p21,2022_Apr_28_1438,training+cueing,2021.1.4,59.92796664952425,
Friend.png,Friend,Friend,c,2,12,22,92,,,,,1,0,1,0,,,,,4,9,57,4,,,,,,,,,,,,,,,,,,,,,1.439,2.063,574.827255200129,None,,,,,,,,,,,,,,,,,,,,575.3703740001656,575.8706112001091,0.5013933300506324,1.00163603015244,575.8539907000959,575.9706151999999,575.8539907000959,575.9706151999999,575.9706151999999,None,c,1,0.516583199845627,575.9706151999999,None,,,,,,,p21,2022_Apr_28_1438,training+cueing,2021.1.4,59.92796664952425,
Stranger.png,You,Stranger,m,1.3,15,25,95,,,,,1,0,1,0,,,,,4,10,58,6,,,,,,,,,,,,,,,,,,,,,1.631,1.855,576.609696800122,None,,,,,,,,,,,,,,,,,,,,577.1496951000299,577.6552478000522,0.5080521302297711,1.0083529301919043,577.6385473001283,577.738602100173,577.6385473001283,577.738602100173,577.738602100173,None,m,1,0.4927527999971062,577.738602100173,None,,,,,,,p21,2022_Apr_28_1438,training+cueing,2021.1.4,59.92796664952425,
Friend.png,Friend,Friend,c,2,12,22,92,,,,,1,0,1,0,,,,,4,11,59,10,,,,,,,,,,,,,,,,,,,,,1.41,1.205,578.3624911000952,None,,,,,,,,,,,,,,,,,,,,578.9088499001227,579.4231841000728,0.5123316301032901,1.0125346300192177,579.4065515000839,579.523235199973,579.4065515000839,579.523235199973,579.5064960001037,None,c,1,0.6448041000403464,579.5064960001037,None,,,,,,,p21,2022_Apr_28_1438,training+cueing,2021.1.4,59.92796664952425,
Friend.png,Friend,Friend,c,2,12,22,92,,,,,1,0,1,0,,,,,5,0,60,10,,,,,,,,,,,,,,,,,,,,,1.688,1.328,580.2809192000423,None,,,,,,,,,,,,,,,,,,,,580.8186145999935,581.3245413000695,0.5099769299849868,1.010439429897815,581.307858900167,581.4246009001508,581.307858900167,581.4246009001508,581.4078911000397,None,c,1,0.48745989985764027,581.4078911000397,None,,,,,,,p21,2022_Apr_28_1438,training+cueing,2021.1.4,59.92796664952425,
Stranger.png,Stranger,Stranger,c,3,13,23,93,,,,,1,0,1,0,,,,,5,1,61,11,,,,,,,,,,,,,,,,,,,,,1.57,1.466,582.0327725999523,None,,,,,,,,,,,,,,,,,,,,582.5814770001452,583.0925927001517,0.5060734304133803,1.0063642302993685,583.0759134001564,583.192679299973,583.0759134001564,583.192679299973,583.1759393999819,None,m,0,0.5113065999466926,583.1759393999819,None,,,,,,,p21,2022_Apr_28_1438,training+cueing,2021.1.4,59.92796664952425,
Friend.png,Stranger,Friend,m,3.2,19,29,99,,,,,1,0,1,0,,,,,5,2,62,5,,,,,,,,,,,,,,,,,,,,,1.737,2.318,583.81653930014,None,,,,,,,,,,,,,,,,,,,,584.3734137001447,584.877064500004,0.5076489404309541,1.0079092404339463,584.8604703000747,584.977139600087,584.8604703000747,584.977139600087,584.9604786999989,None,m,1,0.5507618999108672,584.9604786999989,None,,,,,,,p21,2022_Apr_28_1438,training+cueing,2021.1.4,59.92796664952425,
Self.png,You,Self ,c,1,11,21,91,,,,,1,0,1,0,,,,,5,3,63,9,,,,,,,,,,,,,,,,,,,,,1.504,1.552,585.6338852001354,None,,,,,,,,,,,,,,,,,,,,586.1741575000342,586.6784010000993,0.5060877304058522,1.0063734303694218,586.6617592000403,586.7617806999478,586.6617592000403,586.7617806999478,586.7617806999478,None,c,1,0.4775274000130594,586.7617806999478,None,,,,,,,p21,2022_Apr_28_1438,training+cueing,2021.1.4,59.92796664952425,
Self.png,You,Self ,c,1,11,21,91,,,,,1,0,1,0,,,,,5,4,64,0,,,,,,,,,,,,,,,,,,,,,1.5,1.978,587.368170300033,None,,,,,,,,,,,,,,,,,,,,587.9068814001512,588.4130075001158,0.5112844300456345,1.011743530165404,588.3963099000975,588.4964743000455,588.3963099000975,588.4964743000455,588.4964743000455,None,c,1,0.4387699000071734,588.4964743000455,None,,,,,,,p21,2022_Apr_28_1438,training+cueing,2021.1.4,59.92796664952425,
Self.png,Friend,Self ,m,2.1,16,26,96,,,,,1,0,1,0,,,,,5,5,65,1,,,,,,,,,,,,,,,,,,,,,1.59,1.786,589.071118599968,None,,,,,,,,,,,,,,,,,,,,589.6305289000738,590.1308659999631,0.501635640161112,1.0027318401262164,590.1141960001551,590.2309238000307,590.1141960001551,590.2309238000307,590.2142246000003,None,c,0,0.44914659997448325,590.2142246000003,None,,,,,,,p21,2022_Apr_28_1438,training+cueing,2021.1.4,59.92796664952425,
Self.png,Stranger,Self ,m,3.1,18,28,98,,,,,1,0,1,0,,,,,5,6,66,2,,,,,,,,,,,,,,,,,,,,,1.573,1.558,590.791251800023,None,,,,,,,,,,,,,,,,,,,,591.3302713001613,591.8321076000575,0.5019951299764216,1.003277129959315,591.8154446999542,591.9329334001523,591.8154446999542,591.9329334001523,591.9154944000766,None,None,0,,591.9154944000766,None,,,,,,,p21,2022_Apr_28_1438,training+cueing,2021.1.4,59.92796664952425,
Friend.png,Friend,Friend,c,2,12,22,92,,,,,1,0,1,0,,,,,5,7,67,4,,,,,,,,,,,,,,,,,,,,,1.531,1.882,593.605078499997,None,,,,,,,,,,,,,,,,,,,,594.1469513999764,594.650808900129,0.5066723302006721,1.0071473300922662,594.6341357000638,594.7508625001647,594.6341357000638,594.7508625001647,594.7343276999891,None,c,1,0.8408403000794351,594.7343276999891,None,,,,,,,p21,2022_Apr_28_1438,training+cueing,2021.1.4,59.92796664952425,
Stranger.png,You,Stranger,m,1.3,15,25,95,,,,,1,0,1,0,,,,,5,8,68,6,,,,,,,,,,,,,,,,,,,,,1.508,1.755,595.7080245001707,None,,,,,,,,,,,,,,,,,,,,596.2468141999561,596.7523272000253,0.5078639299608767,1.0081895301118493,596.7356643001549,596.835709300125,596.7356643001549,596.835709300125,596.835709300125,None,m,1,0.5955298999324441,596.835709300125,None,,,,,,,p21,2022_Apr_28_1438,training+cueing,2021.1.4,59.92796664952425,
Friend.png,You,Friend,m,1.2,14,24,94,,,,,1,0,1,0,,,,,5,9,69,3,,,,,,,,,,,,,,,,,,,,,1.668,1.463,597.5590758000035,None,,,,,,,,,,,,,,,,,,,,598.0980187000241,598.6037159999833,0.5112763301003724,1.011554430006072,598.5869913999923,598.6870444000233,598.5869913999923,598.6870444000233,598.6870444000233,None,m,1,0.6802322999574244,598.6870444000233,None,,,,,,,p21,2022_Apr_28_1438,training+cueing,2021.1.4,59.92796664952425,
Stranger.png,Friend,Stranger,m,2.3,17,27,97,,,,,1,0,1,0,,,,,5,10,70,7,,,,,,,,,,,,,,,,,,,,,1.786,1.77,599.4934579001274,None,,,,,,,,,,,,,,,,,,,,600.0351605999749,600.5384317000862,0.5071214302442968,1.0074020300526172,600.521761600161,600.6384872000199,600.521761600161,600.6384872000199,600.6217486001551,None,m,1,0.6655067999381572,600.6217486001551,None,,,,,,,p21,2022_Apr_28_1438,training+cueing,2021.1.4,59.92796664952425,
Stranger.png,Stranger,Stranger,c,3,13,23,93,,,,,1,0,1,0,,,,,5,11,71,8,,,,,,,,,,,,,,,,,,,,,1.616,2.106,601.4119132000487,None,,,,,,,,,,,,,,,,,,,,601.9534637001343,602.4564890000038,0.5031799301505089,1.0034777300897986,602.4398652999662,602.5566293001175,602.4398652999662,602.5566293001175,602.5399307000916,None,c,1,0.5073144000489265,602.5399307000916,None,,,,,,,p21,2022_Apr_28_1438,training+cueing,2021.1.4,59.92796664952425,
Stranger.png,You,Stranger,m,1.3,15,25,95,,,,,1,0,1,0,,,,,6,0,72,6,,,,,,,,,,,,,,,,,,,,,1.489,1.818,603.1795425999444,None,,,,,,,,,,,,,,,,,,,,603.7342318999581,604.2410343999509,0.5142253399826586,1.0145142399705946,604.2244395001326,604.3244601001497,604.2244395001326,604.3244601001497,604.3244601001497,None,m,1,0.6428143000230193,604.3244601001497,None,,,,,,,p21,2022_Apr_28_1438,training+cueing,2021.1.4,59.92796664952425,
Friend.png,You,Friend,m,1.2,14,24,94,,,,,1,0,1,0,,,,,6,1,73,3,,,,,,,,,,,,,,,,,,,,,1.548,2.188,605.0984374999534,None,,,,,,,,,,,,,,,,,,,,605.6360887000337,606.1424348000437,0.511546130059287,1.0118560299742967,606.1258174001705,606.2258272999898,606.1258174001705,606.2258272999898,606.2258272999898,None,m,1,0.7094054000917822,606.2258272999898,None,,,,,,,p21,2022_Apr_28_1438,training+cueing,2021.1.4,59.92796664952425,
Stranger.png,Stranger,Stranger,c,3,13,23,93,,,,,1,0,1,0,,,,,6,2,74,8,,,,,,,,,,,,,,,,,,,,,1.547,1.674,607.066616800148,None,,,,,,,,,,,,,,,,,,,,607.6051245999988,608.1105244001374,0.5081632300280035,1.008463229984045,608.0938717001118,608.2105992001016,608.0938717001118,608.2105992001016,608.1938704000786,None,c,1,0.6293668001890182,608.1938704000786,None,,,,,,,p21,2022_Apr_28_1438,training+cueing,2021.1.4,59.92796664952425,
Self.png,Friend,Self ,m,2.1,16,26,96,,,,,1,0,1,0,,,,,6,3,75,1,,,,,,,,,,,,,,,,,,,,,1.733,1.845,608.9505322000477,None,,,,,,,,,,,,,,,,,,,,609.4923874000087,609.995268000057,0.5062825300265104,1.006576030049473,609.9785835000221,610.0953214999754,609.9785835000221,610.0953214999754,610.07858760003,None,m,1,0.8406582998577505,610.07858760003,None,,,,,,,p21,2022_Apr_28_1438,training+cueing,2021.1.4,59.92796664952425,
Friend.png,Stranger,Friend,m,3.2,19,29,99,,,,,1,0,1,0,,,,,6,4,76,5,,,,,,,,,,,,,,,,,,,,,1.551,1.748,611.051586400019,None,,,,,,,,,,,,,,,,,,,,611.5933877001517,612.0967478000093,0.5046788302715868,1.0049876300618052,612.0800862000324,612.1967857000418,612.0800862000324,612.1967857000418,612.1800979000982,None,m,1,0.7710651000961661,612.1800979000982,None,,,,,,,p21,2022_Apr_28_1438,training+cueing,2021.1.4,59.92796664952425,
Stranger.png,Stranger,Stranger,c,3,13,23,93,,,,,1,0,1,0,,,,,6,5,77,11,,,,,,,,,,,,,,,,,,,,,1.564,1.704,613.0876659001224,None,,,,,,,,,,,,,,,,,,,,613.6358865001239,614.1482138000429,0.5089032300747931,1.009172230027616,614.1316172000952,614.2484508999623,614.1316172000952,614.2484508999623,614.2316499999724,None,c,1,0.5435886001214385,614.2316499999724,None,,,,,,,p21,2022_Apr_28_1438,training+cueing,2021.1.4,59.92796664952425,
Self.png,You,Self ,c,1,11,21,91,,,,,1,0,1,0,,,,,6,6,78,9,,,,,,,,,,,,,,,,,,,,,1.786,2.205,614.905110700056,None,,,,,,,,,,,,,,,,,,,,615.452105600154,615.9662683000788,0.5128410302568227,1.0130910300649703,615.949624300003,616.0496197000612,615.949624300003,616.0496197000612,616.0496197000612,None,None,0,,616.0496197000612,None,,,,,,,p21,2022_Apr_28_1438,training+cueing,2021.1.4,59.92796664952425,
Self.png,You,Self ,c,1,11,21,91,,,,,1,0,1,0,,,,,6,7,79,0,,,,,,,,,,,,,,,,,,,,,1.797,1.658,617.9560539000668,None,,,,,,,,,,,,,,,,,,,,618.4948593999725,619.0017929000314,0.5123595297336578,1.0126362298615277,618.9851007000543,619.0851422001142,618.9851007000543,619.0851422001142,619.0851422001142,None,c,1,0.4581697001121938,619.0851422001142,None,,,,,,,p21,2022_Apr_28_1438,training+cueing,2021.1.4,59.92796664952425,
Friend.png,Friend,Friend,c,2,12,22,92,,,,,1,0,1,0,,,,,6,8,80,4,,,,,,,,,,,,,,,,,,,,,1.477,1.672,619.676402100129,None,,,,,,,,,,,,,,,,,,,,620.2316231001168,620.7363389001694,0.5119860402774066,1.0122753402683884,620.7196984000038,620.8363716001622,620.7196984000038,620.8363716001622,620.8197166000027,None,c,1,0.6115421000868082,620.8197166000027,None,,,,,,,p21,2022_Apr_28_1438,training+cueing,2021.1.4,59.92796664952425,
Friend.png,Friend,Friend,c,2,12,22,92,,,,,1,0,1,0,,,,,6,9,81,10,,,,,,,,,,,,,,,,,,,,,1.664,1.655,621.5597651000135,None,,,,,,,,,,,,,,,,,,,,622.0987829000223,622.6042937999591,0.5103053299244493,1.0106057301163673,622.5876652000006,622.7043942001183,622.5876652000006,622.7043942001183,622.6876540000085,None,c,1,0.4396793998312205,622.6876540000085,None,,,,,,,p21,2022_Apr_28_1438,training+cueing,2021.1.4,59.92796664952425,
Stranger.png,Friend,Stranger,m,2.3,17,27,97,,,,,1,0,1,0,,,,,6,10,82,7,,,,,,,,,,,,,,,,,,,,,1.614,2.104,623.2614615000784,None,,,,,,,,,,,,,,,,,,,,623.7988221000414,624.3055714000948,0.5117842298932374,1.012843829812482,624.2888907000888,624.4056095001288,624.2888907000888,624.4056095001288,624.3889048001729,None,m,1,0.6105716000311077,624.3889048001729,None,,,,,,,p21,2022_Apr_28_1438,training+cueing,2021.1.4,59.92796664952425,
Self.png,Stranger,Self ,m,3.1,18,28,98,,,,,1,0,1,0,,,,,6,11,83,2,,,,,,,,,,,,,,,,,,,,,1.679,1.801,625.1327051001135,None,,,,,,,,,,,,,,,,,,,,625.6726863000076,626.1736008999869,0.5014804301317781,1.0017683301120996,626.1569142001681,626.2737990999594,626.1569142001681,626.2737990999594,626.2737990999594,None,m,1,0.7573857998941094,626.2737990999594,None,,,,,,,p21,2022_Apr_28_1438,training+cueing,2021.1.4,59.92796664952425,
Self.png,You,Self ,c,1,11,21,91,,,,,1,0,1,0,,,,,7,0,84,9,,,,,,,,,,,,,,,,,,,,,1.647,1.801,627.1635621001478,None,,,,,,,,,,,,,,,,,,,,627.7029961000662,628.2083773000631,0.5080915300641209,1.0085697299800813,628.1917956001125,628.2917916001752,628.1917956001125,628.2917916001752,628.2917916001752,None,c,1,0.40354020008817315,628.2917916001752,None,,,,,,,p21,2022_Apr_28_1438,training+cueing,2021.1.4,59.92796664952425,
