Image,Name,Face,CorrAns,Match,Face_onset,CResponse_onset,IResponse_onset,Match.thisRepN,Match.thisTrialN,Match.thisN,Match.thisIndex,Blocks.thisRepN,Blocks.thisTrialN,Blocks.thisN,Blocks.thisIndex,trials.thisRepN,trials.thisTrialN,trials.thisN,trials.thisIndex,trials_2.thisRepN,trials_2.thisTrialN,trials_2.thisN,trials_2.thisIndex,text.started,text.stopped,p1.started,p1.stopped,MatchInstructions.started,MatchInstructions.stopped,Name1.started,Name1.stopped,Face_Relevance.started,Face_Relevance.stopped,MismatchInstructions.started,MismatchInstructions.stopped,Rest_trainingInstruct.started,Rest_trainingInstruct.stopped,next8.keys,next8.rt,next8.started,next8.stopped,Ready.started,Ready.stopped,delay_one_picked,delay_two_picked,blank0.started,blank0.stopped,FixationCross1.started,FixationCross1.stopped,Name3.started,Name3.stopped,Face_Relevance3.started,Face_Relevance3.stopped,responseTime.started,responseTime.stopped,resp.keys,resp.corr,resp.rt,resp.started,resp.stopped,Accuracy.started,Accuracy.stopped,questions.started,questions.stopped,p2.started,p2.stopped,FixationCross3.started,FixationCross3.stopped,port_Face_onset.started,port_Face_onset.stopped,Name4.started,Name4.stopped,Face_Relevance4.started,Face_Relevance4.stopped,responseTime2.started,responseTime2.stopped,Response.keys,Response.corr,Response.rt,Response.started,Response.stopped,p3.started,p3.stopped,Finish.started,Finish.stopped,gender,age,participant,date,expName,psychopyVersion,frameRate,
Friend.png,Friend,,,,,,,0,0,0,1,,,,,,,,,,,,,20.989869200158864,None,0.009573939954861999,0.5291382397990674,29.116722899954766,None,44.48076960002072,None,44.48076960002072,None,,,,,,,,,,,,,,,,,,,,,,,,,,,,,,,,,,,,,,,,,,,,,,,,,,,,,,35,p22,2022_May_02_1044,training+cueing,2021.1.4,59.60399109309477,
Stranger.png,Stranger,,,,,,,0,1,1,2,,,,,,,,,,,,,,,,,,,64.37010850012302,None,64.37010850012302,None,,,,,,,,,,,,,,,,,,,,,,,,,,,,,,,,,,,,,,,,,,,,,,,,,,,,,,35,p22,2022_May_02_1044,training+cueing,2021.1.4,59.60399109309477,
Self.png,You,,,,,,,0,2,2,0,,,,,,,,,,,,,,,,,,,84.35593389999121,None,84.35593389999121,None,,,,,,,,,,,,,,,,,,,,,,,,,,,,,,,,,,,,,,,,,,,,,,,,,,,,,,35,p22,2022_May_02_1044,training+cueing,2021.1.4,59.60399109309477,
Stranger.png,You,Stranger,m,1.3,15,25,95,,,,,0,0,0,0,0,0,0,6,,,,,,,,,,,,,,,104.30476970016025,None,142.23220130009577,None,space,-0.21011319989338517,2.0094560699071735,None,144.23372630006634,None,1.772,1.97,147.2506352001801,None,147.87460890016519,148.38658000016585,148.36985610006377,148.4699288001284,148.36985610006377,148.4699288001284,148.4699288001284,None,m,1,0.8169708999339491,148.4699288001284,None,149.30701160011813,None,,,,,,,,,,,,,,,,,,,,,,,,,35,p22,2022_May_02_1044,training+cueing,2021.1.4,59.60399109309477,
Stranger.png,Stranger,Stranger,c,3,13,23,93,,,,,0,0,0,0,0,1,1,11,,,,,,,,,,,,,,,,,,,,,,,,,1.55,1.36,149.72091250005178,None,150.25577290006913,150.7550238999538,150.7550238999538,150.85507560009137,150.7550238999538,150.85507560009137,150.85507560009137,None,c,1,0.6717614000663161,150.85507560009137,None,151.55560850002803,None,,,,,,,,,,,,,,,,,,,,,,,,,35,p22,2022_May_02_1044,training+cueing,2021.1.4,59.60399109309477,
Self.png,Stranger,Self ,m,3.1,18,28,98,,,,,0,0,0,0,0,2,2,2,,,,,,,,,,,,,,,,,,,,,,,,,1.466,1.763,151.95587960002013,None,152.49663250008598,153.00653870007955,152.9898467999883,153.10658819996752,152.9898467999883,153.10658819996752,153.089892399963,None,m,1,1.044898500200361,153.089892399963,None,154.15741600003093,None,,,,,,,,,,,,,,,,,,,,,,,,,35,p22,2022_May_02_1044,training+cueing,2021.1.4,59.60399109309477,
Friend.png,Friend,Friend,c,2,12,22,92,,,,,0,0,0,0,0,3,3,4,,,,,,,,,,,,,,,,,,,,,,,,,1.611,1.468,154.5576327999588,None,155.09001370007172,155.5916836000979,155.57505080010742,155.6917558000423,155.57505080010742,155.6917558000423,155.6750776001718,None,m,0,0.9720445999410003,155.6750776001718,None,156.6887085000053,None,,,,,,,,,,,,,,,,,,,,,,,,,35,p22,2022_May_02_1044,training+cueing,2021.1.4,59.60399109309477,
Self.png,You,Self ,c,1,11,21,91,,,,,0,0,0,0,0,4,4,0,,,,,,,,,,,,,,,,,,,,,,,,,1.612,1.277,157.09284460009076,None,157.63878170005046,158.14360020007007,158.12690569995902,158.22694250009954,158.12690569995902,158.22694250009954,158.22694250009954,None,c,1,1.1238307000603527,158.22694250009954,None,159.376441600034,None,,,,,,,,,,,,,,,,,,,,,,,,,35,p22,2022_May_02_1044,training+cueing,2021.1.4,59.60399109309477,
Self.png,Friend,Self ,m,2.1,16,26,96,,,,,0,0,0,0,0,5,5,1,,,,,,,,,,,,,,,,,,,,,,,,,1.509,1.64,159.77805490000173,None,160.32444480014965,160.8288171000313,160.81216760003008,160.92888010013849,160.81216760003008,160.92888010013849,160.9122373999562,None,m,1,1.1425997999031097,160.9122373999562,None,162.0798321000766,None,,,,,,,,,,,,,,,,,,,,,,,,,35,p22,2022_May_02_1044,training+cueing,2021.1.4,59.60399109309477,
Friend.png,Stranger,Friend,m,3.2,19,29,99,,,,,0,0,0,0,0,6,6,5,,,,,,,,,,,,,,,,,,,,,,,,,1.517,1.453,162.48008240014315,None,163.01718480000272,163.53085490013473,163.5142793999985,163.63082800013945,163.5142793999985,163.63082800013945,163.61415700009093,None,m,1,1.288593800039962,163.61415700009093,None,164.93179300008342,None,,,,,,,,,,,,,,,,,,,,,,,,,35,p22,2022_May_02_1044,training+cueing,2021.1.4,59.60399109309477,
Stranger.png,Friend,Stranger,m,2.3,17,27,97,,,,,0,0,0,0,0,7,7,7,,,,,,,,,,,,,,,,,,,,,,,,,1.49,2.412,165.33203690010123,None,165.86203410010785,166.36616390012205,166.34948880015872,166.46620850008912,166.34948880015872,166.46620850008912,166.44952450017445,None,m,1,1.349201099947095,166.44952450017445,None,167.81723260018043,None,,,,,,,,,,,,,,,,,,,,,,,,,35,p22,2022_May_02_1044,training+cueing,2021.1.4,59.60399109309477,
Self.png,You,Self ,c,1,11,21,91,,,,,0,0,0,0,0,8,8,9,,,,,,,,,,,,,,,,,,,,,,,,,1.584,1.473,168.21748740016483,None,168.74794919998385,169.25158559996635,169.23490869998932,169.33495349995792,169.23490869998932,169.33495349995792,169.33495349995792,None,c,1,0.6237925998866558,169.33495349995792,None,169.985470399959,None,,,,,,,,,,,,,,,,,,,,,,,,,35,p22,2022_May_02_1044,training+cueing,2021.1.4,59.60399109309477,
Friend.png,Friend,Friend,c,2,12,22,92,,,,,0,0,0,0,0,9,9,10,,,,,,,,,,,,,,,,,,,,,,,,,1.721,1.472,170.38582630013116,None,170.92269870010205,171.43650630000047,171.4198345001787,171.5365794999525,171.4198345001787,171.5365794999525,171.51982729998417,None,c,1,0.7108865000773221,171.51982729998417,None,172.2537539000623,None,,,,,,,,,,,,,,,,,,,,,,,,,35,p22,2022_May_02_1044,training+cueing,2021.1.4,59.60399109309477,
Friend.png,You,Friend,m,1.2,14,24,94,,,,,0,0,0,0,0,10,10,3,,,,,,,,,,,,,,,,,,,,,,,,,1.439,1.859,172.65426260000095,None,173.18664119997993,173.68813410005532,173.6714375000447,173.771642500069,173.6714375000447,173.771642500069,173.771642500069,None,m,1,1.051093899877742,173.771642500069,None,174.83909070002846,None,,,,,,,,,,,,,,,,,,,,,,,,,35,p22,2022_May_02_1044,training+cueing,2021.1.4,59.60399109309477,
Stranger.png,Stranger,Stranger,c,3,13,23,93,,,,,0,0,0,0,0,11,11,8,,,,,,,,,,,,,,,,,,,,,,,,,1.582,1.2,175.23939160001464,None,175.77884729998186,176.2899885000661,176.2732722000219,176.39004900003783,176.2732722000219,176.39004900003783,176.3733395000454,None,c,1,0.8014545999467373,176.3733395000454,None,177.19070170004852,None,,,,,,,,,,,,,,,,,,,,,,,,,35,p22,2022_May_02_1044,training+cueing,2021.1.4,59.60399109309477,
Stranger.png,Stranger,Stranger,c,3,13,23,93,,,,,0,0,0,0,,,,,0,0,0,8,,,,,,,,,,,,,,,,,,,211.09852680005133,None,1.567,2.195,214.61236859997734,None,,,,,,,,,,,,,,,,177.590933999978,None,0.014642669819295406,None,215.24272970017046,215.75189150008373,0.49980493006296456,1.0000976300798357,215.73526360001415,215.85198960010894,215.73526360001415,215.85198960010894,215.85198960010894,None,c,1,0.7626708000898361,215.85198960010894,None,,,,,,35,p22,2022_May_02_1044,training+cueing,2021.1.4,59.60399109309477,
Stranger.png,Stranger,Stranger,c,3,13,23,93,,,,,0,0,0,0,,,,,0,1,1,11,,,,,,,,,,,,,,,,,,,,,1.474,1.969,216.74315080000088,None,,,,,,,,,,,,,,,,,,,,217.2824693999719,217.78661520010792,0.5078789098188281,1.008232409832999,217.7699587000534,217.88668160000816,217.7699587000534,217.88668160000816,217.87000049999915,None,c,1,1.3530166000127792,217.87000049999915,None,,,,,,35,p22,2022_May_02_1044,training+cueing,2021.1.4,59.60399109309477,
Stranger.png,You,Stranger,m,1.3,15,25,95,,,,,0,0,0,0,,,,,0,2,2,6,,,,,,,,,,,,,,,,,,,,,1.755,1.281,219.34813040005974,None,,,,,,,,,,,,,,,,,,,,219.8867899000179,220.3884936000686,0.5036819097585976,1.0039540098514408,220.37180409999564,220.47182600013912,220.37180409999564,220.47182600013912,220.47182600013912,None,m,1,0.670814499957487,220.47182600013912,None,,,,,,35,p22,2022_May_02_1044,training+cueing,2021.1.4,59.60399109309477,
Friend.png,Friend,Friend,c,2,12,22,92,,,,,0,0,0,0,,,,,0,3,3,4,,,,,,,,,,,,,,,,,,,,,1.43,1.883,221.27891670004465,None,,,,,,,,,,,,,,,,,,,,221.8193300999701,222.3231417001225,0.5063527103047818,1.0066663101315498,222.30655169999227,222.42320860014297,222.30655169999227,222.42320860014297,222.40656549995765,None,c,1,0.9121342999860644,222.40656549995765,None,,,,,,35,p22,2022_May_02_1044,training+cueing,2021.1.4,59.60399109309477,
Self.png,You,Self ,c,1,11,21,91,,,,,0,0,0,0,,,,,0,4,4,0,,,,,,,,,,,,,,,,,,,,,1.543,2.255,223.44702800014056,None,,,,,,,,,,,,,,,,,,,,223.98744400008582,224.4915134999901,0.5077599100768566,1.007971809944138,224.47476350003853,224.57477820012718,224.47476350003853,224.57477820012718,224.57477820012718,None,c,1,0.6159204998984933,224.57477820012718,None,,,,,,35,p22,2022_May_02_1044,training+cueing,2021.1.4,59.60399109309477,
Friend.png,Friend,Friend,c,2,12,22,92,,,,,0,0,0,0,,,,,0,5,5,10,,,,,,,,,,,,,,,,,,,,,1.756,1.68,225.31428070017137,None,,,,,,,,,,,,,,,,,,,,225.86585860000923,226.37614609999582,0.5049535101279616,1.0052142101339996,226.3594677001238,226.4761690001469,226.3594677001238,226.4761690001469,226.4594894000329,None,c,1,1.0193535001017153,226.4594894000329,None,,,,,,35,p22,2022_May_02_1044,training+cueing,2021.1.4,59.60399109309477,
Self.png,Friend,Self ,m,2.1,16,26,96,,,,,0,0,0,0,,,,,0,6,6,1,,,,,,,,,,,,,,,,,,,,,1.695,1.357,227.61773920012638,None,,,,,,,,,,,,,,,,,,,,228.1561789000407,228.66110060014762,0.5072223104070872,1.0073797102086246,228.6444900999777,228.76112999999896,228.6444900999777,228.76112999999896,228.74451470002532,None,m,1,0.8142472000326961,228.74451470002532,None,,,,,,35,p22,2022_May_02_1044,training+cueing,2021.1.4,59.60399109309477,
Friend.png,You,Friend,m,1.2,14,24,94,,,,,0,0,0,0,,,,,0,7,7,3,,,,,,,,,,,,,,,,,,,,,1.466,2.197,229.68425850011408,None,,,,,,,,,,,,,,,,,,,,230.22593580000103,230.72927849995904,0.5069603100419044,1.0071866100188345,230.71261369995773,230.81265039998107,230.71261369995773,230.81265039998107,230.81265039998107,None,m,1,1.3380123001988977,230.81265039998107,None,,,,,,35,p22,2022_May_02_1044,training+cueing,2021.1.4,59.60399109309477,
Self.png,You,Self ,c,1,11,21,91,,,,,0,0,0,0,,,,,0,8,8,9,,,,,,,,,,,,,,,,,,,,,1.592,2.123,232.28660220000893,None,,,,,,,,,,,,,,,,,,,,232.8240897001233,233.33114340016618,0.5109952096827328,1.0113833097275347,233.3144358000718,233.41458910005167,233.3144358000718,233.41458910005167,233.41458910005167,None,c,1,0.800068800104782,233.41458910005167,None,,,,,,35,p22,2022_May_02_1044,training+cueing,2021.1.4,59.60399109309477,
Self.png,Stranger,Self ,m,3.1,18,28,98,,,,,0,0,0,0,,,,,0,9,9,2,,,,,,,,,,,,,,,,,,,,,1.547,2.03,234.33811759995297,None,,,,,,,,,,,,,,,,,,,,234.88038420001976,235.3826648001559,0.506292010191828,1.0065072102006525,235.3659892999567,235.48269310011528,235.3659892999567,235.48269310011528,235.46600190014578,None,m,1,0.9886568000074476,235.46600190014578,None,,,,,,35,p22,2022_May_02_1044,training+cueing,2021.1.4,59.60399109309477,
Friend.png,Stranger,Friend,m,3.2,19,29,99,,,,,0,0,0,0,,,,,0,10,10,5,,,,,,,,,,,,,,,,,,,,,1.652,2.344,236.59023299999535,None,,,,,,,,,,,,,,,,,,,,237.12847930006683,237.63427829998545,0.5112430104054511,1.0115016102790833,237.61758469999768,237.7343171001412,237.61758469999768,237.7343171001412,237.71760460012592,None,m,1,0.9290318998973817,237.71760460012592,None,,,,,,35,p22,2022_May_02_1044,training+cueing,2021.1.4,59.60399109309477,
Stranger.png,Friend,Stranger,m,2.3,17,27,97,,,,,0,0,0,0,,,,,0,11,11,7,,,,,,,,,,,,,,,,,,,,,1.458,1.914,238.77483380003832,None,,,,,,,,,,,,,,,,,,,,239.3171121000778,239.81916710012592,0.5033529098145664,1.0042130099609494,239.8024979000911,239.91924499999732,239.8024979000911,239.91924499999732,239.90254570008256,None,m,1,0.7284522000700235,239.90254570008256,None,,,,,,35,p22,2022_May_02_1044,training+cueing,2021.1.4,59.60399109309477,
Stranger.png,You,Stranger,m,1.3,15,25,95,,,,,0,0,0,0,,,,,1,0,12,6,,,,,,,,,,,,,,,,,,,,,1.734,1.472,240.7623475000728,None,,,,,,,,,,,,,,,,,,,,241.30226900009438,241.80387210007757,0.5037709099706262,1.0040442100726068,241.787247300148,241.88731090002693,241.787247300148,241.88731090002693,241.88731090002693,None,m,1,0.6794076999649405,241.88731090002693,None,,,,,,35,p22,2022_May_02_1044,training+cueing,2021.1.4,59.60399109309477,
Self.png,Friend,Self ,m,2.1,16,26,96,,,,,0,0,0,0,,,,,1,1,13,1,,,,,,,,,,,,,,,,,,,,,1.686,1.789,242.69361230009235,None,,,,,,,,,,,,,,,,,,,,243.24246650002897,243.75535500003025,0.5088906099554151,1.0093159098178148,243.73864720016718,243.85573670011945,243.73864720016718,243.85573670011945,243.83868050016463,None,m,1,0.728051699930802,243.83868050016463,None,,,,,,35,p22,2022_May_02_1044,training+cueing,2021.1.4,59.60399109309477,
Friend.png,You,Friend,m,1.2,14,24,94,,,,,0,0,0,0,,,,,1,2,14,3,,,,,,,,,,,,,,,,,,,,,1.785,1.66,244.69689889997244,None,,,,,,,,,,,,,,,,,,,,245.2668079000432,245.77344610006548,0.49955655029043555,1.0004805501084775,245.7401115000248,245.84015860012732,245.7401115000248,245.84015860012732,245.84015860012732,None,m,1,0.7107784000691026,245.84015860012732,None,,,,,,35,p22,2022_May_02_1044,training+cueing,2021.1.4,59.60399109309477,
Stranger.png,Stranger,Stranger,c,3,13,23,93,,,,,0,0,0,0,,,,,1,3,15,11,,,,,,,,,,,,,,,,,,,,,1.744,1.427,246.68437710008584,None,,,,,,,,,,,,,,,,,,,,247.22362220007926,247.72488900017925,0.5021859102416784,1.0024356101639569,247.70820450014435,247.82492060004734,247.70820450014435,247.82492060004734,247.80825270013884,None,c,1,0.8383512001018971,247.80825270013884,None,,,,,,35,p22,2022_May_02_1044,training+cueing,2021.1.4,59.60399109309477,
Stranger.png,Friend,Stranger,m,2.3,17,27,97,,,,,0,0,0,0,,,,,1,4,16,7,,,,,,,,,,,,,,,,,,,,,1.547,1.43,248.78223230014555,None,,,,,,,,,,,,,,,,,,,,249.33458350016735,249.84308010013774,0.5150387799367309,1.01534587983042,249.82639449997805,249.94312219996937,249.82639449997805,249.94312219996937,249.92643230012618,None,m,1,0.6722316001541913,249.92643230012618,None,,,,,,35,p22,2022_May_02_1044,training+cueing,2021.1.4,59.60399109309477,
Friend.png,Stranger,Friend,m,3.2,19,29,99,,,,,0,0,0,0,,,,,1,5,17,5,,,,,,,,,,,,,,,,,,,,,1.781,1.46,250.73310040007345,None,,,,,,,,,,,,,,,,,,,,251.2735884001013,251.77779840002768,0.5082915101666003,1.0086480099707842,251.76107670017518,251.8778631000314,251.76107670017518,251.8778631000314,251.86114490008913,None,m,1,0.7374560001771897,251.86114490008913,None,,,,,,35,p22,2022_May_02_1044,training+cueing,2021.1.4,59.60399109309477,
Self.png,You,Self ,c,1,11,21,91,,,,,0,0,0,0,,,,,1,6,18,9,,,,,,,,,,,,,,,,,,,,,1.62,1.614,252.73399950005114,None,,,,,,,,,,,,,,,,,,,,253.2755102000665,253.77924500009976,0.5075245096813887,1.0077865098137408,253.7625798000954,253.86259560007602,253.7625798000954,253.86259560007602,253.86259560007602,None,c,1,0.6563077999744564,253.86259560007602,None,,,,,,35,p22,2022_May_02_1044,training+cueing,2021.1.4,59.60399109309477,
Self.png,Stranger,Self ,m,3.1,18,28,98,,,,,0,0,0,0,,,,,1,7,19,2,,,,,,,,,,,,,,,,,,,,,1.576,1.777,254.65614960016683,None,,,,,,,,,,,,,,,,,,,,255.19570489996113,255.6972958999686,0.5021906096953899,1.0026931096799672,255.68061670009047,255.79748610011302,255.68061670009047,255.79748610011302,255.78082820004784,None,m,1,0.8817964000627398,255.78082820004784,None,,,,,,35,p22,2022_May_02_1044,training+cueing,2021.1.4,59.60399109309477,
Stranger.png,Stranger,Stranger,c,3,13,23,93,,,,,0,0,0,0,,,,,1,8,20,8,,,,,,,,,,,,,,,,,,,,,1.564,1.781,256.7881142999977,None,,,,,,,,,,,,,,,,,,,,257.34294630005024,257.84887470002286,0.5119462802540511,1.01217908016406,257.83221430005506,257.94895009999163,257.83221430005506,257.94895009999163,257.9322389001027,None,c,1,0.7623791999649256,257.9322389001027,None,,,,,,35,p22,2022_May_02_1044,training+cueing,2021.1.4,59.60399109309477,
Friend.png,Friend,Friend,c,2,12,22,92,,,,,0,0,0,0,,,,,1,9,21,4,,,,,,,,,,,,,,,,,,,,,1.646,1.975,258.82250140002,None,,,,,,,,,,,,,,,,,,,,259.3814652999863,259.8838099001441,0.5061881800647825,1.0064164800569415,259.8671912001446,259.983871600125,259.8671912001446,259.983871600125,259.96717300009914,None,c,1,1.2715219999663532,259.96717300009914,None,,,,,,35,p22,2022_May_02_1044,training+cueing,2021.1.4,59.60399109309477,
Self.png,You,Self ,c,1,11,21,91,,,,,0,0,0,0,,,,,1,10,22,0,,,,,,,,,,,,,,,,,,,,,1.599,2.349,261.3759242000524,None,,,,,,,,,,,,,,,,,,,,261.9164951001294,262.4192150000017,0.5034258102532476,1.0037518101744354,262.4021381000057,262.50225080014206,262.4021381000057,262.50225080014206,262.50225080014206,None,c,1,0.6724788998253644,262.50225080014206,None,,,,,,35,p22,2022_May_02_1044,training+cueing,2021.1.4,59.60399109309477,
Friend.png,Friend,Friend,c,2,12,22,92,,,,,0,0,0,0,,,,,1,11,23,10,,,,,,,,,,,,,,,,,,,,,1.44,1.605,263.31301140016876,None,,,,,,,,,,,,,,,,,,,,263.8508337000385,264.3536427000072,0.5060419102665037,1.0062669103499502,264.3370117000304,264.4536793001462,264.3370117000304,264.4536793001462,264.43704010010697,None,c,1,0.5936160001438111,264.43704010010697,None,,,,,,35,p22,2022_May_02_1044,training+cueing,2021.1.4,59.60399109309477,
Self.png,You,Self ,c,1,11,21,91,,,,,0,0,0,0,,,,,2,0,24,9,,,,,,,,,,,,,,,,,,,,,1.515,1.964,265.160409900127,None,,,,,,,,,,,,,,,,,,,,265.7217800000217,266.2216499000788,0.5144356798846275,1.0147301799152046,266.2216499000788,266.3219262000639,266.2216499000788,266.3219262000639,266.3219262000639,None,c,1,0.6287350000347942,266.3219262000639,None,,,,,,35,p22,2022_May_02_1044,training+cueing,2021.1.4,59.60399109309477,
Friend.png,Friend,Friend,c,2,12,22,92,,,,,0,0,0,0,,,,,2,1,25,4,,,,,,,,,,,,,,,,,,,,,1.644,2.014,267.0786932001356,None,,,,,,,,,,,,,,,,,,,,267.6197298001498,268.122963400092,0.5060034098569304,1.0063739097677171,268.1062386999838,268.22293510008603,268.1062386999838,268.22293510008603,268.20627099997364,None,c,1,0.5363753999117762,268.20627099997364,None,,,,,,35,p22,2022_May_02_1044,training+cueing,2021.1.4,59.60399109309477,
Friend.png,You,Friend,m,1.2,14,24,94,,,,,0,0,0,0,,,,,2,2,26,3,,,,,,,,,,,,,,,,,,,,,1.734,1.93,268.8792398001533,None,,,,,,,,,,,,,,,,,,,,269.42039320012555,269.924238699954,0.5076597100123763,1.007944910088554,269.9075450000819,270.0075791000854,269.9075450000819,270.0075791000854,270.0075791000854,None,m,1,1.1029493000824004,270.0075791000854,None,,,,,,35,p22,2022_May_02_1044,training+cueing,2021.1.4,59.60399109309477,
Stranger.png,Friend,Stranger,m,2.3,17,27,97,,,,,0,0,0,0,,,,,2,3,27,7,,,,,,,,,,,,,,,,,,,,,1.756,1.835,271.233076200122,None,,,,,,,,,,,,,,,,,,,,271.77431430015713,272.2758985001128,0.5025886101648211,1.0034950100816786,272.259259799961,272.3759739000816,272.259259799961,272.3759739000816,272.35927939997055,None,m,1,0.9916268000379205,272.35927939997055,None,,,,,,35,p22,2022_May_02_1044,training+cueing,2021.1.4,59.60399109309477,
Self.png,Stranger,Self ,m,3.1,18,28,98,,,,,0,0,0,0,,,,,2,4,28,2,,,,,,,,,,,,,,,,,,,,,1.442,2.328,273.48632160015404,None,,,,,,,,,,,,,,,,,,,,274.0398989999667,274.54425500007346,0.509425480151549,1.0096809801179916,274.52763390005566,274.64425200014375,274.52763390005566,274.64425200014375,274.6275977999903,None,m,1,0.643104299902916,274.6275977999903,None,,,,,,35,p22,2022_May_02_1044,training+cueing,2021.1.4,59.60399109309477,
Self.png,Friend,Self ,m,2.1,16,26,96,,,,,0,0,0,0,,,,,2,5,29,1,,,,,,,,,,,,,,,,,,,,,1.617,1.691,275.4010000999551,None,,,,,,,,,,,,,,,,,,,,275.94296580017544,276.4456062000245,0.5056304098106921,1.0059311098884791,276.42893530009314,276.54565630014986,276.42893530009314,276.54565630014986,276.529026000062,None,m,1,0.9495792000088841,276.529026000062,None,,,,,,35,p22,2022_May_02_1044,training+cueing,2021.1.4,59.60399109309477,
Stranger.png,Stranger,Stranger,c,3,13,23,93,,,,,0,0,0,0,,,,,2,6,30,8,,,,,,,,,,,,,,,,,,,,,1.78,1.834,277.60405030008405,None,,,,,,,,,,,,,,,,,,,,278.1437351000495,278.64723430015147,0.505405809963122,1.0056994098704308,278.63051309995353,278.74723249999806,278.63051309995353,278.74723249999806,278.7305358001031,None,c,1,0.6841531998943537,278.7305358001031,None,,,,,,35,p22,2022_May_02_1044,training+cueing,2021.1.4,59.60399109309477,
Stranger.png,Stranger,Stranger,c,3,13,23,93,,,,,0,0,0,0,,,,,2,7,31,11,,,,,,,,,,,,,,,,,,,,,1.411,1.503,279.5374356000684,None,,,,,,,,,,,,,,,,,,,,280.0763249001466,280.58194079995155,0.5116164102219045,1.0118548101745546,280.5654301000759,280.68199130007997,280.5654301000759,280.68199130007997,280.66529779997654,None,c,1,0.5734319998882711,280.66529779997654,None,,,,,,35,p22,2022_May_02_1044,training+cueing,2021.1.4,59.60399109309477,
Stranger.png,You,Stranger,m,1.3,15,25,95,,,,,0,0,0,0,,,,,2,8,32,6,,,,,,,,,,,,,,,,,,,,,1.767,2.387,281.3721835000906,None,,,,,,,,,,,,,,,,,,,,281.92140190000646,282.433290499961,0.5051702100317925,1.0054499099496752,282.4165905001573,282.51665540016256,282.4165905001573,282.51665540016256,282.51665540016256,None,m,1,0.7219432001002133,282.51665540016256,None,,,,,,35,p22,2022_May_02_1044,training+cueing,2021.1.4,59.60399109309477,
Self.png,You,Self ,c,1,11,21,91,,,,,0,0,0,0,,,,,2,9,33,0,,,,,,,,,,,,,,,,,,,,,1.695,1.864,283.3736700001173,None,,,,,,,,,,,,,,,,,,,,283.92153040017,284.43476930004545,0.5101621102076024,1.0105376101564616,284.41802940005437,284.5180622001644,284.41802940005437,284.5180622001644,284.5180622001644,None,c,1,0.7045909001026303,284.5180622001644,None,,,,,,35,p22,2022_May_02_1044,training+cueing,2021.1.4,59.60399109309477,
Friend.png,Friend,Friend,c,2,12,22,92,,,,,0,0,0,0,,,,,2,10,34,10,,,,,,,,,,,,,,,,,,,,,1.73,2.2,285.3582814000547,None,,,,,,,,,,,,,,,,,,,,285.8994670000393,286.4028168001678,0.5064554100390524,1.0073526098858565,286.38609980000183,286.50286710006185,286.38609980000183,286.50286710006185,286.48612949997187,None,c,1,0.7846450000070035,286.48612949997187,None,,,,,,35,p22,2022_May_02_1044,training+cueing,2021.1.4,59.60399109309477,
Friend.png,Stranger,Friend,m,3.2,19,29,99,,,,,0,0,0,0,,,,,2,11,35,5,,,,,,,,,,,,,,,,,,,,,1.469,1.26,287.3942334000021,None,,,,,,,,,,,,,,,,,,,,287.9361191999633,288.4376255001407,0.501338210189715,1.0021252101287246,288.4209853000939,288.5376798999496,288.4209853000939,288.5376798999496,288.5376798999496,None,m,1,0.6210711998865008,288.5376798999496,None,,,,,,35,p22,2022_May_02_1044,training+cueing,2021.1.4,59.60399109309477,
Self.png,You,Self ,c,1,11,21,91,,,,,0,0,0,0,,,,,3,0,36,0,,,,,,,,,,,,,,,,,,,,,1.771,2.057,289.29550650017336,None,,,,,,,,,,,,,,,,,,,,289.8360997000709,290.3389882000629,0.5066060097888112,1.0075241099111736,290.32224690006115,290.4223193000071,290.32224690006115,290.4223193000071,290.4223193000071,None,c,1,0.656567599857226,290.4223193000071,None,,,,,,35,p22,2022_May_02_1044,training+cueing,2021.1.4,59.60399109309477,
Friend.png,You,Friend,m,1.2,14,24,94,,,,,0,0,0,0,,,,,3,1,37,3,,,,,,,,,,,,,,,,,,,,,1.636,1.673,291.2128854000475,None,,,,,,,,,,,,,,,,,,,,291.7977110000793,292.30736159998924,0.5080751499626786,1.0083465499337763,292.29039770015515,292.3904419001192,292.29039770015515,292.3904419001192,292.3904419001192,None,m,1,0.7521669999696314,292.3904419001192,None,,,,,,35,p22,2022_May_02_1044,training+cueing,2021.1.4,59.60399109309477,
Self.png,You,Self ,c,1,11,21,91,,,,,0,0,0,0,,,,,3,2,38,9,,,,,,,,,,,,,,,,,,,,,1.494,1.597,293.2638658999931,None,,,,,,,,,,,,,,,,,,,,293.80159020004794,294.3085032000672,0.5110615100711584,1.0113797101657838,294.2918092000764,294.3918493001256,294.2918092000764,294.3918493001256,294.3918493001256,None,c,1,0.6388780998531729,294.3918493001256,None,,,,,,35,p22,2022_May_02_1044,training+cueing,2021.1.4,59.60399109309477,
Friend.png,Friend,Friend,c,2,12,22,92,,,,,0,0,0,0,,,,,3,3,39,4,,,,,,,,,,,,,,,,,,,,,1.612,1.894,295.16839430015534,None,,,,,,,,,,,,,,,,,,,,295.7200398000423,296.22666919999756,0.5018352100159973,1.002108110114932,296.2100426000543,296.32689930009656,296.2100426000543,296.32689930009656,296.31007000012323,None,c,1,0.8326173999812454,296.31007000012323,None,,,,,,35,p22,2022_May_02_1044,training+cueing,2021.1.4,59.60399109309477,
Friend.png,Stranger,Friend,m,3.2,19,29,99,,,,,0,0,0,0,,,,,3,4,40,5,,,,,,,,,,,,,,,,,,,,,1.421,1.437,297.2676846999675,None,,,,,,,,,,,,,,,,,,,,297.8264558999799,298.3281545001082,0.5029752801638097,1.003259780118242,298.3115169000812,298.42823990015313,298.3115169000812,298.42823990015313,298.41156240017153,None,m,1,0.7150252999272197,298.41156240017153,None,,,,,,35,p22,2022_May_02_1044,training+cueing,2021.1.4,59.60399109309477,
Self.png,Friend,Self ,m,2.1,16,26,96,,,,,0,0,0,0,,,,,3,5,41,1,,,,,,,,,,,,,,,,,,,,,1.784,2.056,299.25175280007534,None,,,,,,,,,,,,,,,,,,,,299.80853629997,300.3128067001235,0.5106833800673485,1.0115958801470697,300.29612429998815,300.4128670000937,300.29612429998815,300.4128670000937,300.39618130004965,None,m,1,0.7944718000944704,300.39618130004965,None,,,,,,35,p22,2022_May_02_1044,training+cueing,2021.1.4,59.60399109309477,
Stranger.png,You,Stranger,m,1.3,15,25,95,,,,,0,0,0,0,,,,,3,6,42,6,,,,,,,,,,,,,,,,,,,,,1.712,1.607,301.32126580015756,None,,,,,,,,,,,,,,,,,,,,301.86279790010303,302.3645071000792,0.503389609977603,1.00413530995138,302.3472480000928,302.4478146000765,302.3472480000928,302.4478146000765,302.4478146000765,None,m,1,0.694766900036484,302.4478146000765,None,,,,,,35,p22,2022_May_02_1044,training+cueing,2021.1.4,59.60399109309477,
Stranger.png,Friend,Stranger,m,2.3,17,27,97,,,,,0,0,0,0,,,,,3,7,43,7,,,,,,,,,,,,,,,,,,,,,1.596,1.343,303.2718414000701,None,,,,,,,,,,,,,,,,,,,,303.8218813999556,304.33240780001506,0.5029151097405702,1.0037590097635984,304.31578149995767,304.43248970014974,304.31578149995767,304.43248970014974,304.41577860014513,None,m,1,0.6311409000772983,304.41577860014513,None,,,,,,35,p22,2022_May_02_1044,training+cueing,2021.1.4,59.60399109309477,
Friend.png,Friend,Friend,c,2,12,22,92,,,,,0,0,0,0,,,,,3,8,44,10,,,,,,,,,,,,,,,,,,,,,1.603,2.464,305.1763608001638,None,,,,,,,,,,,,,,,,,,,,305.71266310010105,306.2170967999846,0.5082946096081287,1.009164909599349,306.2004050000105,306.31772180018015,306.2004050000105,306.31772180018015,306.3004442001693,None,c,1,0.6024158999789506,306.3004442001693,None,,,,,,35,p22,2022_May_02_1044,training+cueing,2021.1.4,59.60399109309477,
Stranger.png,Stranger,Stranger,c,3,13,23,93,,,,,0,0,0,0,,,,,3,9,45,8,,,,,,,,,,,,,,,,,,,,,1.72,1.88,307.02804400003515,None,,,,,,,,,,,,,,,,,,,,307.5674741000403,308.06845060014166,0.502562309615314,1.0029534096829593,308.05176250007935,308.16846080007963,308.05176250007935,308.16846080007963,308.15179609996267,None,c,1,0.7667580998968333,308.15179609996267,None,,,,,,35,p22,2022_May_02_1044,training+cueing,2021.1.4,59.60399109309477,
Stranger.png,Stranger,Stranger,c,3,13,23,93,,,,,0,0,0,0,,,,,3,10,46,11,,,,,,,,,,,,,,,,,,,,,1.766,1.329,309.0414855000563,None,,,,,,,,,,,,,,,,,,,,309.5802111001685,310.08664730004966,0.5113327098079026,1.0118776098825037,310.0698476000689,310.18664480000734,310.0698476000689,310.18664480000734,310.16989410016686,None,c,1,0.47676449990831316,310.16989410016686,None,,,,,,35,p22,2022_May_02_1044,training+cueing,2021.1.4,59.60399109309477,
Self.png,Stranger,Self ,m,3.1,18,28,98,,,,,0,0,0,0,,,,,3,11,47,2,,,,,,,,,,,,,,,,,,,,,1.779,2.177,310.7783168000169,None,,,,,,,,,,,,,,,,,,,,311.31692799995653,311.82112320000306,0.5089215100742877,None,311.80447810003534,311.92119220015593,311.80447810003534,311.92119220015593,311.904494300019,None,c,0,0.3740578999277204,311.904494300019,None,,,,,,35,p22,2022_May_02_1044,training+cueing,2021.1.4,59.60399109309477,
Self.png,You,Self ,c,1,11,21,91,,,,,0,0,0,0,,,,,4,0,48,0,,,,,,,,,,,,,,,,,,,,,1.771,2.034,312.41082680015825,None,,,,,,,,,,,,,,,,,,,,312.9510937000159,313.4558743000962,0.5073809099849313,1.0074595098849386,313.4392973999493,313.53916459996253,313.4392973999493,313.53916459996253,313.53916459996253,None,c,1,1.3153270999900997,313.53916459996253,None,,,,,,35,p22,2022_May_02_1044,training+cueing,2021.1.4,59.60399109309477,
Stranger.png,You,Stranger,m,1.3,15,25,95,,,,,0,0,0,0,,,,,4,1,49,6,,,,,,,,,,,,,,,,,,,,,1.44,1.338,314.97964300005697,None,,,,,,,,,,,,,,,,,,,,315.53252670005895,316.0408600999508,0.49932028027251363,0.999562380136922,316.0075730001554,316.1075724000111,316.0075730001554,316.1075724000111,316.1075724000111,None,m,1,0.8749867000151426,316.1075724000111,None,,,,,,35,p22,2022_May_02_1044,training+cueing,2021.1.4,59.60399109309477,
Friend.png,Friend,Friend,c,2,12,22,92,,,,,0,0,0,0,,,,,4,2,50,4,,,,,,,,,,,,,,,,,,,,,1.631,1.983,317.11393210012466,None,,,,,,,,,,,,,,,,,,,,317.6562120001763,318.1590301000979,0.5067718096543103,1.0071128096897155,318.1423808000982,318.2590992001351,318.1423808000982,318.2590992001351,318.2424258000683,None,c,1,0.6601867000572383,318.2424258000683,None,,,,,,35,p22,2022_May_02_1044,training+cueing,2021.1.4,59.60399109309477,
Self.png,Stranger,Self ,m,3.1,18,28,98,,,,,0,0,0,0,,,,,4,3,51,2,,,,,,,,,,,,,,,,,,,,,1.522,1.793,319.0320709999651,None,,,,,,,,,,,,,,,,,,,,319.5864659999497,320.0938150000293,0.5134564801119268,1.0137140802107751,320.07713560014963,320.1938601001166,320.07713560014963,320.1938601001166,320.17714749998413,None,m,1,0.7095099000725895,320.17714749998413,None,,,,,,35,p22,2022_May_02_1044,training+cueing,2021.1.4,59.60399109309477,
Self.png,Friend,Self ,m,2.1,16,26,96,,,,,0,0,0,0,,,,,4,4,52,1,,,,,,,,,,,,,,,,,,,,,1.438,1.275,321.0175538000185,None,,,,,,,,,,,,,,,,,,,,321.5580027999822,322.0619078001473,0.5081001101061702,1.0083742102142423,322.0452088001184,322.16192690003663,322.0452088001184,322.16192690003663,322.14522449998185,None,m,1,0.9812157000415027,322.14522449998185,None,,,,,,35,p22,2022_May_02_1044,training+cueing,2021.1.4,59.60399109309477,
Stranger.png,Stranger,Stranger,c,3,13,23,93,,,,,0,0,0,0,,,,,4,5,53,8,,,,,,,,,,,,,,,,,,,,,1.471,1.38,323.2523152001668,None,,,,,,,,,,,,,,,,,,,,323.7949318001047,324.296840300085,0.5049132099375129,1.0051475099753588,324.28020180016756,324.39687860012054,324.28020180016756,324.39687860012054,324.38021189998835,None,c,1,0.794600100023672,324.38021189998835,None,,,,,,35,p22,2022_May_02_1044,training+cueing,2021.1.4,59.60399109309477,
Friend.png,Friend,Friend,c,2,12,22,92,,,,,0,0,0,0,,,,,4,6,54,10,,,,,,,,,,,,,,,,,,,,,1.467,1.868,325.30762860015966,None,,,,,,,,,,,,,,,,,,,,325.84678909997456,326.3483049001079,0.5027348098810762,1.0036294097080827,326.3316280001309,326.44832259998657,326.3316280001309,326.44832259998657,326.4316728999838,None,c,1,0.6949227000586689,326.4316728999838,None,,,,,,35,p22,2022_May_02_1044,training+cueing,2021.1.4,59.60399109309477,
Friend.png,Stranger,Friend,m,3.2,19,29,99,,,,,0,0,0,0,,,,,4,7,55,5,,,,,,,,,,,,,,,,,,,,,1.524,2.23,327.25622700015083,None,,,,,,,,,,,,,,,,,,,,327.799942899961,328.2997491999995,0.5009234098251909,1.0012366098817438,328.28302190010436,328.39979439997114,328.28302190010436,328.39979439997114,328.39979439997114,None,m,1,0.5986903000157326,328.39979439997114,None,,,,,,35,p22,2022_May_02_1044,training+cueing,2021.1.4,59.60399109309477,
Self.png,You,Self ,c,1,11,21,91,,,,,0,0,0,0,,,,,4,8,56,9,,,,,,,,,,,,,,,,,,,,,1.539,2.232,329.12342740013264,None,,,,,,,,,,,,,,,,,,,,329.6733798000496,330.18440530006774,0.5037637101486325,1.0040919100865722,330.1677201001439,330.26779399998486,330.1677201001439,330.26779399998486,330.26779399998486,None,c,1,0.5390514000318944,330.26779399998486,None,,,,,,35,p22,2022_May_02_1044,training+cueing,2021.1.4,59.60399109309477,
Friend.png,You,Friend,m,1.2,14,24,94,,,,,0,0,0,0,,,,,4,9,57,3,,,,,,,,,,,,,,,,,,,,,1.57,1.512,330.9411341000814,None,,,,,,,,,,,,,,,,,,,,331.4867716000881,332.0024010001216,0.5155529098119587,1.016012409934774,331.98572080000304,332.08576100016944,331.98572080000304,332.08576100016944,332.08576100016944,None,m,1,0.6568217999301851,332.08576100016944,None,,,,,,35,p22,2022_May_02_1044,training+cueing,2021.1.4,59.60399109309477,
Stranger.png,Friend,Stranger,m,2.3,17,27,97,,,,,0,0,0,0,,,,,4,10,58,7,,,,,,,,,,,,,,,,,,,,,1.644,2.465,332.87689950014465,None,,,,,,,,,,,,,,,,,,,,333.41859810007736,333.9204438000452,0.5041630098130554,1.0044322100002319,333.90377990016714,334.02050320012495,333.90377990016714,334.02050320012495,334.003837000113,None,m,1,0.626701399916783,334.003837000113,None,,,,,,35,p22,2022_May_02_1044,training+cueing,2021.1.4,59.60399109309477,
Stranger.png,Stranger,Stranger,c,3,13,23,93,,,,,0,0,0,0,,,,,4,11,59,11,,,,,,,,,,,,,,,,,,,,,1.68,2.375,334.760257499991,None,,,,,,,,,,,,,,,,,,,,335.30184249999,335.8051611999981,0.5045776101760566,1.005322510143742,335.7886185001116,335.90516890003346,335.7886185001116,335.90516890003346,335.8885065000504,None,c,1,0.5820108999032527,335.8885065000504,None,,,,,,35,p22,2022_May_02_1044,training+cueing,2021.1.4,59.60399109309477,
Stranger.png,You,Stranger,m,1.3,15,25,95,,,,,0,0,0,0,,,,,5,0,60,6,,,,,,,,,,,,,,,,,,,,,1.757,2.421,336.59680719999596,None,,,,,,,,,,,,,,,,,,,,337.137061299989,337.6397806999739,0.5064513098914176,1.0067224097438157,337.62312770006247,337.72319369995967,337.62312770006247,337.72319369995967,337.72319369995967,None,m,1,0.6033465000800788,337.72319369995967,None,,,,,,35,p22,2022_May_02_1044,training+cueing,2021.1.4,59.60399109309477,
Self.png,Friend,Self ,m,2.1,16,26,96,,,,,0,0,0,0,,,,,5,1,61,1,,,,,,,,,,,,,,,,,,,,,1.491,1.724,338.46303280000575,None,,,,,,,,,,,,,,,,,,,,339.01952620013617,339.524729100056,0.5118382801301777,1.0118432801682502,339.50807340000756,339.62455280008726,339.50807340000756,339.62455280008726,339.60784170008264,None,m,1,0.7508713998831809,339.60784170008264,None,,,,,,35,p22,2022_May_02_1044,training+cueing,2021.1.4,59.60399109309477,
Stranger.png,Stranger,Stranger,c,3,13,23,93,,,,,0,0,0,0,,,,,5,2,62,11,,,,,,,,,,,,,,,,,,,,,1.74,2.392,340.4815003001131,None,,,,,,,,,,,,,,,,,,,,341.02364520006813,341.5260016999673,0.5043525099754333,1.0046510100364685,341.50921620009467,341.62599770003,341.50921620009467,341.62599770003,341.6092599001713,None,c,1,0.845298099797219,341.6092599001713,None,,,,,,35,p22,2022_May_02_1044,training+cueing,2021.1.4,59.60399109309477,
Self.png,You,Self ,c,1,11,21,91,,,,,0,0,0,0,,,,,5,3,63,9,,,,,,,,,,,,,,,,,,,,,1.739,2.449,342.5829288000241,None,,,,,,,,,,,,,,,,,,,,343.1233600000851,343.62745749996975,0.507002409780398,1.0078193098306656,343.6107831001282,343.7108040000312,343.6107831001282,343.7108040000312,343.7108040000312,None,c,1,0.7117671999149024,343.7108040000312,None,,,,,,35,p22,2022_May_02_1044,training+cueing,2021.1.4,59.60399109309477,
Stranger.png,Stranger,Stranger,c,3,13,23,93,,,,,0,0,0,0,,,,,5,4,64,8,,,,,,,,,,,,,,,,,,,,,1.696,1.934,344.55433710012585,None,,,,,,,,,,,,,,,,,,,,345.1043589001056,345.61221550009213,0.5133892798330635,1.0137295799795538,345.5955352000892,345.7122371001169,345.5955352000892,345.7122371001169,345.69558800011873,None,c,1,0.710985500132665,345.69558800011873,None,,,,,,35,p22,2022_May_02_1044,training+cueing,2021.1.4,59.60399109309477,
Friend.png,Friend,Friend,c,2,12,22,92,,,,,0,0,0,0,,,,,5,5,65,10,,,,,,,,,,,,,,,,,,,,,1.7,1.291,346.5351740999613,None,,,,,,,,,,,,,,,,,,,,347.0770169000607,347.5802955001127,0.506855609593913,1.007123809773475,347.5636672000401,347.6803727999795,347.5636672000401,347.6803727999795,347.6636734001804,None,c,1,0.4708672999404371,347.6636734001804,None,,,,,,35,p22,2022_May_02_1044,training+cueing,2021.1.4,59.60399109309477,
Self.png,You,Self ,c,1,11,21,91,,,,,0,0,0,0,,,,,5,6,66,0,,,,,,,,,,,,,,,,,,,,,1.784,2.369,348.2703003999777,None,,,,,,,,,,,,,,,,,,,,348.8110621001106,349.31492420006543,0.5076232098508626,1.007923309924081,349.29820220009424,349.3982639000751,349.29820220009424,349.3982639000751,349.3982639000751,None,c,1,0.5442645000293851,349.3982639000751,None,,,,,,35,p22,2022_May_02_1044,training+cueing,2021.1.4,59.60399109309477,
Stranger.png,Friend,Stranger,m,2.3,17,27,97,,,,,0,0,0,0,,,,,5,7,67,7,,,,,,,,,,,,,,,,,,,,,1.761,1.602,350.07197450008243,None,,,,,,,,,,,,,,,,,,,,350.61963060009293,351.1328612000216,0.5075367100071162,1.0079419100657105,351.1161676000338,351.2329461001791,351.1161676000338,351.2329461001791,351.2161845001392,None,m,1,0.6785925999283791,351.2161845001392,None,,,,,,35,p22,2022_May_02_1044,training+cueing,2021.1.4,59.60399109309477,
Self.png,Stranger,Self ,m,3.1,18,28,98,,,,,0,0,0,0,,,,,5,8,68,2,,,,,,,,,,,,,,,,,,,,,1.644,2.146,352.02608370012604,None,,,,,,,,,,,,,,,,,,,,352.5668601000216,353.06761980010197,0.5027804099954665,1.0032160100527108,353.0509342001751,353.16767400014214,353.0509342001751,353.16767400014214,353.15095220017247,None,m,1,0.6796273000072688,353.15095220017247,None,,,,,,35,p22,2022_May_02_1044,training+cueing,2021.1.4,59.60399109309477,
Friend.png,Stranger,Friend,m,3.2,19,29,99,,,,,0,0,0,0,,,,,5,9,69,5,,,,,,,,,,,,,,,,,,,,,1.72,1.564,353.95770690008067,None,,,,,,,,,,,,,,,,,,,,354.4966415001545,355.0025055001024,0.5108668101020157,1.0111325101461262,354.98581780004315,355.1025394999888,354.98581780004315,355.1025394999888,355.08581910002977,None,m,1,0.7767318999394774,355.08581910002977,None,,,,,,35,p22,2022_May_02_1044,training+cueing,2021.1.4,59.60399109309477,
Friend.png,You,Friend,m,1.2,14,24,94,,,,,0,0,0,0,,,,,5,10,70,3,,,,,,,,,,,,,,,,,,,,,1.764,1.874,355.99360110005364,None,,,,,,,,,,,,,,,,,,,,356.5330006000586,357.03709270013496,0.5057737098541111,1.0060795098543167,357.0204430001322,357.1205311999656,357.0204430001322,357.1205311999656,357.1205311999656,None,m,1,0.7899687001481652,357.1205311999656,None,,,,,,35,p22,2022_May_02_1044,training+cueing,2021.1.4,59.60399109309477,
Friend.png,Friend,Friend,c,2,12,22,92,,,,,0,0,0,0,,,,,5,11,71,4,,,,,,,,,,,,,,,,,,,,,1.706,1.33,358.04433990013786,None,,,,,,,,,,,,,,,,,,,,358.59372330014594,359.10528240003623,0.5058330097235739,1.0067447097972035,359.0886291000061,359.2053162001539,359.0886291000061,359.2053162001539,359.18867040006444,None,c,1,0.49798640003427863,359.18867040006444,None,,,,,,35,p22,2022_May_02_1044,training+cueing,2021.1.4,59.60399109309477,
Stranger.png,Friend,Stranger,m,2.3,17,27,97,,,,,0,0,0,0,,,,,6,0,72,7,,,,,,,,,,,,,,,,,,,,,1.695,2.397,359.8158797000069,None,,,,,,,,,,,,,,,,,,,,360.3514360000845,360.8565184001345,0.5077382097952068,1.0082412099000067,360.83986590011045,360.9571096000727,360.83986590011045,360.9571096000727,360.9398827000987,None,m,1,0.6505739002022892,360.9398827000987,None,,,,,,35,p22,2022_May_02_1044,training+cueing,2021.1.4,59.60399109309477,
Stranger.png,You,Stranger,m,1.3,15,25,95,,,,,0,0,0,0,,,,,6,1,73,6,,,,,,,,,,,,,,,,,,,,,1.797,2.26,361.71443430008367,None,,,,,,,,,,,,,,,,,,,,362.2696740999818,362.77457790006883,0.510643080342561,1.0109516801312566,362.75794180016965,362.8579844001215,362.75794180016965,362.8579844001215,362.8579844001215,None,m,1,0.7004511000122875,362.8579844001215,None,,,,,,35,p22,2022_May_02_1044,training+cueing,2021.1.4,59.60399109309477,
Stranger.png,Stranger,Stranger,c,3,13,23,93,,,,,0,0,0,0,,,,,6,2,74,8,,,,,,,,,,,,,,,,,,,,,1.428,2.075,363.6816082999576,None,,,,,,,,,,,,,,,,,,,,364.2238888000138,364.726181200007,0.5058478100690991,1.0061321100220084,364.7095040001441,364.82634050003253,364.7095040001441,364.82634050003253,364.8095363001339,None,c,1,0.6850818998645991,364.8095363001339,None,,,,,,35,p22,2022_May_02_1044,training+cueing,2021.1.4,59.60399109309477,
Friend.png,Stranger,Friend,m,3.2,19,29,99,,,,,0,0,0,0,,,,,6,3,75,5,,,,,,,,,,,,,,,,,,,,,1.414,2.123,365.61751290014945,None,,,,,,,,,,,,,,,,,,,,366.1555608001072,366.66078130016103,0.5077886099461466,1.008046309929341,366.6440576000605,366.7608244000003,366.6440576000605,366.7608244000003,366.74410140002146,None,m,1,0.5423969998955727,366.74410140002146,None,,,,,,35,p22,2022_May_02_1044,training+cueing,2021.1.4,59.60399109309477,
Self.png,Friend,Self ,m,2.1,16,26,96,,,,,0,0,0,0,,,,,6,4,76,1,,,,,,,,,,,,,,,,,,,,,1.727,1.953,367.4175390000455,None,,,,,,,,,,,,,,,,,,,,367.95935679995455,368.46210990007967,0.5069091101177037,1.0072360101621598,368.4453720001038,368.56212580017745,368.4453720001038,368.56212580017745,368.54540659999475,None,m,1,0.629099200014025,368.54540659999475,None,,,,,,35,p22,2022_May_02_1044,training+cueing,2021.1.4,59.60399109309477,
Stranger.png,Stranger,Stranger,c,3,13,23,93,,,,,0,0,0,0,,,,,6,5,77,11,,,,,,,,,,,,,,,,,,,,,1.71,2.339,369.30248529999517,None,,,,,,,,,,,,,,,,,,,,369.84502390003763,370.34674490010366,0.5052491100504994,1.0055550099350512,370.33003249997273,370.44681520015,370.33003249997273,370.44681520015,370.43007340002805,None,c,1,0.6325641998555511,370.43007340002805,None,,,,,,35,p22,2022_May_02_1044,training+cueing,2021.1.4,59.60399109309477,
Friend.png,Friend,Friend,c,2,12,22,92,,,,,0,0,0,0,,,,,6,6,78,10,,,,,,,,,,,,,,,,,,,,,1.786,2.459,371.19074380001985,None,,,,,,,,,,,,,,,,,,,,371.7299349999521,372.23151409998536,0.5024558103177696,1.0027400101535022,372.2148412000388,372.33156049996614,372.2148412000388,372.33156049996614,372.3148852000013,None,c,1,0.7475242000073195,372.3148852000013,None,,,,,,35,p22,2022_May_02_1044,training+cueing,2021.1.4,59.60399109309477,
Self.png,You,Self ,c,1,11,21,91,,,,,0,0,0,0,,,,,6,7,79,9,,,,,,,,,,,,,,,,,,,,,1.611,1.383,373.1892079000827,None,,,,,,,,,,,,,,,,,,,,373.7314144000411,374.2329057001043,0.5042801096569747,1.0045414096675813,374.21622830000706,374.3162197000347,374.21622830000706,374.3162197000347,374.3162197000347,None,c,1,0.618288500001654,374.3162197000347,None,,,,,,35,p22,2022_May_02_1044,training+cueing,2021.1.4,59.60399109309477,
Friend.png,You,Friend,m,1.2,14,24,94,,,,,0,0,0,0,,,,,6,8,80,3,,,,,,,,,,,,,,,,,,,,,1.719,1.717,375.0568409000989,None,,,,,,,,,,,,,,,,,,,,375.5943660000339,376.10093159996904,0.51123060984537,1.0115290097892284,376.0842345999554,376.18428519996814,376.0842345999554,376.18428519996814,376.18428519996814,None,m,1,0.5262200001161546,376.18428519996814,None,,,,,,35,p22,2022_May_02_1044,training+cueing,2021.1.4,59.60399109309477,
Self.png,Stranger,Self ,m,3.1,18,28,98,,,,,0,0,0,0,,,,,6,9,81,2,,,,,,,,,,,,,,,,,,,,,1.43,1.651,376.8400047000032,None,,,,,,,,,,,,,,,,,,,,377.3828261999879,377.8855095000472,0.5055638102348894,1.0058972102124244,377.8688714001328,377.98554050014354,377.8688714001328,377.98554050014354,377.9689021999948,None,m,1,0.8375683000776917,377.9689021999948,None,,,,,,35,p22,2022_May_02_1044,training+cueing,2021.1.4,59.60399109309477,
Self.png,You,Self ,c,1,11,21,91,,,,,0,0,0,0,,,,,6,10,82,0,,,,,,,,,,,,,,,,,,,,,1.427,1.597,378.941942299949,None,,,,,,,,,,,,,,,,,,,,379.4838229001034,379.987006300129,0.5067773098126054,1.0072645097970963,379.97035730001517,380.07041330006905,379.97035730001517,380.07041330006905,380.07041330006905,None,c,1,0.8321757998783141,380.07041330006905,None,,,,,,35,p22,2022_May_02_1044,training+cueing,2021.1.4,59.60399109309477,
Friend.png,Friend,Friend,c,2,12,22,92,,,,,0,0,0,0,,,,,6,11,83,4,,,,,,,,,,,,,,,,,,,,,1.597,1.424,381.0284160000738,None,,,,,,,,,,,,,,,,,,,,381.5762730001006,382.0885956999846,0.5052060096058995,1.0054960097186267,382.07188230007887,382.1886687001679,382.07188230007887,382.1886687001679,382.17191680008546,None,c,1,0.5865504001267254,382.17191680008546,None,,,,,,35,p22,2022_May_02_1044,training+cueing,2021.1.4,59.60399109309477,
Friend.png,Friend,Friend,c,2,12,22,92,,,,,0,0,0,0,,,,,7,0,84,10,,,,,,,,,,,,,,,,,,,,,1.598,1.81,382.89525560010225,None,,,,,,,,,,,,,,,,,,,,383.43280529999174,383.93993060011417,0.5149585101753473,1.0152649101801217,383.9232139000669,384.03996490011923,383.9232139000669,384.03996490011923,384.0232345000841,None,c,1,0.5912113001104444,384.0232345000841,None,,,,,,35,p22,2022_May_02_1044,training+cueing,2021.1.4,59.60399109309477,
Friend.png,Stranger,Friend,m,3.2,19,29,99,,,,,0,0,0,0,,,,,7,1,85,5,,,,,,,,,,,,,,,,,,,,,1.511,2.039,384.74708800017834,None,,,,,,,,,,,,,,,,,,,,385.2892851000652,385.79119070013985,0.5053549099247903,1.0056655099615455,385.7745489999652,385.89135200018063,385.7745489999652,385.89135200018063,385.87457950017415,None,m,1,0.579916600137949,385.87457950017415,None,,,,,,35,p22,2022_May_02_1044,training+cueing,2021.1.4,59.60399109309477,
Self.png,You,Self ,c,1,11,21,91,,,,,0,0,0,0,,,,,7,2,86,0,,,,,,,,,,,,,,,,,,,,,1.508,2.077,386.5814710999839,None,,,,,,,,,,,,,,,,,,,,387.1219186000526,387.6259198000189,0.5063113099895418,1.0070373101625592,387.60929960012436,387.7092874001246,387.60929960012436,387.7092874001246,387.7092874001246,None,c,1,0.5371185000985861,387.7092874001246,None,,,,,,35,p22,2022_May_02_1044,training+cueing,2021.1.4,59.60399109309477,
Friend.png,You,Friend,m,1.2,14,24,94,,,,,0,0,0,0,,,,,7,3,87,3,,,,,,,,,,,,,,,,,,,,,1.745,1.902,388.38454230013303,None,,,,,,,,,,,,,,,,,,,,388.9221839001402,389.42721140012145,0.5092663101386279,1.009536610217765,389.41054129996337,389.51058100000955,389.41054129996337,389.51058100000955,389.51058100000955,None,m,1,0.6403252999298275,389.51058100000955,None,,,,,,35,p22,2022_May_02_1044,training+cueing,2021.1.4,59.60399109309477,
Stranger.png,Friend,Stranger,m,2.3,17,27,97,,,,,0,0,0,0,,,,,7,4,88,7,,,,,,,,,,,,,,,,,,,,,1.653,1.483,390.2853002001066,None,,,,,,,,,,,,,,,,,,,,390.8254007999785,391.3285785000771,0.5032780100591481,1.0041327101644129,391.31190430000424,391.42859919997863,391.31190430000424,391.42859919997863,391.41190750012174,None,m,1,0.7225214000791311,391.41190750012174,None,,,,,,35,p22,2022_May_02_1044,training+cueing,2021.1.4,59.60399109309477,
Friend.png,Friend,Friend,c,2,12,22,92,,,,,0,0,0,0,,,,,7,5,89,4,,,,,,,,,,,,,,,,,,,,,1.586,1.43,392.26885150000453,None,,,,,,,,,,,,,,,,,,,,392.8070529999677,393.3133458001539,0.5122301101218909,1.0125926102045923,393.2966512001585,393.4134666000027,393.2966512001585,393.4134666000027,393.3967473001685,None,m,0,0.7697389998938888,393.3967473001685,None,,,,,,35,p22,2022_May_02_1044,training+cueing,2021.1.4,59.60399109309477,
Self.png,You,Self ,c,1,11,21,91,,,,,0,0,0,0,,,,,7,6,90,9,,,,,,,,,,,,,,,,,,,,,1.485,2.177,394.3038201001473,None,,,,,,,,,,,,,,,,,,,,394.84425160009414,395.34815340000205,0.5075365100055933,1.0078212099615484,395.33143709995784,395.43150019994937,395.33143709995784,395.43150019994937,395.43150019994937,None,c,1,0.5429692000616342,395.43150019994937,None,,,,,,35,p22,2022_May_02_1044,training+cueing,2021.1.4,59.60399109309477,
Stranger.png,Stranger,Stranger,c,3,13,23,93,,,,,0,0,0,0,,,,,7,7,91,11,,,,,,,,,,,,,,,,,,,,,1.731,1.436,396.10514600016177,None,,,,,,,,,,,,,,,,,,,,396.6449794000946,397.14945450006053,0.5068714101798832,1.0072039102669805,397.1327611000743,397.24951610015705,397.1327611000743,397.24951610015705,397.2327346999664,None,c,1,0.6297669999767095,397.2327346999664,None,,,,,,35,p22,2022_May_02_1044,training+cueing,2021.1.4,59.60399109309477,
Self.png,Stranger,Self ,m,3.1,18,28,98,,,,,0,0,0,0,,,,,7,8,92,2,,,,,,,,,,,,,,,,,,,,,1.705,1.428,397.9893211000599,None,,,,,,,,,,,,,,,,,,,,398.5439876001328,399.05080830003135,0.5151112801395357,1.0154060800559819,399.0341529001016,399.1508447001688,399.0341529001016,399.1508447001688,399.1341735001188,None,m,1,0.6963029999751598,399.1341735001188,None,,,,,,35,p22,2022_May_02_1044,training+cueing,2021.1.4,59.60399109309477,
Stranger.png,You,Stranger,m,1.3,15,25,95,,,,,0,0,0,0,,,,,7,9,93,6,,,,,,,,,,,,,,,,,,,,,1.706,1.709,399.95731190009974,None,,,,,,,,,,,,,,,,,,,,400.49834100017324,401.0022005001083,0.5076957100536674,1.0079642101190984,400.9855458000675,401.08558270009235,400.9855458000675,401.08558270009235,401.08558270009235,None,m,1,0.5848758001811802,401.08558270009235,None,,,,,,35,p22,2022_May_02_1044,training+cueing,2021.1.4,59.60399109309477,
Self.png,Friend,Self ,m,2.1,16,26,96,,,,,0,0,0,0,,,,,7,10,94,1,,,,,,,,,,,,,,,,,,,,,1.521,1.316,401.7919287001714,None,,,,,,,,,,,,,,,,,,,,402.34799919999205,402.8536408999935,0.509528580121696,1.0097951800562441,402.83700689999387,402.95371300005354,402.83700689999387,402.95371300005354,402.9370431001298,None,c,0,0.733367099892348,402.9370431001298,None,,,,,,35,p22,2022_May_02_1044,training+cueing,2021.1.4,59.60399109309477,
Stranger.png,Stranger,Stranger,c,3,13,23,93,,,,,0,0,0,0,,,,,7,11,95,8,,,,,,,,,,,,,,,,,,,,,1.553,2.039,403.79360750014894,None,,,,,,,,,,,,,,,,,,,,404.33581480011344,404.83826570003293,0.5048973101656884,1.005105710355565,404.82168930000626,404.9383429000154,404.82168930000626,404.9383429000154,404.92168300016783,None,c,1,0.6687525999732316,404.92168300016783,None,,,,,,35,p22,2022_May_02_1044,training+cueing,2021.1.4,59.60399109309477,
Stranger.png,Friend,Stranger,m,2.3,17,27,97,,,,,0,0,0,0,,,,,8,0,96,7,,,,,,,,,,,,,,,,,,,,,1.472,1.77,405.7277085999958,None,,,,,,,,,,,,,,,,,,,,406.2694829001557,406.7729956000112,0.5057979102712125,1.0060630103107542,406.75636840006337,406.87310550012626,406.75636840006337,406.87310550012626,406.8563751000911,None,m,1,0.7499905000440776,406.8563751000911,None,,,,,,35,p22,2022_May_02_1044,training+cueing,2021.1.4,59.60399109309477,
Friend.png,Friend,Friend,c,2,12,22,92,,,,,0,0,0,0,,,,,8,1,97,4,,,,,,,,,,,,,,,,,,,,,1.438,2.364,407.7294414001517,None,,,,,,,,,,,,,,,,,,,,408.2684232001193,408.77450260007754,0.5110788098536432,1.0113725098781288,408.7578174001537,408.87457510014065,408.7578174001537,408.87457510014065,408.8577942000702,None,c,1,0.5727836999576539,408.8577942000702,None,,,,,,35,p22,2022_May_02_1044,training+cueing,2021.1.4,59.60399109309477,
Self.png,You,Self ,c,1,11,21,91,,,,,0,0,0,0,,,,,8,2,98,0,,,,,,,,,,,,,,,,,,,,,1.53,1.784,409.5642528999597,None,,,,,,,,,,,,,,,,,,,,410.11403020005673,410.62582550011575,0.5072470100130886,1.0075629099737853,410.60914850002155,410.70919540012255,410.60914850002155,410.70919540012255,410.70919540012255,None,c,1,0.6092238000128418,410.70919540012255,None,,,,,,35,p22,2022_May_02_1044,training+cueing,2021.1.4,59.60399109309477,
Friend.png,You,Friend,m,1.2,14,24,94,,,,,0,0,0,0,,,,,8,3,99,3,,,,,,,,,,,,,,,,,,,,,1.72,1.326,411.44945119996555,None,,,,,,,,,,,,,,,,,,,,411.98756680008955,412.4938674001023,0.5109141101129353,1.0113789101596922,412.47715570009314,412.5771906999871,412.47715570009314,412.5771906999871,412.5771906999871,None,m,1,0.7412795000709593,412.5771906999871,None,,,,,,35,p22,2022_May_02_1044,training+cueing,2021.1.4,59.60399109309477,
Stranger.png,You,Stranger,m,1.3,15,25,95,,,,,0,0,0,0,,,,,8,4,100,6,,,,,,,,,,,,,,,,,,,,,1.469,2.221,413.45225120009854,None,,,,,,,,,,,,,,,,,,,,413.9916962001007,414.49537360016257,0.5068217096850276,1.0071331097278744,414.47861610003747,414.5786709000822,414.47861610003747,414.5786709000822,414.5786709000822,None,m,1,0.643790400121361,414.5786709000822,None,,,,,,35,p22,2022_May_02_1044,training+cueing,2021.1.4,59.60399109309477,
Stranger.png,Stranger,Stranger,c,3,13,23,93,,,,,0,0,0,0,,,,,8,5,101,8,,,,,,,,,,,,,,,,,,,,,1.486,1.865,415.35166150005534,None,,,,,,,,,,,,,,,,,,,,415.89425690006465,416.39668220002204,0.5057170100044459,1.0060075100045651,416.38001710013486,416.49692010018043,416.38001710013486,416.49692010018043,416.4800411001779,None,c,1,0.6624378000851721,416.4800411001779,None,,,,,,35,p22,2022_May_02_1044,training+cueing,2021.1.4,59.60399109309477,
Self.png,You,Self ,c,1,11,21,91,,,,,0,0,0,0,,,,,8,6,102,9,,,,,,,,,,,,,,,,,,,,,1.743,1.5,417.2695240001194,None,,,,,,,,,,,,,,,,,,,,417.8267946001142,418.331499800086,0.5077972798608243,1.0079703798983246,418.3148644999601,418.41487350012176,418.3148644999601,418.41487350012176,418.41487350012176,None,c,1,1.063520200084895,418.41487350012176,None,,,,,,35,p22,2022_May_02_1044,training+cueing,2021.1.4,59.60399109309477,
Friend.png,Stranger,Friend,m,3.2,19,29,99,,,,,0,0,0,0,,,,,8,7,103,5,,,,,,,,,,,,,,,,,,,,,1.79,1.747,419.60548260016367,None,,,,,,,,,,,,,,,,,,,,420.1586484001018,420.6664307001047,0.515286180190742,1.016159180086106,420.6497275000438,420.7664714001585,420.6497275000438,420.7664714001585,420.7497413000092,None,m,1,0.7128894999623299,420.7497413000092,None,,,,,,35,p22,2022_May_02_1044,training+cueing,2021.1.4,59.60399109309477,
Self.png,Stranger,Self ,m,3.1,18,28,98,,,,,0,0,0,0,,,,,8,8,104,2,,,,,,,,,,,,,,,,,,,,,1.695,1.961,421.593667200068,None,,,,,,,,,,,,,,,,,,,,422.1456268001348,422.65118689998053,0.5098266799468547,1.015521080000326,422.6345192999579,422.75128190009855,422.6345192999579,422.75128190009855,422.734571200097,None,m,1,0.7918960000388324,422.734571200097,None,,,,,,35,p22,2022_May_02_1044,training+cueing,2021.1.4,59.60399109309477,
Self.png,Friend,Self ,m,2.1,16,26,96,,,,,0,0,0,0,,,,,8,9,105,1,,,,,,,,,,,,,,,,,,,,,1.606,2.303,423.65955850016326,None,,,,,,,,,,,,,,,,,,,,424.2095187001396,424.71934580011293,0.5022569098509848,1.0025946099776775,424.70266230008565,424.8194010001607,424.70266230008565,424.8194010001607,424.80268379999325,None,m,1,0.7877636000048369,424.80268379999325,None,,,,,,35,p22,2022_May_02_1044,training+cueing,2021.1.4,59.60399109309477,
Stranger.png,Stranger,Stranger,c,3,13,23,93,,,,,0,0,0,0,,,,,8,10,106,11,,,,,,,,,,,,,,,,,,,,,1.605,1.922,425.72637789999135,None,,,,,,,,,,,,,,,,,,,,426.2751752000768,426.78751060017385,0.5084450102876872,1.008760210359469,426.77079079998657,426.88758249999955,426.77079079998657,426.88758249999955,426.87085820012726,None,c,1,0.639823199948296,426.87085820012726,None,,,,,,35,p22,2022_May_02_1044,training+cueing,2021.1.4,59.60399109309477,
Friend.png,Friend,Friend,c,2,12,22,92,,,,,0,0,0,0,,,,,8,11,107,10,,,,,,,,,,,,,,,,,,,,,1.778,2.257,427.6437270999886,None,,,,,,,,,,,,,,,,,,,,428.19269510009326,428.70557870017365,0.5077929098624736,1.0080592099111527,428.68889340013266,428.80565630015917,428.68889340013266,428.80565630015917,428.78890400007367,None,c,1,0.6414801999926567,428.78890400007367,None,,,,,,35,p22,2022_May_02_1044,training+cueing,2021.1.4,59.60399109309477,
Self.png,You,Self ,c,1,11,21,91,,,,,0,0,0,0,,,,,9,0,108,0,,,,,,,,,,,,,,,,,,,,,1.66,1.71,429.5622786001768,None,,,,,,,,,,,,,,,,,,,,430.10357469995506,430.6069466001354,0.5066392098087817,1.0069068097509444,430.5902961001266,430.69033370004036,430.5902961001266,430.69033370004036,430.69033370004036,None,c,1,0.6767432999331504,430.69033370004036,None,,,,,,35,p22,2022_May_02_1044,training+cueing,2021.1.4,59.60399109309477,
Self.png,Friend,Self ,m,2.1,16,26,96,,,,,0,0,0,0,,,,,9,1,109,1,,,,,,,,,,,,,,,,,,,,,1.556,1.795,431.500906100031,None,,,,,,,,,,,,,,,,,,,,432.0400962999556,432.54170040017925,0.5031138102058321,1.0034711102489382,432.5250248000957,432.64170220005326,432.5250248000957,432.64170220005326,432.6250301999971,None,m,1,0.7256171000190079,432.6250301999971,None,,,,,,35,p22,2022_May_02_1044,training+cueing,2021.1.4,59.60399109309477,
Friend.png,Stranger,Friend,m,3.2,19,29,99,,,,,0,0,0,0,,,,,9,2,110,5,,,,,,,,,,,,,,,,,,,,,1.539,2.268,433.48526090011,None,,,,,,,,,,,,,,,,,,,,434.0287761001382,434.5431230000686,0.5098024101462215,1.0100392100866884,434.5264751999639,434.6431593000889,434.5264751999639,434.6431593000889,434.62647880008444,None,m,1,0.803899799939245,434.62647880008444,None,,,,,,35,p22,2022_May_02_1044,training+cueing,2021.1.4,59.60399109309477,
Friend.png,Friend,Friend,c,2,12,22,92,,,,,0,0,0,0,,,,,9,3,111,10,,,,,,,,,,,,,,,,,,,,,1.713,1.67,435.56593549996614,None,,,,,,,,,,,,,,,,,,,,436.1077223001048,436.611423100112,0.5066059101372957,1.0068410101812333,436.594781300053,436.7114773001522,436.594781300053,436.7114773001522,436.6947699000593,None,c,1,0.6396077000536025,436.6947699000593,None,,,,,,35,p22,2022_May_02_1044,training+cueing,2021.1.4,59.60399109309477,
Friend.png,You,Friend,m,1.2,14,24,94,,,,,0,0,0,0,,,,,9,4,112,3,,,,,,,,,,,,,,,,,,,,,1.489,2.361,437.4691109000705,None,,,,,,,,,,,,,,,,,,,,438.0075509001035,438.5125798000954,0.5071148101706058,1.007365110097453,438.4959990000352,438.5960286001209,438.4959990000352,438.5960286001209,438.5960286001209,None,m,1,0.5784084000624716,438.5960286001209,None,,,,,,35,p22,2022_May_02_1044,training+cueing,2021.1.4,59.60399109309477,
Stranger.png,Stranger,Stranger,c,3,13,23,93,,,,,0,0,0,0,,,,,9,5,113,11,,,,,,,,,,,,,,,,,,,,,1.415,2.188,439.30285089998506,None,,,,,,,,,,,,,,,,,,,,439.84558450011536,440.3474351000041,0.5023561099078506,1.004619810031727,440.32889360003173,440.4307518999558,440.32889360003173,440.4307518999558,440.4307518999558,None,c,1,0.695708499988541,440.4307518999558,None,,,,,,35,p22,2022_May_02_1044,training+cueing,2021.1.4,59.60399109309477,
Self.png,Stranger,Self ,m,3.1,18,28,98,,,,,0,0,0,0,,,,,9,6,114,2,,,,,,,,,,,,,,,,,,,,,1.748,1.669,441.2545718001202,None,,,,,,,,,,,,,,,,,,,,441.79437629994936,442.2987115001306,0.5087393098510802,1.009012509835884,442.2820324001368,442.39874910004437,442.2820324001368,442.39874910004437,442.3820877999533,None,m,1,0.5522209999617189,442.3820877999533,None,,,,,,35,p22,2022_May_02_1044,training+cueing,2021.1.4,59.60399109309477,
Stranger.png,You,Stranger,m,1.3,15,25,95,,,,,0,0,0,0,,,,,9,7,115,6,,,,,,,,,,,,,,,,,,,,,1.785,1.957,443.0560731999576,None,,,,,,,,,,,,,,,,,,,,443.59496850008145,444.1000026999973,0.5075667100027204,1.0078312100376934,444.08334810007364,444.1835185000673,444.08334810007364,444.1835185000673,444.1835185000673,None,m,1,0.6709249000996351,444.1835185000673,None,,,,,,35,p22,2022_May_02_1044,training+cueing,2021.1.4,59.60399109309477,
Stranger.png,Stranger,Stranger,c,3,13,23,93,,,,,0,0,0,0,,,,,9,8,116,8,,,,,,,,,,,,,,,,,,,,,1.691,1.92,444.9915682000574,None,,,,,,,,,,,,,,,,,,,,445.53362650005147,446.03474070015363,0.5024854100774974,1.0028379100840539,446.0180371000897,446.1348065000493,446.0180371000897,446.1348065000493,446.11807480012067,None,c,1,0.6242700000293553,446.11807480012067,None,,,,,,35,p22,2022_May_02_1044,training+cueing,2021.1.4,59.60399109309477,
Stranger.png,Friend,Stranger,m,2.3,17,27,97,,,,,0,0,0,0,,,,,9,9,117,7,,,,,,,,,,,,,,,,,,,,,1.481,1.334,446.8744844000321,None,,,,,,,,,,,,,,,,,,,,447.41669700015336,447.9194443000015,0.5065753101371229,1.0069477101787925,447.90275470004417,448.01950840000063,447.90275470004417,448.01950840000063,448.00279080006294,None,m,1,0.5636623001191765,448.00279080006294,None,,,,,,35,p22,2022_May_02_1044,training+cueing,2021.1.4,59.60399109309477,
Self.png,You,Self ,c,1,11,21,91,,,,,0,0,0,0,,,,,9,10,118,9,,,,,,,,,,,,,,,,,,,,,1.639,1.664,448.6932036001235,None,,,,,,,,,,,,,,,,,,,,449.2335028001107,449.73738620011136,0.5067870100028813,1.007083109812811,449.72074000001885,449.8207891001366,449.72074000001885,449.8207891001366,449.8207891001366,None,c,1,0.618157000048086,449.8207891001366,None,,,,,,35,p22,2022_May_02_1044,training+cueing,2021.1.4,59.60399109309477,
Friend.png,Friend,Friend,c,2,12,22,92,,,,,0,0,0,0,,,,,9,11,119,4,,,,,,,,,,,,,,,,,,,,,1.503,2.152,450.5643988000229,None,,,,,,,,,,,,,,,,,,,,451.10471420013346,451.60544850002043,0.5023305099457502,1.0026315099094063,451.58877449994907,451.70545260002837,451.58877449994907,451.70545260002837,451.68879460007884,None,c,1,0.6378569998778403,451.68879460007884,None,,,,,,35,p22,2022_May_02_1044,training+cueing,2021.1.4,59.60399109309477,
,,,,,,,,,,,,0,0,0,0,,,,,,,,,,,,,,,,,,,,,,,,,,,,,,,,,,,,,,,,,,,,,,,,,,,,,,,,,,,,,,,,,,,0.015366859966889024,0.5135300599504262,,,,35,p22,2022_May_02_1044,training+cueing,2021.1.4,59.60399109309477,
Self.png,Friend,Self ,m,2.1,16,26,96,,,,,1,0,1,0,0,0,0,1,,,,,,,,,,,,,,,,,452.97327660000883,None,space,5.7683049000333995,2.0121322700288147,None,460.74551960011013,None,1.47,1.392,463.7618740000762,None,464.2946142000146,464.7982665000018,464.7815968999639,464.89834109996445,464.7815968999639,464.89834109996445,464.8816252001561,None,m,1,1.028872299939394,464.8816252001561,None,465.9314171001315,None,,,,,,,,,,,,,,,,,,,,,,,,,35,p22,2022_May_02_1044,training+cueing,2021.1.4,59.60399109309477,
Friend.png,Friend,Friend,c,2,12,22,92,,,,,1,0,1,0,0,1,1,10,,,,,,,,,,,,,,,,,,,,,,,,,1.606,1.241,466.3330727000721,None,466.863404000178,467.3668743001763,467.35013450006954,467.4670075001195,467.35013450006954,467.4670075001195,467.450172000099,None,c,1,0.7001032000407577,467.450172000099,None,468.1674844000954,None,,,,,,,,,,,,,,,,,,,,,,,,,35,p22,2022_May_02_1044,training+cueing,2021.1.4,59.60399109309477,
Stranger.png,Stranger,Stranger,c,3,13,23,93,,,,,1,0,1,0,0,2,2,8,,,,,,,,,,,,,,,,,,,,,,,,,1.743,2.365,468.56782290013507,None,469.1119705999736,469.6184426001273,469.60175440018065,469.71857889997773,469.60175440018065,469.71857889997773,469.7017849001568,None,c,1,0.6085485999938101,469.7017849001568,None,470.3356427999679,None,,,,,,,,,,,,,,,,,,,,,,,,,35,p22,2022_May_02_1044,training+cueing,2021.1.4,59.60399109309477,
Friend.png,Stranger,Friend,m,3.2,19,29,99,,,,,1,0,1,0,0,3,3,5,,,,,,,,,,,,,,,,,,,,,,,,,1.404,1.567,470.73590030008927,None,471.28339060000144,471.786668300163,471.7699760000687,471.88674660003744,471.7699760000687,471.88674660003744,471.87002330017276,None,m,1,0.7122590998187661,471.87002330017276,None,472.6039778999984,None,,,,,,,,,,,,,,,,,,,,,,,,,35,p22,2022_May_02_1044,training+cueing,2021.1.4,59.60399109309477,
Stranger.png,Stranger,Stranger,c,3,13,23,93,,,,,1,0,1,0,0,4,4,11,,,,,,,,,,,,,,,,,,,,,,,,,1.731,2.118,473.00434179999866,None,473.5380564001389,474.0383413999807,474.0216207001358,474.1383744000923,474.0216207001358,474.1383744000923,474.1383744000923,None,c,1,0.7800354000646621,474.1383744000923,None,474.93767859996296,None,,,,,,,,,,,,,,,,,,,,,,,,,35,p22,2022_May_02_1044,training+cueing,2021.1.4,59.60399109309477,
Self.png,You,Self ,c,1,11,21,91,,,,,1,0,1,0,0,5,5,0,,,,,,,,,,,,,,,,,,,,,,,,,1.736,1.728,475.33922940003686,None,475.8710757000372,476.37388129998,476.3572289000731,476.45678180013783,476.3572289000731,476.45678180013783,476.45678180013783,None,c,1,0.5415527999866754,476.45678180013783,None,477.0220614001155,None,,,,,,,,,,,,,,,,,,,,,,,,,35,p22,2022_May_02_1044,training+cueing,2021.1.4,59.60399109309477,
Self.png,You,Self ,c,1,11,21,91,,,,,1,0,1,0,0,6,6,9,,,,,,,,,,,,,,,,,,,,,,,,,1.403,1.5,477.4241536001209,None,477.9573409999721,478.4583003001753,478.4416708999779,478.54171640006825,478.4416708999779,478.54171640006825,478.54171640006825,None,c,1,0.5526193999685347,478.54171640006825,None,479.12380659999326,None,,,,,,,,,,,,,,,,,,,,,,,,,35,p22,2022_May_02_1044,training+cueing,2021.1.4,59.60399109309477,
Stranger.png,You,Stranger,m,1.3,15,25,95,,,,,1,0,1,0,0,7,7,6,,,,,,,,,,,,,,,,,,,,,,,,,1.545,1.818,479.5257431000937,None,480.0635055000894,480.57652680017054,480.5580422000494,480.65983920008875,480.5580422000494,480.65983920008875,480.65983920008875,None,m,1,0.546513499924913,480.65983920008875,None,481.22523230011575,None,,,,,,,,,,,,,,,,,,,,,,,,,35,p22,2022_May_02_1044,training+cueing,2021.1.4,59.60399109309477,
Friend.png,Friend,Friend,c,2,12,22,92,,,,,1,0,1,0,0,8,8,4,,,,,,,,,,,,,,,,,,,,,,,,,1.594,1.776,481.62721040006727,None,482.16493770014495,482.67802760005,482.6594988000579,482.7613615000155,482.6594988000579,482.7613615000155,482.7613615000155,None,c,1,0.5569601999595761,482.7613615000155,None,483.3451350000687,None,,,,,,,,,,,,,,,,,,,,,,,,,35,p22,2022_May_02_1044,training+cueing,2021.1.4,59.60399109309477,
Stranger.png,Friend,Stranger,m,2.3,17,27,97,,,,,1,0,1,0,0,9,9,7,,,,,,,,,,,,,,,,,,,,,,,,,1.62,1.545,483.74543680017814,None,484.27630560006946,484.7793417000212,484.76271530007944,484.87941140006296,484.76271530007944,484.87941140006296,484.8627534999978,None,m,1,0.647494199918583,484.8627534999978,None,485.53003669995815,None,,,,,,,,,,,,,,,,,,,,,,,,,35,p22,2022_May_02_1044,training+cueing,2021.1.4,59.60399109309477,
Friend.png,You,Friend,m,1.2,14,24,94,,,,,1,0,1,0,0,10,10,3,,,,,,,,,,,,,,,,,,,,,,,,,1.798,2.284,485.9301903999876,None,486.46200309996493,486.96430370002054,486.94764510006644,487.04770960006863,486.94764510006644,487.04770960006863,487.04770960006863,None,m,1,0.8309043999761343,487.04770960006863,None,487.90111540001817,None,,,,,,,,,,,,,,,,,,,,,,,,,35,p22,2022_May_02_1044,training+cueing,2021.1.4,59.60399109309477,
Self.png,Stranger,Self ,m,3.1,18,28,98,,,,,1,0,1,0,0,11,11,2,,,,,,,,,,,,,,,,,,,,,,,,,1.709,2.214,488.3153473001439,None,488.8451189000625,489.3493924001232,489.33286370011047,489.4494374000933,489.33286370011047,489.4494374000933,489.43270550016314,None,c,0,0.5735744999255985,489.43270550016314,None,490.03363740001805,None,,,,,,,,,,,,,,,,,,,,,,,,,35,p22,2022_May_02_1044,training+cueing,2021.1.4,59.60399109309477,
Stranger.png,Friend,Stranger,m,2.3,17,27,97,,,,,1,0,1,0,,,,,0,0,0,7,,,,,,,,,,,,,,,,,,,497.87232329999097,None,1.506,1.507,501.38356710015796,None,,,,,,,,,,,,,,,,490.4335086001083,None,0.014838370028883219,None,501.9032881001476,502.408785500098,0.5109932101331651,1.0114602101966739,502.3921503999736,502.50885020010173,502.3921503999736,502.50885020010173,502.4921151001472,None,m,1,0.6821129999589175,502.4921151001472,None,,,,,,35,p22,2022_May_02_1044,training+cueing,2021.1.4,59.60399109309477,
Self.png,You,Self ,c,1,11,21,91,,,,,1,0,1,0,,,,,0,1,1,9,,,,,,,,,,,,,,,,,,,,,1.633,1.312,503.3004334999714,None,,,,,,,,,,,,,,,,,,,,503.84188439999707,504.3435262001585,0.5040488103404641,1.0043027102947235,504.32685009995475,504.4268861000892,504.32685009995475,504.4268861000892,504.4268861000892,None,c,1,0.5394422998651862,504.4268861000892,None,,,,,,35,p22,2022_May_02_1044,training+cueing,2021.1.4,59.60399109309477,
Friend.png,Friend,Friend,c,2,12,22,92,,,,,1,0,1,0,,,,,0,2,2,4,,,,,,,,,,,,,,,,,,,,,1.591,2.42,505.10029310011305,None,,,,,,,,,,,,,,,,,,,,505.64007410011254,506.14486150001176,0.5071630100719631,1.0072770100086927,506.12827720004134,506.24488440016285,506.12827720004134,506.24488440016285,506.2281987001188,None,c,1,0.5622038999572396,506.2281987001188,None,,,,,,35,p22,2022_May_02_1044,training+cueing,2021.1.4,59.60399109309477,
Friend.png,Friend,Friend,c,2,12,22,92,,,,,1,0,1,0,,,,,0,3,3,10,,,,,,,,,,,,,,,,,,,,,1.436,1.825,506.9188622001093,None,,,,,,,,,,,,,,,,,,,,507.46489750011824,507.97960399999283,0.5127161100972444,1.012987210182473,507.96294800005853,508.079652500106,507.96294800005853,508.079652500106,508.0629469000269,None,c,1,0.45530609996058047,508.0629469000269,None,,,,,,35,p22,2022_May_02_1044,training+cueing,2021.1.4,59.60399109309477,
Self.png,You,Self ,c,1,11,21,91,,,,,1,0,1,0,,,,,0,4,4,0,,,,,,,,,,,,,,,,,,,,,1.421,1.208,508.65335649996996,None,,,,,,,,,,,,,,,,,,,,509.19371480005793,509.69738920009695,0.5045243101194501,1.004980910103768,509.6807294001337,509.7807730000932,509.6807294001337,509.7807730000932,509.7807730000932,None,c,1,0.38553220010362566,509.7807730000932,None,,,,,,35,p22,2022_May_02_1044,training+cueing,2021.1.4,59.60399109309477,
Friend.png,Stranger,Friend,m,3.2,19,29,99,,,,,1,0,1,0,,,,,0,5,5,5,,,,,,,,,,,,,,,,,,,,,1.764,1.237,510.304604700068,None,,,,,,,,,,,,,,,,,,,,510.84480129997246,511.34861810016446,0.5068197101354599,1.0077053101267666,511.3319239001721,511.4485913000535,511.3319239001721,511.4485913000535,511.4319736000616,None,m,1,0.7345299001317471,511.4319736000616,None,,,,,,35,p22,2022_May_02_1044,training+cueing,2021.1.4,59.60399109309477,
Self.png,Stranger,Self ,m,3.1,18,28,98,,,,,1,0,1,0,,,,,0,6,6,2,,,,,,,,,,,,,,,,,,,,,1.499,1.776,512.289853299968,None,,,,,,,,,,,,,,,,,,,,512.8297433000989,513.3333258000202,0.507343010045588,1.0076252100989223,513.3166968000587,513.4333755001426,513.3166968000587,513.4333755001426,513.4167530001141,None,m,1,0.5894675001036376,513.4167530001141,None,,,,,,35,p22,2022_May_02_1044,training+cueing,2021.1.4,59.60399109309477,
Stranger.png,Stranger,Stranger,c,3,13,23,93,,,,,1,0,1,0,,,,,0,7,7,8,,,,,,,,,,,,,,,,,,,,,1.417,2.235,514.1401892001741,None,,,,,,,,,,,,,,,,,,,,514.6779526001774,515.1847706001718,0.5109799101483077,1.0112911101896316,515.1681159001309,515.2848470001481,515.1681159001309,515.2848470001481,515.2681500001345,None,c,1,0.5462493000086397,515.2681500001345,None,,,,,,35,p22,2022_May_02_1044,training+cueing,2021.1.4,59.60399109309477,
Self.png,Friend,Self ,m,2.1,16,26,96,,,,,1,0,1,0,,,,,0,8,8,1,,,,,,,,,,,,,,,,,,,,,1.47,2.203,515.9413103000261,None,,,,,,,,,,,,,,,,,,,,516.4826057001483,516.9860274000093,0.5061803101561964,1.006472110049799,516.9693440000992,517.0860498000402,516.9693440000992,517.0860498000402,517.0693807001226,None,m,1,0.8727987001184374,517.0693807001226,None,,,,,,35,p22,2022_May_02_1044,training+cueing,2021.1.4,59.60399109309477,
Friend.png,You,Friend,m,1.2,14,24,94,,,,,1,0,1,0,,,,,0,9,9,3,,,,,,,,,,,,,,,,,,,,,1.464,1.214,518.076278100023,None,,,,,,,,,,,,,,,,,,,,518.6170298000798,519.120894000167,0.5106026099529117,1.0076139101292938,519.1075059999712,519.2209193999879,519.1075059999712,519.2209193999879,519.2042611001525,None,m,1,0.8020474000368267,519.2042611001525,None,,,,,,35,p22,2022_May_02_1044,training+cueing,2021.1.4,59.60399109309477,
Stranger.png,Stranger,Stranger,c,3,13,23,93,,,,,1,0,1,0,,,,,0,10,10,11,,,,,,,,,,,,,,,,,,,,,1.752,2.058,520.1275585000403,None,,,,,,,,,,,,,,,,,,,,520.6766316001303,521.1890305001289,0.505827009677887,1.0067215096205473,521.1723317999858,521.289090000093,521.1723317999858,521.289090000093,521.2723719000351,None,c,1,0.5584306998644024,521.2723719000351,None,,,,,,35,p22,2022_May_02_1044,training+cueing,2021.1.4,59.60399109309477,
Stranger.png,You,Stranger,m,1.3,15,25,95,,,,,1,0,1,0,,,,,0,11,11,6,,,,,,,,,,,,,,,,,,,,,1.455,1.774,521.9667915001046,None,,,,,,,,,,,,,,,,,,,,522.5057173999958,523.0070401001722,0.5023319099564105,1.0026707099750638,522.9903223000001,523.0904344001319,522.9903223000001,523.0904344001319,523.0904344001319,None,m,1,0.5957295000553131,523.0904344001319,None,,,,,,35,p22,2022_May_02_1044,training+cueing,2021.1.4,59.60399109309477,
Self.png,You,Self ,c,1,11,21,91,,,,,1,0,1,0,,,,,1,0,12,9,,,,,,,,,,,,,,,,,,,,,1.464,2.04,523.813824800076,None,,,,,,,,,,,,,,,,,,,,524.355215900112,524.8582657000516,0.5037244099657983,1.0040207100100815,524.8416522000916,524.9417103000451,524.8416522000916,524.9417103000451,524.9417103000451,None,c,1,0.5845327000133693,524.9417103000451,None,,,,,,35,p22,2022_May_02_1044,training+cueing,2021.1.4,59.60399109309477,
Self.png,You,Self ,c,1,11,21,91,,,,,1,0,1,0,,,,,1,1,13,0,,,,,,,,,,,,,,,,,,,,,1.459,1.582,525.6487900000066,None,,,,,,,,,,,,,,,,,,,,526.1903648001608,526.6930325999856,0.5054319095797837,1.0058623095974326,526.6763322001789,526.776363100158,526.6763322001789,526.776363100158,526.776363100158,None,c,1,0.4137948998250067,526.776363100158,None,,,,,,35,p22,2022_May_02_1044,training+cueing,2021.1.4,59.60399109309477,
Friend.png,You,Friend,m,1.2,14,24,94,,,,,1,0,1,0,,,,,1,2,14,3,,,,,,,,,,,,,,,,,,,,,1.62,2.259,527.3163372999988,None,,,,,,,,,,,,,,,,,,,,527.8619481001515,528.3775902001653,0.5147796103265136,1.0150351102929562,528.3609099001624,528.4609471999574,528.3609099001624,528.4609471999574,528.4609471999574,None,m,1,0.5693288999609649,528.4609471999574,None,,,,,,35,p22,2022_May_02_1044,training+cueing,2021.1.4,59.60399109309477,
Stranger.png,Stranger,Stranger,c,3,13,23,93,,,,,1,0,1,0,,,,,1,3,15,8,,,,,,,,,,,,,,,,,,,,,1.73,1.23,529.1675321001094,None,,,,,,,,,,,,,,,,,,,,529.7192520999815,530.2288735001348,0.5014489102177322,1.0023592100478709,530.2121925000101,530.3289404001553,530.2121925000101,530.3289404001553,530.3289404001553,None,c,1,0.5893031000159681,530.3289404001553,None,,,,,,35,p22,2022_May_02_1044,training+cueing,2021.1.4,59.60399109309477,
Stranger.png,Stranger,Stranger,c,3,13,23,93,,,,,1,0,1,0,,,,,1,4,16,11,,,,,,,,,,,,,,,,,,,,,1.501,2.437,531.0524310001638,None,,,,,,,,,,,,,,,,,,,,531.5910460001323,532.0971699000802,0.5115681102033705,None,532.0805031000637,532.1973866000772,532.0805031000637,532.1973866000772,532.1805022000335,None,c,1,0.35389070003293455,532.1805022000335,None,,,,,,35,p22,2022_May_02_1044,training+cueing,2021.1.4,59.60399109309477,
Friend.png,Friend,Friend,c,2,12,22,92,,,,,1,0,1,0,,,,,1,5,17,4,,,,,,,,,,,,,,,,,,,,,1.536,1.952,532.6717934000771,None,,,,,,,,,,,,,,,,,,,,533.2139061000198,533.7147894999944,0.5026474101468921,1.0031397102866322,533.6980798000004,533.8153683999553,533.6980798000004,533.8153683999553,533.798123100074,None,c,1,0.5761082000099123,533.798123100074,None,,,,,,35,p22,2022_May_02_1044,training+cueing,2021.1.4,59.60399109309477,
Self.png,Friend,Self ,m,2.1,16,26,96,,,,,1,0,1,0,,,,,1,6,18,1,,,,,,,,,,,,,,,,,,,,,1.656,2.239,534.5061429000925,None,,,,,,,,,,,,,,,,,,,,535.0439512999728,535.5494373000693,0.5095761101692915,1.0098670101724565,535.5327020999976,535.6494638000149,535.5327020999976,535.6494638000149,535.6327154000755,None,m,1,0.5015469000209123,535.6327154000755,None,,,,,,35,p22,2022_May_02_1044,training+cueing,2021.1.4,59.60399109309477,
Friend.png,Friend,Friend,c,2,12,22,92,,,,,1,0,1,0,,,,,1,7,19,10,,,,,,,,,,,,,,,,,,,,,1.431,1.272,536.2568026999943,None,,,,,,,,,,,,,,,,,,,,536.8102869000286,537.3173532001674,0.4990399801172316,0.9993133801035583,537.2839907000307,537.3840729000513,537.2839907000307,537.3840729000513,537.3840729000513,None,c,1,0.6861701000016183,537.3840729000513,None,,,,,,35,p22,2022_May_02_1044,training+cueing,2021.1.4,59.60399109309477,
Stranger.png,Friend,Stranger,m,2.3,17,27,97,,,,,1,0,1,0,,,,,1,8,20,7,,,,,,,,,,,,,,,,,,,,,1.536,2.136,538.2076099000406,None,,,,,,,,,,,,,,,,,,,,538.7454258999787,539.2521087999921,0.5109435103368014,1.0111164101399481,539.2355041999836,539.3521366000641,539.2355041999836,539.3521366000641,539.3354485000018,None,m,1,0.5432443001773208,539.3354485000018,None,,,,,,35,p22,2022_May_02_1044,training+cueing,2021.1.4,59.60399109309477,
Self.png,Stranger,Self ,m,3.1,18,28,98,,,,,1,0,1,0,,,,,1,9,21,2,,,,,,,,,,,,,,,,,,,,,1.432,1.922,540.012827700004,None,,,,,,,,,,,,,,,,,,,,540.5530316999648,541.0533744001295,0.5011089101899415,1.001464209984988,541.0366952000186,541.1534305999521,541.0366952000186,541.1534305999521,541.1534305999521,None,m,1,0.5647335001267493,541.1534305999521,None,,,,,,35,p22,2022_May_02_1044,training+cueing,2021.1.4,59.60399109309477,
Stranger.png,You,Stranger,m,1.3,15,25,95,,,,,1,0,1,0,,,,,1,10,22,6,,,,,,,,,,,,,,,,,,,,,1.439,1.905,541.8436996999662,None,,,,,,,,,,,,,,,,,,,,542.3853851000313,542.8879891999532,0.5068976101465523,1.0077720100525767,542.8713857999537,542.9714343999512,542.8713857999537,542.9714343999512,542.9714343999512,None,m,1,0.6189013000112027,542.9714343999512,None,,,,,,35,p22,2022_May_02_1044,training+cueing,2021.1.4,59.60399109309477,
Friend.png,Stranger,Friend,m,3.2,19,29,99,,,,,1,0,1,0,,,,,1,11,23,5,,,,,,,,,,,,,,,,,,,,,1.492,1.406,543.728828500025,None,,,,,,,,,,,,,,,,,,,,544.2747558001429,544.7895174999721,0.5098613100126386,1.010380209889263,544.7724741999991,544.8897073999979,544.7724741999991,544.8897073999979,544.872858799994,None,m,1,0.6533772998955101,544.872858799994,None,,,,,,35,p22,2022_May_02_1044,training+cueing,2021.1.4,59.60399109309477,
Stranger.png,You,Stranger,m,1.3,15,25,95,,,,,1,0,1,0,,,,,2,0,24,6,,,,,,,,,,,,,,,,,,,,,1.716,2.224,545.6628340000752,None,,,,,,,,,,,,,,,,,,,,546.2042761000339,546.707486800151,0.5068167101126164,1.0071052100975066,546.6908001000993,546.7908606999554,546.6908001000993,546.7908606999554,546.7908606999554,None,m,1,0.6073587001301348,546.7908606999554,None,,,,,,35,p22,2022_May_02_1044,training+cueing,2021.1.4,59.60399109309477,
Friend.png,Stranger,Friend,m,3.2,19,29,99,,,,,1,0,1,0,,,,,2,1,25,5,,,,,,,,,,,,,,,,,,,,,1.653,1.803,547.5311903001275,None,,,,,,,,,,,,,,,,,,,,548.070737699978,548.5755185000598,0.5090173098724335,1.009362009819597,548.5588165000081,548.6755911000073,548.5588165000081,548.6755911000073,548.6590903000906,None,m,1,0.5791156000923365,548.6590903000906,None,,,,,,35,p22,2022_May_02_1044,training+cueing,2021.1.4,59.60399109309477,
Self.png,You,Self ,c,1,11,21,91,,,,,1,0,1,0,,,,,2,2,26,0,,,,,,,,,,,,,,,,,,,,,1.577,1.62,549.3649117001332,None,,,,,,,,,,,,,,,,,,,,549.905739699956,550.4101705001667,0.5070246097166091,1.007337809773162,550.3934200999793,550.493494000053,550.3934200999793,550.493494000053,550.493494000053,None,c,1,0.5207546998281032,550.493494000053,None,,,,,,35,p22,2022_May_02_1044,training+cueing,2021.1.4,59.60399109309477,
Friend.png,Friend,Friend,c,2,12,22,92,,,,,1,0,1,0,,,,,2,3,27,4,,,,,,,,,,,,,,,,,,,,,1.792,2.495,551.1500705000944,None,,,,,,,,,,,,,,,,,,,,551.692595000146,552.1947896000929,0.5062732100486755,1.0065870101097971,552.1780785999727,552.2948288000189,552.1780785999727,552.2948288000189,552.2781657001469,None,c,1,0.7359794999938458,552.2781657001469,None,,,,,,35,p22,2022_May_02_1044,training+cueing,2021.1.4,59.60399109309477,
Stranger.png,Stranger,Stranger,c,3,13,23,93,,,,,1,0,1,0,,,,,2,4,28,8,,,,,,,,,,,,,,,,,,,,,1.687,1.975,553.1514514000155,None,,,,,,,,,,,,,,,,,,,,553.698498000158,554.2128717000596,0.5096427099779248,1.0099003100767732,554.1962321000174,554.3131286001299,554.1962321000174,554.3131286001299,554.2962752000894,None,c,1,0.7978139999322593,554.2962752000894,None,,,,,,35,p22,2022_May_02_1044,training+cueing,2021.1.4,59.60399109309477,
Self.png,You,Self ,c,1,11,21,91,,,,,1,0,1,0,,,,,2,5,29,9,,,,,,,,,,,,,,,,,,,,,1.484,2.472,555.2287959000096,None,,,,,,,,,,,,,,,,,,,,555.768132199999,556.2810462999623,0.5102866098750383,1.0105996099300683,556.2643269000109,556.3644056001212,556.2643269000109,556.3644056001212,556.3644056001212,None,c,1,0.4897742001339793,556.3644056001212,None,,,,,,35,p22,2022_May_02_1044,training+cueing,2021.1.4,59.60399109309477,
Friend.png,Friend,Friend,c,2,12,22,92,,,,,1,0,1,0,,,,,2,6,30,10,,,,,,,,,,,,,,,,,,,,,1.542,2.163,556.9876366001554,None,,,,,,,,,,,,,,,,,,,,557.530604599975,558.0322475000285,0.5054083098657429,None,558.0156495999545,558.1323885000311,558.0156495999545,558.1323885000311,558.1156905000098,None,c,1,0.3544896000530571,558.1156905000098,None,,,,,,35,p22,2022_May_02_1044,training+cueing,2021.1.4,59.60399109309477,
Stranger.png,Friend,Stranger,m,2.3,17,27,97,,,,,1,0,1,0,,,,,2,7,31,7,,,,,,,,,,,,,,,,,,,,,1.645,1.749,558.6058797000442,None,,,,,,,,,,,,,,,,,,,,559.1465253001079,559.6501597999595,0.508405809989199,1.0085181100293994,559.6336298000533,559.7501870000269,559.6336298000533,559.7501870000269,559.7335089000408,None,m,1,0.5766642999369651,559.7335089000408,None,,,,,,35,p22,2022_May_02_1044,training+cueing,2021.1.4,59.60399109309477,
Self.png,Friend,Self ,m,2.1,16,26,96,,,,,1,0,1,0,,,,,2,8,32,1,,,,,,,,,,,,,,,,,,,,,1.661,1.943,560.44065340003,None,,,,,,,,,,,,,,,,,,,,560.9779245001264,561.4848088000435,0.51349171041511,1.0143867102451622,561.4681278001517,561.5848899001721,561.4681278001517,561.5848899001721,561.5682304999791,None,None,0,,561.5682304999791,None,,,,,,35,p22,2022_May_02_1044,training+cueing,2021.1.4,59.60399109309477,
Self.png,Stranger,Self ,m,3.1,18,28,98,,,,,1,0,1,0,,,,,2,9,33,2,,,,,,,,,,,,,,,,,,,,,1.669,2.288,563.3403769000433,None,,,,,,,,,,,,,,,,,,,,563.8908894001506,564.4036067000125,0.5079531099181622,1.008356009842828,564.3869103000034,564.5037516001612,564.3869103000034,564.5037516001612,564.4870817000046,None,m,1,0.8473521999549121,564.4870817000046,None,,,,,,35,p22,2022_May_02_1044,training+cueing,2021.1.4,59.60399109309477,
Friend.png,You,Friend,m,1.2,14,24,94,,,,,1,0,1,0,,,,,2,10,34,3,,,,,,,,,,,,,,,,,,,,,1.739,1.731,565.461385600036,None,,,,,,,,,,,,,,,,,,,,566.0016548000276,566.5051162000746,0.5048163100145757,1.0051024102140218,566.488407399971,566.5884762001224,566.488407399971,566.5884762001224,566.5884762001224,None,m,1,0.6337570999749005,566.5884762001224,None,,,,,,35,p22,2022_May_02_1044,training+cueing,2021.1.4,59.60399109309477,
Stranger.png,Stranger,Stranger,c,3,13,23,93,,,,,1,0,1,0,,,,,2,11,35,11,,,,,,,,,,,,,,,,,,,,,1.602,2.287,567.3452455000952,None,,,,,,,,,,,,,,,,,,,,567.8905064000282,568.3899091000203,0.4999039098620415,1.0000962098129094,568.3732221999671,568.4898701000493,568.3732221999671,568.4898701000493,568.4898701000493,None,c,1,1.0203277999535203,568.4898701000493,None,,,,,,35,p22,2022_May_02_1044,training+cueing,2021.1.4,59.60399109309477,
Self.png,You,Self ,c,1,11,21,91,,,,,1,0,1,0,,,,,3,0,36,9,,,,,,,,,,,,,,,,,,,,,1.62,2.364,569.6469884000253,None,,,,,,,,,,,,,,,,,,,,570.2017423000652,570.708163900068,0.511385679943487,1.0116542798932642,570.6914892999921,570.791539600119,570.6914892999921,570.791539600119,570.791539600119,None,c,1,0.49464949988760054,570.791539600119,None,,,,,,35,p22,2022_May_02_1044,training+cueing,2021.1.4,59.60399109309477,
Friend.png,Stranger,Friend,m,3.2,19,29,99,,,,,1,0,1,0,,,,,3,1,37,5,,,,,,,,,,,,,,,,,,,,,1.757,2.487,571.4151602000929,None,,,,,,,,,,,,,,,,,,,,571.95678340015,572.4594152001664,0.5056695099920034,1.0059920100029558,572.4427072999533,572.5594924001489,572.4427072999533,572.5594924001489,572.5427187001333,None,m,1,0.6313716000877321,572.5427187001333,None,,,,,,35,p22,2022_May_02_1044,training+cueing,2021.1.4,59.60399109309477,
Self.png,Stranger,Self ,m,3.1,18,28,98,,,,,1,0,1,0,,,,,3,2,38,2,,,,,,,,,,,,,,,,,,,,,1.642,1.304,573.3001397000626,None,,,,,,,,,,,,,,,,,,,,573.8552059000358,574.3609476001002,0.512641380308196,1.0129090801347047,574.3442461001687,574.4609497000929,574.3442461001687,574.4609497000929,574.4443242000416,None,m,1,0.5378733999095857,574.4443242000416,None,,,,,,35,p22,2022_May_02_1044,training+cueing,2021.1.4,59.60399109309477,
Stranger.png,Friend,Stranger,m,2.3,17,27,97,,,,,1,0,1,0,,,,,3,3,39,7,,,,,,,,,,,,,,,,,,,,,1.606,2.376,575.1185221001506,None,,,,,,,,,,,,,,,,,,,,575.6585067999549,576.1620798001532,0.5058473099488765,1.0061492098029703,576.1454388001002,576.2621744000353,576.1454388001002,576.2621744000353,576.2454403000884,None,m,1,0.5447618002071977,576.2454403000884,None,,,,,,35,p22,2022_May_02_1044,training+cueing,2021.1.4,59.60399109309477,
Stranger.png,You,Stranger,m,1.3,15,25,95,,,,,1,0,1,0,,,,,3,4,40,6,,,,,,,,,,,,,,,,,,,,,1.733,1.394,576.9189222001005,None,,,,,,,,,,,,,,,,,,,,577.4585518999957,577.9634196001571,0.5107543098274618,1.0110486096236855,577.9467050000094,578.046735699987,577.9467050000094,578.046735699987,578.046735699987,None,m,1,0.6794078999664634,578.046735699987,None,,,,,,35,p22,2022_May_02_1044,training+cueing,2021.1.4,59.60399109309477,
Friend.png,Friend,Friend,c,2,12,22,92,,,,,1,0,1,0,,,,,3,5,41,10,,,,,,,,,,,,,,,,,,,,,1.603,1.923,578.85363350017,None,,,,,,,,,,,,,,,,,,,,579.3947634000797,579.89812909998,0.5064788099844009,1.0067378100939095,579.8814677000046,579.9981503000017,579.8814677000046,579.9981503000017,579.9814600001555,None,c,1,0.5367451999336481,579.9814600001555,None,,,,,,35,p22,2022_May_02_1044,training+cueing,2021.1.4,59.60399109309477,
Friend.png,Friend,Friend,c,2,12,22,92,,,,,1,0,1,0,,,,,3,6,42,4,,,,,,,,,,,,,,,,,,,,,1.412,1.331,580.6543765000533,None,,,,,,,,,,,,,,,,,,,,581.1915268001612,581.6993901000824,0.514585810014978,1.014866909943521,581.6827674000524,581.7994540999644,581.6827674000524,581.7994540999644,581.7827669000253,None,c,1,0.5918672999832779,581.7827669000253,None,,,,,,35,p22,2022_May_02_1044,training+cueing,2021.1.4,59.60399109309477,
Stranger.png,Stranger,Stranger,c,3,13,23,93,,,,,1,0,1,0,,,,,3,7,43,8,,,,,,,,,,,,,,,,,,,,,1.42,1.565,582.5093062999658,None,,,,,,,,,,,,,,,,,,,,583.0500775000546,583.5507506001741,0.5013375098351389,1.0016481098718941,583.5341064999811,583.6508306001779,583.5341064999811,583.6508306001779,583.6508306001779,None,m,0,0.4352788000833243,583.6508306001779,None,,,,,,35,p22,2022_May_02_1044,training+cueing,2021.1.4,59.60399109309477,
Friend.png,You,Friend,m,1.2,14,24,94,,,,,1,0,1,0,,,,,3,8,44,3,,,,,,,,,,,,,,,,,,,,,1.717,2.215,584.2074884001631,None,,,,,,,,,,,,,,,,,,,,584.7478225999512,585.2519775000401,0.5070940100122243,1.0073487099725753,585.2353058001027,585.3353791001718,585.2353058001027,585.3353791001718,585.3353791001718,None,m,1,0.7986547998152673,585.3353791001718,None,,,,,,35,p22,2022_May_02_1044,training+cueing,2021.1.4,59.60399109309477,
Stranger.png,Stranger,Stranger,c,3,13,23,93,,,,,1,0,1,0,,,,,3,9,45,11,,,,,,,,,,,,,,,,,,,,,1.588,2.471,586.2585772001185,None,,,,,,,,,,,,,,,,,,,,586.801215799991,587.3034751999658,0.5061682099476457,1.007031710119918,587.2867662999779,587.4034500000998,587.2867662999779,587.4034500000998,587.3868089001626,None,c,1,0.5556399000342935,587.3868089001626,None,,,,,,35,p22,2022_May_02_1044,training+cueing,2021.1.4,59.60399109309477,
Self.png,Friend,Self ,m,2.1,16,26,96,,,,,1,0,1,0,,,,,3,10,46,1,,,,,,,,,,,,,,,,,,,,,1.723,1.651,588.0801811001729,None,,,,,,,,,,,,,,,,,,,,588.6224436999764,589.1215001000091,0.4991063098423183,0.9993501098360866,589.1047940000426,589.2215205000248,589.1047940000426,589.2215205000248,589.2215205000248,None,m,1,0.6246130999643356,589.2215205000248,None,,,,,,35,p22,2022_May_02_1044,training+cueing,2021.1.4,59.60399109309477,
Self.png,You,Self ,c,1,11,21,91,,,,,1,0,1,0,,,,,3,11,47,0,,,,,,,,,,,,,,,,,,,,,1.506,1.204,589.978264400037,None,,,,,,,,,,,,,,,,,,,,590.5273088000249,591.0394986001775,0.506111710332334,1.0064483103342354,591.0227769999765,591.122848500032,591.0227769999765,591.122848500032,591.122848500032,None,c,1,0.4352263000328094,591.122848500032,None,,,,,,35,p22,2022_May_02_1044,training+cueing,2021.1.4,59.60399109309477,
Self.png,You,Self ,c,1,11,21,91,,,,,1,0,1,0,,,,,4,0,48,0,,,,,,,,,,,,,,,,,,,,,1.507,2.096,591.696411000099,None,,,,,,,,,,,,,,,,,,,,592.234831900103,592.7409251001664,0.5115560102276504,None,592.7241660000291,592.8242643000558,592.7241660000291,592.8242643000558,592.8242643000558,None,c,1,0.3818629998713732,592.8242643000558,None,,,,,,35,p22,2022_May_02_1044,training+cueing,2021.1.4,59.60399109309477,
Self.png,Friend,Self ,m,2.1,16,26,96,,,,,1,0,1,0,,,,,4,1,49,1,,,,,,,,,,,,,,,,,,,,,1.437,2.093,593.3314851000905,None,,,,,,,,,,,,,,,,,,,,593.8734800000675,594.3752421999816,0.5055939103476703,1.0059668102767318,594.3585553001612,594.475282000145,594.3585553001612,594.475282000145,594.4586255999748,None,m,1,0.6195272000040859,594.4586255999748,None,,,,,,35,p22,2022_May_02_1044,training+cueing,2021.1.4,59.60399109309477,
Stranger.png,Stranger,Stranger,c,3,13,23,93,,,,,1,0,1,0,,,,,4,2,50,11,,,,,,,,,,,,,,,,,,,,,1.798,1.329,595.2147894999944,None,,,,,,,,,,,,,,,,,,,,595.7601859001443,596.2599283000454,0.5153498102445155,1.0156209100969136,596.2599283000454,596.3599573001266,596.2599283000454,596.3599573001266,596.3599573001266,None,c,1,0.6861839999910444,596.3599573001266,None,,,,,,35,p22,2022_May_02_1044,training+cueing,2021.1.4,59.60399109309477,
Friend.png,Stranger,Friend,m,3.2,19,29,99,,,,,1,0,1,0,,,,,4,3,51,5,,,,,,,,,,,,,,,,,,,,,1.503,1.233,597.183906200109,None,,,,,,,,,,,,,,,,,,,,597.7226972000208,598.2280313000083,0.5112882098183036,1.0121470096055418,598.2113523001317,598.3280778999906,598.2113523001317,598.3280778999906,598.3113617000636,None,m,1,0.6067615998908877,598.3113617000636,None,,,,,,35,p22,2022_May_02_1044,training+cueing,2021.1.4,59.60399109309477,
Self.png,Stranger,Self ,m,3.1,18,28,98,,,,,1,0,1,0,,,,,4,4,52,2,,,,,,,,,,,,,,,,,,,,,1.429,2.495,599.052487200126,None,,,,,,,,,,,,,,,,,,,,599.5888781000394,600.0960264999885,0.5117575104814023,1.011958610266447,600.0794071999844,600.1960913999937,600.0794071999844,600.1960913999937,600.1793866001535,None,m,1,0.5947674000635743,600.1793866001535,None,,,,,,35,p22,2022_May_02_1044,training+cueing,2021.1.4,59.60399109309477,
Self.png,You,Self ,c,1,11,21,91,,,,,1,0,1,0,,,,,4,5,53,9,,,,,,,,,,,,,,,,,,,,,1.786,2.438,600.9028833999764,None,,,,,,,,,,,,,,,,,,,,601.4437132000457,601.9474035000894,0.5072463098913431,1.007492909906432,601.930708900094,602.0306999001186,601.930708900094,602.0306999001186,602.0306999001186,None,c,1,0.6154361001681536,602.0306999001186,None,,,,,,35,p22,2022_May_02_1044,training+cueing,2021.1.4,59.60399109309477,
Stranger.png,Friend,Stranger,m,2.3,17,27,97,,,,,1,0,1,0,,,,,4,6,54,7,,,,,,,,,,,,,,,,,,,,,1.538,2.109,602.7704278000165,None,,,,,,,,,,,,,,,,,,,,603.3102685001213,603.8153848999646,0.5092950100079179,1.0095974099822342,603.7987025000621,603.9154497000854,603.7987025000621,603.9154497000854,603.898720000172,None,m,1,0.5713635000865906,603.898720000172,None,,,,,,35,p22,2022_May_02_1044,training+cueing,2021.1.4,59.60399109309477,
Stranger.png,Stranger,Stranger,c,3,13,23,93,,,,,1,0,1,0,,,,,4,7,55,8,,,,,,,,,,,,,,,,,,,,,1.531,1.471,604.6060538000893,None,,,,,,,,,,,,,,,,,,,,605.20311890007,605.7167595999781,0.5094000201206654,1.0098848200868815,605.7001046000514,605.8173736000899,605.7001046000514,605.8173736000899,605.8006562001538,None,c,1,0.7654198000673205,605.8006562001538,None,,,,,,35,p22,2022_May_02_1044,training+cueing,2021.1.4,59.60399109309477,
Friend.png,You,Friend,m,1.2,14,24,94,,,,,1,0,1,0,,,,,4,8,56,3,,,,,,,,,,,,,,,,,,,,,1.7,1.982,606.6916898000054,None,,,,,,,,,,,,,,,,,,,,607.2447885000147,607.7515839000698,0.513176379725337,1.013501379871741,607.7349303001538,607.8349087999668,607.7349303001538,607.8349087999668,607.8349087999668,None,m,1,0.5552600999362767,607.8349087999668,None,,,,,,35,p22,2022_May_02_1044,training+cueing,2021.1.4,59.60399109309477,
Friend.png,Friend,Friend,c,2,12,22,92,,,,,1,0,1,0,,,,,4,9,57,10,,,,,,,,,,,,,,,,,,,,,1.585,2.147,608.5246948001441,None,,,,,,,,,,,,,,,,,,,,609.0669607000891,609.5695502001327,0.5058129099197686,1.0060925099533051,609.5528955999762,609.6696461001411,609.5528955999762,609.6696461001411,609.6529184000101,None,c,1,0.44917609984986484,609.6529184000101,None,,,,,,35,p22,2022_May_02_1044,training+cueing,2021.1.4,59.60399109309477,
Stranger.png,You,Stranger,m,1.3,15,25,95,,,,,1,0,1,0,,,,,4,10,58,6,,,,,,,,,,,,,,,,,,,,,1.709,1.788,610.2255728000309,None,,,,,,,,,,,,,,,,,,,,610.764894900145,611.2707997001708,0.5100574097596109,1.0103447097353637,611.2541247000918,611.3541486000177,611.2541247000918,611.3541486000177,611.3541486000177,None,m,1,0.5879716000054032,611.3541486000177,None,,,,,,35,p22,2022_May_02_1044,training+cueing,2021.1.4,59.60399109309477,
Friend.png,Friend,Friend,c,2,12,22,92,,,,,1,0,1,0,,,,,4,11,59,4,,,,,,,,,,,,,,,,,,,,,1.427,1.597,612.080563900061,None,,,,,,,,,,,,,,,,,,,,612.6208316001575,613.1221770001575,0.5037311101332307,1.0039886101149023,613.1054440999869,613.2221901000012,613.1054440999869,613.2221901000012,613.2054636001121,None,c,1,0.6886249999515712,613.2054636001121,None,,,,,,35,p22,2022_May_02_1044,training+cueing,2021.1.4,59.60399109309477,
Stranger.png,Stranger,Stranger,c,3,13,23,93,,,,,1,0,1,0,,,,,5,0,60,11,,,,,,,,,,,,,,,,,,,,,1.745,1.434,614.0319577001501,None,,,,,,,,,,,,,,,,,,,,614.5706482999958,615.0735075001139,0.5037849103100598,1.0040657103527337,615.0568570999894,615.1735457000323,615.0568570999894,615.1735457000323,615.156871000072,None,c,1,0.7054119999520481,615.156871000072,None,,,,,,35,p22,2022_May_02_1044,training+cueing,2021.1.4,59.60399109309477,
Self.png,You,Self ,c,1,11,21,91,,,,,1,0,1,0,,,,,5,1,61,0,,,,,,,,,,,,,,,,,,,,,1.531,1.96,615.9963835000526,None,,,,,,,,,,,,,,,,,,,,616.5389058999717,617.041592300171,0.5062450098339468,1.0065388097427785,617.0249431000557,617.1250261999667,617.0249431000557,617.1250261999667,617.1250261999667,None,c,1,0.5131406001746655,617.1250261999667,None,,,,,,35,p22,2022_May_02_1044,training+cueing,2021.1.4,59.60399109309477,
Friend.png,Friend,Friend,c,2,12,22,92,,,,,1,0,1,0,,,,,5,2,62,4,,,,,,,,,,,,,,,,,,,,,1.507,1.773,617.764472000068,None,,,,,,,,,,,,,,,,,,,,618.3070427000057,618.8095397001598,0.5061658101622015,1.0065099101047963,618.7928755001631,618.9095936000813,618.7928755001631,618.9095936000813,618.8929190000053,None,c,1,0.6812396000605077,618.8929190000053,None,,,,,,35,p22,2022_May_02_1044,training+cueing,2021.1.4,59.60399109309477,
Friend.png,You,Friend,m,1.2,14,24,94,,,,,1,0,1,0,,,,,5,3,63,3,,,,,,,,,,,,,,,,,,,,,1.506,1.767,619.7040484000463,None,,,,,,,,,,,,,,,,,,,,620.2414148000535,620.7442989000119,0.5032437099143863,1.003559609875083,620.7275670999661,620.8276377001312,620.7275670999661,620.8276377001312,620.8276377001312,None,m,1,0.6024648998863995,620.8276377001312,None,,,,,,35,p22,2022_May_02_1044,training+cueing,2021.1.4,59.60399109309477,
Friend.png,Stranger,Friend,m,3.2,19,29,99,,,,,1,0,1,0,,,,,5,4,64,5,,,,,,,,,,,,,,,,,,,,,1.563,1.665,621.5677414000966,None,,,,,,,,,,,,,,,,,,,,622.1104007000104,622.6123405001126,0.5053765100892633,1.005631810054183,622.595610700082,622.7123786001466,622.595610700082,622.7123786001466,622.6956138000824,None,c,0,0.5264812998939306,622.6956138000824,None,,,,,,35,p22,2022_May_02_1044,training+cueing,2021.1.4,59.60399109309477,
Stranger.png,Friend,Stranger,m,2.3,17,27,97,,,,,1,0,1,0,,,,,5,5,65,7,,,,,,,,,,,,,,,,,,,,,1.585,2.387,623.3520454000682,None,,,,,,,,,,,,,,,,,,,,623.8978997000959,624.3971705001313,0.5150642099324614,1.0151267100591213,624.3971705001313,624.4971551999915,624.3971705001313,624.4971551999915,624.4971551999915,None,m,1,0.724970999872312,624.4971551999915,None,,,,,,35,p22,2022_May_02_1044,training+cueing,2021.1.4,59.60399109309477,
Self.png,Friend,Self ,m,2.1,16,26,96,,,,,1,0,1,0,,,,,5,6,66,1,,,,,,,,,,,,,,,,,,,,,1.519,2.474,625.353283500066,None,,,,,,,,,,,,,,,,,,,,625.8926415999886,626.3983674000483,0.5106497099623084,1.0108728101477027,626.3817468001507,626.4984196999576,626.3817468001507,626.4984196999576,626.4817315000109,None,m,1,0.6923615999985486,626.4817315000109,None,,,,,,35,p22,2022_May_02_1044,training+cueing,2021.1.4,59.60399109309477,
Stranger.png,Stranger,Stranger,c,3,13,23,93,,,,,1,0,1,0,,,,,5,7,67,8,,,,,,,,,,,,,,,,,,,,,1.612,1.987,627.305338999955,None,,,,,,,,,,,,,,,,,,,,627.8474113000557,628.349782400066,0.5053410099353641,1.0055693099275231,628.3331137001514,628.4498609001748,628.3331137001514,628.4498609001748,628.4331293001305,None,c,1,0.5329664999153465,628.4331293001305,None,,,,,,35,p22,2022_May_02_1044,training+cueing,2021.1.4,59.60399109309477,
Stranger.png,You,Stranger,m,1.3,15,25,95,,,,,1,0,1,0,,,,,5,8,68,6,,,,,,,,,,,,,,,,,,,,,1.451,2.002,629.0900813001208,None,,,,,,,,,,,,,,,,,,,,629.6293111001141,630.1345399001148,0.5073318099603057,1.0075733098201454,630.117886699969,630.2179761000443,630.117886699969,630.2179761000443,630.2179761000443,None,m,1,0.5720804000739008,630.2179761000443,None,,,,,,35,p22,2022_May_02_1044,training+cueing,2021.1.4,59.60399109309477,
Self.png,You,Self ,c,1,11,21,91,,,,,1,0,1,0,,,,,5,9,69,9,,,,,,,,,,,,,,,,,,,,,1.778,1.818,630.9256812001113,None,,,,,,,,,,,,,,,,,,,,631.4651614001486,631.9690639001783,0.5084916101768613,1.0088199102319777,631.9523492001463,632.0524538001046,631.9523492001463,632.0524538001046,632.0524538001046,None,c,1,0.5456940999720246,632.0524538001046,None,,,,,,35,p22,2022_May_02_1044,training+cueing,2021.1.4,59.60399109309477,
Self.png,Stranger,Self ,m,3.1,18,28,98,,,,,1,0,1,0,,,,,5,10,70,2,,,,,,,,,,,,,,,,,,,,,1.613,2.427,632.7259571000468,None,,,,,,,,,,,,,,,,,,,,633.2680766000412,633.7703899999615,0.5054947098251432,1.0057770097628236,633.7536755001638,633.8704488000367,633.7536755001638,633.8704488000367,633.8536936000455,None,m,1,0.6804287999402732,633.8536936000455,None,,,,,,35,p22,2022_May_02_1044,training+cueing,2021.1.4,59.60399109309477,
Friend.png,Friend,Friend,c,2,12,22,92,,,,,1,0,1,0,,,,,5,11,71,10,,,,,,,,,,,,,,,,,,,,,1.491,1.501,634.6601585000753,None,,,,,,,,,,,,,,,,,,,,635.2006012001075,635.7050714001525,0.5070316102355719,1.007525010034442,635.6883934000507,635.8052505999804,635.6883934000507,635.8052505999804,635.7884512001183,None,c,1,0.5056980999652296,635.7884512001183,None,,,,,,35,p22,2022_May_02_1044,training+cueing,2021.1.4,59.60399109309477,
Stranger.png,Stranger,Stranger,c,3,13,23,93,,,,,1,0,1,0,,,,,6,0,72,8,,,,,,,,,,,,,,,,,,,,,1.511,1.231,636.4297303999774,None,,,,,,,,,,,,,,,,,,,,636.9722299999557,637.4730565999635,0.5012188102118671,1.001489810179919,637.4563900001813,637.5731033000629,637.4563900001813,637.5731033000629,637.5731033000629,None,c,1,0.5449204999022186,637.5731033000629,None,,,,,,35,p22,2022_May_02_1044,training+cueing,2021.1.4,59.60399109309477,
Friend.png,Friend,Friend,c,2,12,22,92,,,,,1,0,1,0,,,,,6,1,73,4,,,,,,,,,,,,,,,,,,,,,1.645,2.124,638.2461634001229,None,,,,,,,,,,,,,,,,,,,,638.7875117000658,639.2911326000467,0.5071663102135062,1.0071319101843983,639.2746368001681,639.3744842000306,639.2746368001681,639.3744842000306,639.3744842000306,None,m,0,0.663646399974823,639.3744842000306,None,,,,,,35,p22,2022_May_02_1044,training+cueing,2021.1.4,59.60399109309477,
Friend.png,Friend,Friend,c,2,12,22,92,,,,,1,0,1,0,,,,,6,2,74,10,,,,,,,,,,,,,,,,,,,,,1.599,1.938,640.16632389999,None,,,,,,,,,,,,,,,,,,,,640.7168328000698,641.2257324999664,0.4997985800728202,1.000043679960072,641.1924535001162,641.2924612001516,641.1924535001162,641.2924612001516,641.2924612001516,None,c,1,0.4897327998187393,641.2924612001516,None,,,,,,35,p22,2022_May_02_1044,training+cueing,2021.1.4,59.60399109309477,
Stranger.png,You,Stranger,m,1.3,15,25,95,,,,,1,0,1,0,,,,,6,3,75,6,,,,,,,,,,,,,,,,,,,,,1.707,2.16,641.9151792000048,None,,,,,,,,,,,,,,,,,,,,642.456746699987,642.9603309000377,0.5068801096640527,1.0071793096140027,642.94365260005,643.0437328000553,642.94365260005,643.0437328000553,643.0437328000553,None,m,1,0.6263975999318063,643.0437328000553,None,,,,,,35,p22,2022_May_02_1044,training+cueing,2021.1.4,59.60399109309477,
Self.png,Stranger,Self ,m,3.1,18,28,98,,,,,1,0,1,0,,,,,6,4,76,2,,,,,,,,,,,,,,,,,,,,,1.478,1.277,643.8005209001713,None,,,,,,,,,,,,,,,,,,,,644.3397485001478,644.8450293999631,0.5074360098224133,1.0077350097708404,644.8283288001548,644.9452996000182,644.8283288001548,644.9452996000182,644.9283657001797,None,m,1,0.6616967997979373,644.9283657001797,None,,,,,,35,p22,2022_May_02_1044,training+cueing,2021.1.4,59.60399109309477,
Self.png,Friend,Self ,m,2.1,16,26,96,,,,,1,0,1,0,,,,,6,5,77,1,,,,,,,,,,,,,,,,,,,,,1.682,1.484,645.7188772000372,None,,,,,,,,,,,,,,,,,,,,646.2608229001053,646.7630939001683,0.5055408102925867,1.0058996102306992,646.7463780001272,646.8632753000129,646.7463780001272,646.8632753000129,646.8465460999869,None,m,1,1.1757831999566406,646.8465460999869,None,,,,,,35,p22,2022_May_02_1044,training+cueing,2021.1.4,59.60399109309477,
Stranger.png,Stranger,Stranger,c,3,13,23,93,,,,,1,0,1,0,,,,,6,6,78,11,,,,,,,,,,,,,,,,,,,,,1.478,1.748,648.1575118000619,None,,,,,,,,,,,,,,,,,,,,648.7106461999938,649.2148603999522,0.5083085801452398,1.0085919799748808,649.1981883000117,649.3148918000516,649.1981883000117,649.3148918000516,649.2981924000196,None,c,1,0.643958100117743,649.2981924000196,None,,,,,,35,p22,2022_May_02_1044,training+cueing,2021.1.4,59.60399109309477,
Friend.png,You,Friend,m,1.2,14,24,94,,,,,1,0,1,0,,,,,6,7,79,3,,,,,,,,,,,,,,,,,,,,,1.424,1.718,650.0726489999797,None,,,,,,,,,,,,,,,,,,,,650.6118118001614,651.1161978000309,0.5090037100017071,1.007105009863153,651.1017661001533,651.216280200053,651.1017661001533,651.216280200053,651.1996057999786,None,m,1,0.7264596000313759,651.1996057999786,None,,,,,,35,p22,2022_May_02_1044,training+cueing,2021.1.4,59.60399109309477,
Stranger.png,Friend,Stranger,m,2.3,17,27,97,,,,,1,0,1,0,,,,,6,8,80,7,,,,,,,,,,,,,,,,,,,,,1.408,1.307,652.0566136999987,None,,,,,,,,,,,,,,,,,,,,652.6012405001093,653.1010052000638,0.49961981014348567,0.999913910171017,653.0842773001641,653.20107810013,653.0842773001641,653.20107810013,653.20107810013,None,m,1,0.5329546998254955,653.20107810013,None,,,,,,35,p22,2022_May_02_1044,training+cueing,2021.1.4,59.60399109309477,
Friend.png,Stranger,Friend,m,3.2,19,29,99,,,,,1,0,1,0,,,,,6,9,81,5,,,,,,,,,,,,,,,,,,,,,1.467,1.746,653.8571792000439,None,,,,,,,,,,,,,,,,,,,,654.4047574000433,654.9190492001362,0.5124307100195438,1.0127478099893779,654.9023218001239,655.0190914999694,654.9023218001239,655.0190914999694,655.0023807999678,None,m,1,0.587636600015685,655.0023807999678,None,,,,,,35,p22,2022_May_02_1044,training+cueing,2021.1.4,59.60399109309477,
Self.png,You,Self ,c,1,11,21,91,,,,,1,0,1,0,,,,,6,10,82,9,,,,,,,,,,,,,,,,,,,,,1.555,1.577,655.7258670001756,None,,,,,,,,,,,,,,,,,,,,656.2659817000385,656.7703190001193,0.5063214099500328,1.0066213100217283,656.7536312001757,656.8536801000591,656.7536312001757,656.8536801000591,656.8536801000591,None,c,1,0.5923947000410408,656.8536801000591,None,,,,,,35,p22,2022_May_02_1044,training+cueing,2021.1.4,59.60399109309477,
Self.png,You,Self ,c,1,11,21,91,,,,,1,0,1,0,,,,,6,11,83,0,,,,,,,,,,,,,,,,,,,,,1.598,2.061,657.5773508001585,None,,,,,,,,,,,,,,,,,,,,658.1159385000356,658.621734000044,0.5112496099900454,1.0115024100523442,658.6049866999965,658.705035299994,658.6049866999965,658.705035299994,658.705035299994,None,c,1,0.4849523000884801,658.705035299994,None,,,,,,35,p22,2022_May_02_1044,training+cueing,2021.1.4,59.60399109309477,
