Image,Name,Face,CorrAns,Match,Face_onset,CResponse_onset,IResponse_onset,Match.thisRepN,Match.thisTrialN,Match.thisN,Match.thisIndex,Blocks.thisRepN,Blocks.thisTrialN,Blocks.thisN,Blocks.thisIndex,trials.thisRepN,trials.thisTrialN,trials.thisN,trials.thisIndex,trials_2.thisRepN,trials_2.thisTrialN,trials_2.thisN,trials_2.thisIndex,text.started,text.stopped,p1.started,p1.stopped,MatchInstructions.started,MatchInstructions.stopped,Name1.started,Name1.stopped,Face_Relevance.started,Face_Relevance.stopped,MismatchInstructions.started,MismatchInstructions.stopped,Rest_trainingInstruct.started,Rest_trainingInstruct.stopped,next8.keys,next8.rt,next8.started,next8.stopped,Ready.started,Ready.stopped,delay_one_picked,delay_two_picked,blank0.started,blank0.stopped,FixationCross1.started,FixationCross1.stopped,Name3.started,Name3.stopped,Face_Relevance3.started,Face_Relevance3.stopped,responseTime.started,responseTime.stopped,resp.keys,resp.corr,resp.started,resp.stopped,Accuracy.started,Accuracy.stopped,resp.rt,questions.started,questions.stopped,p2.started,p2.stopped,FixationCross3.started,FixationCross3.stopped,port_Face_onset.started,port_Face_onset.stopped,Name4.started,Name4.stopped,Face_Relevance4.started,Face_Relevance4.stopped,responseTime2.started,responseTime2.stopped,Response.keys,Response.corr,Response.rt,Response.started,Response.stopped,p3.started,p3.stopped,Finish.started,Finish.stopped,gender,age,participant,date,expName,psychopyVersion,frameRate,
Friend.png,Friend,,,,,,,0,0,0,1,,,,,,,,,,,,,24.162866900209337,None,0.008794266730546951,0.5643073664978147,46.27553129987791,None,59.405470500234514,None,59.405470500234514,None,,,,,,,,,,,,,,,,,,,,,,,,,,,,,,,,,,,,,,,,,,,,,,,,,,,,,,40,P24,2022_May_11_1242,training+cueing,2021.1.4,59.95103190344348,
Self.png,You,,,,,,,0,1,1,0,,,,,,,,,,,,,,,,,,,79.19022940006107,None,79.19022940006107,None,,,,,,,,,,,,,,,,,,,,,,,,,,,,,,,,,,,,,,,,,,,,,,,,,,,,,,40,P24,2022_May_11_1242,training+cueing,2021.1.4,59.95103190344348,
Stranger.png,Stranger,,,,,,,0,2,2,2,,,,,,,,,,,,,,,,,,,99.13500550016761,None,99.13500550016761,None,,,,,,,,,,,,,,,,,,,,,,,,,,,,,,,,,,,,,,,,,,,,,,,,,,,,,,40,P24,2022_May_11_1242,training+cueing,2021.1.4,59.95103190344348,
Friend.png,Stranger,Friend,m,3.2,19,29,99,,,,,0,0,0,0,0,0,0,5,,,,,,,,,,,,,,,119.07885059993714,None,167.48042980022728,None,space,1.2483133999630809,2.008594329934567,None,170.7312409002334,None,1.51,1.227,173.746181699913,None,174.379408699926,174.88582010008395,174.8690929999575,174.98586900020018,174.8690929999575,174.98586900020018,174.9691436002031,None,None,0,174.9691436002031,None,176.5039065000601,None,,,,,,,,,,,,,,,,,,,,,,,,,,40,P24,2022_May_11_1242,training+cueing,2021.1.4,59.95103190344348,
Stranger.png,Stranger,Stranger,c,3,13,23,93,,,,,0,0,0,0,0,1,1,8,,,,,,,,,,,,,,,,,,,,,,,,,1.516,1.445,176.9044594001025,None,177.442764100153,177.95467959996313,177.9380121002905,178.0547349001281,177.9380121002905,178.0547349001281,178.0380059001036,None,c,1,178.0380059001036,None,179.13771610008553,None,1.0757407997734845,,,,,,,,,,,,,,,,,,,,,,,,,40,P24,2022_May_11_1242,training+cueing,2021.1.4,59.95103190344348,
Stranger.png,You,Stranger,m,1.3,15,25,95,,,,,0,0,0,0,0,2,2,6,,,,,,,,,,,,,,,,,,,,,,,,,1.579,2.473,179.5392952002585,None,180.07618239987642,180.5899078999646,180.57326210010797,180.67329289996997,180.57326210010797,180.67329289996997,180.67329289996997,None,m,1,180.67329289996997,None,181.59061230020598,None,0.8883774997666478,,,,,,,,,,,,,,,,,,,,,,,,,40,P24,2022_May_11_1242,training+cueing,2021.1.4,59.95103190344348,
Stranger.png,Stranger,Stranger,c,3,13,23,93,,,,,0,0,0,0,0,3,3,11,,,,,,,,,,,,,,,,,,,,,,,,,1.556,1.474,181.9910649000667,None,182.52696500020102,183.04166430002078,183.02497270004824,183.14170909998938,183.02497270004824,183.14170909998938,183.12504180008546,None,c,1,183.12504180008546,None,184.10911710001528,None,0.9645913001149893,,,,,,,,,,,,,,,,,,,,,,,,,40,P24,2022_May_11_1242,training+cueing,2021.1.4,59.95103190344348,
Friend.png,Friend,Friend,c,2,12,22,92,,,,,0,0,0,0,0,4,4,10,,,,,,,,,,,,,,,,,,,,,,,,,1.721,1.259,184.50940300012007,None,185.04231199994683,185.5434741000645,185.52679979987442,185.62686430010945,185.52679979987442,185.62686430010945,185.62686430010945,None,c,1,185.62686430010945,None,186.71106379991397,None,1.054955500178039,,,,,,,,,,,,,,,,,,,,,,,,,40,P24,2022_May_11_1242,training+cueing,2021.1.4,59.95103190344348,
Self.png,Friend,Self ,m,2.1,16,26,96,,,,,0,0,0,0,0,5,5,1,,,,,,,,,,,,,,,,,,,,,,,,,1.546,1.683,187.11148840002716,None,187.6401741001755,188.14532320015132,188.128696099855,188.24539009993896,188.128696099855,188.24539009993896,188.2287103002891,None,m,1,188.2287103002891,None,189.42797979991883,None,1.1730173001997173,,,,,,,,,,,,,,,,,,,,,,,,,40,P24,2022_May_11_1242,training+cueing,2021.1.4,59.95103190344348,
Stranger.png,Friend,Stranger,m,2.3,17,27,97,,,,,0,0,0,0,0,6,6,7,,,,,,,,,,,,,,,,,,,,,,,,,1.743,2.433,189.8300890000537,None,190.36108139995486,190.86400850024074,190.84728930005804,190.96400960022584,190.84728930005804,190.96400960022584,190.9473736998625,None,m,1,190.9473736998625,None,192.51525670010597,None,1.5423205001279712,,,,,,,,,,,,,,,,,,,,,,,,,40,P24,2022_May_11_1242,training+cueing,2021.1.4,59.95103190344348,
Friend.png,You,Friend,m,1.2,14,24,94,,,,,0,0,0,0,0,7,7,3,,,,,,,,,,,,,,,,,,,,,,,,,1.609,1.915,192.91545849991962,None,193.44783960003406,193.94955360004678,193.93285320000723,194.03292590007186,193.93285320000723,194.03292590007186,194.03292590007186,None,m,1,194.03292590007186,None,195.21537750028074,None,1.1608544001355767,,,,,,,,,,,,,,,,,,,,,,,,,40,P24,2022_May_11_1242,training+cueing,2021.1.4,59.95103190344348,
Self.png,You,Self ,c,1,11,21,91,,,,,0,0,0,0,0,8,8,9,,,,,,,,,,,,,,,,,,,,,,,,,1.546,1.559,195.61759130004793,None,196.15034910012037,196.6514580999501,196.63482940010726,196.73487200029194,196.63482940010726,196.73487200029194,196.73487200029194,None,c,1,196.73487200029194,None,197.96916110021994,None,1.210851099807769,,,,,,,,,,,,,,,,,,,,,,,,,40,P24,2022_May_11_1242,training+cueing,2021.1.4,59.95103190344348,
Self.png,Stranger,Self ,m,3.1,18,28,98,,,,,0,0,0,0,0,9,9,2,,,,,,,,,,,,,,,,,,,,,,,,,1.598,2.027,198.3695740001276,None,198.9083147002384,199.42034209985286,199.40364510007203,199.52041279990226,199.40364510007203,199.52041279990226,199.50368619989604,None,m,1,199.50368619989604,None,200.33604370011017,None,0.8100740001536906,,,,,,,,,,,,,,,,,,,,,,,,,40,P24,2022_May_11_1242,training+cueing,2021.1.4,59.95103190344348,
Self.png,You,Self ,c,1,11,21,91,,,,,0,0,0,0,0,10,10,0,,,,,,,,,,,,,,,,,,,,,,,,,1.726,1.945,200.7379582999274,None,201.27573090000078,201.78853120002896,201.77184060029685,201.87191689992324,201.77184060029685,201.87191689992324,201.87191689992324,None,c,1,201.87191689992324,None,202.8225953001529,None,0.9217501999810338,,,,,,,,,,,,,,,,,,,,,,,,,40,P24,2022_May_11_1242,training+cueing,2021.1.4,59.95103190344348,
Friend.png,Friend,Friend,c,2,12,22,92,,,,,0,0,0,0,0,11,11,4,,,,,,,,,,,,,,,,,,,,,,,,,1.752,1.559,203.2229026001878,None,203.7553464001976,204.257011000067,204.24032039986923,204.35703309997916,204.24032039986923,204.35703309997916,204.35703309997916,None,c,1,204.35703309997916,None,205.52456180006266,None,1.1406386997550726,,,,,,,,,,,,,,,,,,,,,,,,,40,P24,2022_May_11_1242,training+cueing,2021.1.4,59.95103190344348,
Friend.png,Stranger,Friend,m,3.2,19,29,99,,,,,0,0,0,0,,,,,0,0,0,5,,,,,,,,,,,,,,,,,,,247.2713176999241,None,1.665,1.385,250.78505400009453,None,,,,,,,,,,,,,,,,205.92486520018429,None,0.014590930193662643,0.5128957298584282,251.4200836000964,251.9247852000408,0.5057577691040933,1.0059243692085147,251.9081385000609,252.0247602001764,251.9081385000609,252.0247602001764,252.00809819996357,None,m,1,0.9935560999438167,252.00809819996357,None,,,,,,40,P24,2022_May_11_1242,training+cueing,2021.1.4,59.95103190344348,
Friend.png,Friend,Friend,c,2,12,22,92,,,,,0,0,0,0,,,,,0,1,1,10,,,,,,,,,,,,,,,,,,,,,1.612,2.171,253.1330667003058,None,,,,,,,,,,,,,,,,,,,,253.67512300005183,254.17634710017592,0.5027516903355718,1.0030406899750233,254.15965350018814,254.27639839984477,254.15965350018814,254.27639839984477,254.25969049986452,None,c,1,0.7579848999157548,254.25969049986452,None,,,,,,40,P24,2022_May_11_1242,training+cueing,2021.1.4,59.95103190344348,
Friend.png,Friend,Friend,c,2,12,22,92,,,,,0,0,0,0,,,,,0,2,2,4,,,,,,,,,,,,,,,,,,,,,1.554,1.92,255.14955800026655,None,,,,,,,,,,,,,,,,,,,,255.688521000091,256.19443800020963,0.5126580898649991,1.0136371897533536,256.17779200011864,256.29454480018467,256.17779200011864,256.29454480018467,256.2778417998925,None,c,1,0.8998954999260604,256.2778417998925,None,,,,,,40,P24,2022_May_11_1242,training+cueing,2021.1.4,59.95103190344348,
Self.png,Friend,Self ,m,2.1,16,26,96,,,,,0,0,0,0,,,,,0,3,3,1,,,,,,,,,,,,,,,,,,,,,1.745,1.984,257.3024733001366,None,,,,,,,,,,,,,,,,,,,,257.8484914000146,258.3629525001161,0.5109700900502503,1.0112256901338696,258.34624079987407,258.46303769992664,258.34624079987407,258.46303769992664,258.4463529000059,None,c,0,0.6833641002885997,258.4463529000059,None,,,,,,40,P24,2022_May_11_1242,training+cueing,2021.1.4,59.95103190344348,
Self.png,You,Self ,c,1,11,21,91,,,,,0,0,0,0,,,,,0,4,4,0,,,,,,,,,,,,,,,,,,,,,1.535,2.14,259.2540787998587,None,,,,,,,,,,,,,,,,,,,,259.7958776000887,260.2974725002423,0.5031371898949146,1.00342158973217,260.2807620000094,260.38081890018657,260.2807620000094,260.38081890018657,260.38081890018657,None,c,1,0.9248170000500977,260.38081890018657,None,,,,,,40,P24,2022_May_11_1242,training+cueing,2021.1.4,59.95103190344348,
Friend.png,You,Friend,m,1.2,14,24,94,,,,,0,0,0,0,,,,,0,5,5,3,,,,,,,,,,,,,,,,,,,,,1.549,1.756,261.4377409000881,None,,,,,,,,,,,,,,,,,,,,261.9765758002177,262.48266780003905,0.5117228901945055,1.0118998899124563,262.46577250026166,262.5657049003057,262.46577250026166,262.5657049003057,262.5657049003057,None,m,1,0.8038667999207973,262.5657049003057,None,,,,,,40,P24,2022_May_11_1242,training+cueing,2021.1.4,59.95103190344348,
Stranger.png,Stranger,Stranger,c,3,13,23,93,,,,,0,0,0,0,,,,,0,6,6,8,,,,,,,,,,,,,,,,,,,,,1.553,2.033,263.50636560004205,None,,,,,,,,,,,,,,,,,,,,264.04789610020816,264.55052240006626,0.5045600906014442,1.0048376903869212,264.5338265001774,264.6505714999512,264.5338265001774,264.6505714999512,264.63381389994174,None,m,0,1.1680807997472584,264.63381389994174,None,,,,,,40,P24,2022_May_11_1242,training+cueing,2021.1.4,59.95103190344348,
Stranger.png,Friend,Stranger,m,2.3,17,27,97,,,,,0,0,0,0,,,,,0,7,7,7,,,,,,,,,,,,,,,,,,,,,1.529,1.605,265.9258077000268,None,,,,,,,,,,,,,,,,,,,,266.46754970028996,266.9688976998441,0.5031998897902668,1.0041008898988366,266.9522561999038,267.0689695002511,266.9522561999038,267.0689695002511,267.05224939994514,None,None,0,,267.05224939994514,None,,,,,,40,P24,2022_May_11_1242,training+cueing,2021.1.4,59.95103190344348,
Stranger.png,Stranger,Stranger,c,3,13,23,93,,,,,0,0,0,0,,,,,0,8,8,11,,,,,,,,,,,,,,,,,,,,,1.426,1.231,268.6910573001951,None,,,,,,,,,,,,,,,,,,,,269.23396020010114,269.7376164998859,0.50481938989833,1.005112289916724,269.72093150019646,269.83763940026984,269.72093150019646,269.83763940026984,269.8210013001226,None,None,0,,269.8210013001226,None,,,,,,40,P24,2022_May_11_1242,training+cueing,2021.1.4,59.95103190344348,
Stranger.png,You,Stranger,m,1.3,15,25,95,,,,,0,0,0,0,,,,,0,9,9,6,,,,,,,,,,,,,,,,,,,,,1.428,1.255,271.3595026000403,None,,,,,,,,,,,,,,,,,,,,271.90255649993196,272.40617830026895,0.5058535900898278,1.0061276904307306,272.38952139997855,272.48956779995933,272.38952139997855,272.48956779995933,272.48956779995933,None,m,1,1.2479537003673613,272.48956779995933,None,,,,,,40,P24,2022_May_11_1242,training+cueing,2021.1.4,59.95103190344348,
Self.png,Stranger,Self ,m,3.1,18,28,98,,,,,0,0,0,0,,,,,0,10,10,2,,,,,,,,,,,,,,,,,,,,,1.549,2.354,273.86405840003863,None,,,,,,,,,,,,,,,,,,,,274.40629049995914,274.9080203999765,0.504635389894247,1.0048907897435129,274.8913278002292,275.0080587002449,274.8913278002292,275.0080587002449,274.9913429999724,None,m,1,1.2902474999427795,274.9913429999724,None,,,,,,40,P24,2022_May_11_1242,training+cueing,2021.1.4,59.95103190344348,
Self.png,You,Self ,c,1,11,21,91,,,,,0,0,0,0,,,,,0,11,11,9,,,,,,,,,,,,,,,,,,,,,1.59,2.347,276.4152719001286,None,,,,,,,,,,,,,,,,,,,,276.9556555002928,277.4598773000762,0.506114489864558,1.0063483901321888,277.443198800087,277.5432783002034,277.443198800087,277.5432783002034,277.5432783002034,None,c,1,0.9943101000972092,277.5432783002034,None,,,,,,40,P24,2022_May_11_1242,training+cueing,2021.1.4,59.95103190344348,
Self.png,Stranger,Self ,m,3.1,18,28,98,,,,,0,0,0,0,,,,,1,0,12,2,,,,,,,,,,,,,,,,,,,,,1.764,1.925,278.66669129999354,None,,,,,,,,,,,,,,,,,,,,279.20864159986377,279.711494800169,0.5050976895727217,1.0059123896062374,279.69484509993345,279.81148150004447,279.69484509993345,279.81148150004447,279.79483490018174,None,m,1,0.774861500132829,279.79483490018174,None,,,,,,40,P24,2022_May_11_1242,training+cueing,2021.1.4,59.95103190344348,
Stranger.png,Stranger,Stranger,c,3,13,23,93,,,,,0,0,0,0,,,,,1,1,13,11,,,,,,,,,,,,,,,,,,,,,1.505,2.471,280.70511370012537,None,,,,,,,,,,,,,,,,,,,,281.25822299998254,281.7630076999776,0.5095102195627987,1.0103006195276976,281.7463322998956,281.86298689991236,281.7463322998956,281.86298689991236,281.84629550017416,None,c,1,1.1236880999058485,281.84629550017416,None,,,,,,40,P24,2022_May_11_1242,training+cueing,2021.1.4,59.95103190344348,
Stranger.png,Friend,Stranger,m,2.3,17,27,97,,,,,0,0,0,0,,,,,1,2,14,7,,,,,,,,,,,,,,,,,,,,,1.689,2.271,283.1039913999848,None,,,,,,,,,,,,,,,,,,,,283.6431702002883,284.1481165001169,0.5081714899279177,1.0085362899117172,284.131394200027,284.24815910030156,284.131394200027,284.24815910030156,284.2314253002405,None,m,1,0.770110399927944,284.2314253002405,None,,,,,,40,P24,2022_May_11_1242,training+cueing,2021.1.4,59.95103190344348,
Friend.png,Stranger,Friend,m,3.2,19,29,99,,,,,0,0,0,0,,,,,1,3,15,5,,,,,,,,,,,,,,,,,,,,,1.479,1.523,285.13888389989734,None,,,,,,,,,,,,,,,,,,,,285.6808335999958,286.1827964000404,0.5046685906127095,1.0049318904057145,286.16615060018376,286.2828417001292,286.16615060018376,286.2828417001292,286.26617700001225,None,m,1,1.2955058002844453,286.26617700001225,None,,,,,,40,P24,2022_May_11_1242,training+cueing,2021.1.4,59.95103190344348,
Stranger.png,Stranger,Stranger,c,3,13,23,93,,,,,0,0,0,0,,,,,1,4,16,8,,,,,,,,,,,,,,,,,,,,,1.479,1.611,287.6912835002877,None,,,,,,,,,,,,,,,,,,,,288.22941219992936,288.73465400002897,0.5073597901500762,1.0076880902051926,288.7179232002236,288.83470349991694,288.7179232002236,288.83470349991694,288.817976700142,None,c,1,0.9516152003780007,288.817976700142,None,,,,,,40,P24,2022_May_11_1242,training+cueing,2021.1.4,59.95103190344348,
Self.png,You,Self ,c,1,11,21,91,,,,,0,0,0,0,,,,,1,5,17,0,,,,,,,,,,,,,,,,,,,,,1.479,2.468,289.8917171000503,None,,,,,,,,,,,,,,,,,,,,290.4324524998665,290.9362571001984,0.5069940900430083,1.0072732898406684,290.9195401002653,291.0195952001959,290.9195401002653,291.0195952001959,291.0195952001959,None,c,1,0.8140541999600828,291.0195952001959,None,,,,,,40,P24,2022_May_11_1242,training+cueing,2021.1.4,59.95103190344348,
Friend.png,Friend,Friend,c,2,12,22,92,,,,,0,0,0,0,,,,,1,6,18,4,,,,,,,,,,,,,,,,,,,,,1.703,1.288,291.95944839995354,None,,,,,,,,,,,,,,,,,,,,292.5021969000809,293.004407200031,0.5056280898861587,1.0065256897360086,292.98770940024406,293.1044347998686,292.98770940024406,293.1044347998686,293.0877266000025,None,c,1,0.8099402999505401,293.0877266000025,None,,,,,,40,P24,2022_May_11_1242,training+cueing,2021.1.4,59.95103190344348,
Stranger.png,You,Stranger,m,1.3,15,25,95,,,,,0,0,0,0,,,,,1,7,19,6,,,,,,,,,,,,,,,,,,,,,1.446,1.602,294.0294972001575,None,,,,,,,,,,,,,,,,,,,,294.56896439986303,295.07259440002963,0.5042420900426805,1.0045073903165758,295.05589199997485,295.15607680007815,295.05589199997485,295.15607680007815,295.15607680007815,None,m,1,0.9334092000499368,295.15607680007815,None,,,,,,40,P24,2022_May_11_1242,training+cueing,2021.1.4,59.95103190344348,
Self.png,You,Self ,c,1,11,21,91,,,,,0,0,0,0,,,,,1,8,20,9,,,,,,,,,,,,,,,,,,,,,1.529,2.431,296.21311399992555,None,,,,,,,,,,,,,,,,,,,,296.75159810017794,297.25746500026435,0.5114377900026739,1.0117766899056733,297.2407638002187,297.3408273002133,297.2407638002187,297.3408273002133,297.3408273002133,None,c,1,0.7166606998071074,297.3408273002133,None,,,,,,40,P24,2022_May_11_1242,training+cueing,2021.1.4,59.95103190344348,
Self.png,Friend,Self ,m,2.1,16,26,96,,,,,0,0,0,0,,,,,1,9,21,1,,,,,,,,,,,,,,,,,,,,,1.623,2.283,298.1810228000395,None,,,,,,,,,,,,,,,,,,,,298.72297960007563,299.22552630025893,0.5053364899940789,1.0058980900794268,299.20889270026237,299.3262082999572,299.20889270026237,299.3262082999572,299.30891179991886,None,m,1,1.1327591999433935,299.30891179991886,None,,,,,,40,P24,2022_May_11_1242,training+cueing,2021.1.4,59.95103190344348,
Friend.png,Friend,Friend,c,2,12,22,92,,,,,0,0,0,0,,,,,1,10,22,10,,,,,,,,,,,,,,,,,,,,,1.732,1.676,300.5670886998996,None,,,,,,,,,,,,,,,,,,,,301.10420970013365,301.60863019991666,0.5164350904524326,1.010927990078926,301.5997481001541,301.71064630011097,301.5997481001541,301.71064630011097,301.6939735002816,None,c,1,0.9875677996315062,301.6939735002816,None,,,,,,40,P24,2022_May_11_1242,training+cueing,2021.1.4,59.95103190344348,
Friend.png,You,Friend,m,1.2,14,24,94,,,,,0,0,0,0,,,,,1,11,23,3,,,,,,,,,,,,,,,,,,,,,1.427,1.949,302.81765680015087,None,,,,,,,,,,,,,,,,,,,,303.3586237998679,303.862247900106,0.5071452902629972,1.007556090131402,303.845544999931,303.9455963000655,303.845544999931,303.9455963000655,303.9455963000655,None,m,1,0.9440239001996815,303.9455963000655,None,,,,,,40,P24,2022_May_11_1242,training+cueing,2021.1.4,59.95103190344348,
Self.png,You,Self ,c,1,11,21,91,,,,,0,0,0,0,,,,,2,0,24,0,,,,,,,,,,,,,,,,,,,,,1.525,2.153,305.0197332999669,None,,,,,,,,,,,,,,,,,,,,305.5568265002221,306.06385560007766,0.5125228902325034,1.0127520901151001,306.047174599953,306.14718860015273,306.047174599953,306.14718860015273,306.14718860015273,None,c,1,0.7423692997545004,306.14718860015273,None,,,,,,40,P24,2022_May_11_1242,training+cueing,2021.1.4,59.95103190344348,
Friend.png,You,Friend,m,1.2,14,24,94,,,,,0,0,0,0,,,,,2,1,25,3,,,,,,,,,,,,,,,,,,,,,1.679,2.347,307.0200010002591,None,,,,,,,,,,,,,,,,,,,,307.5590412998572,308.0652609001845,0.5110309896990657,1.0113354898057878,308.0485705998726,308.14862840017304,308.0485705998726,308.14862840017304,308.14862840017304,None,m,1,0.9010862000286579,308.14862840017304,None,,,,,,40,P24,2022_May_11_1242,training+cueing,2021.1.4,59.95103190344348,
Stranger.png,Friend,Stranger,m,2.3,17,27,97,,,,,0,0,0,0,,,,,2,2,26,7,,,,,,,,,,,,,,,,,,,,,1.57,1.963,309.17201900016516,None,,,,,,,,,,,,,,,,,,,,309.72267789999023,310.23355450015515,0.5048608896322548,1.0051564895547926,310.21682700002566,310.33359770011157,310.21682700002566,310.33359770011157,310.31684420024976,None,m,1,0.8446607999503613,310.31684420024976,None,,,,,,40,P24,2022_May_11_1242,training+cueing,2021.1.4,59.95103190344348,
Friend.png,Stranger,Friend,m,3.2,19,29,99,,,,,0,0,0,0,,,,,2,3,27,5,,,,,,,,,,,,,,,,,,,,,1.623,1.882,311.2904133000411,None,,,,,,,,,,,,,,,,,,,,311.83001819998026,312.33504369994625,0.5075454898178577,1.0080106896348298,312.3183587999083,312.4357047001831,312.3183587999083,312.4357047001831,312.4183789002709,None,m,1,0.9513551997952163,312.4183789002709,None,,,,,,40,P24,2022_May_11_1242,training+cueing,2021.1.4,59.95103190344348,
Stranger.png,Stranger,Stranger,c,3,13,23,93,,,,,0,0,0,0,,,,,2,4,28,11,,,,,,,,,,,,,,,,,,,,,1.504,2.08,313.4936695001088,None,,,,,,,,,,,,,,,,,,,,314.03273630002514,314.5366358002648,0.5075333900749683,1.0078314896672964,314.51993450010195,314.6366775999777,314.51993450010195,314.6366775999777,314.61996169993654,None,c,1,1.0855132997967303,314.61996169993654,None,,,,,,40,P24,2022_May_11_1242,training+cueing,2021.1.4,59.95103190344348,
Stranger.png,You,Stranger,m,1.3,15,25,95,,,,,0,0,0,0,,,,,2,5,29,6,,,,,,,,,,,,,,,,,,,,,1.75,2.17,315.8272195002064,None,,,,,,,,,,,,,,,,,,,,316.3693236000836,316.8716078000143,0.5059417900629342,1.0062356903217733,316.8549641002901,316.95503159984946,316.8549641002901,316.95503159984946,316.95503159984946,None,m,1,0.7345230001956224,316.95503159984946,None,,,,,,40,P24,2022_May_11_1242,training+cueing,2021.1.4,59.95103190344348,
Friend.png,Friend,Friend,c,2,12,22,92,,,,,0,0,0,0,,,,,2,6,30,10,,,,,,,,,,,,,,,,,,,,,1.78,2.145,317.8118646000512,None,,,,,,,,,,,,,,,,,,,,318.3525990000926,318.8563951002434,0.5058795898221433,1.0071856896393,318.8397067002952,318.9564657001756,318.8397067002952,318.9564657001756,318.9397376999259,None,c,1,0.6380232996307313,318.9397376999259,None,,,,,,40,P24,2022_May_11_1242,training+cueing,2021.1.4,59.95103190344348,
Friend.png,Friend,Friend,c,2,12,22,92,,,,,0,0,0,0,,,,,2,7,31,4,,,,,,,,,,,,,,,,,,,,,1.54,1.74,319.71683140005916,None,,,,,,,,,,,,,,,,,,,,320.25359690003097,320.7577829998918,0.5075254901312292,1.007747990079224,320.7411731998436,320.8578054001555,320.7411731998436,320.8578054001555,320.8411588999443,None,c,1,0.9763715998269618,320.8411588999443,None,,,,,,40,P24,2022_May_11_1242,training+cueing,2021.1.4,59.95103190344348,
Stranger.png,Stranger,Stranger,c,3,13,23,93,,,,,0,0,0,0,,,,,2,8,32,8,,,,,,,,,,,,,,,,,,,,,1.679,2.064,321.94827260030434,None,,,,,,,,,,,,,,,,,,,,322.4890732001513,322.99273269996047,0.5051605897024274,1.0055035897530615,322.97606060002,323.0927675999701,322.97606060002,323.0927675999701,323.0760600999929,None,c,1,1.0774658997543156,323.0760600999929,None,,,,,,40,P24,2022_May_11_1242,training+cueing,2021.1.4,59.95103190344348,
Self.png,Stranger,Self ,m,3.1,18,28,98,,,,,0,0,0,0,,,,,2,9,33,2,,,,,,,,,,,,,,,,,,,,,1.626,1.299,324.2831538002938,None,,,,,,,,,,,,,,,,,,,,324.82190530002117,325.3276881002821,0.5110560902394354,1.0113598904572427,325.3110851002857,325.4278013999574,325.3110851002857,325.4278013999574,325.4111144999042,None,m,1,0.8226060997694731,325.4111144999042,None,,,,,,40,P24,2022_May_11_1242,training+cueing,2021.1.4,59.95103190344348,
Self.png,Friend,Self ,m,2.1,16,26,96,,,,,0,0,0,0,,,,,2,10,34,1,,,,,,,,,,,,,,,,,,,,,1.576,2.19,326.3719943999313,None,,,,,,,,,,,,,,,,,,,,326.9112738999538,327.4125647000037,0.5032095899805427,1.003484790213406,327.39591170009226,327.5126431998797,327.39591170009226,327.5126431998797,327.4959241002798,None,m,1,0.8496869998052716,327.4959241002798,None,,,,,,40,P24,2022_May_11_1242,training+cueing,2021.1.4,59.95103190344348,
Self.png,You,Self ,c,1,11,21,91,,,,,0,0,0,0,,,,,2,11,35,9,,,,,,,,,,,,,,,,,,,,,1.645,1.791,328.4736350001767,None,,,,,,,,,,,,,,,,,,,,329.0168000999838,329.53100349986926,0.5102819898165762,1.0104944896884263,329.51433899998665,329.6143554998562,329.51433899998665,329.6143554998562,329.6143554998562,None,c,1,0.8592753997072577,329.6143554998562,None,,,,,,40,P24,2022_May_11_1242,training+cueing,2021.1.4,59.95103190344348,
Self.png,You,Self ,c,1,11,21,91,,,,,0,0,0,0,,,,,3,0,36,9,,,,,,,,,,,,,,,,,,,,,1.491,2.165,330.6054684002884,None,,,,,,,,,,,,,,,,,,,,331.14298029989004,331.6489689000882,0.5113816894590855,1.0116463894955814,331.6322888000868,331.7323456001468,331.6322888000868,331.7323456001468,331.7323456001468,None,c,1,0.9331514001823962,331.7323456001468,None,,,,,,40,P24,2022_May_11_1242,training+cueing,2021.1.4,59.95103190344348,
Stranger.png,Friend,Stranger,m,2.3,17,27,97,,,,,0,0,0,0,,,,,3,1,37,7,,,,,,,,,,,,,,,,,,,,,1.64,2.081,332.78922739997506,None,,,,,,,,,,,,,,,,,,,,333.3297080001794,333.83394040027633,0.5070163900963962,1.0074946898967028,333.8172110002488,333.93393980013207,333.8172110002488,333.93393980013207,333.9172299001366,None,m,1,0.9563846001401544,333.9172299001366,None,,,,,,40,P24,2022_May_11_1242,training+cueing,2021.1.4,59.95103190344348,
Friend.png,Friend,Friend,c,2,12,22,92,,,,,0,0,0,0,,,,,3,2,38,10,,,,,,,,,,,,,,,,,,,,,1.505,1.682,335.0085471002385,None,,,,,,,,,,,,,,,,,,,,335.5464528002776,336.05220409994945,0.5091977901756763,1.0094930902123451,336.03547060023993,336.15224889991805,336.03547060023993,336.15224889991805,336.1356715001166,None,c,1,0.7858522003516555,336.1356715001166,None,,,,,,40,P24,2022_May_11_1242,training+cueing,2021.1.4,59.95103190344348,
Stranger.png,Stranger,Stranger,c,3,13,23,93,,,,,0,0,0,0,,,,,3,3,39,8,,,,,,,,,,,,,,,,,,,,,1.621,1.702,337.0590017000213,None,,,,,,,,,,,,,,,,,,,,337.6186926001683,338.12032569991425,0.5046015195548534,1.004905819427222,338.10362329985946,338.220358800143,338.10362329985946,338.220358800143,338.20364949991927,None,m,0,0.7340832999907434,338.20364949991927,None,,,,,,40,P24,2022_May_11_1242,training+cueing,2021.1.4,59.95103190344348,
Friend.png,Stranger,Friend,m,3.2,19,29,99,,,,,0,0,0,0,,,,,3,4,40,5,,,,,,,,,,,,,,,,,,,,,1.754,1.651,339.0644692000933,None,,,,,,,,,,,,,,,,,,,,339.6149822999723,340.1217658002861,0.5122357197105885,1.012762219645083,340.10511790029705,340.2218460999429,340.10511790029705,340.2218460999429,340.20516420016065,None,m,1,0.9407062996178865,340.20516420016065,None,,,,,,40,P24,2022_May_11_1242,training+cueing,2021.1.4,59.95103190344348,
Friend.png,You,Friend,m,1.2,14,24,94,,,,,0,0,0,0,,,,,3,5,41,3,,,,,,,,,,,,,,,,,,,,,1.735,1.819,341.2796193002723,None,,,,,,,,,,,,,,,,,,,,341.82032559998333,342.32338740024716,0.5063722897320986,1.0066586900502443,342.3066777000204,342.40672190021724,342.3066777000204,342.40672190021724,342.40672190021724,None,c,0,1.6827412000857294,342.40672190021724,None,,,,,,40,P24,2022_May_11_1242,training+cueing,2021.1.4,59.95103190344348,
Stranger.png,You,Stranger,m,1.3,15,25,95,,,,,0,0,0,0,,,,,3,6,42,6,,,,,,,,,,,,,,,,,,,,,1.567,1.679,344.21387600013986,None,,,,,,,,,,,,,,,,,,,,344.75348600000143,345.2588399001397,0.5103128901682794,1.0106462901458144,345.2421341999434,345.3421697001904,345.2421341999434,345.3421697001904,345.3421697001904,None,m,1,0.8593371999450028,345.3421697001904,None,,,,,,40,P24,2022_May_11_1242,training+cueing,2021.1.4,59.95103190344348,
Self.png,You,Self ,c,1,11,21,91,,,,,0,0,0,0,,,,,3,7,43,0,,,,,,,,,,,,,,,,,,,,,1.602,1.561,346.33225060021505,None,,,,,,,,,,,,,,,,,,,,346.8702636999078,347.377023300156,0.5104746897704899,1.0107810897752643,347.3602988999337,347.4605995998718,347.3602988999337,347.4605995998718,347.4605995998718,None,c,1,0.7731308997608721,347.4605995998718,None,,,,,,40,P24,2022_May_11_1242,training+cueing,2021.1.4,59.95103190344348,
Self.png,Stranger,Self ,m,3.1,18,28,98,,,,,0,0,0,0,,,,,3,8,44,2,,,,,,,,,,,,,,,,,,,,,1.613,1.364,348.36760890018195,None,,,,,,,,,,,,,,,,,,,,348.9085682001896,349.41184150008485,0.5072452896274626,1.007608089596033,349.3951373999007,349.51187950000167,349.3951373999007,349.51187950000167,349.49516180017963,None,None,0,,349.49516180017963,None,,,,,,40,P24,2022_May_11_1242,training+cueing,2021.1.4,59.95103190344348,
Stranger.png,Stranger,Stranger,c,3,13,23,93,,,,,0,0,0,0,,,,,3,9,45,11,,,,,,,,,,,,,,,,,,,,,1.782,2.479,351.21845600008965,None,,,,,,,,,,,,,,,,,,,,351.75843130005524,352.26390739995986,0.5107329897582531,1.0110123897902668,352.2471861001104,352.3640387998894,352.2471861001104,352.3640387998894,352.34721220005304,None,c,1,1.3422795003280044,352.34721220005304,None,,,,,,40,P24,2022_May_11_1242,training+cueing,2021.1.4,59.95103190344348,
Self.png,Friend,Self ,m,2.1,16,26,96,,,,,0,0,0,0,,,,,3,10,46,1,,,,,,,,,,,,,,,,,,,,,1.731,1.939,353.821354100015,None,,,,,,,,,,,,,,,,,,,,354.36175830010325,354.86582060018554,0.505291189532727,1.0055662896484137,354.849100000225,354.9658065000549,354.849100000225,354.9658065000549,354.9491196000017,None,m,1,0.8683418999426067,354.9491196000017,None,,,,,,40,P24,2022_May_11_1242,training+cueing,2021.1.4,59.95103190344348,
Friend.png,Friend,Friend,c,2,12,22,92,,,,,0,0,0,0,,,,,3,11,47,4,,,,,,,,,,,,,,,,,,,,,1.549,1.386,355.9395137000829,None,,,,,,,,,,,,,,,,,,,,356.47867130022496,356.98391860025004,0.5101083894260228,1.0105706895701587,356.96729269996285,357.0839920998551,356.96729269996285,357.0839920998551,357.0672919000499,None,c,1,0.6862231995910406,357.0672919000499,None,,,,,,40,P24,2022_May_11_1242,training+cueing,2021.1.4,59.95103190344348,
Stranger.png,Stranger,Stranger,c,3,13,23,93,,,,,0,0,0,0,,,,,4,0,48,8,,,,,,,,,,,,,,,,,,,,,1.599,1.821,357.8905918998644,None,,,,,,,,,,,,,,,,,,,,358.4315034998581,358.9353713002056,0.5048817899078131,1.0051672896370292,358.91871450003237,359.0354146999307,358.91871450003237,359.0354146999307,359.01871700026095,None,c,1,1.0547626996412873,359.01871700026095,None,,,,,,40,P24,2022_May_11_1242,training+cueing,2021.1.4,59.95103190344348,
Self.png,You,Self ,c,1,11,21,91,,,,,0,0,0,0,,,,,4,1,49,0,,,,,,,,,,,,,,,,,,,,,1.427,1.55,360.20935710007325,None,,,,,,,,,,,,,,,,,,,,360.7504171002656,361.2539216000587,0.5058584897778928,1.007106089964509,361.23617949988693,361.3372311000712,361.23617949988693,361.3372311000712,361.3372311000712,None,c,1,0.5922698997892439,361.3372311000712,None,,,,,,40,P24,2022_May_11_1242,training+cueing,2021.1.4,59.95103190344348,
Stranger.png,You,Stranger,m,1.3,15,25,95,,,,,0,0,0,0,,,,,4,2,50,6,,,,,,,,,,,,,,,,,,,,,1.797,1.838,362.0612166998908,None,,,,,,,,,,,,,,,,,,,,362.60349850030616,363.1050531999208,0.5043455897830427,1.0051503898575902,363.08839350007474,363.1883793002926,363.08839350007474,363.1883793002926,363.1883793002926,None,m,1,0.6772532998584211,363.1883793002926,None,,,,,,40,P24,2022_May_11_1242,training+cueing,2021.1.4,59.95103190344348,
Stranger.png,Stranger,Stranger,c,3,13,23,93,,,,,0,0,0,0,,,,,4,3,51,11,,,,,,,,,,,,,,,,,,,,,1.536,2.022,363.9962646998465,None,,,,,,,,,,,,,,,,,,,,364.54109800001606,365.05653929989785,0.5120603898540139,1.012250289786607,365.0398462000303,365.1565169999376,365.0398462000303,365.1565169999376,365.13979930011556,None,None,0,,365.13979930011556,None,,,,,,40,P24,2022_May_11_1242,training+cueing,2021.1.4,59.95103190344348,
Stranger.png,Friend,Stranger,m,2.3,17,27,97,,,,,0,0,0,0,,,,,4,4,52,7,,,,,,,,,,,,,,,,,,,,,1.533,2.453,366.795647200197,None,,,,,,,,,,,,,,,,,,,,367.33843850018457,367.8418089002371,0.5059443898499012,1.0065175900235772,367.82512409985065,367.94187489990145,367.82512409985065,367.94187489990145,367.9251379999332,None,m,1,0.7563570002093911,367.9251379999332,None,,,,,,40,P24,2022_May_11_1242,training+cueing,2021.1.4,59.95103190344348,
Friend.png,You,Friend,m,1.2,14,24,94,,,,,0,0,0,0,,,,,4,5,53,3,,,,,,,,,,,,,,,,,,,,,1.732,1.589,368.8161818999797,None,,,,,,,,,,,,,,,,,,,,369.35677439998835,369.8599466001615,0.5067942901514471,1.0070621902123094,369.8432799000293,369.9433097001165,369.8432799000293,369.9433097001165,369.9433097001165,None,m,1,0.9781213998794556,369.9433097001165,None,,,,,,40,P24,2022_May_11_1242,training+cueing,2021.1.4,59.95103190344348,
Self.png,You,Self ,c,1,11,21,91,,,,,0,0,0,0,,,,,4,6,54,9,,,,,,,,,,,,,,,,,,,,,1.708,1.844,371.0501363002695,None,,,,,,,,,,,,,,,,,,,,371.58786190021783,372.09488680027425,0.5118987900204957,1.0122321899980307,372.07815869990736,372.17823620000854,372.07815869990736,372.17823620000854,372.17823620000854,None,c,1,0.5834528999403119,372.17823620000854,None,,,,,,40,P24,2022_May_11_1242,training+cueing,2021.1.4,59.95103190344348,
Self.png,Friend,Self ,m,2.1,16,26,96,,,,,0,0,0,0,,,,,4,7,55,1,,,,,,,,,,,,,,,,,,,,,1.429,2.449,372.88908320013434,None,,,,,,,,,,,,,,,,,,,,373.440071800258,373.9463994000107,0.5120364194735885,1.0123802195303142,373.9297096002847,374.046413899865,373.9297096002847,374.046413899865,374.0297109000385,None,m,1,0.8918097000569105,374.0297109000385,None,,,,,,40,P24,2022_May_11_1242,training+cueing,2021.1.4,59.95103190344348,
Friend.png,Friend,Friend,c,2,12,22,92,,,,,0,0,0,0,,,,,4,8,56,4,,,,,,,,,,,,,,,,,,,,,1.445,2.233,375.0535102998838,None,,,,,,,,,,,,,,,,,,,,375.5914213000797,376.0978184998967,0.510317990090698,1.011215990409255,376.08108580019325,376.19781380007043,376.08108580019325,376.19781380007043,376.18110259994864,None,c,1,0.7885373998433352,376.18110259994864,None,,,,,,40,P24,2022_May_11_1242,training+cueing,2021.1.4,59.95103190344348,
Friend.png,Stranger,Friend,m,3.2,19,29,99,,,,,0,0,0,0,,,,,4,9,57,5,,,,,,,,,,,,,,,,,,,,,1.725,1.301,377.10863849986345,None,,,,,,,,,,,,,,,,,,,,377.6476034000516,378.1492376001552,0.5047671901993454,1.0050615901127458,378.13256000028923,378.249293200206,378.13256000028923,378.249293200206,378.2325853998773,None,m,1,0.8808242999948561,378.2325853998773,None,,,,,,40,P24,2022_May_11_1242,training+cueing,2021.1.4,59.95103190344348,
Self.png,Stranger,Self ,m,3.1,18,28,98,,,,,0,0,0,0,,,,,4,10,58,2,,,,,,,,,,,,,,,,,,,,,1.724,2.407,379.2393692000769,None,,,,,,,,,,,,,,,,,,,,379.7789819999598,380.28415529988706,0.5099534899927676,1.010169189888984,380.26749370014295,380.38421340007335,380.26749370014295,380.38421340007335,380.3674781001173,None,m,1,0.7299556997604668,380.3674781001173,None,,,,,,40,P24,2022_May_11_1242,training+cueing,2021.1.4,59.95103190344348,
Friend.png,Friend,Friend,c,2,12,22,92,,,,,0,0,0,0,,,,,4,11,59,10,,,,,,,,,,,,,,,,,,,,,1.799,1.812,381.2241751002148,None,,,,,,,,,,,,,,,,,,,,381.7641183999367,382.2688835998997,0.5070828897878528,1.0073769898153841,382.2522070002742,382.3689616001211,382.2522070002742,382.3689616001211,382.3522365000099,None,c,1,0.7452412000857294,382.3522365000099,None,,,,,,40,P24,2022_May_11_1242,training+cueing,2021.1.4,59.95103190344348,
Stranger.png,Friend,Stranger,m,2.3,17,27,97,,,,,0,0,0,0,,,,,5,0,60,7,,,,,,,,,,,,,,,,,,,,,1.605,2.243,383.2252901000902,None,,,,,,,,,,,,,,,,,,,,383.77799839992076,384.287289599888,0.5027013905346394,1.0029704901389778,384.2705250000581,384.3872143998742,384.2705250000581,384.3872143998742,384.3705349001102,None,m,1,0.8709615999832749,384.3705349001102,None,,,,,,40,P24,2022_May_11_1242,training+cueing,2021.1.4,59.95103190344348,
Friend.png,Friend,Friend,c,2,12,22,92,,,,,0,0,0,0,,,,,5,1,61,10,,,,,,,,,,,,,,,,,,,,,1.794,2.065,385.3781965998933,None,,,,,,,,,,,,,,,,,,,,385.91678320011124,386.42205400019884,0.5111034903675318,1.0113869900815189,386.4053795002401,386.5221064998768,386.4053795002401,386.5221064998768,386.5055416999385,None,c,1,0.6242442997172475,386.5055416999385,None,,,,,,40,P24,2022_May_11_1242,training+cueing,2021.1.4,59.95103190344348,
Self.png,You,Self ,c,1,11,21,91,,,,,0,0,0,0,,,,,5,2,62,9,,,,,,,,,,,,,,,,,,,,,1.416,2.194,387.26350850006565,None,,,,,,,,,,,,,,,,,,,,387.80251409998164,388.30658800015226,0.5059136897325516,1.0062043899670243,388.2899158000946,388.389945700299,388.2899158000946,388.389945700299,388.389945700299,None,c,1,0.6435245997272432,388.389945700299,None,,,,,,40,P24,2022_May_11_1242,training+cueing,2021.1.4,59.95103190344348,
Friend.png,You,Friend,m,1.2,14,24,94,,,,,0,0,0,0,,,,,5,3,63,3,,,,,,,,,,,,,,,,,,,,,1.561,1.417,389.1630800999701,None,,,,,,,,,,,,,,,,,,,,389.70281760022044,390.20795209985226,0.510770290158689,1.0116656902246177,390.19129949994385,390.2913728002459,390.19129949994385,390.2913728002459,390.2913728002459,None,m,1,0.8380979998037219,390.2913728002459,None,,,,,,40,P24,2022_May_11_1242,training+cueing,2021.1.4,59.95103190344348,
Stranger.png,Stranger,Stranger,c,3,13,23,93,,,,,0,0,0,0,,,,,5,4,64,11,,,,,,,,,,,,,,,,,,,,,1.454,1.552,391.2647078000009,None,,,,,,,,,,,,,,,,,,,,391.80451219994575,392.3094889000058,0.5072647896595299,1.0075742895714939,392.29280180018395,392.40955050010234,392.29280180018395,392.40955050010234,392.39281920017675,None,m,0,0.6728908000513911,392.39281920017675,None,,,,,,40,P24,2022_May_11_1242,training+cueing,2021.1.4,59.95103190344348,
Self.png,You,Self ,c,1,11,21,91,,,,,0,0,0,0,,,,,5,5,65,0,,,,,,,,,,,,,,,,,,,,,1.644,1.226,393.1997052002698,None,,,,,,,,,,,,,,,,,,,,393.7414446999319,394.2442197999917,0.5066822897642851,1.0069325901567936,394.22759240027517,394.3276549000293,394.22759240027517,394.3276549000293,394.3276549000293,None,c,1,0.881657799705863,394.3276549000293,None,,,,,,40,P24,2022_May_11_1242,training+cueing,2021.1.4,59.95103190344348,
Stranger.png,You,Stranger,m,1.3,15,25,95,,,,,0,0,0,0,,,,,5,6,66,6,,,,,,,,,,,,,,,,,,,,,1.421,1.568,395.33457940025255,None,,,,,,,,,,,,,,,,,,,,395.8880424001254,396.3957791002467,0.4994122199714184,0.9997040196321905,396.3624052000232,396.4624469000846,396.3624052000232,396.4624469000846,396.4624469000846,None,m,1,0.7789687002077699,396.4624469000846,None,,,,,,40,P24,2022_May_11_1242,training+cueing,2021.1.4,59.95103190344348,
Friend.png,Stranger,Friend,m,3.2,19,29,99,,,,,0,0,0,0,,,,,5,7,67,5,,,,,,,,,,,,,,,,,,,,,1.445,1.219,397.36927430005744,None,,,,,,,,,,,,,,,,,,,,397.91038769995794,398.41393510019407,0.5038086902350187,1.0040873899124563,398.3972306000069,398.513975400012,398.3972306000069,398.513975400012,398.4972300999798,None,m,1,0.72822630032897,398.4972300999798,None,,,,,,40,P24,2022_May_11_1242,training+cueing,2021.1.4,59.95103190344348,
Self.png,Friend,Self ,m,2.1,16,26,96,,,,,0,0,0,0,,,,,5,8,68,1,,,,,,,,,,,,,,,,,,,,,1.781,2.282,399.35424600029364,None,,,,,,,,,,,,,,,,,,,,399.8954109000042,400.39870460005477,0.505882989615202,1.0061192894354463,400.3820322002284,400.49870810005814,400.3820322002284,400.49870810005814,400.4821255002171,None,m,1,1.0793018001131713,400.4821255002171,None,,,,,,40,P24,2022_May_11_1242,training+cueing,2021.1.4,59.95103190344348,
Self.png,Stranger,Self ,m,3.1,18,28,98,,,,,0,0,0,0,,,,,5,9,69,2,,,,,,,,,,,,,,,,,,,,,1.578,2.295,401.68878389988095,None,,,,,,,,,,,,,,,,,,,,402.23002010025084,402.73370809992775,0.5070135900750756,1.00731999007985,402.717000100296,402.83372770017013,402.717000100296,402.83372770017013,402.81702530011535,None,m,1,0.7924319002777338,402.81702530011535,None,,,,,,40,P24,2022_May_11_1242,training+cueing,2021.1.4,59.95103190344348,
Friend.png,Friend,Friend,c,2,12,22,92,,,,,0,0,0,0,,,,,5,10,70,4,,,,,,,,,,,,,,,,,,,,,1.638,2.316,403.74064480001107,None,,,,,,,,,,,,,,,,,,,,404.28116889996454,404.7851631999947,0.5050219898112118,1.0052565899677575,404.7685195002705,404.88520300015807,404.7685195002705,404.88520300015807,404.86857940023765,None,c,1,0.900908499956131,404.86857940023765,None,,,,,,40,P24,2022_May_11_1242,training+cueing,2021.1.4,59.95103190344348,
Stranger.png,Stranger,Stranger,c,3,13,23,93,,,,,0,0,0,0,,,,,5,11,71,8,,,,,,,,,,,,,,,,,,,,,1.785,1.272,405.8915687999688,None,,,,,,,,,,,,,,,,,,,,406.45092489989474,406.95342550007626,0.5061386195011437,1.006350019481033,406.93673660000786,407.0534239001572,406.93673660000786,407.0534239001572,407.03674650005996,None,c,1,0.7806506003253162,407.03674650005996,None,,,,,,40,P24,2022_May_11_1242,training+cueing,2021.1.4,59.95103190344348,
Self.png,Friend,Self ,m,2.1,16,26,96,,,,,0,0,0,0,,,,,6,0,72,1,,,,,,,,,,,,,,,,,,,,,1.607,2.239,407.9434766001068,None,,,,,,,,,,,,,,,,,,,,408.4840967999771,408.98820620030165,0.5058190901763737,1.0061104898341,408.9715257999487,409.0882744002156,408.9715257999487,409.0882744002156,409.07155269989744,None,m,1,1.241778400260955,409.07155269989744,None,,,,,,40,P24,2022_May_11_1242,training+cueing,2021.1.4,59.95103190344348,
Self.png,You,Self ,c,1,11,21,91,,,,,0,0,0,0,,,,,6,1,73,9,,,,,,,,,,,,,,,,,,,,,1.546,1.737,410.44520549988374,None,,,,,,,,,,,,,,,,,,,,410.98632010025904,411.4900060999207,0.5065564904361963,1.006855790503323,411.4733135001734,411.5733695002273,411.4733135001734,411.5733695002273,411.5733695002273,None,c,1,0.7240034998394549,411.5733695002273,None,,,,,,40,P24,2022_May_11_1242,training+cueing,2021.1.4,59.95103190344348,
Stranger.png,Friend,Stranger,m,2.3,17,27,97,,,,,0,0,0,0,,,,,6,2,74,7,,,,,,,,,,,,,,,,,,,,,1.566,2.455,412.4304215000011,None,,,,,,,,,,,,,,,,,,,,412.9726313999854,413.47495310008526,0.5061886901967227,1.0061977901495993,413.4583884999156,413.574862500187,413.4583884999156,413.574862500187,413.5581320002675,None,m,1,1.315138400066644,413.5581320002675,None,,,,,,40,P24,2022_May_11_1242,training+cueing,2021.1.4,59.95103190344348,
Stranger.png,Stranger,Stranger,c,3,13,23,93,,,,,0,0,0,0,,,,,6,3,75,11,,,,,,,,,,,,,,,,,,,,,1.482,2.429,414.9986704001203,None,,,,,,,,,,,,,,,,,,,,415.54342610016465,416.0433465000242,0.5141640901565552,1.0144408904016018,416.0433465000242,416.1433844002895,416.0433465000242,416.1433844002895,416.1433844002895,None,c,1,0.7460041996091604,416.1433844002895,None,,,,,,40,P24,2022_May_11_1242,training+cueing,2021.1.4,59.95103190344348,
Friend.png,Friend,Friend,c,2,12,22,92,,,,,0,0,0,0,,,,,6,4,76,10,,,,,,,,,,,,,,,,,,,,,1.412,1.468,417.0164553001523,None,,,,,,,,,,,,,,,,,,,,417.57691300008446,418.07813190016896,0.501858719624579,1.0021468200720847,418.0614366000518,418.1782327000983,418.0614366000518,418.1782327000983,418.16146859992296,None,c,1,0.6959532001055777,418.16146859992296,None,,,,,,40,P24,2022_May_11_1242,training+cueing,2021.1.4,59.95103190344348,
Stranger.png,You,Stranger,m,1.3,15,25,95,,,,,0,0,0,0,,,,,6,5,77,6,,,,,,,,,,,,,,,,,,,,,1.502,1.992,418.9850755999796,None,,,,,,,,,,,,,,,,,,,,419.53958179987967,420.0462595000863,0.513922119513154,1.0142137198708951,420.0295253000222,420.12954899994656,420.0295253000222,420.12954899994656,420.12954899994656,None,m,1,0.7437677998095751,420.12954899994656,None,,,,,,40,P24,2022_May_11_1242,training+cueing,2021.1.4,59.95103190344348,
Friend.png,Friend,Friend,c,2,12,22,92,,,,,0,0,0,0,,,,,6,6,78,4,,,,,,,,,,,,,,,,,,,,,1.478,2.308,421.00277170026675,None,,,,,,,,,,,,,,,,,,,,421.5440592998639,422.0476410998963,0.5054336898028851,1.0057335901074111,422.03095749998465,422.1477059000172,422.03095749998465,422.1477059000172,422.1309906002134,None,c,1,0.6623821002431214,422.1309906002134,None,,,,,,40,P24,2022_May_11_1242,training+cueing,2021.1.4,59.95103190344348,
Self.png,You,Self ,c,1,11,21,91,,,,,0,0,0,0,,,,,6,7,79,0,,,,,,,,,,,,,,,,,,,,,1.491,1.428,422.9212338998914,None,,,,,,,,,,,,,,,,,,,,423.46247929986566,423.9657165003009,0.5064881895668805,1.0069832894951105,423.9490447002463,424.04905979987234,423.9490447002463,424.04905979987234,424.04905979987234,None,c,1,1.272413400001824,424.04905979987234,None,,,,,,40,P24,2022_May_11_1242,training+cueing,2021.1.4,59.95103190344348,
Stranger.png,Stranger,Stranger,c,3,13,23,93,,,,,0,0,0,0,,,,,6,8,80,8,,,,,,,,,,,,,,,,,,,,,1.713,1.212,425.4575477000326,None,,,,,,,,,,,,,,,,,,,,425.99963920004666,426.50089670019224,0.5011885901913047,1.0014183903113008,426.4842370999977,426.6009224001318,426.4842370999977,426.6009224001318,426.6009224001318,None,c,1,0.7844437998719513,426.6009224001318,None,,,,,,40,P24,2022_May_11_1242,training+cueing,2021.1.4,59.95103190344348,
Friend.png,You,Friend,m,1.2,14,24,94,,,,,0,0,0,0,,,,,6,9,81,3,,,,,,,,,,,,,,,,,,,,,1.786,2.063,427.50816649990156,None,,,,,,,,,,,,,,,,,,,,428.0491341999732,428.5523422001861,0.5063376897014678,1.0066468897275627,428.5356489000842,428.635916700121,428.5356489000842,428.635916700121,428.635916700121,None,m,1,0.7654177998192608,428.635916700121,None,,,,,,40,P24,2022_May_11_1242,training+cueing,2021.1.4,59.95103190344348,
Friend.png,Stranger,Friend,m,3.2,19,29,99,,,,,0,0,0,0,,,,,6,10,82,5,,,,,,,,,,,,,,,,,,,,,1.724,2.179,429.525837500114,None,,,,,,,,,,,,,,,,,,,,430.06893600011244,430.57046419987455,0.5042084897868335,1.0044718896970153,430.553836400155,430.6705344999209,430.553836400155,430.6705344999209,430.65381680009887,None,None,0,,430.65381680009887,None,,,,,,40,P24,2022_May_11_1242,training+cueing,2021.1.4,59.95103190344348,
Self.png,Stranger,Self ,m,3.1,18,28,98,,,,,0,0,0,0,,,,,6,11,83,2,,,,,,,,,,,,,,,,,,,,,1.539,2.277,432.4935844000429,None,,,,,,,,,,,,,,,,,,,,433.0327797001228,433.53934010025114,0.5100852898322046,1.0103895897045732,433.5225885999389,433.6393357999623,433.5225885999389,433.6393357999623,433.62265200028196,None,None,0,,433.62265200028196,None,,,,,,40,P24,2022_May_11_1242,training+cueing,2021.1.4,59.95103190344348,
Self.png,You,Self ,c,1,11,21,91,,,,,0,0,0,0,,,,,7,0,84,9,,,,,,,,,,,,,,,,,,,,,1.736,1.22,435.28104200027883,None,,,,,,,,,,,,,,,,,,,,435.84385049995035,436.35801040008664,0.5112153198570013,1.0114956200122833,436.34131499985233,436.4414051999338,436.34131499985233,436.4414051999338,436.4414051999338,None,c,1,0.6879075998440385,436.4414051999338,None,,,,,,40,P24,2022_May_11_1242,training+cueing,2021.1.4,59.95103190344348,
Self.png,Friend,Self ,m,2.1,16,26,96,,,,,0,0,0,0,,,,,7,1,85,1,,,,,,,,,,,,,,,,,,,,,1.52,2.426,437.2643630001694,None,,,,,,,,,,,,,,,,,,,,437.8058441001922,438.3093894002959,0.5069164899177849,1.0072423899546266,438.29275589995086,438.4093972998671,438.29275589995086,438.4093972998671,438.39275259990245,None,m,1,1.2485519000329077,438.39275259990245,None,,,,,,40,P24,2022_May_11_1242,training+cueing,2021.1.4,59.95103190344348,
Stranger.png,You,Stranger,m,1.3,15,25,95,,,,,0,0,0,0,,,,,7,2,86,6,,,,,,,,,,,,,,,,,,,,,1.564,1.714,439.7665368001908,None,,,,,,,,,,,,,,,,,,,,440.3066537999548,440.8112433999777,0.5075593902729452,1.0078017902560532,440.7945802998729,440.8946301001124,440.7945802998729,440.8946301001124,440.8946301001124,None,m,1,0.7787333000451326,440.8946301001124,None,,,,,,40,P24,2022_May_11_1242,training+cueing,2021.1.4,59.95103190344348,
Self.png,Stranger,Self ,m,3.1,18,28,98,,,,,0,0,0,0,,,,,7,3,87,2,,,,,,,,,,,,,,,,,,,,,1.438,2.139,441.8010098002851,None,,,,,,,,,,,,,,,,,,,,442.34431610023603,442.8460165001452,0.5046271900646389,1.0049075898714364,442.82933760015294,442.94609710015357,442.82933760015294,442.94609710015357,442.9293701001443,None,m,1,0.8560449997894466,442.9293701001443,None,,,,,,40,P24,2022_May_11_1242,training+cueing,2021.1.4,59.95103190344348,
Stranger.png,Stranger,Stranger,c,3,13,23,93,,,,,0,0,0,0,,,,,7,4,88,8,,,,,,,,,,,,,,,,,,,,,1.476,1.929,443.9200671999715,None,,,,,,,,,,,,,,,,,,,,444.457500200253,444.9642731002532,0.5103352903388441,1.010642190463841,444.9475529999472,445.064280600287,444.9475529999472,445.064280600287,445.04755950020626,None,c,1,0.7537581999786198,445.04755950020626,None,,,,,,40,P24,2022_May_11_1242,training+cueing,2021.1.4,59.95103190344348,
Friend.png,Friend,Friend,c,2,12,22,92,,,,,0,0,0,0,,,,,7,5,89,4,,,,,,,,,,,,,,,,,,,,,1.72,1.363,445.9377890001051,None,,,,,,,,,,,,,,,,,,,,446.48712099995464,446.9990248000249,0.5067942901514471,1.007375089917332,446.9823302999139,447.0996230999008,446.9823302999139,447.0996230999008,447.0823865002021,None,c,1,0.5913122999481857,447.0823865002021,None,,,,,,40,P24,2022_May_11_1242,training+cueing,2021.1.4,59.95103190344348,
Friend.png,Stranger,Friend,m,3.2,19,29,99,,,,,0,0,0,0,,,,,7,6,90,5,,,,,,,,,,,,,,,,,,,,,1.53,2.499,447.80704420013353,None,,,,,,,,,,,,,,,,,,,,448.3504385999404,448.8503745002672,0.5006416896358132,1.000914789736271,448.8336783000268,448.9506121003069,448.8336783000268,448.9506121003069,448.9506121003069,None,m,1,1.0267895003780723,448.9506121003069,None,,,,,,40,P24,2022_May_11_1242,training+cueing,2021.1.4,59.95103190344348,
Stranger.png,Friend,Stranger,m,2.3,17,27,97,,,,,0,0,0,0,,,,,7,7,91,7,,,,,,,,,,,,,,,,,,,,,1.497,1.721,450.10839880025014,None,,,,,,,,,,,,,,,,,,,,450.64990750001743,451.15200260002166,0.5032320902682841,1.0035382900387049,451.13535750005394,451.25206590024754,451.13535750005394,451.25206590024754,451.23538829991594,None,None,0,,451.23538829991594,None,,,,,,40,P24,2022_May_11_1242,training+cueing,2021.1.4,59.95103190344348,
Stranger.png,Stranger,Stranger,c,3,13,23,93,,,,,0,0,0,0,,,,,7,8,92,11,,,,,,,,,,,,,,,,,,,,,1.471,2.226,452.8429449000396,None,,,,,,,,,,,,,,,,,,,,453.3841850999743,453.8873610999435,0.5050600897520781,1.0053644897416234,453.87064220011234,453.98735739989206,453.87064220011234,453.98735739989206,453.97067200019956,None,c,1,0.7426633001305163,453.97067200019956,None,,,,,,40,P24,2022_May_11_1242,training+cueing,2021.1.4,59.95103190344348,
Friend.png,You,Friend,m,1.2,14,24,94,,,,,0,0,0,0,,,,,7,9,93,3,,,,,,,,,,,,,,,,,,,,,1.477,2.472,454.84414179995656,None,,,,,,,,,,,,,,,,,,,,455.3840165999718,455.88877450022846,0.5091277901083231,1.009386490099132,455.872126000002,455.9721619002521,455.872126000002,455.9721619002521,455.9721619002521,None,m,1,1.397124100010842,455.9721619002521,None,,,,,,40,P24,2022_May_11_1242,training+cueing,2021.1.4,59.95103190344348,
Friend.png,Friend,Friend,c,2,12,22,92,,,,,0,0,0,0,,,,,7,10,94,10,,,,,,,,,,,,,,,,,,,,,1.742,2.332,457.49548640009016,None,,,,,,,,,,,,,,,,,,,,458.05004950007424,458.55740660009906,0.5136345196515322,1.0139204198494554,458.5407048002817,458.657413800247,458.5407048002817,458.657413800247,458.64073069998994,None,c,1,1.5766296000219882,458.64073069998994,None,,,,,,40,P24,2022_May_11_1242,training+cueing,2021.1.4,59.95103190344348,
Self.png,You,Self ,c,1,11,21,91,,,,,0,0,0,0,,,,,7,11,95,0,,,,,,,,,,,,,,,,,,,,,1.621,1.848,460.3475838000886,None,,,,,,,,,,,,,,,,,,,,460.88952449988574,461.39274309994653,0.5063569899648428,1.00666079018265,461.3760645999573,461.47613660013303,461.3760645999573,461.47613660013303,461.47613660013303,None,c,1,0.6131625999696553,461.47613660013303,None,,,,,,40,P24,2022_May_11_1242,training+cueing,2021.1.4,59.95103190344348,
Self.png,Stranger,Self ,m,3.1,18,28,98,,,,,0,0,0,0,,,,,8,0,96,2,,,,,,,,,,,,,,,,,,,,,1.536,2.184,462.2158448002301,None,,,,,,,,,,,,,,,,,,,,462.75785120017827,463.26079470012337,0.5043851900845766,1.0048005902208388,463.2441003001295,463.3609402002767,463.2441003001295,463.3609402002767,463.3442414002493,None,m,1,0.7771793999709189,463.3442414002493,None,,,,,,40,P24,2022_May_11_1242,training+cueing,2021.1.4,59.95103190344348,
Self.png,Friend,Self ,m,2.1,16,26,96,,,,,0,0,0,0,,,,,8,1,97,1,,,,,,,,,,,,,,,,,,,,,1.519,2.479,464.2511714999564,None,,,,,,,,,,,,,,,,,,,,464.79223409993574,465.29558070003986,0.5060998904518783,1.0064577907323837,465.2789107002318,465.39566620020196,465.2789107002318,465.39566620020196,465.3789349999279,None,m,1,1.2707347003743052,465.3789349999279,None,,,,,,40,P24,2022_May_11_1242,training+cueing,2021.1.4,59.95103190344348,
Friend.png,You,Friend,m,1.2,14,24,94,,,,,0,0,0,0,,,,,8,2,98,3,,,,,,,,,,,,,,,,,,,,,1.695,2.332,466.79012010013685,None,,,,,,,,,,,,,,,,,,,,467.32902840012684,467.8307094001211,0.5034959902986884,1.0038140900433064,467.81407870026305,467.91414069989696,467.81407870026305,467.91414069989696,467.91414069989696,None,m,1,0.7031527003273368,467.91414069989696,None,,,,,,40,P24,2022_May_11_1242,training+cueing,2021.1.4,59.95103190344348,
Self.png,You,Self ,c,1,11,21,91,,,,,0,0,0,0,,,,,8,3,99,9,,,,,,,,,,,,,,,,,,,,,1.674,1.929,468.7541570998728,None,,,,,,,,,,,,,,,,,,,,469.2923320000991,469.79885350028053,0.5101876901462674,1.01044489024207,469.7821773001924,469.8822328001261,469.7821773001924,469.8822328001261,469.8822328001261,None,c,1,0.6869618003256619,469.8822328001261,None,,,,,,40,P24,2022_May_11_1242,training+cueing,2021.1.4,59.95103190344348,
Friend.png,Stranger,Friend,m,3.2,19,29,99,,,,,0,0,0,0,,,,,8,4,100,5,,,,,,,,,,,,,,,,,,,,,1.559,2.321,470.705677700229,None,,,,,,,,,,,,,,,,,,,,471.2477172999643,471.7502039000392,0.5043420898728073,1.0047653899528086,471.7335802000016,471.85039740009233,471.7335802000016,471.85039740009233,471.83370089996606,None,m,1,0.7995596998371184,471.83370089996606,None,,,,,,40,P24,2022_May_11_1242,training+cueing,2021.1.4,59.95103190344348,
Stranger.png,You,Stranger,m,1.3,15,25,95,,,,,0,0,0,0,,,,,8,5,101,6,,,,,,,,,,,,,,,,,,,,,1.457,1.573,472.75713759986684,None,,,,,,,,,,,,,,,,,,,,473.2976681999862,473.80177550017834,0.5076928897760808,1.008709690067917,473.7850537998602,473.8850937001407,473.7850537998602,473.8850937001407,473.8850937001407,None,m,1,0.8602653001435101,473.8850937001407,None,,,,,,40,P24,2022_May_11_1242,training+cueing,2021.1.4,59.95103190344348,
Stranger.png,Stranger,Stranger,c,3,13,23,93,,,,,0,0,0,0,,,,,8,6,102,11,,,,,,,,,,,,,,,,,,,,,1.754,1.332,474.87620289996266,None,,,,,,,,,,,,,,,,,,,,475.433671799954,475.93684920016676,0.5038894200697541,1.0041213198564947,475.920107900165,476.03679470019415,475.920107900165,476.03679470019415,476.02016870025545,None,None,0,,476.02016870025545,None,,,,,,40,P24,2022_May_11_1242,training+cueing,2021.1.4,59.95103190344348,
Friend.png,Friend,Friend,c,2,12,22,92,,,,,0,0,0,0,,,,,8,7,103,10,,,,,,,,,,,,,,,,,,,,,1.76,2.115,477.8920387001708,None,,,,,,,,,,,,,,,,,,,,478.43549320008606,478.93878309987485,0.5051705897785723,1.006060989573598,478.9220795002766,479.0388438999653,478.9220795002766,479.0388438999653,479.02213309984654,None,c,1,0.74727030005306,479.02213309984654,None,,,,,,40,P24,2022_May_11_1242,training+cueing,2021.1.4,59.95103190344348,
Self.png,You,Self ,c,1,11,21,91,,,,,0,0,0,0,,,,,8,8,104,0,,,,,,,,,,,,,,,,,,,,,1.518,1.561,479.896373399999,None,,,,,,,,,,,,,,,,,,,,480.43851670017466,480.9403276001103,0.5025174906477332,1.0027859904803336,480.92365780007094,481.02368109999225,480.92365780007094,481.02368109999225,481.02368109999225,None,c,1,0.6178228999488056,481.02368109999225,None,,,,,,40,P24,2022_May_11_1242,training+cueing,2021.1.4,59.95103190344348,
Stranger.png,Friend,Stranger,m,2.3,17,27,97,,,,,0,0,0,0,,,,,8,9,105,7,,,,,,,,,,,,,,,,,,,,,1.638,1.643,481.763697499875,None,,,,,,,,,,,,,,,,,,,,482.3051843000576,482.80840100022033,0.5057934899814427,1.006073690019548,482.79170989990234,482.908629800193,482.79170989990234,482.908629800193,482.8918646001257,None,m,1,1.0054919999092817,482.8918646001257,None,,,,,,40,P24,2022_May_11_1242,training+cueing,2021.1.4,59.95103190344348,
Stranger.png,Stranger,Stranger,c,3,13,23,93,,,,,0,0,0,0,,,,,8,10,106,8,,,,,,,,,,,,,,,,,,,,,1.617,1.998,484.03299420000985,None,,,,,,,,,,,,,,,,,,,,484.59624580014497,485.1099376999773,0.5112266195937991,1.0164070199243724,485.0932110999711,485.2099756002426,485.0932110999711,485.2099756002426,485.1932596000843,None,c,1,0.7201565997675061,485.1932596000843,None,,,,,,40,P24,2022_May_11_1242,training+cueing,2021.1.4,59.95103190344348,
Friend.png,Friend,Friend,c,2,12,22,92,,,,,0,0,0,0,,,,,8,11,107,4,,,,,,,,,,,,,,,,,,,,,1.425,2.445,486.05421240022406,None,,,,,,,,,,,,,,,,,,,,486.5935202999972,487.0947003001347,0.5007781898602843,1.0016807899810374,487.0780158000998,487.19469950022176,487.0780158000998,487.19469950022176,487.19469950022176,None,c,1,0.6227645999751985,487.19469950022176,None,,,,,,40,P24,2022_May_11_1242,training+cueing,2021.1.4,59.95103190344348,
Stranger.png,You,Stranger,m,1.3,15,25,95,,,,,0,0,0,0,,,,,9,0,108,6,,,,,,,,,,,,,,,,,,,,,1.676,2.407,487.9554091999307,None,,,,,,,,,,,,,,,,,,,,488.4946476002224,488.9960138001479,0.5039079897105694,1.004244189709425,488.97933290014043,489.0794084998779,488.97933290014043,489.0794084998779,489.0794084998779,None,m,1,0.7698093997314572,489.0794084998779,None,,,,,,40,P24,2022_May_11_1242,training+cueing,2021.1.4,59.95103190344348,
Self.png,Friend,Self ,m,2.1,16,26,96,,,,,0,0,0,0,,,,,9,1,109,1,,,,,,,,,,,,,,,,,,,,,1.564,1.459,489.98647730005905,None,,,,,,,,,,,,,,,,,,,,490.52759870002046,491.03086180007085,0.5055660898797214,1.0065002897754312,491.0141650000587,491.1309004998766,491.0141650000587,491.1309004998766,491.11421609995887,None,m,1,0.7032348997890949,491.11421609995887,None,,,,,,40,P24,2022_May_11_1242,training+cueing,2021.1.4,59.95103190344348,
Stranger.png,Stranger,Stranger,c,3,13,23,93,,,,,0,0,0,0,,,,,9,2,110,8,,,,,,,,,,,,,,,,,,,,,1.699,1.786,491.95780669990927,None,,,,,,,,,,,,,,,,,,,,492.50385260023177,493.0155938998796,0.5052305902354419,1.0055175903253257,492.99891410022974,493.1156632001512,492.99891410022974,493.1156632001512,493.09894930012524,None,c,1,0.6382317999377847,493.09894930012524,None,,,,,,40,P24,2022_May_11_1242,training+cueing,2021.1.4,59.95103190344348,
Self.png,You,Self ,c,1,11,21,91,,,,,0,0,0,0,,,,,9,3,111,9,,,,,,,,,,,,,,,,,,,,,1.493,2.101,493.87254410004243,None,,,,,,,,,,,,,,,,,,,,494.4128514002077,494.9170015999116,0.5070139900781214,1.0072706900537014,494.9003353002481,495.00036810012534,494.9003353002481,495.00036810012534,495.00036810012534,None,c,1,0.7688791998662055,495.00036810012534,None,,,,,,40,P24,2022_May_11_1242,training+cueing,2021.1.4,59.95103190344348,
Self.png,Stranger,Self ,m,3.1,18,28,98,,,,,0,0,0,0,,,,,9,4,112,2,,,,,,,,,,,,,,,,,,,,,1.72,1.862,495.90718699991703,None,,,,,,,,,,,,,,,,,,,,496.4657864002511,496.9684839001857,0.5036819200031459,1.003934619948268,496.9518311000429,497.06854679994285,496.9518311000429,497.06854679994285,497.0518300002441,None,m,1,0.7334348000586033,497.0518300002441,None,,,,,,40,P24,2022_May_11_1242,training+cueing,2021.1.4,59.95103190344348,
Friend.png,Stranger,Friend,m,3.2,19,29,99,,,,,0,0,0,0,,,,,9,5,113,5,,,,,,,,,,,,,,,,,,,,,1.429,2.218,497.9083517999388,None,,,,,,,,,,,,,,,,,,,,498.4480408001691,498.96217230008915,0.5270712901838124,1.027240790426731,498.9533392000012,499.05327530018985,498.9533392000012,499.05327530018985,499.0366023001261,None,c,0,1.068566100206226,499.0366023001261,None,,,,,,40,P24,2022_May_11_1242,training+cueing,2021.1.4,59.95103190344348,
Friend.png,You,Friend,m,1.2,14,24,94,,,,,0,0,0,0,,,,,9,6,114,3,,,,,,,,,,,,,,,,,,,,,1.764,1.379,500.243643600028,None,,,,,,,,,,,,,,,,,,,,500.80140780005604,501.30493029998615,0.5078736199066043,1.0088183199986815,501.28823990002275,501.38829280016944,501.28823990002275,501.38829280016944,501.38829280016944,None,m,1,0.9410272999666631,501.38829280016944,None,,,,,,40,P24,2022_May_11_1242,training+cueing,2021.1.4,59.95103190344348,
Stranger.png,Friend,Stranger,m,2.3,17,27,97,,,,,0,0,0,0,,,,,9,7,115,7,,,,,,,,,,,,,,,,,,,,,1.538,1.561,502.4634325001389,None,,,,,,,,,,,,,,,,,,,,503.0048831999302,503.5066082002595,0.5017250902019441,1.002624090295285,503.48982060002163,503.60664020013064,503.48982060002163,503.60664020013064,503.60664020013064,None,m,1,0.6266441000625491,503.60664020013064,None,,,,,,40,P24,2022_May_11_1242,training+cueing,2021.1.4,59.95103190344348,
Friend.png,Friend,Friend,c,2,12,22,92,,,,,0,0,0,0,,,,,9,8,116,10,,,,,,,,,,,,,,,,,,,,,1.564,2.137,504.3647846998647,None,,,,,,,,,,,,,,,,,,,,504.9051681002602,505.4078728999011,0.5057626897469163,1.006140989717096,505.3912587002851,505.50794460019097,505.3912587002851,505.50794460019097,505.4912584000267,None,c,1,0.7739217998459935,505.4912584000267,None,,,,,,40,P24,2022_May_11_1242,training+cueing,2021.1.4,59.95103190344348,
Self.png,You,Self ,c,1,11,21,91,,,,,0,0,0,0,,,,,9,9,117,0,,,,,,,,,,,,,,,,,,,,,1.798,1.336,506.3989372998476,None,,,,,,,,,,,,,,,,,,,,506.9406103999354,507.4427227000706,0.5057987896725535,1.0062434896826744,507.4260269002989,507.5260779000819,507.4260269002989,507.5260779000819,507.5260779000819,None,c,1,0.6592222000472248,507.5260779000819,None,,,,,,40,P24,2022_May_11_1242,training+cueing,2021.1.4,59.95103190344348,
Stranger.png,Stranger,Stranger,c,3,13,23,93,,,,,0,0,0,0,,,,,9,10,118,11,,,,,,,,,,,,,,,,,,,,,1.479,1.482,508.31608729995787,None,,,,,,,,,,,,,,,,,,,,508.85864510014653,509.3608051002957,0.5038291900418699,1.0041458900086582,509.3440872998908,509.46084089996293,509.3440872998908,509.46084089996293,509.44407590013,None,c,1,0.6771575999446213,509.44407590013,None,,,,,,40,P24,2022_May_11_1242,training+cueing,2021.1.4,59.95103190344348,
Friend.png,Friend,Friend,c,2,12,22,92,,,,,0,0,0,0,,,,,9,11,119,4,,,,,,,,,,,,,,,,,,,,,1.696,2.437,510.251147700008,None,,,,,,,,,,,,,,,,,,,,510.79290729993954,511.2954942001961,0.5053829899989069,1.0056756897829473,511.2788335001096,511.39551720023155,511.2788335001096,511.39551720023155,511.37885700026527,None,c,1,0.9344483003951609,511.37885700026527,None,,,,,,40,P24,2022_May_11_1242,training+cueing,2021.1.4,59.95103190344348,
,,,,,,,,,,,,0,0,0,0,,,,,,,,,,,,,,,,,,,,,,,,,,,,,,,,,,,,,,,,,,,,,,,,,,,,,,,,,,,,,,,,,,,0.001008009072393179,None,,,,40,P24,2022_May_11_1242,training+cueing,2021.1.4,59.95103190344348,
Stranger.png,Stranger,Stranger,c,3,13,23,93,,,,,1,0,1,0,0,0,0,8,,,,,,,,,,,,,,,,,512.9473703000695,None,space,7.861630499828607,2.0135227302089334,None,522.8206508001313,None,1.458,2.061,525.8370365002193,None,526.3719514003024,526.8734341999516,526.8567536002956,526.9734964002855,526.8567536002956,526.9734964002855,526.9734964002855,None,c,1,526.9734964002855,None,528.241089399904,None,1.2436955999583006,,,,,,,,,,,,,,,,,,,,,,,,,40,P24,2022_May_11_1242,training+cueing,2021.1.4,59.95103190344348,
Self.png,You,Self ,c,1,11,21,91,,,,,1,0,1,0,0,1,1,0,,,,,,,,,,,,,,,,,,,,,,,,,1.649,1.891,528.6415430000052,None,529.1791763999499,529.6921279998496,529.6754582999274,529.7755378000438,529.6754582999274,529.7755378000438,529.7755378000438,None,c,1,529.7755378000438,None,530.342627200298,None,0.537672400008887,,,,,,,,,,,,,,,,,,,,,,,,,40,P24,2022_May_11_1242,training+cueing,2021.1.4,59.95103190344348,
Self.png,You,Self ,c,1,11,21,91,,,,,1,0,1,0,0,2,2,9,,,,,,,,,,,,,,,,,,,,,,,,,1.499,1.324,530.7428847001866,None,531.2738236999139,531.7769766999409,531.7603029999882,531.8603229001164,531.7603029999882,531.8603229001164,531.8603229001164,None,c,1,531.8603229001164,None,532.4941858001985,None,0.6128769000060856,,,,,,,,,,,,,,,,,,,,,,,,,40,P24,2022_May_11_1242,training+cueing,2021.1.4,59.95103190344348,
Friend.png,Friend,Friend,c,2,12,22,92,,,,,1,0,1,0,0,3,3,4,,,,,,,,,,,,,,,,,,,,,,,,,1.636,1.343,532.894580999855,None,533.4319870001636,533.9451983999461,533.9285293002613,534.0452497000806,533.9285293002613,534.0452497000806,534.0285596000031,None,c,1,534.0285596000031,None,534.62906940002,None,0.572904699947685,,,,,,,,,,,,,,,,,,,,,,,,,40,P24,2022_May_11_1242,training+cueing,2021.1.4,59.95103190344348,
Self.png,Stranger,Self ,m,3.1,18,28,98,,,,,1,0,1,0,0,4,4,2,,,,,,,,,,,,,,,,,,,,,,,,,1.579,2.308,535.0294698001817,None,535.5691423001699,536.0801355000585,536.0634347000159,536.1801511002705,536.0634347000159,536.1801511002705,536.1634344998747,None,m,1,536.1634344998747,None,536.8807117999531,None,0.6937122996896505,,,,,,,,,,,,,,,,,,,,,,,,,40,P24,2022_May_11_1242,training+cueing,2021.1.4,59.95103190344348,
Friend.png,Stranger,Friend,m,3.2,19,29,99,,,,,1,0,1,0,0,5,5,5,,,,,,,,,,,,,,,,,,,,,,,,,1.617,1.69,537.2809530999511,None,537.813512600027,538.3150828001089,538.2983484002762,538.4151086001657,538.2983484002762,538.4151086001657,538.3983848001808,None,m,1,538.3983848001808,None,538.998862599954,None,0.5708274999633431,,,,,,,,,,,,,,,,,,,,,,,,,40,P24,2022_May_11_1242,training+cueing,2021.1.4,59.95103190344348,
Stranger.png,Friend,Stranger,m,2.3,17,27,97,,,,,1,0,1,0,0,6,6,7,,,,,,,,,,,,,,,,,,,,,,,,,1.649,2.316,539.3997134999372,None,539.9453472001478,540.4499026001431,540.433275599964,540.549948700238,540.433275599964,540.549948700238,540.5332884001546,None,m,1,540.5332884001546,None,541.2681479002349,None,0.7081297002732754,,,,,,,,,,,,,,,,,,,,,,,,,40,P24,2022_May_11_1242,training+cueing,2021.1.4,59.95103190344348,
Stranger.png,Stranger,Stranger,c,3,13,23,93,,,,,1,0,1,0,0,7,7,11,,,,,,,,,,,,,,,,,,,,,,,,,1.559,2.084,541.6680290000513,None,542.2087531001307,542.718200400006,542.701560200192,542.818231199868,542.701560200192,542.818231199868,542.801589500159,None,c,1,542.801589500159,None,543.521334100049,None,0.6958678998053074,,,,,,,,,,,,,,,,,,,,,,,,,40,P24,2022_May_11_1242,training+cueing,2021.1.4,59.95103190344348,
Friend.png,You,Friend,m,1.2,14,24,94,,,,,1,0,1,0,0,8,8,3,,,,,,,,,,,,,,,,,,,,,,,,,1.728,2.161,543.9358616000973,None,544.4694135999307,544.9699027002789,544.9699027002789,545.0698802000843,544.9699027002789,545.0698802000843,545.0698802000843,None,m,1,545.0698802000843,None,545.970637100283,None,0.8752962998114526,,,,,,,,,,,,,,,,,,,,,,,,,40,P24,2022_May_11_1242,training+cueing,2021.1.4,59.95103190344348,
Self.png,Friend,Self ,m,2.1,16,26,96,,,,,1,0,1,0,0,9,9,1,,,,,,,,,,,,,,,,,,,,,,,,,1.5,1.364,546.3710330002941,None,546.9098657001741,547.4216415998526,547.4049483002163,547.5216633998789,547.4049483002163,547.5216633998789,547.5049697998911,None,m,1,547.5049697998911,None,548.2889169999398,None,0.7602609000168741,,,,,,,,,,,,,,,,,,,,,,,,,40,P24,2022_May_11_1242,training+cueing,2021.1.4,59.95103190344348,
Friend.png,Friend,Friend,c,2,12,22,92,,,,,1,0,1,0,0,10,10,10,,,,,,,,,,,,,,,,,,,,,,,,,1.683,2.452,548.6892129001208,None,549.2346414001659,549.7400104999542,549.7233233000152,549.8399928999133,549.7233233000152,549.8399928999133,549.8232964999042,None,c,1,549.8232964999042,None,550.5405895998701,None,0.6977829001843929,,,,,,,,,,,,,,,,,,,,,,,,,40,P24,2022_May_11_1242,training+cueing,2021.1.4,59.95103190344348,
Stranger.png,You,Stranger,m,1.3,15,25,95,,,,,1,0,1,0,0,11,11,6,,,,,,,,,,,,,,,,,,,,,,,,,1.404,1.718,550.941504099872,None,551.4863323001191,551.9917092001997,551.9750287001953,552.0750723001547,551.9750287001953,552.0750723001547,552.0750723001547,None,None,0,552.0750723001547,None,553.4915868998505,None,,,,,,,,,,,,,,,,,,,,,,,,,,40,P24,2022_May_11_1242,training+cueing,2021.1.4,59.95103190344348,
Friend.png,Stranger,Friend,m,3.2,19,29,99,,,,,1,0,1,0,,,,,0,0,0,5,,,,,,,,,,,,,,,,,,,556.8952569998801,None,1.584,1.759,560.4088808000088,None,,,,,,,,,,,,,,,,553.892984600272,None,0.014228430110961199,None,560.9319645999931,561.4318838999607,0.5006294897757471,1.000739089678973,561.4152404000051,561.5319826998748,561.4152404000051,561.5319826998748,561.5319826998748,None,m,1,0.7012625001370907,561.5319826998748,None,,,,,,40,P24,2022_May_11_1242,training+cueing,2021.1.4,59.95103190344348,
Stranger.png,Friend,Stranger,m,2.3,17,27,97,,,,,1,0,1,0,,,,,0,1,1,7,,,,,,,,,,,,,,,,,,,,,1.657,1.204,562.357660499867,None,,,,,,,,,,,,,,,,,,,,562.8966397000477,563.4000848000869,0.5056361900642514,1.0057646897621453,563.3832954000682,563.499934699852,563.3832954000682,563.499934699852,563.4834099002182,None,m,1,0.6060490002855659,563.4834099002182,None,,,,,,40,P24,2022_May_11_1242,training+cueing,2021.1.4,59.95103190344348,
Stranger.png,Stranger,Stranger,c,3,13,23,93,,,,,1,0,1,0,,,,,0,2,2,11,,,,,,,,,,,,,,,,,,,,,1.719,1.601,564.223544599954,None,,,,,,,,,,,,,,,,,,,,564.765322000254,565.2678296999075,0.5031076902523637,1.0035628899931908,565.2511811000295,565.3685111002997,565.2511811000295,565.3685111002997,565.3512424998917,None,c,1,0.6099717002362013,565.3512424998917,None,,,,,,40,P24,2022_May_11_1242,training+cueing,2021.1.4,59.95103190344348,
Self.png,Friend,Self ,m,2.1,16,26,96,,,,,1,0,1,0,,,,,0,3,3,1,,,,,,,,,,,,,,,,,,,,,1.4,2.068,566.0925580998883,None,,,,,,,,,,,,,,,,,,,,566.6360189998522,567.1358896000311,0.5006210897117853,1.0009096898138523,567.1192013998516,567.2359413001686,567.1192013998516,567.2359413001686,567.2359413001686,None,m,1,0.693189499899745,567.2359413001686,None,,,,,,40,P24,2022_May_11_1242,training+cueing,2021.1.4,59.95103190344348,
Friend.png,Friend,Friend,c,2,12,22,92,,,,,1,0,1,0,,,,,0,4,4,4,,,,,,,,,,,,,,,,,,,,,1.768,2.354,568.0588342999108,None,,,,,,,,,,,,,,,,,,,,568.5982709000818,569.1039553000592,0.5085813901387155,1.0088228899985552,569.0873195002787,569.2040015002713,569.0873195002787,569.2040015002713,569.1873363000341,None,c,1,0.821783300023526,569.1873363000341,None,,,,,,40,P24,2022_May_11_1242,training+cueing,2021.1.4,59.95103190344348,
Self.png,Stranger,Self ,m,3.1,18,28,98,,,,,1,0,1,0,,,,,0,5,5,2,,,,,,,,,,,,,,,,,,,,,1.79,1.987,570.1443107002415,None,,,,,,,,,,,,,,,,,,,,570.6863577999175,571.188813299872,0.5061323898844421,1.006411090027541,571.1721355998889,571.2888392000459,571.1721355998889,571.2888392000459,571.272151300218,None,m,1,0.624995700083673,571.272151300218,None,,,,,,40,P24,2022_May_11_1242,training+cueing,2021.1.4,59.95103190344348,
Friend.png,Friend,Friend,c,2,12,22,92,,,,,1,0,1,0,,,,,0,6,6,10,,,,,,,,,,,,,,,,,,,,,1.516,2.09,572.0285235000774,None,,,,,,,,,,,,,,,,,,,,572.5719653000124,573.07351440005,0.5041414899751544,1.0044013899751008,573.0568335000426,573.1735749999061,573.0568335000426,573.1735749999061,573.1568674002774,None,c,1,0.6282689003273845,573.1568674002774,None,,,,,,40,P24,2022_May_11_1242,training+cueing,2021.1.4,59.95103190344348,
Self.png,You,Self ,c,1,11,21,91,,,,,1,0,1,0,,,,,0,7,7,0,,,,,,,,,,,,,,,,,,,,,1.549,1.62,573.9131781999022,None,,,,,,,,,,,,,,,,,,,,574.4668638003059,574.9748777002096,0.49974191980436444,1.0000328198075294,574.9415517002344,575.0415910999291,574.9415517002344,575.0415910999291,575.0415910999291,None,c,1,0.6155420998111367,575.0415910999291,None,,,,,,40,P24,2022_May_11_1242,training+cueing,2021.1.4,59.95103190344348,
Friend.png,You,Friend,m,1.2,14,24,94,,,,,1,0,1,0,,,,,0,8,8,3,,,,,,,,,,,,,,,,,,,,,1.517,2.494,575.7821651999839,None,,,,,,,,,,,,,,,,,,,,576.3382676001638,576.8428895999677,0.5102190193720162,1.0105234193615615,576.8262010002509,576.9262736998498,576.8262010002509,576.9262736998498,576.9262736998498,None,m,1,0.8268750999122858,576.9262736998498,None,,,,,,40,P24,2022_May_11_1242,training+cueing,2021.1.4,59.95103190344348,
Self.png,You,Self ,c,1,11,21,91,,,,,1,0,1,0,,,,,0,9,9,9,,,,,,,,,,,,,,,,,,,,,1.403,1.368,577.883545699995,None,,,,,,,,,,,,,,,,,,,,578.4205956002697,578.927735700272,0.5138227907009423,1.0141477906145155,578.911081600003,579.0111099998467,578.911081600003,579.0111099998467,579.0111099998467,None,c,1,0.6780918003059924,579.0111099998467,None,,,,,,40,P24,2022_May_11_1242,training+cueing,2021.1.4,59.95103190344348,
Stranger.png,Stranger,Stranger,c,3,13,23,93,,,,,1,0,1,0,,,,,0,10,10,8,,,,,,,,,,,,,,,,,,,,,1.621,1.68,579.8184926002286,None,,,,,,,,,,,,,,,,,,,,580.3605788000859,580.8624852001667,0.5021513900719583,1.002388590015471,580.8458259999752,580.9625253002159,580.8458259999752,580.9625253002159,580.9458250002936,None,c,1,0.7434795000590384,580.9458250002936,None,,,,,,40,P24,2022_May_11_1242,training+cueing,2021.1.4,59.95103190344348,
Stranger.png,You,Stranger,m,1.3,15,25,95,,,,,1,0,1,0,,,,,0,11,11,6,,,,,,,,,,,,,,,,,,,,,1.556,2.117,581.8227935000323,None,,,,,,,,,,,,,,,,,,,,582.3621737002395,582.8639132999815,0.5034707901068032,1.0043407902121544,582.8472748999484,582.9472786001861,582.8472748999484,582.9472786001861,582.9472786001861,None,m,1,0.6299092001281679,582.9472786001861,None,,,,,,40,P24,2022_May_11_1242,training+cueing,2021.1.4,59.95103190344348,
Stranger.png,Stranger,Stranger,c,3,13,23,93,,,,,1,0,1,0,,,,,1,0,12,8,,,,,,,,,,,,,,,,,,,,,1.418,2.23,583.7049457998946,None,,,,,,,,,,,,,,,,,,,,584.2468898999505,584.7486318000592,0.502749890089035,1.0030566900968552,584.7319209999405,584.8486581998877,584.7319209999405,584.8486581998877,584.8319494999014,None,c,1,0.7291581998579204,584.8319494999014,None,,,,,,40,P24,2022_May_11_1242,training+cueing,2021.1.4,59.95103190344348,
Friend.png,You,Friend,m,1.2,14,24,94,,,,,1,0,1,0,,,,,1,1,13,3,,,,,,,,,,,,,,,,,,,,,1.666,1.245,585.6889559002593,None,,,,,,,,,,,,,,,,,,,,586.2291441000998,586.7333680000156,0.5072787902317941,1.0075754905119538,586.7167209000327,586.8167743999511,586.7167209000327,586.8167743999511,586.8167743999511,None,m,1,1.0322908000089228,586.8167743999511,None,,,,,,40,P24,2022_May_11_1242,training+cueing,2021.1.4,59.95103190344348,
Friend.png,Stranger,Friend,m,3.2,19,29,99,,,,,1,0,1,0,,,,,1,2,14,5,,,,,,,,,,,,,,,,,,,,,1.617,1.941,587.9732528999448,None,,,,,,,,,,,,,,,,,,,,588.5338102001697,589.0350327999331,0.5029169199988246,1.0030492199584842,589.0185210001655,589.1351367002353,589.0185210001655,589.1351367002353,589.1186571000144,None,m,1,0.8585108001716435,589.1186571000144,None,,,,,,40,P24,2022_May_11_1242,training+cueing,2021.1.4,59.95103190344348,
Stranger.png,Stranger,Stranger,c,3,13,23,93,,,,,1,0,1,0,,,,,1,3,15,11,,,,,,,,,,,,,,,,,,,,,1.778,1.708,590.1086567002349,None,,,,,,,,,,,,,,,,,,,,590.6480517000891,591.1532938000746,0.5088148899376392,1.0090465899556875,591.1365907001309,591.2533133001998,591.1365907001309,591.2533133001998,591.2366074002348,None,c,1,0.7085188999772072,591.2366074002348,None,,,,,,40,P24,2022_May_11_1242,training+cueing,2021.1.4,59.95103190344348,
Stranger.png,Friend,Stranger,m,2.3,17,27,97,,,,,1,0,1,0,,,,,1,4,16,7,,,,,,,,,,,,,,,,,,,,,1.564,2.258,592.0763576999307,None,,,,,,,,,,,,,,,,,,,,592.6194943999872,593.121341300197,0.5042427903972566,1.007076590321958,593.104684300255,593.221391600091,593.104684300255,593.221391600091,593.2046710001305,None,m,1,0.820425400044769,593.2046710001305,None,,,,,,40,P24,2022_May_11_1242,training+cueing,2021.1.4,59.95103190344348,
Self.png,Friend,Self ,m,2.1,16,26,96,,,,,1,0,1,0,,,,,1,5,17,1,,,,,,,,,,,,,,,,,,,,,1.499,1.73,594.1614975002594,None,,,,,,,,,,,,,,,,,,,,594.7011112002656,595.2067102002911,0.5088863898999989,1.0097133899107575,595.1890452001244,595.3062821999192,595.1890452001244,595.3062821999192,595.2896052002907,None,m,1,0.8314469996839762,595.2896052002907,None,,,,,,40,P24,2022_May_11_1242,training+cueing,2021.1.4,59.95103190344348,
Self.png,Stranger,Self ,m,3.1,18,28,98,,,,,1,0,1,0,,,,,1,6,18,2,,,,,,,,,,,,,,,,,,,,,1.627,1.846,596.2462174003012,None,,,,,,,,,,,,,,,,,,,,596.7881440999918,597.2910412000492,0.5037443898618221,1.003885889891535,597.2744463002309,597.3910785000771,597.2744463002309,597.3910785000771,597.37438020017,None,m,1,0.7306806999258697,597.37438020017,None,,,,,,40,P24,2022_May_11_1242,training+cueing,2021.1.4,59.95103190344348,
Stranger.png,You,Stranger,m,1.3,15,25,95,,,,,1,0,1,0,,,,,1,7,19,6,,,,,,,,,,,,,,,,,,,,,1.444,1.854,598.2308984999545,None,,,,,,,,,,,,,,,,,,,,598.7722753002308,599.2757966001518,0.5075555900111794,1.0078474897891283,599.2591079999693,599.3591494001448,599.2591079999693,599.3591494001448,599.3591494001448,None,m,1,0.7939440002664924,599.3591494001448,None,,,,,,40,P24,2022_May_11_1242,training+cueing,2021.1.4,59.95103190344348,
Friend.png,Friend,Friend,c,2,12,22,92,,,,,1,0,1,0,,,,,1,8,20,10,,,,,,,,,,,,,,,,,,,,,1.474,2.295,600.2830540002324,None,,,,,,,,,,,,,,,,,,,,600.8363717002794,601.3439648998901,0.5120167192071676,1.0123114194720984,601.3272784003057,601.4440152002499,601.3272784003057,601.4440152002499,601.4272924000397,None,c,1,0.6618137001059949,601.4272924000397,None,,,,,,40,P24,2022_May_11_1242,training+cueing,2021.1.4,59.95103190344348,
Friend.png,Friend,Friend,c,2,12,22,92,,,,,1,0,1,0,,,,,1,9,21,4,,,,,,,,,,,,,,,,,,,,,1.672,1.335,602.2173347002827,None,,,,,,,,,,,,,,,,,,,,602.7568632001057,603.261987300124,0.5100324898958206,1.0103186899796128,603.2453427002765,603.362054800149,603.2453427002765,603.362054800149,603.3453735001385,None,c,1,1.015730599872768,603.3453735001385,None,,,,,,40,P24,2022_May_11_1242,training+cueing,2021.1.4,59.95103190344348,
Self.png,You,Self ,c,1,11,21,91,,,,,1,0,1,0,,,,,1,10,22,0,,,,,,,,,,,,,,,,,,,,,1.582,1.428,604.4853822002187,None,,,,,,,,,,,,,,,,,,,,605.0259035001509,605.530364499893,0.509572490118444,1.0103073897771537,605.513761300128,605.6136306999251,605.513761300128,605.6136306999251,605.6136306999251,None,c,1,0.6037264997139573,605.6136306999251,None,,,,,,40,P24,2022_May_11_1242,training+cueing,2021.1.4,59.95103190344348,
Self.png,You,Self ,c,1,11,21,91,,,,,1,0,1,0,,,,,1,11,23,9,,,,,,,,,,,,,,,,,,,,,1.666,2.179,606.3580610998906,None,,,,,,,,,,,,,,,,,,,,606.9018631000072,607.4150298000313,0.5084180901758373,1.00872369017452,607.3983069001697,607.4983807001263,607.3983069001697,607.4983807001263,607.4983807001263,None,c,1,0.44670299999415874,607.4983807001263,None,,,,,,40,P24,2022_May_11_1242,training+cueing,2021.1.4,59.95103190344348,
Stranger.png,You,Stranger,m,1.3,15,25,95,,,,,1,0,1,0,,,,,2,0,24,6,,,,,,,,,,,,,,,,,,,,,1.525,1.466,608.071707600262,None,,,,,,,,,,,,,,,,,,,,608.6109906998463,609.1162899001502,0.5100021897815168,1.0110709900036454,609.0995692000724,609.1996079999954,609.0995692000724,609.1996079999954,609.1996079999954,None,m,1,0.6175652998499572,609.1996079999954,None,,,,,,40,P24,2022_May_11_1242,training+cueing,2021.1.4,59.95103190344348,
Friend.png,Friend,Friend,c,2,12,22,92,,,,,1,0,1,0,,,,,2,1,25,10,,,,,,,,,,,,,,,,,,,,,1.659,1.98,609.9433510000817,None,,,,,,,,,,,,,,,,,,,,610.496738600079,611.0013472000137,0.5091982195153832,1.0094797196798027,610.9846127000637,611.1013167998753,610.9846127000637,611.1013167998753,611.0845715999603,None,c,1,0.5725591001100838,611.0845715999603,None,,,,,,40,P24,2022_May_11_1242,training+cueing,2021.1.4,59.95103190344348,
Stranger.png,Friend,Stranger,m,2.3,17,27,97,,,,,1,0,1,0,,,,,2,2,26,7,,,,,,,,,,,,,,,,,,,,,1.582,1.532,611.7922580000013,None,,,,,,,,,,,,,,,,,,,,612.32993909996,612.8355745002627,0.5087264901958406,1.0092482902109623,612.8189178998582,612.9356535002589,612.8189178998582,612.9356535002589,612.9189494000748,None,m,1,0.6102590002119541,612.9189494000748,None,,,,,,40,P24,2022_May_11_1242,training+cueing,2021.1.4,59.95103190344348,
Stranger.png,Stranger,Stranger,c,3,13,23,93,,,,,1,0,1,0,,,,,2,3,27,11,,,,,,,,,,,,,,,,,,,,,1.765,1.316,613.6602334002964,None,,,,,,,,,,,,,,,,,,,,614.2024143002927,614.7036406002007,0.502024189569056,1.0024119899608195,614.6869255001657,614.8037144001573,614.6869255001657,614.8037144001573,614.7869644002058,None,c,1,0.6622025999240577,614.7869644002058,None,,,,,,40,P24,2022_May_11_1242,training+cueing,2021.1.4,59.95103190344348,
Self.png,Stranger,Self ,m,3.1,18,28,98,,,,,1,0,1,0,,,,,2,4,28,2,,,,,,,,,,,,,,,,,,,,,1.738,1.692,615.5769533999264,None,,,,,,,,,,,,,,,,,,,,616.1155632999726,616.6216680002399,0.5101382900029421,1.0103928898461163,616.6050126999617,616.7217227001674,616.6050126999617,616.7217227001674,616.7050274000503,None,m,1,0.7441632002592087,616.7050274000503,None,,,,,,40,P24,2022_May_11_1242,training+cueing,2021.1.4,59.95103190344348,
Friend.png,Stranger,Friend,m,3.2,19,29,99,,,,,1,0,1,0,,,,,2,5,29,5,,,,,,,,,,,,,,,,,,,,,1.655,1.27,617.5799807002768,None,,,,,,,,,,,,,,,,,,,,618.1189382001758,618.6230909000151,0.5073845898732543,1.008281989954412,618.6064561000094,618.7237328998744,618.6064561000094,618.7237328998744,618.7070030998439,None,m,1,0.6141551001928747,618.7070030998439,None,,,,,,40,P24,2022_May_11_1242,training+cueing,2021.1.4,59.95103190344348,
Self.png,You,Self ,c,1,11,21,91,,,,,1,0,1,0,,,,,2,6,30,9,,,,,,,,,,,,,,,,,,,,,1.436,1.928,619.4488574001007,None,,,,,,,,,,,,,,,,,,,,620.0002097999677,620.5079206000082,0.4995717201381922,0.999833419919014,620.4745705001988,620.5745446998626,620.4745705001988,620.5745446998626,620.5745446998626,None,c,1,0.6025800001807511,620.5745446998626,None,,,,,,40,P24,2022_May_11_1242,training+cueing,2021.1.4,59.95103190344348,
Stranger.png,Stranger,Stranger,c,3,13,23,93,,,,,1,0,1,0,,,,,2,7,31,8,,,,,,,,,,,,,,,,,,,,,1.512,1.233,621.3147364999168,None,,,,,,,,,,,,,,,,,,,,621.8556468999013,622.3591391001828,0.5042304904200137,1.004490990191698,622.3424837999046,622.4591855001636,622.3424837999046,622.4591855001636,622.4425107999705,None,c,1,0.8465864001773298,622.4425107999705,None,,,,,,40,P24,2022_May_11_1242,training+cueing,2021.1.4,59.95103190344348,
Friend.png,Friend,Friend,c,2,12,22,92,,,,,1,0,1,0,,,,,2,8,32,4,,,,,,,,,,,,,,,,,,,,,1.554,1.746,623.4162391000427,None,,,,,,,,,,,,,,,,,,,,623.9584872000851,624.4607140002772,0.5048034903593361,1.0049128900282085,624.4441754003055,624.5607503000647,624.4441754003055,624.5607503000647,624.5440278998576,None,c,1,0.457069699652493,624.5440278998576,None,,,,,,40,P24,2022_May_11_1242,training+cueing,2021.1.4,59.95103190344348,
Friend.png,You,Friend,m,1.2,14,24,94,,,,,1,0,1,0,,,,,2,9,33,3,,,,,,,,,,,,,,,,,,,,,1.652,1.411,625.133999899961,None,,,,,,,,,,,,,,,,,,,,625.6737112998962,626.1785642001778,0.5092617901973426,1.009561590384692,626.1619064002298,626.2619553999975,626.1619064002298,626.2619553999975,626.2619553999975,None,m,1,0.5951371002011001,626.2619553999975,None,,,,,,40,P24,2022_May_11_1242,training+cueing,2021.1.4,59.95103190344348,
Self.png,Friend,Self ,m,2.1,16,26,96,,,,,1,0,1,0,,,,,2,10,34,1,,,,,,,,,,,,,,,,,,,,,1.511,2.448,626.9849483002909,None,,,,,,,,,,,,,,,,,,,,627.5259596002288,628.0299169002101,0.5049571902491152,1.0058526899665594,628.0132732000202,628.1305959001184,628.0132732000202,628.1305959001184,628.113273399882,None,m,1,0.5841097002848983,628.113273399882,None,,,,,,40,P24,2022_May_11_1242,training+cueing,2021.1.4,59.95103190344348,
Self.png,You,Self ,c,1,11,21,91,,,,,1,0,1,0,,,,,2,11,35,0,,,,,,,,,,,,,,,,,,,,,1.55,2.04,628.8235757001676,None,,,,,,,,,,,,,,,,,,,,629.3629274000414,629.8645667000674,0.5030556903220713,1.0034078899770975,629.8478883001953,629.9479416999966,629.8478883001953,629.9479416999966,629.9479416999966,None,c,1,0.8291556001640856,629.9479416999966,None,,,,,,40,P24,2022_May_11_1242,training+cueing,2021.1.4,59.95103190344348,
Self.png,You,Self ,c,1,11,21,91,,,,,1,0,1,0,,,,,3,0,36,0,,,,,,,,,,,,,,,,,,,,,1.438,2.451,630.90502559999,None,,,,,,,,,,,,,,,,,,,,631.4433011002839,631.9494133000262,0.5095599903725088,1.0098999901674688,631.9327314002439,632.0328321000561,631.9327314002439,632.0328321000561,632.0328321000561,None,c,1,0.5684279999695718,632.0328321000561,None,,,,,,40,P24,2022_May_11_1242,training+cueing,2021.1.4,59.95103190344348,
Stranger.png,Friend,Stranger,m,2.3,17,27,97,,,,,1,0,1,0,,,,,3,1,37,7,,,,,,,,,,,,,,,,,,,,,1.754,2.243,632.7240809998475,None,,,,,,,,,,,,,,,,,,,,633.2755606002174,633.7840428999625,0.499853219371289,1.0002217194996774,633.7507393001579,633.8513897000812,633.7507393001579,633.8513897000812,633.8513897000812,None,m,1,0.8778706002049148,633.8513897000812,None,,,,,,40,P24,2022_May_11_1242,training+cueing,2021.1.4,59.95103190344348,
Friend.png,You,Friend,m,1.2,14,24,94,,,,,1,0,1,0,,,,,3,2,38,3,,,,,,,,,,,,,,,,,,,,,1.439,1.555,634.8609587000683,None,,,,,,,,,,,,,,,,,,,,635.3998858002014,635.9022678001784,0.5041975900530815,1.0044604898430407,635.8856239002198,635.9856516001746,635.8856239002198,635.9856516001746,635.9856516001746,None,m,1,0.9035543999634683,635.9856516001746,None,,,,,,40,P24,2022_May_11_1242,training+cueing,2021.1.4,59.95103190344348,
Self.png,Friend,Self ,m,2.1,16,26,96,,,,,1,0,1,0,,,,,3,3,39,1,,,,,,,,,,,,,,,,,,,,,1.526,1.241,637.0269185998477,None,,,,,,,,,,,,,,,,,,,,637.5675098998472,638.0705050001852,0.5045364899560809,1.004825989715755,638.0538232000545,638.1705641001463,638.0538232000545,638.1705641001463,638.1538666998968,None,m,1,0.8151401998475194,638.1538666998968,None,,,,,,40,P24,2022_May_11_1242,training+cueing,2021.1.4,59.95103190344348,
Self.png,Stranger,Self ,m,3.1,18,28,98,,,,,1,0,1,0,,,,,3,4,40,2,,,,,,,,,,,,,,,,,,,,,1.458,2.339,639.0945780999027,None,,,,,,,,,,,,,,,,,,,,639.6416293000802,640.1553845000453,0.5115093900822103,1.011578290257603,640.138876200188,640.2554438998923,640.138876200188,640.2554438998923,640.2386881001294,None,m,1,0.6663738996721804,640.2386881001294,None,,,,,,40,P24,2022_May_11_1242,training+cueing,2021.1.4,59.95103190344348,
Friend.png,Friend,Friend,c,2,12,22,92,,,,,1,0,1,0,,,,,3,5,41,4,,,,,,,,,,,,,,,,,,,,,1.479,1.629,641.028221399989,None,,,,,,,,,,,,,,,,,,,,641.5714392000809,642.0734458998777,0.5049576903693378,1.0052377902902663,642.0567437000573,642.173475400079,642.0567437000573,642.173475400079,642.1567620001733,None,c,1,0.6202970999293029,642.1567620001733,None,,,,,,40,P24,2022_May_11_1242,training+cueing,2021.1.4,59.95103190344348,
Stranger.png,Stranger,Stranger,c,3,13,23,93,,,,,1,0,1,0,,,,,3,6,42,8,,,,,,,,,,,,,,,,,,,,,1.672,1.632,642.9135219003074,None,,,,,,,,,,,,,,,,,,,,643.4540396002121,643.9580852999352,0.5067420895211399,1.007027389947325,643.9414210999385,644.0581435998902,643.9414210999385,644.0581435998902,644.0414462001063,None,c,1,0.959638400003314,644.0414462001063,None,,,,,,40,P24,2022_May_11_1242,training+cueing,2021.1.4,59.95103190344348,
Self.png,You,Self ,c,1,11,21,91,,,,,1,0,1,0,,,,,3,7,43,9,,,,,,,,,,,,,,,,,,,,,1.513,1.58,645.1311456002295,None,,,,,,,,,,,,,,,,,,,,645.673944900278,646.1763737001456,0.5057776900939643,1.0067008901387453,646.1596885998733,646.2596980002709,646.1596885998733,646.2596980002709,646.2596980002709,None,c,1,0.5813237000256777,646.2596980002709,None,,,,,,40,P24,2022_May_11_1242,training+cueing,2021.1.4,59.95103190344348,
Friend.png,Stranger,Friend,m,3.2,19,29,99,,,,,1,0,1,0,,,,,3,8,44,5,,,,,,,,,,,,,,,,,,,,,1.783,2.374,646.967391199898,None,,,,,,,,,,,,,,,,,,,,647.5079049002379,648.01104150014,0.5039668898098171,1.0042404900304973,647.9943769001402,648.111096800305,647.9943769001402,648.111096800305,648.094394700136,None,m,1,0.9226299002766609,648.094394700136,None,,,,,,40,P24,2022_May_11_1242,training+cueing,2021.1.4,59.95103190344348,
Friend.png,Friend,Friend,c,2,12,22,92,,,,,1,0,1,0,,,,,3,9,45,10,,,,,,,,,,,,,,,,,,,,,1.546,1.382,649.15121310018,None,,,,,,,,,,,,,,,,,,,,649.6942961001769,650.196219000034,0.5046445904299617,1.004777890164405,650.1796396002173,650.2962259002961,650.1796396002173,650.2962259002961,650.2795301000588,None,c,1,1.313610200304538,650.2795301000588,None,,,,,,40,P24,2022_May_11_1242,training+cueing,2021.1.4,59.95103190344348,
Stranger.png,You,Stranger,m,1.3,15,25,95,,,,,1,0,1,0,,,,,3,10,46,6,,,,,,,,,,,,,,,,,,,,,1.769,1.243,651.7208604002371,None,,,,,,,,,,,,,,,,,,,,652.2597797000781,652.7644702000543,0.508074089884758,1.0083413901738822,652.7477990998887,652.847820899915,652.7477990998887,652.847820899915,652.847820899915,None,m,1,0.8092558002099395,652.847820899915,None,,,,,,40,P24,2022_May_11_1242,training+cueing,2021.1.4,59.95103190344348,
Stranger.png,Stranger,Stranger,c,3,13,23,93,,,,,1,0,1,0,,,,,3,11,47,11,,,,,,,,,,,,,,,,,,,,,1.653,1.795,653.7880279002711,None,,,,,,,,,,,,,,,,,,,,654.3306388999335,654.8326860000379,0.5035415897145867,1.0037959897890687,654.8160071000457,654.9327059001662,654.8160071000457,654.9327059001662,654.9160138000734,None,c,1,0.8372057001106441,654.9160138000734,None,,,,,,40,P24,2022_May_11_1242,training+cueing,2021.1.4,59.95103190344348,
Friend.png,Stranger,Friend,m,3.2,19,29,99,,,,,1,0,1,0,,,,,4,0,48,5,,,,,,,,,,,,,,,,,,,,,1.773,1.853,655.8928894000128,None,,,,,,,,,,,,,,,,,,,,656.4294388000853,656.934139800258,0.5079713896848261,1.0083027896471322,656.9174664998427,657.0341614000499,656.9174664998427,657.0341614000499,657.0174914998934,None,m,1,0.7997174998745322,657.0174914998934,None,,,,,,40,P24,2022_May_11_1242,training+cueing,2021.1.4,59.95103190344348,
Stranger.png,Stranger,Stranger,c,3,13,23,93,,,,,1,0,1,0,,,,,4,1,49,11,,,,,,,,,,,,,,,,,,,,,1.668,2.186,657.9443338001147,None,,,,,,,,,,,,,,,,,,,,658.482819700148,658.9857820998877,0.5057659903541207,1.0058645904064178,658.9691469999962,659.0857246001251,658.9691469999962,659.0857246001251,659.0689794002101,None,c,1,0.9880062001757324,659.0689794002101,None,,,,,,40,P24,2022_May_11_1242,training+cueing,2021.1.4,59.95103190344348,
Self.png,Friend,Self ,m,2.1,16,26,96,,,,,1,0,1,0,,,,,4,2,50,1,,,,,,,,,,,,,,,,,,,,,1.615,1.839,660.1927118999884,None,,,,,,,,,,,,,,,,,,,,660.7343728998676,661.2372690001503,0.5039859898388386,1.004291390068829,661.220580900088,661.3373461998999,661.220580900088,661.3373461998999,661.3207120001316,None,m,1,0.8003517999313772,661.3207120001316,None,,,,,,40,P24,2022_May_11_1242,training+cueing,2021.1.4,59.95103190344348,
Self.png,Stranger,Self ,m,3.1,18,28,98,,,,,1,0,1,0,,,,,4,3,51,2,,,,,,,,,,,,,,,,,,,,,1.469,1.428,662.2440400999039,None,,,,,,,,,,,,,,,,,,,,662.789396900218,663.2887504999526,0.49947158992290497,0.999765089713037,663.2720828000456,663.3888015002012,663.2720828000456,663.3888015002012,663.3888015002012,None,m,1,0.876186600420624,663.3888015002012,None,,,,,,40,P24,2022_May_11_1242,training+cueing,2021.1.4,59.95103190344348,
Stranger.png,Friend,Stranger,m,2.3,17,27,97,,,,,1,0,1,0,,,,,4,4,52,7,,,,,,,,,,,,,,,,,,,,,1.761,1.399,664.3961455998942,None,,,,,,,,,,,,,,,,,,,,664.9359782999381,665.4404890001751,0.5056397900916636,1.005895090289414,665.4238276001997,665.5405343999155,665.4238276001997,665.5405343999155,665.5239483001642,None,m,1,1.0130722001194954,665.5239483001642,None,,,,,,40,P24,2022_May_11_1242,training+cueing,2021.1.4,59.95103190344348,
Friend.png,Friend,Friend,c,2,12,22,92,,,,,1,0,1,0,,,,,4,5,53,4,,,,,,,,,,,,,,,,,,,,,1.673,1.613,666.6647385000251,None,,,,,,,,,,,,,,,,,,,,667.2027469002642,667.7086465000175,0.5104505894705653,1.0109715894795954,667.6918991999701,667.8086500000209,667.6918991999701,667.8086500000209,667.7919630999677,None,c,1,0.9851052002049983,667.7919630999677,None,,,,,,40,P24,2022_May_11_1242,training+cueing,2021.1.4,59.95103190344348,
Self.png,You,Self ,c,1,11,21,91,,,,,1,0,1,0,,,,,4,6,54,9,,,,,,,,,,,,,,,,,,,,,1.518,1.3,668.899625999853,None,,,,,,,,,,,,,,,,,,,,669.441491600126,669.9435978000984,0.5050625898875296,1.005291590001434,669.9270406998694,670.0269059999846,669.9270406998694,670.0269059999846,670.0269059999846,None,c,1,0.606190700083971,670.0269059999846,None,,,,,,40,P24,2022_May_11_1242,training+cueing,2021.1.4,59.95103190344348,
Friend.png,You,Friend,m,1.2,14,24,94,,,,,1,0,1,0,,,,,4,7,55,3,,,,,,,,,,,,,,,,,,,,,1.782,2.227,670.7674734001048,None,,,,,,,,,,,,,,,,,,,,671.3064735000953,671.811585499905,0.5086898901499808,1.0089442902244627,671.7949314001016,671.8949532001279,671.7949314001016,671.8949532001279,671.8949532001279,None,m,1,0.6740469997748733,671.8949532001279,None,,,,,,40,P24,2022_May_11_1242,training+cueing,2021.1.4,59.95103190344348,
Stranger.png,Stranger,Stranger,c,3,13,23,93,,,,,1,0,1,0,,,,,4,8,56,8,,,,,,,,,,,,,,,,,,,,,1.793,1.242,672.7018253002316,None,,,,,,,,,,,,,,,,,,,,673.2446178998798,673.7463187002577,0.5037789903581142,1.0040615904144943,673.729646100197,673.8463812000118,673.729646100197,673.8463812000118,673.8296596002765,None,c,1,0.7392569999210536,673.8296596002765,None,,,,,,40,P24,2022_May_11_1242,training+cueing,2021.1.4,59.95103190344348,
Stranger.png,You,Stranger,m,1.3,15,25,95,,,,,1,0,1,0,,,,,4,9,57,6,,,,,,,,,,,,,,,,,,,,,1.565,2.4,674.7028570002876,None,,,,,,,,,,,,,,,,,,,,675.2425857000053,675.747773299925,0.5096234898082912,1.0100981900468469,675.7310676998459,675.831150200218,675.7310676998459,675.831150200218,675.831150200218,None,m,1,0.6898424001410604,675.831150200218,None,,,,,,40,P24,2022_May_11_1242,training+cueing,2021.1.4,59.95103190344348,
Self.png,You,Self ,c,1,11,21,91,,,,,1,0,1,0,,,,,4,10,58,0,,,,,,,,,,,,,,,,,,,,,1.772,1.282,676.6549940002151,None,,,,,,,,,,,,,,,,,,,,677.1922869002447,677.6991730001755,0.511143789626658,1.0114643895067275,677.6824703998864,677.7825376000255,677.6824703998864,677.7825376000255,677.7825376000255,None,c,1,0.7224735002964735,677.7825376000255,None,,,,,,40,P24,2022_May_11_1242,training+cueing,2021.1.4,59.95103190344348,
Friend.png,Friend,Friend,c,2,12,22,92,,,,,1,0,1,0,,,,,4,11,59,10,,,,,,,,,,,,,,,,,,,,,1.609,1.265,678.6393923000433,None,,,,,,,,,,,,,,,,,,,,679.1783167002723,679.6839793999679,0.5106807895936072,1.0109470896422863,679.6672980999574,679.7840156001039,679.6672980999574,679.7840156001039,679.7673162003048,None,c,1,0.6737816999666393,679.7673162003048,None,,,,,,40,P24,2022_May_11_1242,training+cueing,2021.1.4,59.95103190344348,
Self.png,You,Self ,c,1,11,21,91,,,,,1,0,1,0,,,,,5,0,60,9,,,,,,,,,,,,,,,,,,,,,1.481,2.381,680.5744441999123,None,,,,,,,,,,,,,,,,,,,,681.1144794002175,681.6187615999952,0.5059520904906094,1.0062446906231344,681.6019879002124,681.7020442001522,681.6019879002124,681.7020442001522,681.7020442001522,None,c,1,0.8030408998019993,681.7020442001522,None,,,,,,40,P24,2022_May_11_1242,training+cueing,2021.1.4,59.95103190344348,
Self.png,Friend,Self ,m,2.1,16,26,96,,,,,1,0,1,0,,,,,5,1,61,1,,,,,,,,,,,,,,,,,,,,,1.594,2.287,682.6421949998476,None,,,,,,,,,,,,,,,,,,,,683.2390644000843,683.753559499979,0.513449679594487,1.0139930797740817,683.7368907001801,683.8536153999157,683.7368907001801,683.8536153999157,683.8369966000319,None,m,1,0.7479803999885917,683.8369966000319,None,,,,,,40,P24,2022_May_11_1242,training+cueing,2021.1.4,59.95103190344348,
Stranger.png,Friend,Stranger,m,2.3,17,27,97,,,,,1,0,1,0,,,,,5,2,62,7,,,,,,,,,,,,,,,,,,,,,1.617,2.222,684.711369600147,None,,,,,,,,,,,,,,,,,,,,685.2519171000458,685.7550323000178,0.506559890229255,1.00709259044379,685.7383274999447,685.8550740000792,685.7383274999447,685.8550740000792,685.8383312001824,None,m,1,0.6507409997284412,685.8383312001824,None,,,,,,40,P24,2022_May_11_1242,training+cueing,2021.1.4,59.95103190344348,
Stranger.png,You,Stranger,m,1.3,15,25,95,,,,,1,0,1,0,,,,,5,3,63,6,,,,,,,,,,,,,,,,,,,,,1.457,1.886,686.6128306998871,None,,,,,,,,,,,,,,,,,,,,687.1546817002818,687.656342800241,0.5025696898810565,1.0034661898389459,687.6396944001317,687.7397519000806,687.6396944001317,687.7397519000806,687.7397519000806,None,m,1,0.6532700001262128,687.7397519000806,None,,,,,,40,P24,2022_May_11_1242,training+cueing,2021.1.4,59.95103190344348,
Friend.png,Stranger,Friend,m,3.2,19,29,99,,,,,1,0,1,0,,,,,5,4,64,5,,,,,,,,,,,,,,,,,,,,,1.444,1.669,688.5308193000965,None,,,,,,,,,,,,,,,,,,,,689.0731978002004,689.5744202001952,0.5028125895187259,1.0031881895847619,689.5577870998532,689.6745091001503,689.5577870998532,689.6745091001503,689.657793099992,None,m,1,0.7671786001883447,689.657793099992,None,,,,,,40,P24,2022_May_11_1242,training+cueing,2021.1.4,59.95103190344348,
Stranger.png,Stranger,Stranger,c,3,13,23,93,,,,,1,0,1,0,,,,,5,5,65,11,,,,,,,,,,,,,,,,,,,,,1.575,1.299,690.547673500143,None,,,,,,,,,,,,,,,,,,,,691.0917825000361,691.5925513003021,0.5024956902489066,1.00278749037534,691.5758857000619,691.6925992001779,691.5758857000619,691.6925992001779,691.6758969002403,None,c,1,0.7490560002624989,691.6758969002403,None,,,,,,40,P24,2022_May_11_1242,training+cueing,2021.1.4,59.95103190344348,
Self.png,You,Self ,c,1,11,21,91,,,,,1,0,1,0,,,,,5,6,66,0,,,,,,,,,,,,,,,,,,,,,1.509,1.543,692.5493191001005,None,,,,,,,,,,,,,,,,,,,,693.0898823002353,693.5940213999711,0.5054420903325081,1.0057373903691769,693.577325399965,693.6773748002015,693.577325399965,693.6773748002015,693.6773748002015,None,c,1,0.8435339001007378,693.6773748002015,None,,,,,,40,P24,2022_May_11_1242,training+cueing,2021.1.4,59.95103190344348,
Friend.png,Friend,Friend,c,2,12,22,92,,,,,1,0,1,0,,,,,5,7,67,10,,,,,,,,,,,,,,,,,,,,,1.475,1.268,694.6505352999084,None,,,,,,,,,,,,,,,,,,,,695.1935944003053,695.6955372998491,0.5042998897843063,1.0045621898025274,695.6788818999194,695.7955960999243,695.6788818999194,695.7955960999243,695.778927099891,None,c,1,0.4540858003310859,695.778927099891,None,,,,,,40,P24,2022_May_11_1242,training+cueing,2021.1.4,59.95103190344348,
Friend.png,You,Friend,m,1.2,14,24,94,,,,,1,0,1,0,,,,,5,8,68,3,,,,,,,,,,,,,,,,,,,,,1.527,1.955,696.3688206998631,None,,,,,,,,,,,,,,,,,,,,696.9220630000345,697.4302207999863,0.49961131950840354,0.9999237195588648,697.3968556001782,697.4969215001911,697.3968556001782,697.4969215001911,697.4969215001911,None,m,1,0.5760669000446796,697.4969215001911,None,,,,,,40,P24,2022_May_11_1242,training+cueing,2021.1.4,59.95103190344348,
Stranger.png,Stranger,Stranger,c,3,13,23,93,,,,,1,0,1,0,,,,,5,9,69,8,,,,,,,,,,,,,,,,,,,,,1.565,2.075,698.203945599962,None,,,,,,,,,,,,,,,,,,,,698.7468268000521,699.2480824002996,0.5024949898943305,1.0030479901470244,699.2314085001126,699.348801500164,699.2314085001126,699.348801500164,699.3314251000993,None,c,1,0.645633399952203,699.3314251000993,None,,,,,,40,P24,2022_May_11_1242,training+cueing,2021.1.4,59.95103190344348,
Self.png,Stranger,Self ,m,3.1,18,28,98,,,,,1,0,1,0,,,,,5,10,70,2,,,,,,,,,,,,,,,,,,,,,1.462,1.482,700.1062044003047,None,,,,,,,,,,,,,,,,,,,,700.6445736000314,701.1494995001704,0.5096168899908662,1.0098449899815023,701.1328341001645,701.2495140000246,701.1328341001645,701.2495140000246,701.2327910000458,None,m,1,0.568204200360924,701.2327910000458,None,,,,,,40,P24,2022_May_11_1242,training+cueing,2021.1.4,59.95103190344348,
Friend.png,Friend,Friend,c,2,12,22,92,,,,,1,0,1,0,,,,,5,11,71,4,,,,,,,,,,,,,,,,,,,,,1.656,2.48,701.9230666002259,None,,,,,,,,,,,,,,,,,,,,702.4643588000908,702.9674645001069,0.5040332898497581,1.0043081897310913,702.9507710998878,703.0674970000982,702.9507710998878,703.0674970000982,703.0507931001484,None,c,1,0.606341699603945,703.0507931001484,None,,,,,,40,P24,2022_May_11_1242,training+cueing,2021.1.4,59.95103190344348,
Friend.png,You,Friend,m,1.2,14,24,94,,,,,1,0,1,0,,,,,6,0,72,3,,,,,,,,,,,,,,,,,,,,,1.555,1.567,703.7903237999417,None,,,,,,,,,,,,,,,,,,,,704.3337034001015,704.8354831002653,0.5039708903059363,1.0042795902118087,704.8188026002608,704.918844900094,704.8188026002608,704.918844900094,704.918844900094,None,m,1,0.6582631999626756,704.918844900094,None,,,,,,40,P24,2022_May_11_1242,training+cueing,2021.1.4,59.95103190344348,
Stranger.png,Stranger,Stranger,c,3,13,23,93,,,,,1,0,1,0,,,,,6,1,73,11,,,,,,,,,,,,,,,,,,,,,1.575,2.21,705.7090282998979,None,,,,,,,,,,,,,,,,,,,,706.2514742999338,706.7535367999226,0.504386390093714,1.0046793902292848,706.7368446001783,706.8535401001573,706.7368446001783,706.8535401001573,706.8368532001041,None,c,1,0.6120805996470153,706.8368532001041,None,,,,,,40,P24,2022_May_11_1242,training+cueing,2021.1.4,59.95103190344348,
Friend.png,Stranger,Friend,m,3.2,19,29,99,,,,,1,0,1,0,,,,,6,2,74,5,,,,,,,,,,,,,,,,,,,,,1.484,2.244,707.5771547001787,None,,,,,,,,,,,,,,,,,,,,708.1155266999267,708.621545500122,0.5094786901026964,1.0097437901422381,708.6048890003003,708.721603800077,708.6048890003003,708.721603800077,708.704899400007,None,m,1,0.79208580031991,708.704899400007,None,,,,,,40,P24,2022_May_11_1242,training+cueing,2021.1.4,59.95103190344348,
Friend.png,Friend,Friend,c,2,12,22,92,,,,,1,0,1,0,,,,,6,3,75,4,,,,,,,,,,,,,,,,,,,,,1.767,2.488,709.6286948998459,None,,,,,,,,,,,,,,,,,,,,710.1703146002255,710.6730444002897,0.5060353903099895,1.0064658899791539,710.6563969999552,710.7732303002849,710.6563969999552,710.7732303002849,710.7565661002882,None,c,1,0.5483796000480652,710.7565661002882,None,,,,,,40,P24,2022_May_11_1242,training+cueing,2021.1.4,59.95103190344348,
Self.png,Stranger,Self ,m,3.1,18,28,98,,,,,1,0,1,0,,,,,6,4,76,2,,,,,,,,,,,,,,,,,,,,,1.603,2.391,711.4312712000683,None,,,,,,,,,,,,,,,,,,,,711.972931700293,712.4743158002384,0.5008911900222301,1.0019819899462163,712.4576726001687,712.5743284001946,712.4576726001687,712.5743284001946,712.5743284001946,None,m,1,0.6026546997018158,712.5743284001946,None,,,,,,40,P24,2022_May_11_1242,training+cueing,2021.1.4,59.95103190344348,
Stranger.png,Stranger,Stranger,c,3,13,23,93,,,,,1,0,1,0,,,,,6,5,77,8,,,,,,,,,,,,,,,,,,,,,1.42,2.218,713.3152976999991,None,,,,,,,,,,,,,,,,,,,,713.8546072999015,714.3590473001823,0.5092603899538517,1.0095585901290178,714.3423673999496,714.4592101001181,714.3423673999496,714.4592101001181,714.4423849000596,None,m,0,0.5425662002526224,714.4423849000596,None,,,,,,40,P24,2022_May_11_1242,training+cueing,2021.1.4,59.95103190344348,
Stranger.png,Friend,Stranger,m,2.3,17,27,97,,,,,1,0,1,0,,,,,6,6,78,7,,,,,,,,,,,,,,,,,,,,,1.41,1.628,715.1154439998791,None,,,,,,,,,,,,,,,,,,,,715.6589818000793,716.1603566999547,0.5031005898490548,1.0040142899379134,716.1436465000734,716.2604209999554,716.1436465000734,716.2604209999554,716.2436874001287,None,m,1,0.7573425997979939,716.2436874001287,None,,,,,,40,P24,2022_May_11_1242,training+cueing,2021.1.4,59.95103190344348,
Friend.png,Friend,Friend,c,2,12,22,92,,,,,1,0,1,0,,,,,6,7,79,10,,,,,,,,,,,,,,,,,,,,,1.494,1.357,717.1355169001035,None,,,,,,,,,,,,,,,,,,,,717.6739473999478,718.1784895998426,0.507554090116173,1.0083508901298046,718.1618804000318,718.2784823002294,718.1618804000318,718.2784823002294,718.2617913000286,None,c,1,0.531304799951613,718.2617913000286,None,,,,,,40,P24,2022_May_11_1242,training+cueing,2021.1.4,59.95103190344348,
Self.png,Friend,Self ,m,2.1,16,26,96,,,,,1,0,1,0,,,,,6,8,80,1,,,,,,,,,,,,,,,,,,,,,1.46,1.955,718.9225650001317,None,,,,,,,,,,,,,,,,,,,,719.4570912001655,719.9632669002749,0.5121581899002194,1.0123635898344219,719.9466122002341,720.0634663999081,719.9466122002341,720.0634663999081,720.0466793999076,None,m,1,0.6823148000985384,720.0466793999076,None,,,,,,40,P24,2022_May_11_1242,training+cueing,2021.1.4,59.95103190344348,
Stranger.png,You,Stranger,m,1.3,15,25,95,,,,,1,0,1,0,,,,,6,9,81,6,,,,,,,,,,,,,,,,,,,,,1.499,1.371,720.8544558002613,None,,,,,,,,,,,,,,,,,,,,721.4046436999924,721.9145058998838,0.5034302901476622,1.0036143902689219,721.8979310002178,721.9978670002893,721.8979310002178,721.9978670002893,721.9978670002893,None,m,1,0.7630775002762675,721.9978670002893,None,,,,,,40,P24,2022_May_11_1242,training+cueing,2021.1.4,59.95103190344348,
Self.png,You,Self ,c,1,11,21,91,,,,,1,0,1,0,,,,,6,10,82,0,,,,,,,,,,,,,,,,,,,,,1.552,2.423,722.8876747000031,None,,,,,,,,,,,,,,,,,,,,723.4256886001676,723.9326055999845,0.5117472903802991,1.0121612902730703,723.9159479001537,724.0165500002913,723.9159479001537,724.0165500002913,724.0165500002913,None,c,1,0.5524511998519301,724.0165500002913,None,,,,,,40,P24,2022_May_11_1242,training+cueing,2021.1.4,59.95103190344348,
Self.png,You,Self ,c,1,11,21,91,,,,,1,0,1,0,,,,,6,11,83,9,,,,,,,,,,,,,,,,,,,,,1.419,1.316,724.7065234002657,None,,,,,,,,,,,,,,,,,,,,725.2453487999737,725.7507552001625,0.5100177899003029,1.0102935899049044,725.7339404001832,725.8339793998748,725.7339404001832,725.8339793998748,725.8339793998748,None,c,1,0.6068736002780497,725.8339793998748,None,,,,,,40,P24,2022_May_11_1242,training+cueing,2021.1.4,59.95103190344348,
