Image,Name,Face,CorrAns,Match,Face_onset,CResponse_onset,IResponse_onset,Match.thisRepN,Match.thisTrialN,Match.thisN,Match.thisIndex,Blocks.thisRepN,Blocks.thisTrialN,Blocks.thisN,Blocks.thisIndex,trials.thisRepN,trials.thisTrialN,trials.thisN,trials.thisIndex,trials_2.thisRepN,trials_2.thisTrialN,trials_2.thisN,trials_2.thisIndex,text.started,text.stopped,p1.started,p1.stopped,MatchInstructions.started,MatchInstructions.stopped,Name1.started,Name1.stopped,Face_Relevance.started,Face_Relevance.stopped,MismatchInstructions.started,MismatchInstructions.stopped,Rest_trainingInstruct.started,Rest_trainingInstruct.stopped,next8.keys,next8.rt,next8.started,next8.stopped,Ready.started,Ready.stopped,delay_one_picked,delay_two_picked,blank0.started,blank0.stopped,FixationCross1.started,FixationCross1.stopped,Name3.started,Name3.stopped,Face_Relevance3.started,Face_Relevance3.stopped,responseTime.started,responseTime.stopped,resp.keys,resp.corr,resp.started,resp.stopped,Accuracy.started,Accuracy.stopped,resp.rt,questions.started,questions.stopped,p2.started,p2.stopped,FixationCross3.started,FixationCross3.stopped,port_Face_onset.started,port_Face_onset.stopped,Name4.started,Name4.stopped,Face_Relevance4.started,Face_Relevance4.stopped,responseTime2.started,responseTime2.stopped,Response.keys,Response.corr,Response.rt,Response.started,Response.stopped,p3.started,p3.stopped,Finish.started,Finish.stopped,gender,age,participant,date,expName,psychopyVersion,frameRate,
Stranger.png,Stranger,,,,,,,0,0,0,2,,,,,,,,,,,,,19.92783679999411,None,0.007519999984651804,0.5303445998579264,32.86204509995878,None,46.98088329983875,None,46.98088329983875,None,,,,,,,,,,,,,,,,,,,,,,,,,,,,,,,,,,,,,,,,,,,,,,,,,,,,,,44,p26,2022_May_13_0916,training+cueing,2021.1.4,59.992069141717195,
Friend.png,Friend,,,,,,,0,1,1,1,,,,,,,,,,,,,,,,,,,66.8409548997879,None,66.8409548997879,None,,,,,,,,,,,,,,,,,,,,,,,,,,,,,,,,,,,,,,,,,,,,,,,,,,,,,,44,p26,2022_May_13_0916,training+cueing,2021.1.4,59.992069141717195,
Self.png,You,,,,,,,0,2,2,0,,,,,,,,,,,,,,,,,,,86.86117719998583,None,86.86117719998583,None,,,,,,,,,,,,,,,,,,,,,,,,,,,,,,,,,,,,,,,,,,,,,,,,,,,,,,44,p26,2022_May_13_0916,training+cueing,2021.1.4,59.992069141717195,
Self.png,You,Self ,c,1,11,21,91,,,,,0,0,0,0,0,0,0,0,,,,,,,,,,,,,,,106.79898680001497,None,142.85834029968828,None,space,0.34905349975451827,2.008514130488038,None,145.21025529969484,None,1.467,1.256,148.223036499694,None,148.85681799985468,149.36301640002057,149.3463657000102,149.44643160002306,149.3463657000102,149.44643160002306,149.44643160002306,None,None,0,149.44643160002306,None,150.93083929968998,None,,,,,,,,,,,,,,,,,,,,,,,,,,44,p26,2022_May_13_0916,training+cueing,2021.1.4,59.992069141717195,
Friend.png,Friend,Friend,c,2,12,22,92,,,,,0,0,0,0,0,1,1,4,,,,,,,,,,,,,,,,,,,,,,,,,1.71,1.749,151.33130510011688,None,151.86855279980227,152.38184919999912,152.3651358000934,152.48187669971958,152.3651358000934,152.48187669971958,152.4652231996879,None,None,0,152.4652231996879,None,154.18336409982294,None,,,,,,,,,,,,,,,,,,,,,,,,,,44,p26,2022_May_13_0916,training+cueing,2021.1.4,59.992069141717195,
Stranger.png,Friend,Stranger,m,2.3,17,27,97,,,,,0,0,0,0,0,2,2,7,,,,,,,,,,,,,,,,,,,,,,,,,1.425,2.377,154.58359770011157,None,155.1175840999931,155.61751260003075,155.6008247998543,155.71755710011348,155.6008247998543,155.71755710011348,155.71755710011348,None,c,0,155.71755710011348,None,155.98446330009028,None,0.23979469994083047,,,,,,,,,,,,,,,,,,,,,,,,,44,p26,2022_May_13_0916,training+cueing,2021.1.4,59.992069141717195,
Self.png,Friend,Self ,m,2.1,16,26,96,,,,,0,0,0,0,0,3,3,1,,,,,,,,,,,,,,,,,,,,,,,,,1.605,1.845,156.3847403000109,None,156.92077809991315,157.43550399970263,157.41879289969802,157.53552490007132,157.41879289969802,157.53552490007132,157.51882989984006,None,None,0,157.51882989984006,None,159.13686770014465,None,,,,,,,,,,,,,,,,,,,,,,,,,,44,p26,2022_May_13_0916,training+cueing,2021.1.4,59.992069141717195,
Stranger.png,You,Stranger,m,1.3,15,25,95,,,,,0,0,0,0,0,4,4,6,,,,,,,,,,,,,,,,,,,,,,,,,1.638,1.615,159.53715980006382,None,160.07333739986643,160.58773900009692,160.57107859989628,160.6711446000263,160.57107859989628,160.6711446000263,160.6711446000263,None,m,1,160.6711446000263,None,160.92038819985464,None,0.23024689964950085,,,,,,,,,,,,,,,,,,,,,,,,,44,p26,2022_May_13_0916,training+cueing,2021.1.4,59.992069141717195,
Friend.png,You,Friend,m,1.2,14,24,94,,,,,0,0,0,0,0,5,5,3,,,,,,,,,,,,,,,,,,,,,,,,,1.531,1.405,161.32162720011547,None,161.85002569993958,162.35571559984237,162.33901589969173,162.43905939999968,162.33901589969173,162.43905939999968,162.43905939999968,None,m,1,162.43905939999968,None,162.93795699998736,None,0.47847050009295344,,,,,,,,,,,,,,,,,,,,,,,,,44,p26,2022_May_13_0916,training+cueing,2021.1.4,59.992069141717195,
Friend.png,Friend,Friend,c,2,12,22,92,,,,,0,0,0,0,0,6,6,10,,,,,,,,,,,,,,,,,,,,,,,,,1.732,1.216,163.33973499992862,None,163.87231640005484,164.37389899976552,164.35727929975837,164.47395309992135,164.35727929975837,164.47395309992135,164.45721270004287,None,c,1,164.45721270004287,None,164.807545799762,None,0.3321355003863573,,,,,,,,,,,,,,,,,,,,,,,,,44,p26,2022_May_13_0916,training+cueing,2021.1.4,59.992069141717195,
Self.png,Stranger,Self ,m,3.1,18,28,98,,,,,0,0,0,0,0,7,7,2,,,,,,,,,,,,,,,,,,,,,,,,,1.475,1.744,165.20773020014167,None,165.7387753999792,166.24189419997856,166.22521509975195,166.34190419968218,166.22521509975195,166.34190419968218,166.32521619973704,None,c,0,166.32521619973704,None,166.6260349000804,None,0.2724317000247538,,,,,,,,,,,,,,,,,,,,,,,,,44,p26,2022_May_13_0916,training+cueing,2021.1.4,59.992069141717195,
Stranger.png,Stranger,Stranger,c,3,13,23,93,,,,,0,0,0,0,0,8,8,11,,,,,,,,,,,,,,,,,,,,,,,,,1.792,2.405,167.0257278000936,None,167.5726103996858,168.0765241999179,168.05981720006093,168.1765728997998,168.05981720006093,168.1765728997998,168.16003789985552,None,c,1,168.16003789985552,None,169.05943829985335,None,0.8693682998418808,,,,,,,,,,,,,,,,,,,,,,,,,44,p26,2022_May_13_0916,training+cueing,2021.1.4,59.992069141717195,
Friend.png,Stranger,Friend,m,3.2,19,29,99,,,,,0,0,0,0,0,9,9,5,,,,,,,,,,,,,,,,,,,,,,,,,1.485,1.642,169.4609264000319,None,169.99012959981337,170.49493049969897,170.47818579990417,170.5949933999218,170.47818579990417,170.5949933999218,170.57821639999747,None,c,0,170.57821639999747,None,171.06253500003368,None,0.4672652003355324,,,,,,,,,,,,,,,,,,,,,,,,,44,p26,2022_May_13_0916,training+cueing,2021.1.4,59.992069141717195,
Self.png,You,Self ,c,1,11,21,91,,,,,0,0,0,0,0,10,10,9,,,,,,,,,,,,,,,,,,,,,,,,,1.658,1.799,171.46229019993916,None,171.99486029986292,172.49633370013908,172.4796847999096,172.57973410002887,172.4796847999096,172.57973410002887,172.57973410002887,None,m,0,172.57973410002887,None,173.41380079975352,None,0.8176977997645736,,,,,,,,,,,,,,,,,,,,,,,,,44,p26,2022_May_13_0916,training+cueing,2021.1.4,59.992069141717195,
Stranger.png,Stranger,Stranger,c,3,13,23,93,,,,,0,0,0,0,0,11,11,8,,,,,,,,,,,,,,,,,,,,,,,,,1.637,2.158,173.8141437000595,None,174.35742349969223,174.86482129991055,174.84808530006558,174.964832900092,174.84808530006558,174.964832900092,174.94808649970219,None,c,1,174.94808649970219,None,176.13477330002934,None,1.1533773001283407,,,,,,,,,,,,,,,,,,,,,,,,,44,p26,2022_May_13_0916,training+cueing,2021.1.4,59.992069141717195,
Stranger.png,Stranger,Stranger,c,3,13,23,93,,,,,0,0,0,0,,,,,0,0,0,11,,,,,,,,,,,,,,,,,,,227.4028269997798,None,1.456,1.859,230.9207080998458,None,,,,,,,,,,,,,,,,176.54927249997854,None,0.014127729926258326,0.5118908300064504,231.54496269999072,232.05604590009898,0.5029009399004281,1.0031867399811745,232.0393308000639,232.15604369994253,232.0393308000639,232.15604369994253,232.13935629976913,None,c,1,1.1302142003551126,232.13935629976913,None,,,,,,44,p26,2022_May_13_0916,training+cueing,2021.1.4,59.992069141717195,
Friend.png,You,Friend,m,1.2,14,24,94,,,,,0,0,0,0,,,,,0,1,1,3,,,,,,,,,,,,,,,,,,,,,1.775,1.677,233.4079864998348,None,,,,,,,,,,,,,,,,,,,,233.93969189981,234.44109319988638,0.5036413897760212,1.0044864895753562,234.4244085997343,234.524459999986,234.4244085997343,234.524459999986,234.524459999986,None,c,0,1.0810096999630332,234.524459999986,None,,,,,,44,p26,2022_May_13_0916,training+cueing,2021.1.4,59.992069141717195,
Self.png,You,Self ,c,1,11,21,91,,,,,0,0,0,0,,,,,0,2,2,9,,,,,,,,,,,,,,,,,,,,,1.7,2.333,235.73238899977878,None,,,,,,,,,,,,,,,,,,,,236.27022989979014,236.77608949970454,0.5112684895284474,1.0115614896640182,236.75941539974883,236.8594498001039,236.75941539974883,236.8594498001039,236.8594498001039,None,c,1,0.9539117999374866,236.8594498001039,None,,,,,,44,p26,2022_May_13_0916,training+cueing,2021.1.4,59.992069141717195,
Stranger.png,Stranger,Stranger,c,3,13,23,93,,,,,0,0,0,0,,,,,0,3,3,8,,,,,,,,,,,,,,,,,,,,,1.693,2.054,237.9501622999087,None,,,,,,,,,,,,,,,,,,,,238.5334676997736,239.04445839999244,0.5044844499789178,1.0047974498011172,239.02769259968773,239.14449519990012,239.02769259968773,239.14449519990012,239.12770979991183,None,c,1,0.7977408999577165,239.12770979991183,None,,,,,,44,p26,2022_May_13_0916,training+cueing,2021.1.4,59.992069141717195,
Self.png,You,Self ,c,1,11,21,91,,,,,0,0,0,0,,,,,0,4,4,0,,,,,,,,,,,,,,,,,,,,,1.732,2.189,240.05240370007232,None,,,,,,,,,,,,,,,,,,,,240.5920055997558,241.09590429998934,0.507583289872855,1.0084808897227049,241.079150499776,241.17925040004775,241.079150499776,241.17925040004775,241.17925040004775,None,c,1,1.0661434000357985,241.17925040004775,None,,,,,,44,p26,2022_May_13_0916,training+cueing,2021.1.4,59.992069141717195,
Self.png,Stranger,Self ,m,3.1,18,28,98,,,,,0,0,0,0,,,,,0,5,5,2,,,,,,,,,,,,,,,,,,,,,1.468,2.271,242.37040629982948,None,,,,,,,,,,,,,,,,,,,,242.91190559975803,243.4142613997683,0.5056254900991917,1.0060972897335887,243.39770240010694,243.51430050004274,243.39770240010694,243.51430050004274,243.4975510998629,None,m,1,0.9557817000895739,243.4975510998629,None,,,,,,44,p26,2022_May_13_0916,training+cueing,2021.1.4,59.992069141717195,
Friend.png,Friend,Friend,c,2,12,22,92,,,,,0,0,0,0,,,,,0,6,6,4,,,,,,,,,,,,,,,,,,,,,1.596,1.387,244.58870099997148,None,,,,,,,,,,,,,,,,,,,,245.1291082999669,245.6325278999284,0.505787689704448,1.0066518895328045,245.61586879985407,245.7325570001267,245.61586879985407,245.7325570001267,245.7158200996928,None,c,1,0.833581100217998,245.7158200996928,None,,,,,,44,p26,2022_May_13_0916,training+cueing,2021.1.4,59.992069141717195,
Stranger.png,Friend,Stranger,m,2.3,17,27,97,,,,,0,0,0,0,,,,,0,7,7,7,,,,,,,,,,,,,,,,,,,,,1.542,1.63,246.6737975999713,None,,,,,,,,,,,,,,,,,,,,247.21275059971958,247.7173264999874,0.5084031894803047,1.0086968895047903,247.70067219994962,247.8173652999103,247.70067219994962,247.8173652999103,247.80068999994546,None,m,1,1.1165171996690333,247.80068999994546,None,,,,,,44,p26,2022_May_13_0916,training+cueing,2021.1.4,59.992069141717195,
Friend.png,Friend,Friend,c,2,12,22,92,,,,,0,0,0,0,,,,,0,8,8,10,,,,,,,,,,,,,,,,,,,,,1.651,1.243,249.04147619986907,None,,,,,,,,,,,,,,,,,,,,249.59855180000886,250.1024099998176,0.5069950199685991,1.0078622200526297,250.0856995000504,250.20243280008435,250.0856995000504,250.20243280008435,250.18571229977533,None,c,1,0.8598474999889731,250.18571229977533,None,,,,,,44,p26,2022_May_13_0916,training+cueing,2021.1.4,59.992069141717195,
Friend.png,Stranger,Friend,m,3.2,19,29,99,,,,,0,0,0,0,,,,,0,9,9,5,,,,,,,,,,,,,,,,,,,,,1.462,2.104,251.17935789981857,None,,,,,,,,,,,,,,,,,,,,251.71794519992545,252.2207667999901,0.5059903897345066,1.0062560895457864,252.20404279977083,252.3208114998415,252.20404279977083,252.3208114998415,252.30408710008487,None,m,1,1.1571647999808192,252.30408710008487,None,,,,,,44,p26,2022_May_13_0916,training+cueing,2021.1.4,59.992069141717195,
Stranger.png,You,Stranger,m,1.3,15,25,95,,,,,0,0,0,0,,,,,0,10,10,6,,,,,,,,,,,,,,,,,,,,,1.544,1.707,253.595082399901,None,,,,,,,,,,,,,,,,,,,,254.1361349998042,254.63901800010353,0.5062038898468018,1.0064675901085138,254.6223398000002,254.72240490000695,254.6223398000002,254.72240490000695,254.72240490000695,None,None,0,,254.72240490000695,None,,,,,,44,p26,2022_May_13_0916,training+cueing,2021.1.4,59.992069141717195,
Self.png,Friend,Self ,m,2.1,16,26,96,,,,,0,0,0,0,,,,,0,11,11,1,,,,,,,,,,,,,,,,,,,,,1.636,1.769,256.377683899831,None,,,,,,,,,,,,,,,,,,,,256.9192081000656,257.42431049980223,0.5072038895450532,1.0074899895116687,257.4076660000719,257.52437729993835,257.4076660000719,257.52437729993835,257.50770600000396,None,m,1,1.1535018999129534,257.50770600000396,None,,,,,,44,p26,2022_May_13_0916,training+cueing,2021.1.4,59.992069141717195,
Friend.png,Stranger,Friend,m,3.2,19,29,99,,,,,0,0,0,0,,,,,1,0,12,5,,,,,,,,,,,,,,,,,,,,,1.721,1.681,258.7985938997008,None,,,,,,,,,,,,,,,,,,,,259.33863319968805,259.8428001999855,0.5080555900931358,1.0084294900298119,259.82606949983165,259.94285209989175,259.82606949983165,259.94285209989175,259.9260796997696,None,m,1,0.8955875998362899,259.9260796997696,None,,,,,,44,p26,2022_May_13_0916,training+cueing,2021.1.4,59.992069141717195,
Stranger.png,Stranger,Stranger,c,3,13,23,93,,,,,0,0,0,0,,,,,1,1,13,11,,,,,,,,,,,,,,,,,,,,,1.753,2.249,260.9537995001301,None,,,,,,,,,,,,,,,,,,,,261.49055220000446,261.9942799997516,0.5063813901506364,1.0066581899300218,261.9776413999498,262.09435189981014,261.9776413999498,262.09435189981014,262.0776808001101,None,c,1,0.8876470001414418,262.0776808001101,None,,,,,,44,p26,2022_May_13_0916,training+cueing,2021.1.4,59.992069141717195,
Self.png,Stranger,Self ,m,3.1,18,28,98,,,,,0,0,0,0,,,,,1,2,14,2,,,,,,,,,,,,,,,,,,,,,1.62,1.271,263.10137989977375,None,,,,,,,,,,,,,,,,,,,,263.6395335998386,264.1458943998441,0.5104431896470487,1.0107249892316759,264.12919789971784,264.24592160014436,264.12919789971784,264.24592160014436,264.2292166999541,None,m,1,0.8320295000448823,264.2292166999541,None,,,,,,44,p26,2022_May_13_0916,training+cueing,2021.1.4,59.992069141717195,
Self.png,You,Self ,c,1,11,21,91,,,,,0,0,0,0,,,,,1,3,15,9,,,,,,,,,,,,,,,,,,,,,1.503,2.105,265.1880648001097,None,,,,,,,,,,,,,,,,,,,,265.7290787999518,266.23088230006397,0.5036457902751863,1.003923190291971,266.2141686999239,266.31422349996865,266.2141686999239,266.31422349996865,266.31422349996865,None,None,0,,266.31422349996865,None,,,,,,44,p26,2022_May_13_0916,training+cueing,2021.1.4,59.992069141717195,
Self.png,You,Self ,c,1,11,21,91,,,,,0,0,0,0,,,,,1,4,16,0,,,,,,,,,,,,,,,,,,,,,1.428,1.642,267.93637860007584,None,,,,,,,,,,,,,,,,,,,,268.4782432001084,268.9827513997443,0.507166089490056,1.0075012897141278,268.9659881996922,269.0660314001143,268.9659881996922,269.0660314001143,269.0660314001143,None,c,1,0.9714421001262963,269.0660314001143,None,,,,,,44,p26,2022_May_13_0916,training+cueing,2021.1.4,59.992069141717195,
Friend.png,Friend,Friend,c,2,12,22,92,,,,,0,0,0,0,,,,,1,5,17,10,,,,,,,,,,,,,,,,,,,,,1.484,1.297,270.17710619978607,None,,,,,,,,,,,,,,,,,,,,270.71942809969187,271.23432359984145,0.5141343898139894,1.0143748898990452,271.217644599732,271.3343568998389,271.217644599732,271.3343568998389,271.31766900001094,None,c,1,0.8315612999722362,271.31766900001094,None,,,,,,44,p26,2022_May_13_0916,training+cueing,2021.1.4,59.992069141717195,
Stranger.png,You,Stranger,m,1.3,15,25,95,,,,,0,0,0,0,,,,,1,6,18,6,,,,,,,,,,,,,,,,,,,,,1.77,2.191,272.27593889972195,None,,,,,,,,,,,,,,,,,,,,272.81649099988863,273.3191653001122,0.5068704900331795,1.0072362897917628,273.3024988998659,273.4025006997399,273.3024988998659,273.4025006997399,273.4025006997399,None,m,1,0.7786837997846305,273.4025006997399,None,,,,,,44,p26,2022_May_13_0916,training+cueing,2021.1.4,59.992069141717195,
Friend.png,Friend,Friend,c,2,12,22,92,,,,,0,0,0,0,,,,,1,7,19,4,,,,,,,,,,,,,,,,,,,,,1.684,1.967,274.30926469992846,None,,,,,,,,,,,,,,,,,,,,274.8572479998693,275.37075270013884,0.5078880898654461,1.0081543899141252,275.35408760001883,275.4707466997206,275.35408760001883,275.4707466997206,275.45411890000105,None,c,1,0.8070763000287116,275.45411890000105,None,,,,,,44,p26,2022_May_13_0916,training+cueing,2021.1.4,59.992069141717195,
Stranger.png,Friend,Stranger,m,2.3,17,27,97,,,,,0,0,0,0,,,,,1,8,20,7,,,,,,,,,,,,,,,,,,,,,1.665,1.721,276.3938011000864,None,,,,,,,,,,,,,,,,,,,,276.9329833998345,277.43891560006887,0.5107781901024282,1.0110919903963804,277.42209429992363,277.53885979996994,277.42209429992363,277.53885979996994,277.52216049982235,None,m,1,0.8352022999897599,277.52216049982235,None,,,,,,44,p26,2022_May_13_0916,training+cueing,2021.1.4,59.992069141717195,
Stranger.png,Stranger,Stranger,c,3,13,23,93,,,,,0,0,0,0,,,,,1,9,21,8,,,,,,,,,,,,,,,,,,,,,1.654,2.04,278.48301209975034,None,,,,,,,,,,,,,,,,,,,,279.02230789978057,279.523632499855,0.5024556894786656,1.0027744895778596,279.5069774999283,279.6237077000551,279.5069774999283,279.6237077000551,279.60703489976004,None,c,1,1.3583940002135932,279.60703489976004,None,,,,,,44,p26,2022_May_13_0916,training+cueing,2021.1.4,59.992069141717195,
Friend.png,You,Friend,m,1.2,14,24,94,,,,,0,0,0,0,,,,,1,10,22,3,,,,,,,,,,,,,,,,,,,,,1.696,1.967,281.0988806998357,None,,,,,,,,,,,,,,,,,,,,281.637666599825,282.1421976001002,0.506418889388442,1.006687889341265,282.1255322997458,282.2255611997098,282.1255322997458,282.2255611997098,282.2255611997098,None,m,1,1.0916924001649022,282.2255611997098,None,,,,,,44,p26,2022_May_13_0916,training+cueing,2021.1.4,59.992069141717195,
Self.png,Friend,Self ,m,2.1,16,26,96,,,,,0,0,0,0,,,,,1,11,23,1,,,,,,,,,,,,,,,,,,,,,1.698,2.479,283.4493851000443,None,,,,,,,,,,,,,,,,,,,,283.99200099986047,284.49390289979056,0.5046672900207341,1.0049877897836268,284.47720449976623,284.5939503000118,284.47720449976623,284.5939503000118,284.57725640013814,None,m,1,1.1558888000436127,284.57725640013814,None,,,,,,44,p26,2022_May_13_0916,training+cueing,2021.1.4,59.992069141717195,
Stranger.png,Stranger,Stranger,c,3,13,23,93,,,,,0,0,0,0,,,,,2,0,24,11,,,,,,,,,,,,,,,,,,,,,1.523,2.067,285.86759570008144,None,,,,,,,,,,,,,,,,,,,,286.4086901000701,286.9123073001392,0.5051137898117304,1.0054125897586346,286.89565399987623,287.0123576996848,286.89565399987623,287.0123576996848,286.9957070997916,None,c,1,0.9138720999471843,286.9957070997916,None,,,,,,44,p26,2022_May_13_0916,training+cueing,2021.1.4,59.992069141717195,
Friend.png,Friend,Friend,c,2,12,22,92,,,,,0,0,0,0,,,,,2,1,25,10,,,,,,,,,,,,,,,,,,,,,1.559,1.367,288.03952049976215,None,,,,,,,,,,,,,,,,,,,,288.5868166000582,289.0972152999602,0.5047003901563585,1.0049366899766028,289.08056750008836,289.19743879977614,289.08056750008836,289.19743879977614,289.18058879999444,None,c,1,0.8086276003159583,289.18058879999444,None,,,,,,44,p26,2022_May_13_0916,training+cueing,2021.1.4,59.992069141717195,
Friend.png,Stranger,Friend,m,3.2,19,29,99,,,,,0,0,0,0,,,,,2,2,26,5,,,,,,,,,,,,,,,,,,,,,1.66,2.03,290.1208199998364,None,,,,,,,,,,,,,,,,,,,,290.66312659997493,291.1654038997367,0.5047920900397003,1.0050194901414216,291.14876329991966,291.26544070011005,291.14876329991966,291.26544070011005,291.2487304001115,None,m,1,0.8687450001016259,291.2487304001115,None,,,,,,44,p26,2022_May_13_0916,training+cueing,2021.1.4,59.992069141717195,
Self.png,Friend,Self ,m,2.1,16,26,96,,,,,0,0,0,0,,,,,2,3,27,1,,,,,,,,,,,,,,,,,,,,,1.614,1.657,292.2423632000573,None,,,,,,,,,,,,,,,,,,,,292.7862915000878,293.3004397000186,0.5101241897791624,1.0104337898083031,293.28371099988,293.40046359971166,293.28371099988,293.40046359971166,293.3837318001315,None,c,0,0.9575633998028934,293.3837318001315,None,,,,,,44,p26,2022_May_13_0916,training+cueing,2021.1.4,59.992069141717195,
Stranger.png,You,Stranger,m,1.3,15,25,95,,,,,0,0,0,0,,,,,2,4,28,6,,,,,,,,,,,,,,,,,,,,,1.731,1.394,294.4755057999864,None,,,,,,,,,,,,,,,,,,,,295.0152171999216,295.5185493999161,0.5061258897185326,1.0064244898967445,295.5018329997547,295.6018591998145,295.5018329997547,295.6018591998145,295.6018591998145,None,None,0,,295.6018591998145,None,,,,,,44,p26,2022_May_13_0916,training+cueing,2021.1.4,59.992069141717195,
Friend.png,You,Friend,m,1.2,14,24,94,,,,,0,0,0,0,,,,,2,5,29,3,,,,,,,,,,,,,,,,,,,,,1.627,2.208,297.44102749973536,None,,,,,,,,,,,,,,,,,,,,297.9822621997446,298.4873298997991,0.5097819897346199,1.0101213897578418,298.4706950997934,298.5707403998822,298.4706950997934,298.5707403998822,298.5707403998822,None,m,1,0.9384373999200761,298.5707403998822,None,,,,,,44,p26,2022_May_13_0916,training+cueing,2021.1.4,59.992069141717195,
Friend.png,Friend,Friend,c,2,12,22,92,,,,,0,0,0,0,,,,,2,6,30,4,,,,,,,,,,,,,,,,,,,,,1.404,2.492,299.6445538001135,None,,,,,,,,,,,,,,,,,,,,300.1864577997476,300.68894460005686,0.5043459902517498,1.0046813902445138,300.67222080007195,300.78900749981403,300.67222080007195,300.78900749981403,300.772272599861,None,None,0,,300.772272599861,None,,,,,,44,p26,2022_May_13_0916,training+cueing,2021.1.4,59.992069141717195,
Self.png,You,Self ,c,1,11,21,91,,,,,0,0,0,0,,,,,2,7,31,0,,,,,,,,,,,,,,,,,,,,,1.656,1.949,302.2939463998191,None,,,,,,,,,,,,,,,,,,,,302.8377828998491,303.34077359968796,0.5063757891766727,1.006737689487636,303.32416989980265,303.42421909980476,303.32416989980265,303.42421909980476,303.42421909980476,None,c,1,0.9009787002578378,303.42421909980476,None,,,,,,44,p26,2022_May_13_0916,training+cueing,2021.1.4,59.992069141717195,
Self.png,You,Self ,c,1,11,21,91,,,,,0,0,0,0,,,,,2,8,32,9,,,,,,,,,,,,,,,,,,,,,1.611,1.393,304.4483552998863,None,,,,,,,,,,,,,,,,,,,,304.99927179981023,305.509054500144,0.5003939899615943,1.0012690899893641,305.49241339974105,305.59244999988005,305.49241339974105,305.59244999988005,305.59244999988005,None,c,1,1.1167878000997007,305.59244999988005,None,,,,,,44,p26,2022_May_13_0916,training+cueing,2021.1.4,59.992069141717195,
Stranger.png,Stranger,Stranger,c,3,13,23,93,,,,,0,0,0,0,,,,,2,9,33,8,,,,,,,,,,,,,,,,,,,,,1.715,2.136,306.83276979997754,None,,,,,,,,,,,,,,,,,,,,307.37431140011176,307.87745440006256,0.505025289952755,1.0053051901049912,307.8607795997523,307.97749170009047,307.8607795997523,307.97749170009047,307.9607767998241,None,None,0,,307.9607767998241,None,,,,,,44,p26,2022_May_13_0916,training+cueing,2021.1.4,59.992069141717195,
Self.png,Stranger,Self ,m,3.1,18,28,98,,,,,0,0,0,0,,,,,2,10,34,2,,,,,,,,,,,,,,,,,,,,,1.737,2.138,309.78294980013743,None,,,,,,,,,,,,,,,,,,,,310.3241173001006,310.82957139983773,0.5111869899556041,1.0114836902357638,310.8129181000404,310.9295965000056,310.8129181000404,310.9295965000056,310.91295940009877,None,m,1,1.0282430998049676,310.91295940009877,None,,,,,,44,p26,2022_May_13_0916,training+cueing,2021.1.4,59.992069141717195,
Stranger.png,Friend,Stranger,m,2.3,17,27,97,,,,,0,0,0,0,,,,,2,11,35,7,,,,,,,,,,,,,,,,,,,,,1.516,2.201,312.07009059982374,None,,,,,,,,,,,,,,,,,,,,312.6165439998731,313.13127229968086,0.5100575899705291,1.010964890010655,313.114564999938,313.23131919978186,313.114564999938,313.23131919978186,313.2145949001424,None,m,1,1.0306917997077107,313.2145949001424,None,,,,,,44,p26,2022_May_13_0916,training+cueing,2021.1.4,59.992069141717195,
Self.png,Friend,Self ,m,2.1,16,26,96,,,,,0,0,0,0,,,,,3,0,36,1,,,,,,,,,,,,,,,,,,,,,1.739,1.812,314.3719476996921,None,,,,,,,,,,,,,,,,,,,,314.9351816000417,315.4497003997676,0.5133446198888123,1.013628619723022,315.43292560009286,315.5496414997615,315.43292560009286,315.5496414997615,315.5329463998787,None,m,1,1.1442597000859678,315.5329463998787,None,,,,,,44,p26,2022_May_13_0916,training+cueing,2021.1.4,59.992069141717195,
Friend.png,Friend,Friend,c,2,12,22,92,,,,,0,0,0,0,,,,,3,1,37,4,,,,,,,,,,,,,,,,,,,,,1.679,1.362,316.8065895996988,None,,,,,,,,,,,,,,,,,,,,317.34515399998054,317.8513103998266,0.5113198896870017,1.0116011900827289,317.83466699998826,317.9513595998287,317.83466699998826,317.9513595998287,317.9346700999886,None,c,1,0.8064421997405589,317.9346700999886,None,,,,,,44,p26,2022_May_13_0916,training+cueing,2021.1.4,59.992069141717195,
Friend.png,You,Friend,m,1.2,14,24,94,,,,,0,0,0,0,,,,,3,2,38,3,,,,,,,,,,,,,,,,,,,,,1.734,1.587,318.87475949991494,None,,,,,,,,,,,,,,,,,,,,319.43257209984586,319.9361566998996,0.5064903195016086,1.0067526195198298,319.91950079984963,320.01954919984564,319.91950079984963,320.01954919984564,320.01954919984564,None,m,1,1.0095295999199152,320.01954919984564,None,,,,,,44,p26,2022_May_13_0916,training+cueing,2021.1.4,59.992069141717195,
Stranger.png,You,Stranger,m,1.3,15,25,95,,,,,0,0,0,0,,,,,3,3,39,6,,,,,,,,,,,,,,,,,,,,,1.507,2.31,321.15997370006517,None,,,,,,,,,,,,,,,,,,,,321.6986527997069,322.2044572997838,0.5109234894625843,1.0111770895309746,322.18778809998184,322.2878437000327,322.18778809998184,322.2878437000327,322.2878437000327,None,m,1,0.9652471002191305,322.2878437000327,None,,,,,,44,p26,2022_May_13_0916,training+cueing,2021.1.4,59.992069141717195,
Self.png,You,Self ,c,1,11,21,91,,,,,0,0,0,0,,,,,3,4,40,0,,,,,,,,,,,,,,,,,,,,,1.791,2.127,323.37742199981585,None,,,,,,,,,,,,,,,,,,,,323.91555169969797,324.42277179984376,0.5109373894520104,1.0115309893153608,324.40608729980886,324.5061336001381,324.40608729980886,324.5061336001381,324.5061336001381,None,c,1,0.7951424000784755,324.5061336001381,None,,,,,,44,p26,2022_May_13_0916,training+cueing,2021.1.4,59.992069141717195,
Self.png,Stranger,Self ,m,3.1,18,28,98,,,,,0,0,0,0,,,,,3,5,41,2,,,,,,,,,,,,,,,,,,,,,1.602,1.336,325.43094460014254,None,,,,,,,,,,,,,,,,,,,,325.9731088997796,326.4742196998559,0.5019047898240387,1.0022568898275495,326.4575493000448,326.57429439993575,326.4575493000448,326.57429439993575,326.5575675996952,None,m,1,0.8399933003820479,326.5575675996952,None,,,,,,44,p26,2022_May_13_0916,training+cueing,2021.1.4,59.992069141717195,
Friend.png,Friend,Friend,c,2,12,22,92,,,,,0,0,0,0,,,,,3,6,42,10,,,,,,,,,,,,,,,,,,,,,1.455,2.014,327.5350462999195,None,,,,,,,,,,,,,,,,,,,,328.08858780004084,328.5924452999607,0.507546619977802,1.007825220003724,328.5757555998862,328.6925018001348,328.5757555998862,328.6925018001348,328.6757688000798,None,c,1,0.8012962997891009,328.6757688000798,None,,,,,,44,p26,2022_May_13_0916,training+cueing,2021.1.4,59.992069141717195,
Stranger.png,Friend,Stranger,m,2.3,17,27,97,,,,,0,0,0,0,,,,,3,7,43,7,,,,,,,,,,,,,,,,,,,,,1.659,1.659,329.5995396999642,None,,,,,,,,,,,,,,,,,,,,330.1354533000849,330.6439148997888,0.514360289555043,1.0146402893587947,330.6272168997675,330.74418469984084,330.6272168997675,330.74418469984084,330.72723610000685,None,m,1,0.8779730000533164,330.72723610000685,None,,,,,,44,p26,2022_May_13_0916,training+cueing,2021.1.4,59.992069141717195,
Friend.png,Stranger,Friend,m,3.2,19,29,99,,,,,0,0,0,0,,,,,3,8,44,5,,,,,,,,,,,,,,,,,,,,,1.596,1.729,331.7342749000527,None,,,,,,,,,,,,,,,,,,,,332.2796189999208,332.778791599907,0.5155506897717714,1.0164331896230578,332.778791599907,332.87883220007643,332.778791599907,332.87883220007643,332.87883220007643,None,m,1,0.7905295002274215,332.87883220007643,None,,,,,,44,p26,2022_May_13_0916,training+cueing,2021.1.4,59.992069141717195,
Stranger.png,Stranger,Stranger,c,3,13,23,93,,,,,0,0,0,0,,,,,3,9,45,11,,,,,,,,,,,,,,,,,,,,,1.432,2.336,333.805877099745,None,,,,,,,,,,,,,,,,,,,,334.34308619983494,334.8469953997992,0.506921490188688,1.0072188898921013,334.83024800010026,334.9469746998511,334.83024800010026,334.9469746998511,334.9303067997098,None,c,1,0.7708551003597677,334.9303067997098,None,,,,,,44,p26,2022_May_13_0916,training+cueing,2021.1.4,59.992069141717195,
Self.png,You,Self ,c,1,11,21,91,,,,,0,0,0,0,,,,,3,10,46,9,,,,,,,,,,,,,,,,,,,,,1.41,1.248,335.8371907998808,None,,,,,,,,,,,,,,,,,,,,336.3937627999112,336.89840060006827,0.5086262198165059,1.0087583200074732,336.88191869994625,336.98181759985164,336.88191869994625,336.98181759985164,336.98181759985164,None,c,1,1.231303900014609,336.98181759985164,None,,,,,,44,p26,2022_May_13_0916,training+cueing,2021.1.4,59.992069141717195,
Stranger.png,Stranger,Stranger,c,3,13,23,93,,,,,0,0,0,0,,,,,3,11,47,8,,,,,,,,,,,,,,,,,,,,,1.469,1.767,338.33975189970806,None,,,,,,,,,,,,,,,,,,,,338.8906807997264,339.40029229968786,0.5027672895230353,1.003050989471376,339.3835414000787,339.500327100046,339.3835414000787,339.500327100046,339.4835891998373,None,c,1,1.2734968001022935,339.4835891998373,None,,,,,,44,p26,2022_May_13_0916,training+cueing,2021.1.4,59.992069141717195,
Self.png,Stranger,Self ,m,3.1,18,28,98,,,,,0,0,0,0,,,,,4,0,48,2,,,,,,,,,,,,,,,,,,,,,1.71,2.126,340.89073149999604,None,,,,,,,,,,,,,,,,,,,,341.4293102999218,341.935341599863,0.5105648897588253,1.0108954897150397,341.9186824001372,342.0354287000373,341.9186824001372,342.0354287000373,342.01874299999326,None,m,1,0.9304280998185277,342.01874299999326,None,,,,,,44,p26,2022_May_13_0916,training+cueing,2021.1.4,59.992069141717195,
Stranger.png,Stranger,Stranger,c,3,13,23,93,,,,,0,0,0,0,,,,,4,1,49,11,,,,,,,,,,,,,,,,,,,,,1.584,2.017,343.07582399994135,None,,,,,,,,,,,,,,,,,,,,343.6147972000763,344.12032780004665,0.5109711899422109,1.0113641899079084,344.103645300027,344.22043550014496,344.103645300027,344.22043550014496,344.20375999994576,None,c,1,0.6812968999147415,344.20375999994576,None,,,,,,44,p26,2022_May_13_0916,training+cueing,2021.1.4,59.992069141717195,
Stranger.png,Friend,Stranger,m,2.3,17,27,97,,,,,0,0,0,0,,,,,4,2,50,7,,,,,,,,,,,,,,,,,,,,,1.539,1.838,345.0107021997683,None,,,,,,,,,,,,,,,,,,,,345.551126500126,346.05505259986967,0.5069953897036612,1.0073917899280787,346.03836459992453,346.15512509969994,346.03836459992453,346.15512509969994,346.13837309973314,None,m,1,1.1467802999541163,346.13837309973314,None,,,,,,44,p26,2022_May_13_0916,training+cueing,2021.1.4,59.992069141717195,
Friend.png,Stranger,Friend,m,3.2,19,29,99,,,,,0,0,0,0,,,,,4,3,51,5,,,,,,,,,,,,,,,,,,,,,1.647,1.749,347.4120383998379,None,,,,,,,,,,,,,,,,,,,,347.951773900073,348.4567883997224,0.5078308898955584,1.0081307902000844,348.440089199692,348.55685879988596,348.440089199692,348.55685879988596,348.5401093000546,None,m,1,0.8409531000070274,348.5401093000546,None,,,,,,44,p26,2022_May_13_0916,training+cueing,2021.1.4,59.992069141717195,
Stranger.png,Stranger,Stranger,c,3,13,23,93,,,,,0,0,0,0,,,,,4,4,52,8,,,,,,,,,,,,,,,,,,,,,1.497,1.874,349.5137545997277,None,,,,,,,,,,,,,,,,,,,,350.0713748000562,350.5749184000306,0.5088358195498586,1.0089226197451353,350.5584660000168,350.67501389980316,350.5584660000168,350.67501389980316,350.65840289974585,None,c,1,0.6908785998821259,350.65840289974585,None,,,,,,44,p26,2022_May_13_0916,training+cueing,2021.1.4,59.992069141717195,
Friend.png,Friend,Friend,c,2,12,22,92,,,,,0,0,0,0,,,,,4,5,53,10,,,,,,,,,,,,,,,,,,,,,1.403,2.023,351.4817508999258,None,,,,,,,,,,,,,,,,,,,,352.02299530012533,352.52638679975644,0.5057768896222115,1.0061112898401916,352.50968569982797,352.626450299751,352.50968569982797,352.626450299751,352.60977360000834,None,c,1,0.7233938002027571,352.60977360000834,None,,,,,,44,p26,2022_May_13_0916,training+cueing,2021.1.4,59.992069141717195,
Friend.png,You,Friend,m,1.2,14,24,94,,,,,0,0,0,0,,,,,4,6,54,3,,,,,,,,,,,,,,,,,,,,,1.548,2.495,353.4668187997304,None,,,,,,,,,,,,,,,,,,,,354.00625579990447,354.5111688999459,0.5068692895583808,1.0071592894382775,354.49448949983343,354.59449909999967,354.49448949983343,354.59449909999967,354.59449909999967,None,m,1,0.8505509998649359,354.59449909999967,None,,,,,,44,p26,2022_May_13_0916,training+cueing,2021.1.4,59.992069141717195,
Friend.png,Friend,Friend,c,2,12,22,92,,,,,0,0,0,0,,,,,4,7,55,4,,,,,,,,,,,,,,,,,,,,,1.523,1.238,355.56760369986296,None,,,,,,,,,,,,,,,,,,,,356.1091295001097,356.61265699984506,0.5060615902766585,1.0063766902312636,356.5959700997919,356.7127132997848,356.5959700997919,356.7127132997848,356.6960316998884,None,c,1,1.053107500076294,356.6960316998884,None,,,,,,44,p26,2022_May_13_0916,training+cueing,2021.1.4,59.992069141717195,
Self.png,Friend,Self ,m,2.1,16,26,96,,,,,0,0,0,0,,,,,4,8,56,1,,,,,,,,,,,,,,,,,,,,,1.427,2.484,357.8863157997839,None,,,,,,,,,,,,,,,,,,,,358.42432369990274,358.9310264997184,0.5105015900917351,1.0107717900536954,358.914344899822,359.0310601000674,358.914344899822,359.0310601000674,359.01437699981034,None,m,1,0.7667225999757648,359.01437699981034,None,,,,,,44,p26,2022_May_13_0916,training+cueing,2021.1.4,59.992069141717195,
Self.png,You,Self ,c,1,11,21,91,,,,,0,0,0,0,,,,,4,9,57,9,,,,,,,,,,,,,,,,,,,,,1.632,1.353,359.9047642997466,None,,,,,,,,,,,,,,,,,,,,360.4546381998807,360.965903500095,0.5057436898350716,1.0058639897033572,360.94929739972576,361.0491919000633,360.94929739972576,361.0491919000633,361.0491919000633,None,c,1,0.7959263999946415,361.0491919000633,None,,,,,,44,p26,2022_May_13_0916,training+cueing,2021.1.4,59.992069141717195,
Stranger.png,You,Stranger,m,1.3,15,25,95,,,,,0,0,0,0,,,,,4,10,58,6,,,,,,,,,,,,,,,,,,,,,1.613,2.335,361.9727285997942,None,,,,,,,,,,,,,,,,,,,,362.51156539982185,363.01731800008565,0.510787789709866,1.011106989812106,363.00065209995955,363.1006922000088,363.00065209995955,363.1006922000088,363.1006922000088,None,m,1,0.8404581998474896,363.1006922000088,None,,,,,,44,p26,2022_May_13_0916,training+cueing,2021.1.4,59.992069141717195,
Self.png,You,Self ,c,1,11,21,91,,,,,0,0,0,0,,,,,4,11,59,0,,,,,,,,,,,,,,,,,,,,,1.695,1.355,364.07497499976307,None,,,,,,,,,,,,,,,,,,,,364.61214300012216,365.11876330012456,0.510795489884913,1.0112924897111952,365.1021646000445,365.20219939993694,365.1021646000445,365.20219939993694,365.20219939993694,None,None,0,,365.20219939993694,None,,,,,,44,p26,2022_May_13_0916,training+cueing,2021.1.4,59.992069141717195,
Friend.png,You,Friend,m,1.2,14,24,94,,,,,0,0,0,0,,,,,5,0,60,3,,,,,,,,,,,,,,,,,,,,,1.523,1.731,367.00733970012516,None,,,,,,,,,,,,,,,,,,,,367.54830570006743,368.05430730013177,0.5106796897016466,1.010999989695847,368.03756969980896,368.1376704000868,368.03756969980896,368.1376704000868,368.1376704000868,None,m,1,0.8275415999814868,368.1376704000868,None,,,,,,44,p26,2022_May_13_0916,training+cueing,2021.1.4,59.992069141717195,
Stranger.png,Friend,Stranger,m,2.3,17,27,97,,,,,0,0,0,0,,,,,5,1,61,7,,,,,,,,,,,,,,,,,,,,,1.736,2.027,369.09546309988946,None,,,,,,,,,,,,,,,,,,,,369.6390277999453,370.13912339974195,0.5008096895180643,1.001095389481634,370.1224517999217,370.2391566997394,370.1224517999217,370.2391566997394,370.2391566997394,None,m,1,0.8699368997476995,370.2391566997394,None,,,,,,44,p26,2022_May_13_0916,training+cueing,2021.1.4,59.992069141717195,
Friend.png,Friend,Friend,c,2,12,22,92,,,,,0,0,0,0,,,,,5,2,62,4,,,,,,,,,,,,,,,,,,,,,1.482,1.669,371.24626819975674,None,,,,,,,,,,,,,,,,,,,,371.7845032000914,372.29078239994124,0.5106614897958934,1.0107197896577418,372.27419509971514,372.3907449999824,372.27419509971514,372.3907449999824,372.37405139999464,None,c,1,0.7030158000998199,372.37405139999464,None,,,,,,44,p26,2022_May_13_0916,training+cueing,2021.1.4,59.992069141717195,
Self.png,Stranger,Self ,m,3.1,18,28,98,,,,,0,0,0,0,,,,,5,3,63,2,,,,,,,,,,,,,,,,,,,,,1.792,1.915,373.21425969991833,None,,,,,,,,,,,,,,,,,,,,373.7566959997639,374.2587675000541,0.5054668900556862,1.00575389014557,374.24208719981834,374.3588406997733,374.24208719981834,374.3588406997733,374.34216769970953,None,m,1,0.9428992001339793,374.34216769970953,None,,,,,,44,p26,2022_May_13_0916,training+cueing,2021.1.4,59.992069141717195,
Stranger.png,Stranger,Stranger,c,3,13,23,93,,,,,0,0,0,0,,,,,5,4,64,8,,,,,,,,,,,,,,,,,,,,,1.565,2.076,375.4156550997868,None,,,,,,,,,,,,,,,,,,,,375.9523648000322,376.4603498997167,0.5128634897992015,1.013164590112865,376.44367050006986,376.5603597997688,376.44367050006986,376.5603597997688,376.5436964998953,None,c,1,1.0454231002368033,376.5436964998953,None,,,,,,44,p26,2022_May_13_0916,training+cueing,2021.1.4,59.992069141717195,
Stranger.png,Stranger,Stranger,c,3,13,23,93,,,,,0,0,0,0,,,,,5,5,65,11,,,,,,,,,,,,,,,,,,,,,1.758,2.479,377.71689540008083,None,,,,,,,,,,,,,,,,,,,,378.2740803998895,378.77871390013024,0.5097431195899844,1.0099802198819816,378.76204069983214,378.8787471000105,378.76204069983214,378.8787471000105,378.8620429998264,None,c,1,0.6950779003091156,378.8620429998264,None,,,,,,44,p26,2022_May_13_0916,training+cueing,2021.1.4,59.992069141717195,
Self.png,You,Self ,c,1,11,21,91,,,,,0,0,0,0,,,,,5,6,66,0,,,,,,,,,,,,,,,,,,,,,1.616,1.623,379.6851920001209,None,,,,,,,,,,,,,,,,,,,,380.2259404999204,380.7301214998588,0.5072442898526788,1.0075741899199784,380.71340909972787,380.81348649971187,380.71340909972787,380.81348649971187,380.81348649971187,None,c,1,0.7755869003012776,380.81348649971187,None,,,,,,44,p26,2022_May_13_0916,training+cueing,2021.1.4,59.992069141717195,
Friend.png,Stranger,Friend,m,3.2,19,29,99,,,,,0,0,0,0,,,,,5,7,67,5,,,,,,,,,,,,,,,,,,,,,1.683,1.423,381.72025039978325,None,,,,,,,,,,,,,,,,,,,,382.2720746998675,382.78159389970824,0.5001203902065754,1.001002190168947,382.7649161000736,382.8816546997987,382.7649161000736,382.8816546997987,382.8816546997987,None,m,1,0.8355770003981888,382.8816546997987,None,,,,,,44,p26,2022_May_13_0916,training+cueing,2021.1.4,59.992069141717195,
Friend.png,Friend,Friend,c,2,12,22,92,,,,,0,0,0,0,,,,,5,8,68,10,,,,,,,,,,,,,,,,,,,,,1.729,2.367,383.84002029988915,None,,,,,,,,,,,,,,,,,,,,384.38177859969437,384.883095999714,0.5033032898791134,1.0041401898488402,384.86645539989695,384.9831503997557,384.86645539989695,384.9831503997557,384.9664574000053,None,c,1,0.8307302999310195,384.9664574000053,None,,,,,,44,p26,2022_May_13_0916,training+cueing,2021.1.4,59.992069141717195,
Self.png,You,Self ,c,1,11,21,91,,,,,0,0,0,0,,,,,5,9,69,9,,,,,,,,,,,,,,,,,,,,,1.735,1.398,385.924459700007,None,,,,,,,,,,,,,,,,,,,,386.4647145001218,386.96795499976724,0.5070466892793775,1.0073972893878818,386.951234200038,387.0513021000661,386.951234200038,387.0513021000661,387.0513021000661,None,c,1,0.8097713002935052,387.0513021000661,None,,,,,,44,p26,2022_May_13_0916,training+cueing,2021.1.4,59.992069141717195,
Stranger.png,You,Stranger,m,1.3,15,25,95,,,,,0,0,0,0,,,,,5,10,70,6,,,,,,,,,,,,,,,,,,,,,1.709,2.074,387.99146599974483,None,,,,,,,,,,,,,,,,,,,,388.5301667000167,389.03612389974296,0.5107827899046242,1.0115385898388922,389.0194617998786,389.11953220004216,389.0194617998786,389.11953220004216,389.11953220004216,None,m,1,0.7737676999531686,389.11953220004216,None,,,,,,44,p26,2022_May_13_0916,training+cueing,2021.1.4,59.992069141717195,
Self.png,Friend,Self ,m,2.1,16,26,96,,,,,0,0,0,0,,,,,5,11,71,1,,,,,,,,,,,,,,,,,,,,,1.714,1.818,390.03028499986976,None,,,,,,,,,,,,,,,,,,,,390.56974550010636,391.07092839991674,0.5033767893910408,1.0036453898064792,391.0542636997998,391.17108729993924,391.0542636997998,391.17108729993924,391.1545075001195,None,m,1,0.9465781999751925,391.1545075001195,None,,,,,,44,p26,2022_May_13_0916,training+cueing,2021.1.4,59.992069141717195,
Stranger.png,Stranger,Stranger,c,3,13,23,93,,,,,0,0,0,0,,,,,6,0,72,11,,,,,,,,,,,,,,,,,,,,,1.633,1.966,392.22798570012674,None,,,,,,,,,,,,,,,,,,,,392.7674354999326,393.27409770013765,0.5069234897382557,1.0238824896514416,393.2558307000436,393.37253580009565,393.2558307000436,393.37253580009565,393.3558404999785,None,m,0,0.8574165003374219,393.3558404999785,None,,,,,,44,p26,2022_May_13_0916,training+cueing,2021.1.4,59.992069141717195,
Self.png,You,Self ,c,1,11,21,91,,,,,0,0,0,0,,,,,6,1,73,0,,,,,,,,,,,,,,,,,,,,,1.665,1.32,394.3493768000044,None,,,,,,,,,,,,,,,,,,,,394.88889859989285,395.3906769999303,0.5037254896014929,1.0040426896885037,395.3739930000156,395.47407929971814,395.3739930000156,395.47407929971814,395.47407929971814,None,c,1,0.8511239001527429,395.47407929971814,None,,,,,,44,p26,2022_May_13_0916,training+cueing,2021.1.4,59.992069141717195,
Friend.png,Friend,Friend,c,2,12,22,92,,,,,0,0,0,0,,,,,6,2,74,4,,,,,,,,,,,,,,,,,,,,,1.592,1.533,396.44745570002124,None,,,,,,,,,,,,,,,,,,,,397.0015364000574,397.5088760997169,0.5145439198240638,1.014989220071584,397.4922103998251,397.6092356001027,397.4922103998251,397.6092356001027,397.59224689984694,None,c,1,0.9568507997319102,397.59224689984694,None,,,,,,44,p26,2022_May_13_0916,training+cueing,2021.1.4,59.992069141717195,
Friend.png,Stranger,Friend,m,3.2,19,29,99,,,,,0,0,0,0,,,,,6,3,75,5,,,,,,,,,,,,,,,,,,,,,1.587,1.748,398.68303690012544,None,,,,,,,,,,,,,,,,,,,,399.22429479984567,399.727123899851,0.5033297897316515,1.0035441895015538,399.7105482998304,399.8271900000982,399.7105482998304,399.8271900000982,399.8105397000909,None,m,1,0.8025635001249611,399.8105397000909,None,,,,,,44,p26,2022_May_13_0916,training+cueing,2021.1.4,59.992069141717195,
Friend.png,You,Friend,m,1.2,14,24,94,,,,,0,0,0,0,,,,,6,4,76,3,,,,,,,,,,,,,,,,,,,,,1.59,1.95,400.75021039973944,None,,,,,,,,,,,,,,,,,,,,401.2936877999455,401.79529919987544,0.5068063898943365,1.0072037898935378,401.7786483997479,401.87870759982616,401.7786483997479,401.87870759982616,401.87870759982616,None,m,1,1.0064075998961926,401.87870759982616,None,,,,,,44,p26,2022_May_13_0916,training+cueing,2021.1.4,59.992069141717195,
Stranger.png,Friend,Stranger,m,2.3,17,27,97,,,,,0,0,0,0,,,,,6,5,77,7,,,,,,,,,,,,,,,,,,,,,1.617,2.148,403.0186560000293,None,,,,,,,,,,,,,,,,,,,,403.5608946001157,404.0636447998695,0.5062417895533144,1.0064801895059645,404.0470083998516,404.16370269982144,404.0470083998516,404.16370269982144,404.14705159980804,None,m,1,0.9141172003000975,404.14705159980804,None,,,,,,44,p26,2022_May_13_0916,training+cueing,2021.1.4,59.992069141717195,
Stranger.png,Stranger,Stranger,c,3,13,23,93,,,,,0,0,0,0,,,,,6,6,78,8,,,,,,,,,,,,,,,,,,,,,1.613,2.085,405.1874607997015,None,,,,,,,,,,,,,,,,,,,,405.726652899757,406.23188180010766,0.5081979897804558,1.0084851901046932,406.2151978998445,406.33191990014166,406.2151978998445,406.33191990014166,406.31524370005354,None,c,1,0.4899298003874719,406.31524370005354,None,,,,,,44,p26,2022_May_13_0916,training+cueing,2021.1.4,59.992069141717195,
Self.png,Friend,Self ,m,2.1,16,26,96,,,,,0,0,0,0,,,,,6,7,79,1,,,,,,,,,,,,,,,,,,,,,1.524,2.336,406.93853389983997,None,,,,,,,,,,,,,,,,,,,,407.4807770997286,407.9831056999974,0.5061702900566161,1.0064652902074158,407.9664797997102,408.08321709977463,407.9664797997102,408.08321709977463,408.06650710012764,None,m,1,0.722450700122863,408.06650710012764,None,,,,,,44,p26,2022_May_13_0916,training+cueing,2021.1.4,59.992069141717195,
Stranger.png,You,Stranger,m,1.3,15,25,95,,,,,0,0,0,0,,,,,6,8,80,6,,,,,,,,,,,,,,,,,,,,,1.75,2.361,408.92324119992554,None,,,,,,,,,,,,,,,,,,,,409.4843068998307,409.984793999698,0.49949111975729465,0.9998017200268805,409.9681015997194,410.0679554999806,409.9681015997194,410.0679554999806,410.0679554999806,None,m,1,0.8172867000102997,410.0679554999806,None,,,,,,44,p26,2022_May_13_0916,training+cueing,2021.1.4,59.992069141717195,
Friend.png,Friend,Friend,c,2,12,22,92,,,,,0,0,0,0,,,,,6,9,81,10,,,,,,,,,,,,,,,,,,,,,1.759,2.425,411.00977319991216,None,,,,,,,,,,,,,,,,,,,,411.55187049973756,412.0527328001335,0.5022771898657084,1.0025375899858773,412.03610529983416,412.1527860998176,412.03610529983416,412.1527860998176,412.1360963997431,None,c,1,0.7650628997944295,412.1360963997431,None,,,,,,44,p26,2022_May_13_0916,training+cueing,2021.1.4,59.992069141717195,
Self.png,You,Self ,c,1,11,21,91,,,,,0,0,0,0,,,,,6,10,82,9,,,,,,,,,,,,,,,,,,,,,1.755,2.245,413.03033250011504,None,,,,,,,,,,,,,,,,,,,,413.5670145996846,414.0709397997707,0.5078419898636639,1.0081678899005055,414.0542027996853,414.1542058000341,414.0542027996853,414.1542058000341,414.1542058000341,None,c,1,0.7470945999957621,414.1542058000341,None,,,,,,44,p26,2022_May_13_0916,training+cueing,2021.1.4,59.992069141717195,
Self.png,Stranger,Self ,m,3.1,18,28,98,,,,,0,0,0,0,,,,,6,11,83,2,,,,,,,,,,,,,,,,,,,,,1.51,1.421,415.0316824000329,None,,,,,,,,,,,,,,,,,,,,415.57193449977785,416.07231710013,0.49909778917208314,0.9993746895343065,416.0556652001105,416.1723575000651,416.0556652001105,416.1723575000651,416.1723575000651,None,m,1,0.8406704002991319,416.1723575000651,None,,,,,,44,p26,2022_May_13_0916,training+cueing,2021.1.4,59.992069141717195,
Friend.png,Friend,Friend,c,2,12,22,92,,,,,0,0,0,0,,,,,7,0,84,10,,,,,,,,,,,,,,,,,,,,,1.598,1.407,417.1457889000885,None,,,,,,,,,,,,,,,,,,,,417.6879062997177,418.1907184999436,0.5062757898122072,1.006568490061909,418.1740743997507,418.29077949980274,418.1740743997507,418.29077949980274,418.2741108997725,None,c,1,0.962947600055486,418.2741108997725,None,,,,,,44,p26,2022_May_13_0916,training+cueing,2021.1.4,59.992069141717195,
Self.png,You,Self ,c,1,11,21,91,,,,,0,0,0,0,,,,,7,1,85,0,,,,,,,,,,,,,,,,,,,,,1.787,1.775,419.36514679994434,None,,,,,,,,,,,,,,,,,,,,419.9046604000032,420.4087984999642,0.5072437897324562,1.008133789524436,420.3920938000083,420.4921468999237,420.3920938000083,420.4921468999237,420.4921468999237,None,c,1,0.8409283002838492,420.4921468999237,None,,,,,,44,p26,2022_May_13_0916,training+cueing,2021.1.4,59.992069141717195,
Self.png,Friend,Self ,m,2.1,16,26,96,,,,,0,0,0,0,,,,,7,2,86,1,,,,,,,,,,,,,,,,,,,,,1.468,1.341,421.4673064998351,None,,,,,,,,,,,,,,,,,,,,422.00865270011127,422.5102992998436,0.5028252894990146,1.0037385895848274,422.4936035000719,422.6103698001243,422.4936035000719,422.6103698001243,422.59365910012275,None,m,1,0.7713900003582239,422.59365910012275,None,,,,,,44,p26,2022_May_13_0916,training+cueing,2021.1.4,59.992069141717195,
Stranger.png,Friend,Stranger,m,2.3,17,27,97,,,,,0,0,0,0,,,,,7,3,87,7,,,,,,,,,,,,,,,,,,,,,1.61,2.402,423.50209040008485,None,,,,,,,,,,,,,,,,,,,,424.0408936999738,424.5451362999156,0.507539089769125,1.007862189784646,424.528453100007,424.64518969971687,424.528453100007,424.64518969971687,424.628484999761,None,m,1,1.008601499721408,424.628484999761,None,,,,,,44,p26,2022_May_13_0916,training+cueing,2021.1.4,59.992069141717195,
Self.png,Stranger,Self ,m,3.1,18,28,98,,,,,0,0,0,0,,,,,7,4,88,2,,,,,,,,,,,,,,,,,,,,,1.511,2.41,425.7698520999402,None,,,,,,,,,,,,,,,,,,,,426.3111823000945,426.8134113997221,0.5032181898131967,1.0041152900084853,426.79671210004017,426.9134730999358,426.79671210004017,426.9134730999358,426.89675189973786,None,m,1,0.8522419999353588,426.89675189973786,None,,,,,,44,p26,2022_May_13_0916,training+cueing,2021.1.4,59.992069141717195,
Friend.png,Stranger,Friend,m,3.2,19,29,99,,,,,0,0,0,0,,,,,7,5,89,5,,,,,,,,,,,,,,,,,,,,,1.508,1.733,427.8871736000292,None,,,,,,,,,,,,,,,,,,,,428.4271177998744,428.93162159994245,0.5096313897520304,1.009732089471072,428.9150684000924,429.03166869981214,428.9150684000924,429.03166869981214,429.0149865997955,None,m,1,0.6859571998938918,429.0149865997955,None,,,,,,44,p26,2022_May_13_0916,training+cueing,2021.1.4,59.992069141717195,
Stranger.png,Stranger,Stranger,c,3,13,23,93,,,,,0,0,0,0,,,,,7,6,90,11,,,,,,,,,,,,,,,,,,,,,1.708,2.338,429.8384893001057,None,,,,,,,,,,,,,,,,,,,,430.37939559994265,430.88301769969985,0.5079989903606474,1.0080606900155544,430.8665811996907,430.9830625997856,430.8665811996907,430.9830625997856,430.9663768000901,None,c,1,0.6706477999687195,430.9663768000901,None,,,,,,44,p26,2022_May_13_0916,training+cueing,2021.1.4,59.992069141717195,
Friend.png,You,Friend,m,1.2,14,24,94,,,,,0,0,0,0,,,,,7,7,91,3,,,,,,,,,,,,,,,,,,,,,1.79,2.149,431.7730132001452,None,,,,,,,,,,,,,,,,,,,,432.33347850013524,432.8344960999675,0.501548619940877,1.001682719681412,432.817912499886,432.91780429985374,432.817912499886,432.91780429985374,432.91780429985374,None,m,1,0.8152119000442326,432.91780429985374,None,,,,,,44,p26,2022_May_13_0916,training+cueing,2021.1.4,59.992069141717195,
Stranger.png,Stranger,Stranger,c,3,13,23,93,,,,,0,0,0,0,,,,,7,8,92,8,,,,,,,,,,,,,,,,,,,,,1.403,2.488,433.8590385997668,None,,,,,,,,,,,,,,,,,,,,434.4017130997963,434.90272059990093,0.5013991896994412,1.0017307894304395,434.88601050013676,435.00279119983315,434.88601050013676,435.00279119983315,435.00279119983315,None,c,1,1.0502573996782303,435.00279119983315,None,,,,,,44,p26,2022_May_13_0916,training+cueing,2021.1.4,59.992069141717195,
Self.png,You,Self ,c,1,11,21,91,,,,,0,0,0,0,,,,,7,9,93,9,,,,,,,,,,,,,,,,,,,,,1.759,1.322,436.1765886996873,None,,,,,,,,,,,,,,,,,,,,436.71954179974273,437.2209544000216,0.5039296899922192,1.0042317900806665,437.2042519999668,437.30429589981213,437.2042519999668,437.30429589981213,437.30429589981213,None,c,1,0.828757300041616,437.30429589981213,None,,,,,,44,p26,2022_May_13_0916,training+cueing,2021.1.4,59.992069141717195,
Stranger.png,You,Stranger,m,1.3,15,25,95,,,,,0,0,0,0,,,,,7,10,94,6,,,,,,,,,,,,,,,,,,,,,1.637,1.916,438.2617820999585,None,,,,,,,,,,,,,,,,,,,,438.800764599815,439.3058146997355,0.5073166894726455,1.0075644897297025,439.2891263999045,439.38920630002394,439.2891263999045,439.38920630002394,439.38920630002394,None,m,1,0.7277933000586927,439.38920630002394,None,,,,,,44,p26,2022_May_13_0916,training+cueing,2021.1.4,59.992069141717195,
Friend.png,Friend,Friend,c,2,12,22,92,,,,,0,0,0,0,,,,,7,11,95,4,,,,,,,,,,,,,,,,,,,,,1.518,1.94,440.2463263999671,None,,,,,,,,,,,,,,,,,,,,440.808670300059,441.32389979995787,0.5140655199065804,1.0143649196252227,441.30719910003245,441.4239608999342,441.30719910003245,441.4239608999342,441.4072273001075,None,c,1,0.853816700167954,441.4072273001075,None,,,,,,44,p26,2022_May_13_0916,training+cueing,2021.1.4,59.992069141717195,
Self.png,You,Self ,c,1,11,21,91,,,,,0,0,0,0,,,,,8,0,96,0,,,,,,,,,,,,,,,,,,,,,1.452,2.476,442.39716910012066,None,,,,,,,,,,,,,,,,,,,,442.9359987000935,443.44224119978026,0.510439089499414,1.010857889894396,443.4255311000161,443.52561419969425,443.4255311000161,443.52561419969425,443.52561419969425,None,c,1,0.863465300295502,443.52561419969425,None,,,,,,44,p26,2022_May_13_0916,training+cueing,2021.1.4,59.992069141717195,
Self.png,Friend,Self ,m,2.1,16,26,96,,,,,0,0,0,0,,,,,8,1,97,1,,,,,,,,,,,,,,,,,,,,,1.669,2.393,444.51526309968904,None,,,,,,,,,,,,,,,,,,,,445.0580448997207,445.5603009001352,0.5051336893811822,1.0053959893994033,445.54363670013845,445.66035360004753,445.54363670013845,445.66035360004753,445.6436654999852,None,m,1,0.9213919001631439,445.6436654999852,None,,,,,,44,p26,2022_May_13_0916,training+cueing,2021.1.4,59.992069141717195,
Self.png,You,Self ,c,1,11,21,91,,,,,0,0,0,0,,,,,8,2,98,9,,,,,,,,,,,,,,,,,,,,,1.455,1.329,446.7001772997901,None,,,,,,,,,,,,,,,,,,,,447.24227399984375,447.7452103998512,0.5066064898855984,1.0068945898674428,447.7285390999168,447.82858969969675,447.7285390999168,447.82858969969675,447.82858969969675,None,c,1,0.8483183002099395,447.82858969969675,None,,,,,,44,p26,2022_May_13_0916,training+cueing,2021.1.4,59.992069141717195,
Friend.png,Friend,Friend,c,2,12,22,92,,,,,0,0,0,0,,,,,8,3,99,4,,,,,,,,,,,,,,,,,,,,,1.682,2.496,448.80213159974664,None,,,,,,,,,,,,,,,,,,,,449.34168339986354,449.8467482998967,0.5073829903267324,1.0076130903325975,449.8300632000901,449.9467589999549,449.8300632000901,449.9467589999549,449.93009930010885,None,c,1,0.714786899741739,449.93009930010885,None,,,,,,44,p26,2022_May_13_0916,training+cueing,2021.1.4,59.992069141717195,
Stranger.png,You,Stranger,m,1.3,15,25,95,,,,,0,0,0,0,,,,,8,4,100,6,,,,,,,,,,,,,,,,,,,,,1.726,1.626,450.77067440003157,None,,,,,,,,,,,,,,,,,,,,451.31067920010537,451.81489149993286,0.5069523896090686,1.007213689852506,451.798149399925,451.8981722998433,451.798149399925,451.8981722998433,451.8981722998433,None,m,1,1.354821499902755,451.8981722998433,None,,,,,,44,p26,2022_May_13_0916,training+cueing,2021.1.4,59.992069141717195,
Stranger.png,Stranger,Stranger,c,3,13,23,93,,,,,0,0,0,0,,,,,8,5,101,11,,,,,,,,,,,,,,,,,,,,,1.479,1.489,453.3889403999783,None,,,,,,,,,,,,,,,,,,,,453.9305551000871,454.4333918998018,0.5049572899006307,1.005846789572388,454.41668740008026,454.5340297999792,454.41668740008026,454.5340297999792,454.51673549972475,None,c,1,0.8163427002727985,454.51673549972475,None,,,,,,44,p26,2022_May_13_0916,training+cueing,2021.1.4,59.992069141717195,
Friend.png,Friend,Friend,c,2,12,22,92,,,,,0,0,0,0,,,,,8,6,102,10,,,,,,,,,,,,,,,,,,,,,1.495,1.807,455.4584564999677,None,,,,,,,,,,,,,,,,,,,,456.0095740999095,456.51820620009676,0.499300719704479,0.9995310199446976,456.4848776999861,456.5848972001113,456.4848776999861,456.5848972001113,456.5848972001113,None,c,1,0.732067400123924,456.5848972001113,None,,,,,,44,p26,2022_May_13_0916,training+cueing,2021.1.4,59.992069141717195,
Stranger.png,Stranger,Stranger,c,3,13,23,93,,,,,0,0,0,0,,,,,8,7,103,8,,,,,,,,,,,,,,,,,,,,,1.593,1.232,457.44121570000425,None,,,,,,,,,,,,,,,,,,,,457.98338049976155,458.48630400002,0.505928189959377,1.0062475898303092,458.46964989975095,458.586344699841,458.46964989975095,458.586344699841,458.5696423999034,None,c,1,0.8914371998980641,458.5696423999034,None,,,,,,44,p26,2022_May_13_0916,training+cueing,2021.1.4,59.992069141717195,
Friend.png,Stranger,Friend,m,3.2,19,29,99,,,,,0,0,0,0,,,,,8,8,104,5,,,,,,,,,,,,,,,,,,,,,1.578,2.452,459.5933928997256,None,,,,,,,,,,,,,,,,,,,,460.13127660006285,460.63795300014317,0.5101397894322872,1.0104425894096494,460.6211696998216,460.7381146000698,460.6211696998216,460.7381146000698,460.7215084997006,None,m,1,0.7553703002631664,460.7215084997006,None,,,,,,44,p26,2022_May_13_0916,training+cueing,2021.1.4,59.992069141717195,
Friend.png,You,Friend,m,1.2,14,24,94,,,,,0,0,0,0,,,,,8,9,105,3,,,,,,,,,,,,,,,,,,,,,1.689,1.566,461.6112358998507,None,,,,,,,,,,,,,,,,,,,,462.152901600115,462.6559971999377,0.5064342897385359,1.0066995895467699,462.63937079999596,462.739461499732,462.63937079999596,462.739461499732,462.739461499732,None,m,1,1.2654293002560735,462.739461499732,None,,,,,,44,p26,2022_May_13_0916,training+cueing,2021.1.4,59.992069141717195,
Self.png,Stranger,Self ,m,3.1,18,28,98,,,,,0,0,0,0,,,,,8,10,106,2,,,,,,,,,,,,,,,,,,,,,1.538,1.426,464.1298885997385,None,,,,,,,,,,,,,,,,,,,,464.67336299968883,465.1744590997696,0.5024692895822227,1.0028170896694064,465.1578219998628,465.27455749968067,465.1578219998628,465.27455749968067,465.25781890004873,None,m,1,1.0193052999675274,465.25781890004873,None,,,,,,44,p26,2022_May_13_0916,training+cueing,2021.1.4,59.992069141717195,
Stranger.png,Friend,Stranger,m,2.3,17,27,97,,,,,0,0,0,0,,,,,8,11,107,7,,,,,,,,,,,,,,,,,,,,,1.437,2.001,466.41529899975285,None,,,,,,,,,,,,,,,,,,,,466.95803890004754,467.45942820003256,0.5005241893231869,1.0008284896612167,467.44278070004657,467.55946630006656,467.44278070004657,467.55946630006656,467.55946630006656,None,m,1,1.2454860997386277,467.55946630006656,None,,,,,,44,p26,2022_May_13_0916,training+cueing,2021.1.4,59.992069141717195,
Stranger.png,Stranger,Stranger,c,3,13,23,93,,,,,0,0,0,0,,,,,9,0,108,8,,,,,,,,,,,,,,,,,,,,,1.45,1.65,468.93351140012965,None,,,,,,,,,,,,,,,,,,,,469.475009100046,469.9779869001359,0.5062572895549238,1.006743389647454,469.9613113999367,470.07797549990937,469.9613113999367,470.07797549990937,470.0612500999123,None,c,1,0.9356860998086631,470.0612500999123,None,,,,,,44,p26,2022_May_13_0916,training+cueing,2021.1.4,59.992069141717195,
Friend.png,You,Friend,m,1.2,14,24,94,,,,,0,0,0,0,,,,,9,1,109,3,,,,,,,,,,,,,,,,,,,,,1.787,2.073,471.13504229998216,None,,,,,,,,,,,,,,,,,,,,471.6779757998884,472.1795681999065,0.5049324901774526,1.0052166902460158,472.162888799794,472.262935699895,472.162888799794,472.262935699895,472.262935699895,None,m,1,0.7978777000680566,472.262935699895,None,,,,,,44,p26,2022_May_13_0916,training+cueing,2021.1.4,59.992069141717195,
Friend.png,Friend,Friend,c,2,12,22,92,,,,,0,0,0,0,,,,,9,2,110,4,,,,,,,,,,,,,,,,,,,,,1.443,1.789,473.18683329969645,None,,,,,,,,,,,,,,,,,,,,473.7281900998205,474.2312238998711,0.5048074899241328,1.0051416899077594,474.2144371997565,474.33123279968277,474.2144371997565,474.33123279968277,474.31449189968407,None,c,1,0.7304035001434386,474.31449189968407,None,,,,,,44,p26,2022_May_13_0916,training+cueing,2021.1.4,59.992069141717195,
Friend.png,Stranger,Friend,m,3.2,19,29,99,,,,,0,0,0,0,,,,,9,3,111,5,,,,,,,,,,,,,,,,,,,,,1.678,2.16,475.1711975997314,None,,,,,,,,,,,,,,,,,,,,475.71302439970896,476.21573669975623,0.5068246899172664,1.0077202897518873,476.1991288997233,476.3158905999735,476.1991288997233,476.3158905999735,476.29918200010434,None,m,1,0.7938874000683427,476.29918200010434,None,,,,,,44,p26,2022_May_13_0916,training+cueing,2021.1.4,59.992069141717195,
Self.png,Friend,Self ,m,2.1,16,26,96,,,,,0,0,0,0,,,,,9,4,112,1,,,,,,,,,,,,,,,,,,,,,1.744,2.309,477.2235292997211,None,,,,,,,,,,,,,,,,,,,,477.77719620009884,478.28395369974896,0.5118449199944735,1.012734720017761,478.2673156000674,478.3839786997996,478.2673156000674,478.3839786997996,478.3673271997832,None,m,1,0.9657776998355985,478.3673271997832,None,,,,,,44,p26,2022_May_13_0916,training+cueing,2021.1.4,59.992069141717195,
Stranger.png,Stranger,Stranger,c,3,13,23,93,,,,,0,0,0,0,,,,,9,5,113,11,,,,,,,,,,,,,,,,,,,,,1.489,2.017,479.4620302999392,None,,,,,,,,,,,,,,,,,,,,480.00230679987,480.5022340998985,0.5005945893935859,1.0008812891319394,480.4855613000691,480.6023090998642,480.4855613000691,480.6023090998642,480.6023090998642,None,c,1,0.8265852001495659,480.6023090998642,None,,,,,,44,p26,2022_May_13_0916,training+cueing,2021.1.4,59.992069141717195,
Friend.png,Friend,Friend,c,2,12,22,92,,,,,0,0,0,0,,,,,9,6,114,10,,,,,,,,,,,,,,,,,,,,,1.528,2.13,481.5591679001227,None,,,,,,,,,,,,,,,,,,,,482.10338220000267,482.60375599982217,0.5015323893167078,1.001828289590776,482.5870533999987,482.70379990013316,482.5870533999987,482.70379990013316,482.70379990013316,None,c,1,0.7092319997027516,482.70379990013316,None,,,,,,44,p26,2022_May_13_0916,training+cueing,2021.1.4,59.992069141717195,
Stranger.png,You,Stranger,m,1.3,15,25,95,,,,,0,0,0,0,,,,,9,7,115,6,,,,,,,,,,,,,,,,,,,,,1.738,1.391,483.5437150998041,None,,,,,,,,,,,,,,,,,,,,484.08399740001187,484.58860919997096,0.5058852895163,1.0061662895604968,484.57184009999037,484.67188359983265,484.57184009999037,484.67188359983265,484.67188359983265,None,m,1,0.8210673998109996,484.67188359983265,None,,,,,,44,p26,2022_May_13_0916,training+cueing,2021.1.4,59.992069141717195,
Self.png,Stranger,Self ,m,3.1,18,28,98,,,,,0,0,0,0,,,,,9,8,116,2,,,,,,,,,,,,,,,,,,,,,1.776,1.631,485.6305239996873,None,,,,,,,,,,,,,,,,,,,,486.1759575000033,486.69002419989556,0.5114409900270402,1.0117420898750424,486.67336650006473,486.790096799843,486.67336650006473,486.790096799843,486.7734055998735,None,m,1,0.7995583000592887,486.7734055998735,None,,,,,,44,p26,2022_May_13_0916,training+cueing,2021.1.4,59.992069141717195,
Stranger.png,Friend,Stranger,m,2.3,17,27,97,,,,,0,0,0,0,,,,,9,9,117,7,,,,,,,,,,,,,,,,,,,,,1.695,1.631,487.6970163998194,None,,,,,,,,,,,,,,,,,,,,488.2382498998195,488.74156280001625,0.5057766893878579,1.0060641895979643,488.72482599969953,488.84161210013554,488.72482599969953,488.84161210013554,488.82482510013506,None,m,1,1.0843601999804378,488.82482510013506,None,,,,,,44,p26,2022_May_13_0916,training+cueing,2021.1.4,59.992069141717195,
Self.png,You,Self ,c,1,11,21,91,,,,,0,0,0,0,,,,,9,10,118,0,,,,,,,,,,,,,,,,,,,,,1.629,1.26,490.0335818999447,None,,,,,,,,,,,,,,,,,,,,490.57211899990216,491.0765392999165,0.5061163897626102,1.006613889709115,491.0598388998769,491.1598971998319,491.0598388998769,491.1598971998319,491.1598971998319,None,c,1,0.8290343997068703,491.1598971998319,None,,,,,,44,p26,2022_May_13_0916,training+cueing,2021.1.4,59.992069141717195,
Self.png,You,Self ,c,1,11,21,91,,,,,0,0,0,0,,,,,9,11,119,9,,,,,,,,,,,,,,,,,,,,,1.798,1.878,492.11805670009926,None,,,,,,,,,,,,,,,,,,,,492.65745439985767,493.16137899970636,0.5076998900622129,1.0079657901078463,493.144753200002,493.24477390013635,493.144753200002,493.24477390013635,493.24477390013635,None,c,1,0.9362731999717653,493.24477390013635,None,,,,,,44,p26,2022_May_13_0916,training+cueing,2021.1.4,59.992069141717195,
,,,,,,,,,,,,0,0,0,0,,,,,,,,,,,,,,,,,,,,,,,,,,,,,,,,,,,,,,,,,,,,,,,,,,,,,,,,,,,,,,,,,,,0.01410723989829421,0.5117194401100278,,,,44,p26,2022_May_13_0916,training+cueing,2021.1.4,59.992069141717195,
Stranger.png,Stranger,Stranger,c,3,13,23,93,,,,,1,0,1,0,0,0,0,11,,,,,,,,,,,,,,,,,494.8120862999931,None,space,-0.3125697001814842,2.010725730098784,None,496.8142478996888,None,1.665,2.012,499.8277484998107,None,500.3682293999009,500.8836006000638,500.86697660014033,500.9836573000066,500.86697660014033,500.9836573000066,500.9669785001315,None,None,0,500.9669785001315,None,502.6359033999033,None,,,,,,,,,,,,,,,,,,,,,,,,,,44,p26,2022_May_13_0916,training+cueing,2021.1.4,59.992069141717195,
Friend.png,Friend,Friend,c,2,12,22,92,,,,,1,0,1,0,0,1,1,10,,,,,,,,,,,,,,,,,,,,,,,,,1.421,1.557,503.0351684000343,None,503.5660572000779,504.06929869996384,504.0525766001083,504.1693652998656,504.0525766001083,504.1693652998656,504.152607599739,None,None,0,504.152607599739,None,505.5872669997625,None,,,,,,,,,,,,,,,,,,,,,,,,,,44,p26,2022_May_13_0916,training+cueing,2021.1.4,59.992069141717195,
Friend.png,Friend,Friend,c,2,12,22,92,,,,,1,0,1,0,0,2,2,4,,,,,,,,,,,,,,,,,,,,,,,,,1.583,1.375,505.9875314999372,None,506.5292083998211,507.03808100009337,507.021382200066,507.13816069997847,507.021382200066,507.13816069997847,507.13816069997847,None,None,0,507.13816069997847,None,508.7226285999641,None,,,,,,,,,,,,,,,,,,,,,,,,,,44,p26,2022_May_13_0916,training+cueing,2021.1.4,59.992069141717195,
Self.png,You,Self ,c,1,11,21,91,,,,,1,0,1,0,0,3,3,9,,,,,,,,,,,,,,,,,,,,,,,,,1.515,2.05,509.12312399968505,None,509.660950999707,510.1737182000652,510.157042699866,510.2571022999473,510.157042699866,510.2571022999473,510.2571022999473,None,c,1,510.2571022999473,None,511.01338499970734,None,0.7242364999838173,,,,,,,,,,,,,,,,,,,,,,,,,44,p26,2022_May_13_0916,training+cueing,2021.1.4,59.992069141717195,
Stranger.png,You,Stranger,m,1.3,15,25,95,,,,,1,0,1,0,0,4,4,6,,,,,,,,,,,,,,,,,,,,,,,,,1.705,1.774,511.42472469992936,None,511.9617796000093,512.4753227997571,512.4586706999689,512.5587188997306,512.4586706999689,512.5587188997306,512.5587188997306,None,m,1,512.5587188997306,None,513.5281960000284,None,0.9503870997577906,,,,,,,,,,,,,,,,,,,,,,,,,44,p26,2022_May_13_0916,training+cueing,2021.1.4,59.992069141717195,
Self.png,Friend,Self ,m,2.1,16,26,96,,,,,1,0,1,0,0,5,5,1,,,,,,,,,,,,,,,,,,,,,,,,,1.469,2.439,513.9431483000517,None,514.480555200018,514.9939907998778,514.9772081999108,515.0939850998111,514.9772081999108,515.0939850998111,515.0772314998321,None,None,0,515.0772314998321,None,516.5783822000958,None,,,,,,,,,,,,,,,,,,,,,,,,,,44,p26,2022_May_13_0916,training+cueing,2021.1.4,59.992069141717195,
Self.png,Stranger,Self ,m,3.1,18,28,98,,,,,1,0,1,0,0,6,6,2,,,,,,,,,,,,,,,,,,,,,,,,,1.553,1.797,516.9786966997199,None,517.5147098000161,518.0293634999543,518.0127004999667,518.1294100997038,518.0127004999667,518.1294100997038,518.1127216997556,None,m,1,518.1127216997556,None,519.2156647001393,None,1.0769237000495195,,,,,,,,,,,,,,,,,,,,,,,,,44,p26,2022_May_13_0916,training+cueing,2021.1.4,59.992069141717195,
Self.png,You,Self ,c,1,11,21,91,,,,,1,0,1,0,0,7,7,0,,,,,,,,,,,,,,,,,,,,,,,,,1.682,2.088,519.6308852001093,None,520.1615709997714,520.664593399968,520.6479309001006,520.7479702997953,520.6479309001006,520.7479702997953,520.7479702997953,None,c,1,520.7479702997953,None,521.6988099999726,None,0.9209186001680791,,,,,,,,,,,,,,,,,,,,,,,,,44,p26,2022_May_13_0916,training+cueing,2021.1.4,59.992069141717195,
Friend.png,You,Friend,m,1.2,14,24,94,,,,,1,0,1,0,0,8,8,3,,,,,,,,,,,,,,,,,,,,,,,,,1.505,2.27,522.0989676997997,None,522.6276670997031,523.133085699752,523.1163762998767,523.2164429998957,523.1163762998767,523.2164429998957,523.2164429998957,None,m,1,523.2164429998957,None,524.0193835999817,None,0.7726281997747719,,,,,,,,,,,,,,,,,,,,,,,,,44,p26,2022_May_13_0916,training+cueing,2021.1.4,59.992069141717195,
Stranger.png,Stranger,Stranger,c,3,13,23,93,,,,,1,0,1,0,0,9,9,8,,,,,,,,,,,,,,,,,,,,,,,,,1.535,2.06,524.4345557000488,None,524.968443099875,525.4681366998702,525.4681366998702,525.5681247999892,525.4681366998702,525.5681247999892,525.5681247999892,None,c,1,525.5681247999892,None,526.0685287998058,None,0.48476399993523955,,,,,,,,,,,,,,,,,,,,,,,,,44,p26,2022_May_13_0916,training+cueing,2021.1.4,59.992069141717195,
Stranger.png,Friend,Stranger,m,2.3,17,27,97,,,,,1,0,1,0,0,10,10,7,,,,,,,,,,,,,,,,,,,,,,,,,1.65,1.666,526.4687629998662,None,527.0050976998173,527.5195432999171,527.5028904997744,527.6195967998356,527.5028904997744,527.6195967998356,527.602932299953,None,m,1,527.602932299953,None,528.552287099883,None,0.9300564997829497,,,,,,,,,,,,,,,,,,,,,,,,,44,p26,2022_May_13_0916,training+cueing,2021.1.4,59.992069141717195,
Friend.png,Stranger,Friend,m,3.2,19,29,99,,,,,1,0,1,0,0,11,11,5,,,,,,,,,,,,,,,,,,,,,,,,,1.759,2.252,528.954033699818,None,529.4887127000839,529.9880260997452,529.9880260997452,530.0880913999863,529.9880260997452,530.0880913999863,530.0880913999863,None,m,1,530.0880913999863,None,530.8806042000651,None,0.7649309001863003,,,,,,,,,,,,,,,,,,,,,,,,,44,p26,2022_May_13_0916,training+cueing,2021.1.4,59.992069141717195,
Self.png,Stranger,Self ,m,3.1,18,28,98,,,,,1,0,1,0,,,,,0,0,0,2,,,,,,,,,,,,,,,,,,,535.5588811999187,None,1.487,1.989,539.0707701998763,None,,,,,,,,,,,,,,,,531.2891321997158,None,0.014164030086249113,0.51110133016482,539.6150671998039,540.1288398001343,0.5111381900496781,1.011264089960605,540.1121966000646,540.2288468000479,540.1121966000646,540.2288468000479,540.212189800106,None,m,1,0.7851649997755885,540.212189800106,None,,,,,,44,p26,2022_May_13_0916,training+cueing,2021.1.4,59.992069141717195,
Stranger.png,Stranger,Stranger,c,3,13,23,93,,,,,1,0,1,0,,,,,0,1,1,11,,,,,,,,,,,,,,,,,,,,,1.772,2.146,541.1248210999183,None,,,,,,,,,,,,,,,,,,,,541.6764730997384,542.1801188997924,0.5092690200544894,1.0097814197652042,542.1634317999706,542.2807335001417,542.1634317999706,542.2807335001417,542.2635070998222,None,c,1,1.0374614000320435,542.2635070998222,None,,,,,,44,p26,2022_May_13_0916,training+cueing,2021.1.4,59.992069141717195,
Friend.png,Friend,Friend,c,2,12,22,92,,,,,1,0,1,0,,,,,0,2,2,10,,,,,,,,,,,,,,,,,,,,,1.799,1.695,543.4381821998395,None,,,,,,,,,,,,,,,,,,,,543.978145299945,544.4818070000038,0.5047455900348723,1.005203990265727,544.4651701999828,544.5818346999586,544.4651701999828,544.5818346999586,544.5651940000243,None,c,1,1.119633300229907,544.5651940000243,None,,,,,,44,p26,2022_May_13_0916,training+cueing,2021.1.4,59.992069141717195,
Stranger.png,Stranger,Stranger,c,3,13,23,93,,,,,1,0,1,0,,,,,0,3,3,8,,,,,,,,,,,,,,,,,,,,,1.586,1.345,545.8231860999949,None,,,,,,,,,,,,,,,,,,,,546.3646045001224,546.8668682998978,0.5053314897231758,1.0056008896790445,546.8502035001293,546.9669165001251,546.8502035001293,546.9669165001251,546.9502143999562,None,c,1,0.7506337999366224,546.9502143999562,None,,,,,,44,p26,2022_May_13_0916,training+cueing,2021.1.4,59.992069141717195,
Self.png,You,Self ,c,1,11,21,91,,,,,1,0,1,0,,,,,0,4,4,0,,,,,,,,,,,,,,,,,,,,,1.646,1.873,547.8234814996831,None,,,,,,,,,,,,,,,,,,,,548.3643375998363,548.8682903000154,0.5059760892763734,1.0062841894105077,548.851651399862,548.9518552999943,548.851651399862,548.9518552999943,548.9518552999943,None,c,1,0.7329957997426391,548.9518552999943,None,,,,,,44,p26,2022_May_13_0916,training+cueing,2021.1.4,59.992069141717195,
Stranger.png,You,Stranger,m,1.3,15,25,95,,,,,1,0,1,0,,,,,0,5,5,6,,,,,,,,,,,,,,,,,,,,,1.559,2.219,549.8093648999929,None,,,,,,,,,,,,,,,,,,,,550.34651640011,550.8530763997696,0.5124247898347676,1.012716589961201,550.8364220997319,550.9364737998694,550.8364220997319,550.9364737998694,550.9364737998694,None,m,1,1.516301800031215,550.9364737998694,None,,,,,,44,p26,2022_May_13_0916,training+cueing,2021.1.4,59.992069141717195,
Friend.png,You,Friend,m,1.2,14,24,94,,,,,1,0,1,0,,,,,0,6,6,3,,,,,,,,,,,,,,,,,,,,,1.656,1.811,552.5772269000299,None,,,,,,,,,,,,,,,,,,,,553.131078899838,553.6384637998417,0.5146039202809334,1.0148264202289283,553.6218317998573,553.7218232001178,553.6218317998573,553.7218232001178,553.7218232001178,None,m,1,0.7470797002315521,553.7218232001178,None,,,,,,44,p26,2022_May_13_0916,training+cueing,2021.1.4,59.992069141717195,
Self.png,Friend,Self ,m,2.1,16,26,96,,,,,1,0,1,0,,,,,0,7,7,1,,,,,,,,,,,,,,,,,,,,,1.715,2.397,554.5952412998304,None,,,,,,,,,,,,,,,,,,,,555.1362213999964,555.6398855000734,0.5055466894991696,1.005824489519,555.6232425998896,555.7399295000359,555.6232425998896,555.7399295000359,555.7232766998932,None,m,1,1.0655322996899486,555.7232766998932,None,,,,,,44,p26,2022_May_13_0916,training+cueing,2021.1.4,59.992069141717195,
Stranger.png,Friend,Stranger,m,2.3,17,27,97,,,,,1,0,1,0,,,,,0,8,8,7,,,,,,,,,,,,,,,,,,,,,1.643,2.125,556.913397599943,None,,,,,,,,,,,,,,,,,,,,557.4550848999061,557.9582525999285,0.5054556899704039,1.0057573900558054,557.9416074999608,558.0582988997921,557.9416074999608,558.0582988997921,558.0416004001163,None,m,1,0.9231863999739289,558.0416004001163,None,,,,,,44,p26,2022_May_13_0916,training+cueing,2021.1.4,59.992069141717195,
Friend.png,Friend,Friend,c,2,12,22,92,,,,,1,0,1,0,,,,,0,9,9,4,,,,,,,,,,,,,,,,,,,,,1.77,1.577,559.0984082999639,None,,,,,,,,,,,,,,,,,,,,559.6507588000968,560.1599921998568,0.5031434902921319,1.0034189904108644,560.1432962999679,560.2600456001237,560.1432962999679,560.2600456001237,560.2433040998876,None,c,1,0.753636899869889,560.2433040998876,None,,,,,,44,p26,2022_May_13_0916,training+cueing,2021.1.4,59.992069141717195,
Friend.png,Stranger,Friend,m,3.2,19,29,99,,,,,1,0,1,0,,,,,0,10,10,5,,,,,,,,,,,,,,,,,,,,,1.515,1.914,561.1342750997283,None,,,,,,,,,,,,,,,,,,,,561.6729131001048,562.1779571999796,0.508677089586854,1.0090023898519576,562.161258299835,562.2779931998812,562.161258299835,562.2779931998812,562.2613054998219,None,m,1,0.9436114998534322,562.2613054998219,None,,,,,,44,p26,2022_May_13_0916,training+cueing,2021.1.4,59.992069141717195,
Self.png,You,Self ,c,1,11,21,91,,,,,1,0,1,0,,,,,0,11,11,9,,,,,,,,,,,,,,,,,,,,,1.7,2.258,563.3357477998361,None,,,,,,,,,,,,,,,,,,,,563.8759121000767,564.3795599997975,0.5074404897168279,1.0078756897710264,564.3628755998798,564.4628713000566,564.3628755998798,564.4628713000566,564.4628713000566,None,c,1,0.6939715999178588,564.4628713000566,None,,,,,,44,p26,2022_May_13_0916,training+cueing,2021.1.4,59.992069141717195,
Self.png,Stranger,Self ,m,3.1,18,28,98,,,,,1,0,1,0,,,,,1,0,12,2,,,,,,,,,,,,,,,,,,,,,1.457,2.244,565.2863277997822,None,,,,,,,,,,,,,,,,,,,,565.8268615999259,566.3309535998851,0.5056370897218585,1.006214389577508,566.3142677997239,566.4316149000078,566.3142677997239,566.4316149000078,566.4143340000883,None,m,1,0.8547318996861577,566.4143340000883,None,,,,,,44,p26,2022_May_13_0916,training+cueing,2021.1.4,59.992069141717195,
Stranger.png,Friend,Stranger,m,2.3,17,27,97,,,,,1,0,1,0,,,,,1,1,13,7,,,,,,,,,,,,,,,,,,,,,1.733,1.976,567.4080153997056,None,,,,,,,,,,,,,,,,,,,,567.9468547999859,568.449155899696,0.5040463898330927,1.0043973894789815,568.4325179997832,568.5493475999683,568.4325179997832,568.5493475999683,568.532515599858,None,m,1,0.8002753001637757,568.532515599858,None,,,,,,44,p26,2022_May_13_0916,training+cueing,2021.1.4,59.992069141717195,
Friend.png,Stranger,Friend,m,3.2,19,29,99,,,,,1,0,1,0,,,,,1,2,14,5,,,,,,,,,,,,,,,,,,,,,1.425,2.212,569.4566298001446,None,,,,,,,,,,,,,,,,,,,,569.999511399772,570.5006498000585,0.501496990211308,1.001712890341878,570.483973799739,570.6008254997432,570.483973799739,570.6008254997432,570.6008254997432,None,m,1,0.8119863998144865,570.6008254997432,None,,,,,,44,p26,2022_May_13_0916,training+cueing,2021.1.4,59.992069141717195,
Friend.png,Friend,Friend,c,2,12,22,92,,,,,1,0,1,0,,,,,1,3,15,10,,,,,,,,,,,,,,,,,,,,,1.451,2.322,571.5409397999756,None,,,,,,,,,,,,,,,,,,,,572.0809530997649,572.5854499000125,0.5069154892116785,1.0072242892347276,572.5687971999869,572.6855231998488,572.5687971999869,572.6855231998488,572.66883029975,None,c,1,0.631942699663341,572.66883029975,None,,,,,,44,p26,2022_May_13_0916,training+cueing,2021.1.4,59.992069141717195,
Self.png,Friend,Self ,m,2.1,16,26,96,,,,,1,0,1,0,,,,,1,4,16,1,,,,,,,,,,,,,,,,,,,,,1.763,1.771,573.425674200058,None,,,,,,,,,,,,,,,,,,,,573.980507500004,574.4868896999396,0.5131988199427724,1.0142650199122727,574.4702070998028,574.5869264998473,574.4702070998028,574.5869264998473,574.570236499887,None,m,1,1.0187313999049366,574.570236499887,None,,,,,,44,p26,2022_May_13_0916,training+cueing,2021.1.4,59.992069141717195,
Stranger.png,You,Stranger,m,1.3,15,25,95,,,,,1,0,1,0,,,,,1,5,17,6,,,,,,,,,,,,,,,,,,,,,1.79,1.701,575.7112976000644,None,,,,,,,,,,,,,,,,,,,,576.2510504997335,576.7553678001277,0.5069002895615995,1.007250789552927,576.7384322998114,576.8385279998183,576.7384322998114,576.8385279998183,576.8385279998183,None,m,1,0.7182462001219392,576.8385279998183,None,,,,,,44,p26,2022_May_13_0916,training+cueing,2021.1.4,59.992069141717195,
Stranger.png,Stranger,Stranger,c,3,13,23,93,,,,,1,0,1,0,,,,,1,6,18,11,,,,,,,,,,,,,,,,,,,,,1.506,1.903,577.6782523998991,None,,,,,,,,,,,,,,,,,,,,578.2194722001441,578.723199499771,0.5060389898717403,1.0062471898272634,578.7066696998663,578.8232685998082,578.7066696998663,578.8232685998082,578.806617599912,None,c,1,0.7341795000247657,578.806617599912,None,,,,,,44,p26,2022_May_13_0916,training+cueing,2021.1.4,59.992069141717195,
Friend.png,You,Friend,m,1.2,14,24,94,,,,,1,0,1,0,,,,,1,7,19,3,,,,,,,,,,,,,,,,,,,,,1.432,2.258,579.6639983998612,None,,,,,,,,,,,,,,,,,,,,580.2044866997749,580.7080369000323,0.5070053897798061,1.0073066898621619,580.6913069998845,580.7913778997026,580.6913069998845,580.7913778997026,580.7913778997026,None,m,1,0.6693428000435233,580.7913778997026,None,,,,,,44,p26,2022_May_13_0916,training+cueing,2021.1.4,59.992069141717195,
Friend.png,Friend,Friend,c,2,12,22,92,,,,,1,0,1,0,,,,,1,8,20,4,,,,,,,,,,,,,,,,,,,,,1.623,2.398,581.5977157996967,None,,,,,,,,,,,,,,,,,,,,582.1391835999675,582.6427469998598,0.5050220899283886,1.0052996897138655,582.626119799912,582.7427678001113,582.626119799912,582.7427678001113,582.7261239998043,None,c,1,0.574951000045985,582.7261239998043,None,,,,,,44,p26,2022_May_13_0916,training+cueing,2021.1.4,59.992069141717195,
Stranger.png,Stranger,Stranger,c,3,13,23,93,,,,,1,0,1,0,,,,,1,9,21,8,,,,,,,,,,,,,,,,,,,,,1.645,2.116,583.4360731998459,None,,,,,,,,,,,,,,,,,,,,583.976533900015,584.4773963000625,0.5011141896247864,1.0015941900201142,584.460773000028,584.5774598000571,584.460773000028,584.5774598000571,584.5774598000571,None,c,1,0.6916367001831532,584.5774598000571,None,,,,,,44,p26,2022_May_13_0916,training+cueing,2021.1.4,59.992069141717195,
Self.png,You,Self ,c,1,11,21,91,,,,,1,0,1,0,,,,,1,10,22,0,,,,,,,,,,,,,,,,,,,,,1.792,2.097,585.4061173996888,None,,,,,,,,,,,,,,,,,,,,585.9439316997305,586.4455003999174,0.5044251894578338,1.0046464893966913,586.428842399735,586.5288784997538,586.428842399735,586.5288784997538,586.5288784997538,None,c,1,0.8198776999488473,586.5288784997538,None,,,,,,44,p26,2022_May_13_0916,training+cueing,2021.1.4,59.992069141717195,
Self.png,You,Self ,c,1,11,21,91,,,,,1,0,1,0,,,,,1,11,23,9,,,,,,,,,,,,,,,,,,,,,1.793,1.593,587.485772700049,None,,,,,,,,,,,,,,,,,,,,588.0236017000861,588.5303523996845,0.511022889520973,1.0113794896751642,588.5136536001228,588.6137783001177,588.5136536001228,588.6137783001177,588.6137783001177,None,c,1,0.9110209997743368,588.6137783001177,None,,,,,,44,p26,2022_May_13_0916,training+cueing,2021.1.4,59.992069141717195,
Friend.png,Friend,Friend,c,2,12,22,92,,,,,1,0,1,0,,,,,2,0,24,4,,,,,,,,,,,,,,,,,,,,,1.556,2.228,589.6544234999456,None,,,,,,,,,,,,,,,,,,,,590.2119367998093,590.71527899988,0.5064112199470401,1.0065003200434148,590.6987684001215,590.8153188996948,590.6987684001215,590.8153188996948,590.7986305998638,None,c,1,0.7901375996880233,590.7986305998638,None,,,,,,44,p26,2022_May_13_0916,training+cueing,2021.1.4,59.992069141717195,
Self.png,You,Self ,c,1,11,21,91,,,,,1,0,1,0,,,,,2,1,25,9,,,,,,,,,,,,,,,,,,,,,1.579,2.199,591.7223688000813,None,,,,,,,,,,,,,,,,,,,,592.2632756000385,592.7667588000186,0.507294989656657,1.007565289735794,592.7500459998846,592.8500908999704,592.7500459998846,592.8500908999704,592.8500908999704,None,c,1,0.7226299997419119,592.8500908999704,None,,,,,,44,p26,2022_May_13_0916,training+cueing,2021.1.4,59.992069141717195,
Friend.png,Friend,Friend,c,2,12,22,92,,,,,1,0,1,0,,,,,2,2,26,10,,,,,,,,,,,,,,,,,,,,,1.467,1.306,593.7070210999809,None,,,,,,,,,,,,,,,,,,,,594.2630034000613,594.7681849999353,0.5082298200577497,1.008504319936037,594.7515127998777,594.8682043999434,594.7515127998777,594.8682043999434,594.8515204000287,None,c,1,0.753154399804771,594.8515204000287,None,,,,,,44,p26,2022_May_13_0916,training+cueing,2021.1.4,59.992069141717195,
Stranger.png,Stranger,Stranger,c,3,13,23,93,,,,,1,0,1,0,,,,,2,3,27,11,,,,,,,,,,,,,,,,,,,,,1.717,1.892,595.7417592997663,None,,,,,,,,,,,,,,,,,,,,596.319823899772,596.8198063001037,0.500887050293386,1.0011973502114415,596.8031457997859,596.9198642000556,596.8031457997859,596.9198642000556,596.9198642000556,None,c,1,0.5248823999427259,596.9198642000556,None,,,,,,44,p26,2022_May_13_0916,training+cueing,2021.1.4,59.992069141717195,
Friend.png,You,Friend,m,1.2,14,24,94,,,,,1,0,1,0,,,,,2,4,28,3,,,,,,,,,,,,,,,,,,,,,1.669,1.843,597.57798000006,None,,,,,,,,,,,,,,,,,,,,598.1387510998175,598.654315199703,0.5135063198395073,1.0137614198029041,598.6376769999042,598.7377077997662,598.6376769999042,598.7377077997662,598.7377077997662,None,m,1,0.8830766002647579,598.7377077997662,None,,,,,,44,p26,2022_May_13_0916,training+cueing,2021.1.4,59.992069141717195,
Friend.png,Stranger,Friend,m,3.2,19,29,99,,,,,1,0,1,0,,,,,2,5,29,5,,,,,,,,,,,,,,,,,,,,,1.757,2.469,599.7448196997866,None,,,,,,,,,,,,,,,,,,,,600.2875153999776,600.789226599969,0.5045134900137782,1.005283989943564,600.7725280998275,600.8892578999512,600.7725280998275,600.8892578999512,600.8725605998188,None,m,1,0.9405752997845411,600.8725605998188,None,,,,,,44,p26,2022_May_13_0916,training+cueing,2021.1.4,59.992069141717195,
Stranger.png,You,Stranger,m,1.3,15,25,95,,,,,1,0,1,0,,,,,2,6,30,6,,,,,,,,,,,,,,,,,,,,,1.623,1.868,601.94676670013,None,,,,,,,,,,,,,,,,,,,,602.4864814998582,602.9907625000924,0.5073956898413599,1.007717689499259,602.9741174001247,603.0741872000508,602.9741174001247,603.0741872000508,603.0741872000508,None,m,1,0.7865893999114633,603.0741872000508,None,,,,,,44,p26,2022_May_13_0916,training+cueing,2021.1.4,59.992069141717195,
Self.png,Friend,Self ,m,2.1,16,26,96,,,,,1,0,1,0,,,,,2,7,31,1,,,,,,,,,,,,,,,,,,,,,1.488,1.814,603.9977722000331,None,,,,,,,,,,,,,,,,,,,,604.5532591999508,605.0589672001079,0.510102319996804,1.010359019972384,605.0423157997429,605.1589946998283,605.0423157997429,605.1589946998283,605.1423172997311,None,m,1,0.8784401998855174,605.1423172997311,None,,,,,,44,p26,2022_May_13_0916,training+cueing,2021.1.4,59.992069141717195,
Self.png,Stranger,Self ,m,3.1,18,28,98,,,,,1,0,1,0,,,,,2,8,32,2,,,,,,,,,,,,,,,,,,,,,1.777,2.381,606.1498604998924,None,,,,,,,,,,,,,,,,,,,,606.6922236001119,607.1938529000618,0.5049529895186424,1.0054325894452631,607.1771586998366,607.2944865999743,607.1771586998366,607.2944865999743,607.2772281998768,None,m,1,0.8237331998534501,607.2772281998768,None,,,,,,44,p26,2022_May_13_0916,training+cueing,2021.1.4,59.992069141717195,
Stranger.png,Stranger,Stranger,c,3,13,23,93,,,,,1,0,1,0,,,,,2,9,33,8,,,,,,,,,,,,,,,,,,,,,1.581,1.766,608.2351756999269,None,,,,,,,,,,,,,,,,,,,,608.7779773999937,609.2786901998334,0.5021126894280314,1.0023876894265413,609.2620342997834,609.378752599936,609.2620342997834,609.378752599936,609.3620360000059,None,c,1,0.7228255001828074,609.3620360000059,None,,,,,,44,p26,2022_May_13_0916,training+cueing,2021.1.4,59.992069141717195,
Self.png,You,Self ,c,1,11,21,91,,,,,1,0,1,0,,,,,2,10,34,0,,,,,,,,,,,,,,,,,,,,,1.693,2.25,610.2186106997542,None,,,,,,,,,,,,,,,,,,,,610.7588951997459,611.2634707000107,0.5064581902697682,1.0067709903232753,611.2467509000562,611.3468085001223,611.2467509000562,611.3468085001223,611.3468085001223,None,m,0,0.9460469000041485,611.3468085001223,None,,,,,,44,p26,2022_May_13_0916,training+cueing,2021.1.4,59.992069141717195,
Stranger.png,Friend,Stranger,m,2.3,17,27,97,,,,,1,0,1,0,,,,,2,11,35,7,,,,,,,,,,,,,,,,,,,,,1.574,1.41,612.4204492000863,None,,,,,,,,,,,,,,,,,,,,612.9626837000251,613.4650342999958,0.5053288899362087,1.0056585897691548,613.448402099777,613.5650248997845,613.448402099777,613.5650248997845,613.5484315999784,None,m,1,0.7603633999824524,613.5484315999784,None,,,,,,44,p26,2022_May_13_0916,training+cueing,2021.1.4,59.992069141717195,
Friend.png,Friend,Friend,c,2,12,22,92,,,,,1,0,1,0,,,,,3,0,36,4,,,,,,,,,,,,,,,,,,,,,1.577,1.276,614.4401277997531,None,,,,,,,,,,,,,,,,,,,,614.984869599808,615.4998340997845,0.5100536895915866,1.0105203897692263,615.4831427000463,615.5999087998644,615.4831427000463,615.5999087998644,615.5831944998354,None,c,1,0.6777460002340376,615.5831944998354,None,,,,,,44,p26,2022_May_13_0916,training+cueing,2021.1.4,59.992069141717195,
Friend.png,Stranger,Friend,m,3.2,19,29,99,,,,,1,0,1,0,,,,,3,1,37,5,,,,,,,,,,,,,,,,,,,,,1.626,2.161,616.3910368001089,None,,,,,,,,,,,,,,,,,,,,616.9384448998608,617.4514437001199,0.5079059898853302,1.00818098988384,617.4346221000887,617.5513837998733,617.4346221000887,617.5513837998733,617.5348666999489,None,m,1,0.8218153002671897,617.5348666999489,None,,,,,,44,p26,2022_May_13_0916,training+cueing,2021.1.4,59.992069141717195,
Stranger.png,Friend,Stranger,m,2.3,17,27,97,,,,,1,0,1,0,,,,,3,2,38,7,,,,,,,,,,,,,,,,,,,,,1.667,1.34,618.4916078997776,None,,,,,,,,,,,,,,,,,,,,619.0330481999554,619.536074299831,0.5064043900929391,1.0066722901538014,619.5194387999363,619.6361610000022,619.5194387999363,619.6361610000022,619.6195697998628,None,m,1,0.7211152003146708,619.6195697998628,None,,,,,,44,p26,2022_May_13_0916,training+cueing,2021.1.4,59.992069141717195,
Self.png,You,Self ,c,1,11,21,91,,,,,1,0,1,0,,,,,3,3,39,0,,,,,,,,,,,,,,,,,,,,,1.683,2.025,620.4755830001086,None,,,,,,,,,,,,,,,,,,,,621.0172115997411,621.5209077997133,0.5061863902956247,1.0063299904577434,621.5043004998006,621.6042160000652,621.5043004998006,621.6042160000652,621.6042160000652,None,c,1,0.9764647004194558,621.6042160000652,None,,,,,,44,p26,2022_May_13_0916,training+cueing,2021.1.4,59.992069141717195,
Stranger.png,You,Stranger,m,1.3,15,25,95,,,,,1,0,1,0,,,,,3,4,40,6,,,,,,,,,,,,,,,,,,,,,1.463,1.973,622.7107726000249,None,,,,,,,,,,,,,,,,,,,,623.2686554999091,623.77247599978,0.507147119846195,1.0074212197214365,623.7558348998427,623.8558726999909,623.7558348998427,623.8558726999909,623.8558726999909,None,m,1,0.7887929999269545,623.8558726999909,None,,,,,,44,p26,2022_May_13_0916,training+cueing,2021.1.4,59.992069141717195,
Friend.png,You,Friend,m,1.2,14,24,94,,,,,1,0,1,0,,,,,3,5,41,3,,,,,,,,,,,,,,,,,,,,,1.465,1.426,624.7794808996841,None,,,,,,,,,,,,,,,,,,,,625.3192436997779,625.8239675001241,0.5097920894622803,1.0099968896247447,625.8073478997685,625.907349999994,625.8073478997685,625.907349999994,625.907349999994,None,m,1,0.6253718002699316,625.907349999994,None,,,,,,44,p26,2022_May_13_0916,training+cueing,2021.1.4,59.992069141717195,
Friend.png,Friend,Friend,c,2,12,22,92,,,,,1,0,1,0,,,,,3,6,42,10,,,,,,,,,,,,,,,,,,,,,1.668,1.922,626.6638710997067,None,,,,,,,,,,,,,,,,,,,,627.2175177996978,627.7253482998349,0.5146921197883785,1.015004119835794,627.7086876998655,627.8254351001233,627.7086876998655,627.8254351001233,627.8087796997279,None,c,1,0.7239267998374999,627.8087796997279,None,,,,,,44,p26,2022_May_13_0916,training+cueing,2021.1.4,59.992069141717195,
Stranger.png,Stranger,Stranger,c,3,13,23,93,,,,,1,0,1,0,,,,,3,7,43,11,,,,,,,,,,,,,,,,,,,,,1.481,2.332,628.6658700997941,None,,,,,,,,,,,,,,,,,,,,629.2083898000419,629.710099699907,0.5049786893650889,1.0051997895352542,629.6934646000154,629.8102385001257,629.6934646000154,629.8102385001257,629.7934781997465,None,c,1,0.8355388003401458,629.7934781997465,None,,,,,,44,p26,2022_May_13_0916,training+cueing,2021.1.4,59.992069141717195,
Stranger.png,Stranger,Stranger,c,3,13,23,93,,,,,1,0,1,0,,,,,3,8,44,8,,,,,,,,,,,,,,,,,,,,,1.561,1.903,630.754358000122,None,,,,,,,,,,,,,,,,,,,,631.3072222997434,631.8116339999251,0.5075604198500514,1.0078499200753868,631.7949839998037,631.9117046999745,631.7949839998037,631.9117046999745,631.8950109998696,None,c,1,1.1656329999677837,631.8950109998696,None,,,,,,44,p26,2022_May_13_0916,training+cueing,2021.1.4,59.992069141717195,
Self.png,Friend,Self ,m,2.1,16,26,96,,,,,1,0,1,0,,,,,3,9,45,1,,,,,,,,,,,,,,,,,,,,,1.735,1.472,633.1851556999609,None,,,,,,,,,,,,,,,,,,,,633.7277373997495,634.2303526001051,0.5060436902567744,1.0064391898922622,634.2136727999896,634.3303573997691,634.2136727999896,634.3303573997691,634.3135993997566,None,m,1,0.9551400998607278,634.3135993997566,None,,,,,,44,p26,2022_May_13_0916,training+cueing,2021.1.4,59.992069141717195,
Self.png,You,Self ,c,1,11,21,91,,,,,1,0,1,0,,,,,3,10,46,9,,,,,,,,,,,,,,,,,,,,,1.544,2.228,635.4044910999946,None,,,,,,,,,,,,,,,,,,,,635.9449793999083,636.4483500998467,0.50663489010185,1.0069391899742186,636.4316690997221,636.5317234001122,636.4316690997221,636.5317234001122,636.5317234001122,None,c,1,0.9130239998921752,636.5317234001122,None,,,,,,44,p26,2022_May_13_0916,training+cueing,2021.1.4,59.992069141717195,
Self.png,Stranger,Self ,m,3.1,18,28,98,,,,,1,0,1,0,,,,,3,11,47,2,,,,,,,,,,,,,,,,,,,,,1.73,1.843,637.5719606997445,None,,,,,,,,,,,,,,,,,,,,638.127535500098,638.6332495999523,0.5101612200960517,1.0104279201477766,638.6166023998521,638.7332549998537,638.6166023998521,638.7332549998537,638.7166276001371,None,m,1,0.7601149999536574,638.7166276001371,None,,,,,,44,p26,2022_May_13_0916,training+cueing,2021.1.4,59.992069141717195,
Self.png,Stranger,Self ,m,3.1,18,28,98,,,,,1,0,1,0,,,,,4,0,48,2,,,,,,,,,,,,,,,,,,,,,1.56,1.852,639.6076655997895,None,,,,,,,,,,,,,,,,,,,,640.1442378996871,640.6513855000958,0.5138525902293622,1.0141603900119662,640.634667399805,640.7514268998057,640.634667399805,640.7514268998057,640.734706599731,None,m,1,0.8219913998618722,640.734706599731,None,,,,,,44,p26,2022_May_13_0916,training+cueing,2021.1.4,59.992069141717195,
Self.png,Friend,Self ,m,2.1,16,26,96,,,,,1,0,1,0,,,,,4,1,49,1,,,,,,,,,,,,,,,,,,,,,1.544,1.233,641.6916207000613,None,,,,,,,,,,,,,,,,,,,,642.2326385998167,642.7362297000363,0.5057847895659506,1.006072889547795,642.719564799685,642.8362647998147,642.719564799685,642.8362647998147,642.8195770997554,None,m,1,0.9291081000119448,642.8195770997554,None,,,,,,44,p26,2022_May_13_0916,training+cueing,2021.1.4,59.992069141717195,
Friend.png,Friend,Friend,c,2,12,22,92,,,,,1,0,1,0,,,,,4,2,50,10,,,,,,,,,,,,,,,,,,,,,1.685,1.243,643.8765314999036,None,,,,,,,,,,,,,,,,,,,,644.4147805999964,644.92114629969,0.5101771899498999,1.010523489676416,644.904426000081,645.021191699896,644.904426000081,645.021191699896,645.0044975001365,None,c,1,0.6963225998915732,645.0044975001365,None,,,,,,44,p26,2022_May_13_0916,training+cueing,2021.1.4,59.992069141717195,
Friend.png,Friend,Friend,c,2,12,22,92,,,,,1,0,1,0,,,,,4,3,51,4,,,,,,,,,,,,,,,,,,,,,1.782,1.334,645.8275860999711,None,,,,,,,,,,,,,,,,,,,,646.3677663998678,646.8726721000858,0.5099480897188187,1.0102256895042956,646.8559550000355,646.9727189997211,646.8559550000355,646.9727189997211,646.9559853998944,None,c,1,0.5847300998866558,646.9559853998944,None,,,,,,44,p26,2022_May_13_0916,training+cueing,2021.1.4,59.992069141717195,
Stranger.png,Stranger,Stranger,c,3,13,23,93,,,,,1,0,1,0,,,,,4,4,52,11,,,,,,,,,,,,,,,,,,,,,1.554,1.67,647.6629038001411,None,,,,,,,,,,,,,,,,,,,,648.2032789001241,648.707199299708,0.5051116901449859,1.0053866901434958,648.6905533997342,648.8072409997694,648.6905533997342,648.8072409997694,648.7905699997209,None,c,1,0.8140732999891043,648.7905699997209,None,,,,,,44,p26,2022_May_13_0916,training+cueing,2021.1.4,59.992069141717195,
Self.png,You,Self ,c,1,11,21,91,,,,,1,0,1,0,,,,,4,5,53,0,,,,,,,,,,,,,,,,,,,,,1.747,1.23,649.730410899967,None,,,,,,,,,,,,,,,,,,,,650.2722738999873,650.7753353998996,0.5065517900511622,1.0068369898945093,650.7586840000004,650.8587357997894,650.7586840000004,650.8587357997894,650.8587357997894,None,m,0,0.618002999573946,650.8587357997894,None,,,,,,44,p26,2022_May_13_0916,training+cueing,2021.1.4,59.992069141717195,
Friend.png,Stranger,Friend,m,3.2,19,29,99,,,,,1,0,1,0,,,,,4,6,54,5,,,,,,,,,,,,,,,,,,,,,1.586,1.954,651.5984346996993,None,,,,,,,,,,,,,,,,,,,,652.1403312999755,652.6433806000277,0.5047770901583135,1.0050583900883794,652.6267222999595,652.7434656000696,652.6267222999595,652.7434656000696,652.7266869000159,None,m,1,1.0060747996903956,652.7266869000159,None,,,,,,44,p26,2022_May_13_0916,training+cueing,2021.1.4,59.992069141717195,
Self.png,You,Self ,c,1,11,21,91,,,,,1,0,1,0,,,,,4,7,55,9,,,,,,,,,,,,,,,,,,,,,1.772,1.35,653.8671638998203,None,,,,,,,,,,,,,,,,,,,,654.4643815997988,654.9784014998004,0.5100786802358925,1.0108463801443577,654.9617277998477,655.0617506001145,654.9617277998477,655.0617506001145,655.0617506001145,None,c,1,0.7029341999441385,655.0617506001145,None,,,,,,44,p26,2022_May_13_0916,training+cueing,2021.1.4,59.992069141717195,
Stranger.png,You,Stranger,m,1.3,15,25,95,,,,,1,0,1,0,,,,,4,8,56,6,,,,,,,,,,,,,,,,,,,,,1.636,2.498,655.9022082998417,None,,,,,,,,,,,,,,,,,,,,656.4414371997118,656.9464936000295,0.5105584897100925,1.0108240898698568,656.9298511999659,657.0298703997396,656.9298511999659,657.0298703997396,657.0298703997396,None,m,1,0.7351526999846101,657.0298703997396,None,,,,,,44,p26,2022_May_13_0916,training+cueing,2021.1.4,59.992069141717195,
Stranger.png,Stranger,Stranger,c,3,13,23,93,,,,,1,0,1,0,,,,,4,9,57,8,,,,,,,,,,,,,,,,,,,,,1.421,1.464,657.8901047999971,None,,,,,,,,,,,,,,,,,,,,658.430740099866,658.9312551999465,0.5015926901251078,1.0017699897289276,658.9146334999241,659.0312863998115,658.9146334999241,659.0312863998115,659.0312863998115,None,c,1,0.7333329003304243,659.0312863998115,None,,,,,,44,p26,2022_May_13_0916,training+cueing,2021.1.4,59.992069141717195,
Friend.png,You,Friend,m,1.2,14,24,94,,,,,1,0,1,0,,,,,4,10,58,3,,,,,,,,,,,,,,,,,,,,,1.649,1.848,659.8877590000629,None,,,,,,,,,,,,,,,,,,,,660.4293597997166,660.9327194998041,0.5049243899993598,1.005723289679736,660.9160996996798,661.0160988997668,660.9160996996798,661.0160988997668,661.0160988997668,None,m,1,0.8608364001847804,661.0160988997668,None,,,,,,44,p26,2022_May_13_0916,training+cueing,2021.1.4,59.992069141717195,
Stranger.png,Friend,Stranger,m,2.3,17,27,97,,,,,1,0,1,0,,,,,4,11,59,7,,,,,,,,,,,,,,,,,,,,,1.526,1.874,662.0097233001143,None,,,,,,,,,,,,,,,,,,,,662.572222799994,663.084291999694,0.5084220198914409,1.0087031200528145,663.0676321997307,663.1842986000702,663.0676321997307,663.1842986000702,663.1678574997932,None,m,1,0.836772299837321,663.1678574997932,None,,,,,,44,p26,2022_May_13_0916,training+cueing,2021.1.4,59.992069141717195,
Self.png,You,Self ,c,1,11,21,91,,,,,1,0,1,0,,,,,5,0,60,9,,,,,,,,,,,,,,,,,,,,,1.52,2.192,664.1409848998301,None,,,,,,,,,,,,,,,,,,,,664.6816581999883,665.185766399838,0.5064047900959849,1.006721290294081,665.169096800033,665.2691379999742,665.169096800033,665.2691379999742,665.2691379999742,None,c,1,0.7355471001937985,665.2691379999742,None,,,,,,44,p26,2022_May_13_0916,training+cueing,2021.1.4,59.992069141717195,
Self.png,Stranger,Self ,m,3.1,18,28,98,,,,,1,0,1,0,,,,,5,1,61,2,,,,,,,,,,,,,,,,,,,,,1.409,1.739,666.1425820998847,None,,,,,,,,,,,,,,,,,,,,666.6857871999964,667.1872608000413,0.5040218899957836,1.0042928899638355,667.1705538998358,667.2872963999398,667.1705538998358,667.2872963999398,667.2705554999411,None,m,1,0.9901028000749648,667.2705554999411,None,,,,,,44,p26,2022_May_13_0916,training+cueing,2021.1.4,59.992069141717195,
Friend.png,Friend,Friend,c,2,12,22,92,,,,,1,0,1,0,,,,,5,2,62,4,,,,,,,,,,,,,,,,,,,,,1.544,2.028,668.3943889001384,None,,,,,,,,,,,,,,,,,,,,668.9366067000665,669.4388462998904,0.5055077895522118,1.0063739893957973,669.4222248997539,669.538881899789,669.4222248997539,669.538881899789,669.522225999739,None,c,1,0.7546566999517381,669.522225999739,None,,,,,,44,p26,2022_May_13_0916,training+cueing,2021.1.4,59.992069141717195,
Stranger.png,Friend,Stranger,m,2.3,17,27,97,,,,,1,0,1,0,,,,,5,3,63,7,,,,,,,,,,,,,,,,,,,,,1.735,1.645,670.4157269001007,None,,,,,,,,,,,,,,,,,,,,670.9529204000719,671.4569697999395,0.5060956897214055,1.0061148898676038,671.4405276998878,671.5570249999873,671.4405276998878,671.5570249999873,671.5403287000954,None,m,1,0.7363407998345792,671.5403287000954,None,,,,,,44,p26,2022_May_13_0916,training+cueing,2021.1.4,59.992069141717195,
Friend.png,Stranger,Friend,m,3.2,19,29,99,,,,,1,0,1,0,,,,,5,4,64,5,,,,,,,,,,,,,,,,,,,,,1.603,1.666,672.4138495000079,None,,,,,,,,,,,,,,,,,,,,672.9561755997129,673.4584633000195,0.5049379896372557,1.0052000894211233,673.4417949998751,673.558468000032,673.4417949998751,673.558468000032,673.5417979001068,None,m,1,0.7988181998953223,673.5417979001068,None,,,,,,44,p26,2022_May_13_0916,training+cueing,2021.1.4,59.992069141717195,
Self.png,You,Self ,c,1,11,21,91,,,,,1,0,1,0,,,,,5,5,65,0,,,,,,,,,,,,,,,,,,,,,1.552,2.206,674.4656154997647,None,,,,,,,,,,,,,,,,,,,,675.0063466001302,675.5099458997138,0.5059442897327244,1.006250289734453,675.4932380998507,675.593249199912,675.4932380998507,675.593249199912,675.593249199912,None,c,1,0.6676532002165914,675.593249199912,None,,,,,,44,p26,2022_May_13_0916,training+cueing,2021.1.4,59.992069141717195,
Stranger.png,You,Stranger,m,1.3,15,25,95,,,,,1,0,1,0,,,,,5,6,66,6,,,,,,,,,,,,,,,,,,,,,1.729,2.108,676.3834963999689,None,,,,,,,,,,,,,,,,,,,,676.9215131998062,677.4279767000116,0.5109494891948998,1.0112803895026445,677.4112803000025,677.5113697997294,677.4112803000025,677.5113697997294,677.5113697997294,None,m,1,0.733245300129056,677.5113697997294,None,,,,,,44,p26,2022_May_13_0916,training+cueing,2021.1.4,59.992069141717195,
Stranger.png,Stranger,Stranger,c,3,13,23,93,,,,,1,0,1,0,,,,,5,7,67,8,,,,,,,,,,,,,,,,,,,,,1.425,2.5,678.368395799771,None,,,,,,,,,,,,,,,,,,,,678.9253619001247,679.4294785996899,0.509287319611758,1.009545719716698,679.4127078996971,679.5295174000785,679.4127078996971,679.5295174000785,679.512722699903,None,c,1,0.9718538001179695,679.512722699903,None,,,,,,44,p26,2022_May_13_0916,training+cueing,2021.1.4,59.992069141717195,
Friend.png,Friend,Friend,c,2,12,22,92,,,,,1,0,1,0,,,,,5,8,68,10,,,,,,,,,,,,,,,,,,,,,1.673,1.673,680.6197287999094,None,,,,,,,,,,,,,,,,,,,,681.1767287999392,681.6811703001149,0.507786019705236,1.0080520194023848,681.6645430000499,681.7812486998737,681.6645430000499,681.7812486998737,681.7645507999696,None,c,1,0.5920496000908315,681.7645507999696,None,,,,,,44,p26,2022_May_13_0916,training+cueing,2021.1.4,59.992069141717195,
Stranger.png,Stranger,Stranger,c,3,13,23,93,,,,,1,0,1,0,,,,,5,9,69,11,,,,,,,,,,,,,,,,,,,,,1.538,1.732,682.489199299831,None,,,,,,,,,,,,,,,,,,,,683.0310269999318,683.5323649998754,0.5023112897761166,1.003184590023011,683.5157276997343,683.6324366000481,683.5157276997343,683.6324366000481,683.6157841999084,None,c,1,0.8211334999650717,683.6157841999084,None,,,,,,44,p26,2022_May_13_0916,training+cueing,2021.1.4,59.992069141717195,
Self.png,Friend,Self ,m,2.1,16,26,96,,,,,1,0,1,0,,,,,5,10,70,1,,,,,,,,,,,,,,,,,,,,,1.77,2.117,684.5759389000013,None,,,,,,,,,,,,,,,,,,,,685.1141119999811,685.6172635997646,0.5060510896146297,1.0063626896589994,685.6005416000262,685.7172706997953,685.6005416000262,685.7172706997953,685.700645300094,None,m,1,0.9760079002007842,685.700645300094,None,,,,,,44,p26,2022_May_13_0916,training+cueing,2021.1.4,59.992069141717195,
Friend.png,You,Friend,m,1.2,14,24,94,,,,,1,0,1,0,,,,,5,11,71,3,,,,,,,,,,,,,,,,,,,,,1.549,2.216,686.8079010001384,None,,,,,,,,,,,,,,,,,,,,687.3477451000363,687.8521863999777,0.5059051900170743,1.0061929901130497,687.8355231001042,687.9355671000667,687.8355231001042,687.9355671000667,687.9355671000667,None,m,1,0.9811430000700057,687.9355671000667,None,,,,,,44,p26,2022_May_13_0916,training+cueing,2021.1.4,59.992069141717195,
Self.png,Friend,Self ,m,2.1,16,26,96,,,,,1,0,1,0,,,,,6,0,72,1,,,,,,,,,,,,,,,,,,,,,1.62,2.345,689.0428562001325,None,,,,,,,,,,,,,,,,,,,,689.585448499769,690.0871548997238,0.504283289425075,1.0044760894961655,690.0705424998887,690.1871603000909,690.0705424998887,690.1871603000909,690.1704838001169,None,m,1,0.9223600998520851,690.1704838001169,None,,,,,,44,p26,2022_May_13_0916,training+cueing,2021.1.4,59.992069141717195,
Self.png,You,Self ,c,1,11,21,91,,,,,1,0,1,0,,,,,6,1,73,0,,,,,,,,,,,,,,,,,,,,,1.522,1.424,691.2285401998088,None,,,,,,,,,,,,,,,,,,,,691.7713858997449,692.2720276997425,0.5026274900883436,1.0029409900307655,692.2553256996907,692.3553907996975,692.2553256996907,692.3553907996975,692.3553907996975,None,c,1,0.5932465000078082,692.3553907996975,None,,,,,,44,p26,2022_May_13_0916,training+cueing,2021.1.4,59.992069141717195,
Stranger.png,Stranger,Stranger,c,3,13,23,93,,,,,1,0,1,0,,,,,6,2,74,8,,,,,,,,,,,,,,,,,,,,,1.603,2.165,693.0781950000674,None,,,,,,,,,,,,,,,,,,,,693.6202424000949,694.1234184997156,0.5042290901765227,1.0044324900954962,694.106763899792,694.2234247997403,694.106763899792,694.2234247997403,694.206696299836,None,c,1,0.6940354001708329,694.206696299836,None,,,,,,44,p26,2022_May_13_0916,training+cueing,2021.1.4,59.992069141717195,
Self.png,Stranger,Self ,m,3.1,18,28,98,,,,,1,0,1,0,,,,,6,3,75,2,,,,,,,,,,,,,,,,,,,,,1.7,1.445,695.0307783000171,None,,,,,,,,,,,,,,,,,,,,695.5734724998474,696.0748300999403,0.5032348898239434,1.0036199898459017,696.0581187997013,696.174941000063,696.0581187997013,696.174941000063,696.1582553000189,None,m,1,0.6464372999034822,696.1582553000189,None,,,,,,44,p26,2022_May_13_0916,training+cueing,2021.1.4,59.992069141717195,
Self.png,You,Self ,c,1,11,21,91,,,,,1,0,1,0,,,,,6,4,76,9,,,,,,,,,,,,,,,,,,,,,1.798,1.607,696.9315638998523,None,,,,,,,,,,,,,,,,,,,,697.4830442997627,697.9928136998788,0.5002565900795162,1.0005974899977446,697.9761683000252,698.0762430997565,697.9761683000252,698.0762430997565,698.0762430997565,None,c,1,0.7442672001197934,698.0762430997565,None,,,,,,44,p26,2022_May_13_0916,training+cueing,2021.1.4,59.992069141717195,
Stranger.png,Friend,Stranger,m,2.3,17,27,97,,,,,1,0,1,0,,,,,6,5,77,7,,,,,,,,,,,,,,,,,,,,,1.644,1.548,698.9499912997708,None,,,,,,,,,,,,,,,,,,,,699.4917035000399,699.9943220000714,0.5061929896473885,1.00640628952533,699.9776137000881,700.0943632000126,699.9776137000881,700.0943632000126,700.0776504999958,None,m,1,0.7909249002113938,700.0776504999958,None,,,,,,44,p26,2022_May_13_0916,training+cueing,2021.1.4,59.992069141717195,
Stranger.png,You,Stranger,m,1.3,15,25,95,,,,,1,0,1,0,,,,,6,6,78,6,,,,,,,,,,,,,,,,,,,,,1.502,2.197,701.0012012999505,None,,,,,,,,,,,,,,,,,,,,701.5433036000468,702.0457822997123,0.5059863897040486,1.0069248895160854,702.0291001000442,702.1291942000389,702.0291001000442,702.1291942000389,702.1291942000389,None,m,1,0.7553556999191642,702.1291942000389,None,,,,,,44,p26,2022_May_13_0916,training+cueing,2021.1.4,59.992069141717195,
Friend.png,You,Friend,m,1.2,14,24,94,,,,,1,0,1,0,,,,,6,7,79,3,,,,,,,,,,,,,,,,,,,,,1.706,2.237,703.0203128000721,None,,,,,,,,,,,,,,,,,,,,703.5578605998307,704.0638717999682,0.510339189786464,1.01064298953861,704.0472220997326,704.1472903997637,704.0472220997326,704.1472903997637,704.1472903997637,None,m,1,0.801331200171262,704.1472903997637,None,,,,,,44,p26,2022_May_13_0916,training+cueing,2021.1.4,59.992069141717195,
Friend.png,Friend,Friend,c,2,12,22,92,,,,,1,0,1,0,,,,,6,8,80,10,,,,,,,,,,,,,,,,,,,,,1.417,2.153,705.0707934000529,None,,,,,,,,,,,,,,,,,,,,705.6128734997474,706.1153735998087,0.5054375897161663,1.005745189730078,706.0987070999108,706.2154282997362,706.0987070999108,706.2154282997362,706.1987490998581,None,c,1,0.5258782999590039,706.1987490998581,None,,,,,,44,p26,2022_May_13_0916,training+cueing,2021.1.4,59.992069141717195,
Friend.png,Stranger,Friend,m,3.2,19,29,99,,,,,1,0,1,0,,,,,6,9,81,5,,,,,,,,,,,,,,,,,,,,,1.508,1.488,706.8557945997454,None,,,,,,,,,,,,,,,,,,,,707.3982883999124,707.8999850000255,0.5057309898547828,1.0060266898944974,707.8833475001156,708.000028999988,707.8833475001156,708.000028999988,707.9833681997843,None,None,0,,707.9833681997843,None,,,,,,44,p26,2022_May_13_0916,training+cueing,2021.1.4,59.992069141717195,
Stranger.png,Stranger,Stranger,c,3,13,23,93,,,,,1,0,1,0,,,,,6,10,82,11,,,,,,,,,,,,,,,,,,,,,1.488,1.972,709.6059089996852,None,,,,,,,,,,,,,,,,,,,,710.1522307000123,710.6522186999209,0.5146666900254786,1.0149659900926054,710.6522186999209,710.7523006997071,710.6522186999209,710.7523006997071,710.7523006997071,None,c,1,0.9482815000228584,710.7523006997071,None,,,,,,44,p26,2022_May_13_0916,training+cueing,2021.1.4,59.992069141717195,
Friend.png,Friend,Friend,c,2,12,22,92,,,,,1,0,1,0,,,,,6,11,83,4,,,,,,,,,,,,,,,,,,,,,1.747,2.41,711.827325399965,None,,,,,,,,,,,,,,,,,,,,712.368859899696,712.8702619997784,0.503348489291966,1.0036747893318534,712.8535555000417,712.9703460000455,712.8535555000417,712.9703460000455,712.9535912997089,None,c,1,0.5709967999719083,712.9535912997089,None,,,,,,44,p26,2022_May_13_0916,training+cueing,2021.1.4,59.992069141717195,
