Image,Name,Face,CorrAns,Match,Face_onset,CResponse_onset,IResponse_onset,Match.thisRepN,Match.thisTrialN,Match.thisN,Match.thisIndex,Blocks.thisRepN,Blocks.thisTrialN,Blocks.thisN,Blocks.thisIndex,trials.thisRepN,trials.thisTrialN,trials.thisN,trials.thisIndex,trials_2.thisRepN,trials_2.thisTrialN,trials_2.thisN,trials_2.thisIndex,text.started,text.stopped,p1.started,p1.stopped,MatchInstructions.started,MatchInstructions.stopped,Name1.started,Name1.stopped,Face_Relevance.started,Face_Relevance.stopped,MismatchInstructions.started,MismatchInstructions.stopped,Rest_trainingInstruct.started,Rest_trainingInstruct.stopped,next8.keys,next8.rt,next8.started,next8.stopped,Ready.started,Ready.stopped,delay_one_picked,delay_two_picked,blank0.started,blank0.stopped,FixationCross1.started,FixationCross1.stopped,Name3.started,Name3.stopped,Face_Relevance3.started,Face_Relevance3.stopped,responseTime.started,responseTime.stopped,resp.keys,resp.corr,resp.started,resp.stopped,Accuracy.started,Accuracy.stopped,resp.rt,questions.started,questions.stopped,p2.started,p2.stopped,FixationCross3.started,FixationCross3.stopped,port_Face_onset.started,port_Face_onset.stopped,Name4.started,Name4.stopped,Face_Relevance4.started,Face_Relevance4.stopped,responseTime2.started,responseTime2.stopped,Response.keys,Response.corr,Response.rt,Response.started,Response.stopped,p3.started,p3.stopped,Finish.started,Finish.stopped,gender,age,participant,date,expName,psychopyVersion,frameRate,
Friend.png,Friend,,,,,,,0,0,0,1,,,,,,,,,,,,,17.175023999996483,None,0.005427599884569645,0.5287916999077424,26.436114500043914,None,42.16602020000573,None,42.16602020000573,None,,,,,,,,,,,,,,,,,,,,,,,,,,,,,,,,,,,,,,,,,,,,,,,,,,,,,,,p27,2022_May_20_1623,training+cueing,2021.1.4,59.94711465752226,
Self.png,You,,,,,,,0,1,1,0,,,,,,,,,,,,,,,,,,,62.07260180008598,None,62.07260180008598,None,,,,,,,,,,,,,,,,,,,,,,,,,,,,,,,,,,,,,,,,,,,,,,,,,,,,,,,p27,2022_May_20_1623,training+cueing,2021.1.4,59.94711465752226,
Stranger.png,Stranger,,,,,,,0,2,2,2,,,,,,,,,,,,,,,,,,,82.06739430001471,None,82.06739430001471,None,,,,,,,,,,,,,,,,,,,,,,,,,,,,,,,,,,,,,,,,,,,,,,,,,,,,,,,p27,2022_May_20_1623,training+cueing,2021.1.4,59.94711465752226,
Self.png,Stranger,Self ,m,3.1,18,28,98,,,,,0,0,0,0,0,0,0,2,,,,,,,,,,,,,,,102.02679400006309,None,149.71112130000256,None,space,-0.3393224000465125,2.008162949932739,None,151.712618199992,None,1.641,2.064,154.72978799999692,None,155.35691259999294,155.86550910002552,155.84883570007514,155.96582710009534,155.84883570007514,155.96582710009534,155.94912200002,None,None,0,155.94912200002,None,157.59829730005004,None,,,,,,,,,,,,,,,,,,,,,,,,,,,p27,2022_May_20_1623,training+cueing,2021.1.4,59.94711465752226,
Stranger.png,Friend,Stranger,m,2.3,17,27,97,,,,,0,0,0,0,0,1,1,7,,,,,,,,,,,,,,,,,,,,,,,,,1.708,1.26,158.00032510003075,None,158.53312869998626,159.03447419998702,159.0178087000968,159.13448580005206,159.0178087000968,159.13448580005206,159.11779819999356,None,None,0,159.11779819999356,None,160.83576980000362,None,,,,,,,,,,,,,,,,,,,,,,,,,,,p27,2022_May_20_1623,training+cueing,2021.1.4,59.94711465752226,
Friend.png,Friend,Friend,c,2,12,22,92,,,,,0,0,0,0,0,2,2,10,,,,,,,,,,,,,,,,,,,,,,,,,1.515,2.147,161.23619239998516,None,161.76845050009433,162.27013860002626,162.25342950003687,162.3701916000573,162.25342950003687,162.3701916000573,162.3534576999955,None,c,1,162.3534576999955,None,163.21436610003002,None,0.8273454000009224,,,,,,,,,,,,,,,,,,,,,,,,,,p27,2022_May_20_1623,training+cueing,2021.1.4,59.94711465752226,
Friend.png,You,Friend,m,1.2,14,24,94,,,,,0,0,0,0,0,3,3,3,,,,,,,,,,,,,,,,,,,,,,,,,1.696,2.138,163.62120440008584,None,164.15744239999913,164.67180630005896,164.65520420006942,164.75526050000917,164.65520420006942,164.75526050000917,164.75526050000917,None,m,1,164.75526050000917,None,165.5224510000553,None,0.7452518000500277,,,,,,,,,,,,,,,,,,,,,,,,,,p27,2022_May_20_1623,training+cueing,2021.1.4,59.94711465752226,
Stranger.png,Stranger,Stranger,c,3,13,23,93,,,,,0,0,0,0,0,4,4,8,,,,,,,,,,,,,,,,,,,,,,,,,1.635,1.438,165.92343060008716,None,166.46568300004583,166.97349070000928,166.9568556000013,167.07354460004717,166.9568556000013,167.07354460004717,167.05690490000416,None,c,1,167.05690490000416,None,168.27480210002977,None,1.1797256000572816,,,,,,,,,,,,,,,,,,,,,,,,,,p27,2022_May_20_1623,training+cueing,2021.1.4,59.94711465752226,
Stranger.png,You,Stranger,m,1.3,15,25,95,,,,,0,0,0,0,0,5,5,6,,,,,,,,,,,,,,,,,,,,,,,,,1.668,1.376,168.67496020009276,None,169.21008350001648,169.72553400008474,169.70885420008563,169.80889190000016,169.70885420008563,169.80889190000016,169.80889190000016,None,m,1,169.80889190000016,None,170.52821300004143,None,0.6998539000051096,,,,,,,,,,,,,,,,,,,,,,,,,,p27,2022_May_20_1623,training+cueing,2021.1.4,59.94711465752226,
Friend.png,Stranger,Friend,m,3.2,19,29,99,,,,,0,0,0,0,0,6,6,5,,,,,,,,,,,,,,,,,,,,,,,,,1.482,1.242,170.9432104000589,None,171.48117420007475,171.9938351000892,171.97715610009618,172.09386250004172,171.97715610009618,172.09386250004172,172.07721420004964,None,None,0,172.07721420004964,None,173.55972110002767,None,,,,,,,,,,,,,,,,,,,,,,,,,,,p27,2022_May_20_1623,training+cueing,2021.1.4,59.94711465752226,
Self.png,You,Self ,c,1,11,21,91,,,,,0,0,0,0,0,7,7,0,,,,,,,,,,,,,,,,,,,,,,,,,1.553,1.581,173.96189710008912,None,174.49432300007902,174.99598180002067,174.97928440000396,175.07932560006157,174.97928440000396,175.07932560006157,175.07932560006157,None,c,1,175.07932560006157,None,175.74522170005366,None,0.6452159000327811,,,,,,,,,,,,,,,,,,,,,,,,,,p27,2022_May_20_1623,training+cueing,2021.1.4,59.94711465752226,
Self.png,Friend,Self ,m,2.1,16,26,96,,,,,0,0,0,0,0,8,8,1,,,,,,,,,,,,,,,,,,,,,,,,,1.485,2.087,176.14678100007586,None,176.67701109999325,177.1808764000889,177.16427170007955,177.28090940008406,177.16427170007955,177.28090940008406,177.26425960008055,None,m,1,177.26425960008055,None,177.9799461000366,None,0.7005975999636576,,,,,,,,,,,,,,,,,,,,,,,,,,p27,2022_May_20_1623,training+cueing,2021.1.4,59.94711465752226,
Friend.png,Friend,Friend,c,2,12,22,92,,,,,0,0,0,0,0,9,9,4,,,,,,,,,,,,,,,,,,,,,,,,,1.746,2.353,178.3819860999938,None,178.92132690001745,179.4325058000395,179.4158586000558,179.53257969999686,179.4158586000558,179.53257969999686,179.51588459999766,None,c,1,179.51588459999766,None,180.21647250000387,None,0.6725894999690354,,,,,,,,,,,,,,,,,,,,,,,,,,p27,2022_May_20_1623,training+cueing,2021.1.4,59.94711465752226,
Stranger.png,Stranger,Stranger,c,3,13,23,93,,,,,0,0,0,0,0,10,10,11,,,,,,,,,,,,,,,,,,,,,,,,,1.696,2.099,180.61684180004522,None,181.16098020004574,181.66747550002765,181.6507733000908,181.76753100007772,181.6507733000908,181.76753100007772,181.75080909999087,None,c,1,181.75080909999087,None,182.7182864000788,None,0.9496924999402836,,,,,,,,,,,,,,,,,,,,,,,,,,p27,2022_May_20_1623,training+cueing,2021.1.4,59.94711465752226,
Self.png,You,Self ,c,1,11,21,91,,,,,0,0,0,0,0,11,11,9,,,,,,,,,,,,,,,,,,,,,,,,,1.489,1.302,183.11850690003484,None,183.6502923000371,184.152576600085,184.13595750008244,184.23598490003496,184.13595750008244,184.23598490003496,184.23598490003496,None,m,0,184.23598490003496,None,184.80367990001105,None,0.5445846000220627,,,,,,,,,,,,,,,,,,,,,,,,,,p27,2022_May_20_1623,training+cueing,2021.1.4,59.94711465752226,
Friend.png,Friend,Friend,c,2,12,22,92,,,,,0,0,0,0,,,,,0,0,0,10,,,,,,,,,,,,,,,,,,,239.29263160005212,None,1.507,1.374,242.80333580006845,None,,,,,,,,,,,,,,,,185.20338160009123,None,0.014107049908488989,0.5119539499282837,243.44850679999217,243.96261710010003,0.5087906499393284,1.00890684989281,243.94601180008613,244.06269630009774,243.94601180008613,244.06269630009774,244.04602110001724,None,c,1,0.7505942999850959,244.04602110001724,None,,,,,,,p27,2022_May_20_1623,training+cueing,2021.1.4,59.94711465752226,
Self.png,You,Self ,c,1,11,21,91,,,,,0,0,0,0,,,,,0,1,1,9,,,,,,,,,,,,,,,,,,,,,1.618,1.228,244.9263344000792,None,,,,,,,,,,,,,,,,,,,,245.46134160005022,245.9639750000788,0.5054881500545889,1.0057463500415906,245.94729340006597,246.04733460000716,245.94729340006597,246.04733460000716,246.04733460000716,None,m,0,0.7011129000457004,246.04733460000716,None,,,,,,,p27,2022_May_20_1623,training+cueing,2021.1.4,59.94711465752226,
Friend.png,You,Friend,m,1.2,14,24,94,,,,,0,0,0,0,,,,,0,2,2,3,,,,,,,,,,,,,,,,,,,,,1.777,2.122,246.87085380009376,None,,,,,,,,,,,,,,,,,,,,247.4094228000613,247.915301800007,0.5108342500170693,1.0111233500065282,247.89868049998768,247.9987724000821,247.89868049998768,247.9987724000821,247.9987724000821,None,m,1,0.9418408999918029,247.9987724000821,None,,,,,,,p27,2022_May_20_1623,training+cueing,2021.1.4,59.94711465752226,
Self.png,Friend,Self ,m,2.1,16,26,96,,,,,0,0,0,0,,,,,0,3,3,1,,,,,,,,,,,,,,,,,,,,,1.451,2.031,249.07396010006778,None,,,,,,,,,,,,,,,,,,,,249.62394690001383,250.13373240001965,0.5010949498973787,1.0013913499424234,250.11697060009465,250.23369310004637,250.11697060009465,250.23369310004637,250.23369310004637,None,m,1,0.7226747999666259,250.23369310004637,None,,,,,,,p27,2022_May_20_1623,training+cueing,2021.1.4,59.94711465752226,
Stranger.png,Stranger,Stranger,c,3,13,23,93,,,,,0,0,0,0,,,,,0,4,4,11,,,,,,,,,,,,,,,,,,,,,1.708,2.377,251.09049430000596,None,,,,,,,,,,,,,,,,,,,,251.63311140006408,252.13510710000992,0.5045934499939904,1.004863949958235,252.11838040000293,252.23514980007894,252.11838040000293,252.23514980007894,252.21841710002627,None,c,1,1.1059310000855476,252.21841710002627,None,,,,,,,p27,2022_May_20_1623,training+cueing,2021.1.4,59.94711465752226,
Self.png,Stranger,Self ,m,3.1,18,28,98,,,,,0,0,0,0,,,,,0,5,5,2,,,,,,,,,,,,,,,,,,,,,1.513,1.316,253.45843270001933,None,,,,,,,,,,,,,,,,,,,,253.99784000008367,254.5034889000235,0.510890549980104,1.011346949962899,254.48680980002973,254.6035436000675,254.48680980002973,254.6035436000675,254.58698140003253,None,m,1,0.8814384000143036,254.58698140003253,None,,,,,,,p27,2022_May_20_1623,training+cueing,2021.1.4,59.94711465752226,
Friend.png,Friend,Friend,c,2,12,22,92,,,,,0,0,0,0,,,,,0,6,6,4,,,,,,,,,,,,,,,,,,,,,1.643,1.66,255.59528390003834,None,,,,,,,,,,,,,,,,,,,,256.136957300012,256.63830510003027,0.5025720502017066,1.0028488500975072,256.6216911000665,256.73835300002247,256.6216911000665,256.73835300002247,256.721701100003,None,m,0,0.9386981000425294,256.721701100003,None,,,,,,,p27,2022_May_20_1623,training+cueing,2021.1.4,59.94711465752226,
Stranger.png,Friend,Stranger,m,2.3,17,27,97,,,,,0,0,0,0,,,,,0,7,7,7,,,,,,,,,,,,,,,,,,,,,1.71,1.238,257.795586100081,None,,,,,,,,,,,,,,,,,,,,258.33302590006497,258.83989460009616,0.5130593500798568,1.013359650154598,258.82324759999756,258.93990810005926,258.82324759999756,258.93990810005926,258.9232928000856,None,m,1,0.721207799972035,258.9232928000856,None,,,,,,,p27,2022_May_20_1623,training+cueing,2021.1.4,59.94711465752226,
Stranger.png,You,Stranger,m,1.3,15,25,95,,,,,0,0,0,0,,,,,0,8,8,6,,,,,,,,,,,,,,,,,,,,,1.652,2.255,259.7810252000345,None,,,,,,,,,,,,,,,,,,,,260.32305380003527,260.82468950003386,0.5026787499664351,1.002902349922806,260.80809499998577,260.9080510000931,260.80809499998577,260.9080510000931,260.9080510000931,None,m,1,0.704429299919866,260.9080510000931,None,,,,,,,p27,2022_May_20_1623,training+cueing,2021.1.4,59.94711465752226,
Stranger.png,Stranger,Stranger,c,3,13,23,93,,,,,0,0,0,0,,,,,0,9,9,8,,,,,,,,,,,,,,,,,,,,,1.507,1.307,261.7484485000605,None,,,,,,,,,,,,,,,,,,,,262.2884522000095,262.79280639998615,0.5082955498946831,1.0085880499100313,262.77607900009025,262.8928485000506,262.77607900009025,262.8928485000506,262.8761192000238,None,c,1,0.8002685999963433,262.8761192000238,None,,,,,,,p27,2022_May_20_1623,training+cueing,2021.1.4,59.94711465752226,
Friend.png,Stranger,Friend,m,3.2,19,29,99,,,,,0,0,0,0,,,,,0,10,10,5,,,,,,,,,,,,,,,,,,,,,1.611,2.071,263.7992476000218,None,,,,,,,,,,,,,,,,,,,,264.33835650002584,264.8442866000114,0.5107420500135049,1.0116289500147104,264.82755210006144,264.9443710000487,264.82755210006144,264.9443710000487,264.92765720002353,None,m,1,0.8127928000176325,264.92765720002353,None,,,,,,,p27,2022_May_20_1623,training+cueing,2021.1.4,59.94711465752226,
Self.png,You,Self ,c,1,11,21,91,,,,,0,0,0,0,,,,,0,11,11,0,,,,,,,,,,,,,,,,,,,,,1.769,2.419,265.86870580003597,None,,,,,,,,,,,,,,,,,,,,266.4079786000075,266.9124515000731,0.5073933500098065,1.007710549980402,266.8957636000123,266.99581860005856,266.8957636000123,266.99581860005856,266.99581860005856,None,c,1,0.8246171999489889,266.99581860005856,None,,,,,,,p27,2022_May_20_1623,training+cueing,2021.1.4,59.94711465752226,
Self.png,Stranger,Self ,m,3.1,18,28,98,,,,,0,0,0,0,,,,,1,0,12,2,,,,,,,,,,,,,,,,,,,,,1.709,1.359,267.95220020005945,None,,,,,,,,,,,,,,,,,,,,268.5007840000326,269.01396960008424,0.5103166500339285,1.010826849960722,268.99727990000974,269.1140112000285,268.99727990000974,269.1140112000285,269.09728099999484,None,m,1,0.7711175999138504,269.09728099999484,None,,,,,,,p27,2022_May_20_1623,training+cueing,2021.1.4,59.94711465752226,
Friend.png,Friend,Friend,c,2,12,22,92,,,,,0,0,0,0,,,,,1,1,13,10,,,,,,,,,,,,,,,,,,,,,1.458,1.527,270.0041624000296,None,,,,,,,,,,,,,,,,,,,,270.54771549999714,271.0487400999991,0.5026996500091627,1.0029945500427857,271.0320945000276,271.148827200057,271.0320945000276,271.148827200057,271.13211410003714,None,c,1,0.6561807000543922,271.13211410003714,None,,,,,,,p27,2022_May_20_1623,training+cueing,2021.1.4,59.94711465752226,
Stranger.png,Stranger,Stranger,c,3,13,23,93,,,,,0,0,0,0,,,,,1,2,14,8,,,,,,,,,,,,,,,,,,,,,1.597,1.484,271.92232070001774,None,,,,,,,,,,,,,,,,,,,,272.46422580000944,272.9668060000986,0.5043382500298321,1.0045997500419617,272.9501426999923,273.0668563999934,272.9501426999923,273.0668563999934,273.0501905999845,None,m,0,0.7542301999637857,273.0501905999845,None,,,,,,,p27,2022_May_20_1623,training+cueing,2021.1.4,59.94711465752226,
Self.png,You,Self ,c,1,11,21,91,,,,,0,0,0,0,,,,,1,3,15,9,,,,,,,,,,,,,,,,,,,,,1.779,1.628,273.94076740008313,None,,,,,,,,,,,,,,,,,,,,274.4792577000335,274.9849197000731,0.5110010500065982,1.011512550059706,274.9682854000712,275.0683317000512,274.9682854000712,275.0683317000512,275.0683317000512,None,m,0,0.5921603000024334,275.0683317000512,None,,,,,,,p27,2022_May_20_1623,training+cueing,2021.1.4,59.94711465752226,
Stranger.png,Friend,Stranger,m,2.3,17,27,97,,,,,0,0,0,0,,,,,1,4,16,7,,,,,,,,,,,,,,,,,,,,,1.666,1.698,275.7934461000841,None,,,,,,,,,,,,,,,,,,,,276.35060230002273,276.85293050005566,0.5033606999786571,1.0033746999688447,276.83652750006877,276.953015300096,276.83652750006877,276.953015300096,276.93639070005156,None,c,0,0.8519552999641746,276.93639070005156,None,,,,,,,p27,2022_May_20_1623,training+cueing,2021.1.4,59.94711465752226,
Self.png,You,Self ,c,1,11,21,91,,,,,0,0,0,0,,,,,1,5,17,0,,,,,,,,,,,,,,,,,,,,,1.462,2.083,277.9265918000601,None,,,,,,,,,,,,,,,,,,,,278.4662510000635,278.971120000002,0.5104130499530584,1.010706549976021,278.9544913000427,279.0545589000685,278.9544913000427,279.0545589000685,279.0545589000685,None,c,1,1.0378280999138951,279.0545589000685,None,,,,,,,p27,2022_May_20_1623,training+cueing,2021.1.4,59.94711465752226,
Self.png,Friend,Self ,m,2.1,16,26,96,,,,,0,0,0,0,,,,,1,6,18,1,,,,,,,,,,,,,,,,,,,,,1.605,2.137,280.2284701000899,None,,,,,,,,,,,,,,,,,,,,280.7661141999997,281.2727830000222,0.511968250037171,1.0128649501129985,281.2561444999883,281.372848500032,281.2561444999883,281.372848500032,281.35619640001096,None,m,1,1.280267900088802,281.35619640001096,None,,,,,,,p27,2022_May_20_1623,training+cueing,2021.1.4,59.94711465752226,
Stranger.png,You,Stranger,m,1.3,15,25,95,,,,,0,0,0,0,,,,,1,7,19,6,,,,,,,,,,,,,,,,,,,,,1.48,2.086,282.7643482000567,None,,,,,,,,,,,,,,,,,,,,283.3033615000313,283.80800630000886,0.5069070500321686,1.0072130500338972,283.7912950000027,283.89159770007245,283.7912950000027,283.89159770007245,283.89159770007245,None,m,1,0.9687665000092238,283.89159770007245,None,,,,,,,p27,2022_May_20_1623,training+cueing,2021.1.4,59.94711465752226,
Friend.png,You,Friend,m,1.2,14,24,94,,,,,0,0,0,0,,,,,1,8,20,3,,,,,,,,,,,,,,,,,,,,,1.421,1.242,284.9817294999957,None,,,,,,,,,,,,,,,,,,,,285.53372770000715,286.04292100004386,0.5029854500899091,1.003266950021498,286.0262884000549,286.1263174000196,286.0262884000549,286.1263174000196,286.1263174000196,None,m,1,0.8622789999935776,286.1263174000196,None,,,,,,,p27,2022_May_20_1623,training+cueing,2021.1.4,59.94711465752226,
Friend.png,Friend,Friend,c,2,12,22,92,,,,,0,0,0,0,,,,,1,9,21,4,,,,,,,,,,,,,,,,,,,,,1.619,2.397,287.11925800004974,None,,,,,,,,,,,,,,,,,,,,287.66074190009385,288.16113180003595,0.4999419499654323,1.0003714499762282,288.14447370008565,288.26120940002147,288.14447370008565,288.26120940002147,288.26120940002147,None,c,1,0.6792004000162706,288.26120940002147,None,,,,,,,p27,2022_May_20_1623,training+cueing,2021.1.4,59.94711465752226,
Friend.png,Stranger,Friend,m,3.2,19,29,99,,,,,0,0,0,0,,,,,1,10,22,5,,,,,,,,,,,,,,,,,,,,,1.442,2.143,289.0679907000158,None,,,,,,,,,,,,,,,,,,,,289.60899450001307,290.11255309998523,0.5045800500083715,1.00487395003438,290.09585410007276,290.2127158000367,290.09585410007276,290.2127158000367,290.1959149000468,None,m,1,0.8244330999441445,290.1959149000468,None,,,,,,,p27,2022_May_20_1623,training+cueing,2021.1.4,59.94711465752226,
Stranger.png,Stranger,Stranger,c,3,13,23,93,,,,,0,0,0,0,,,,,1,11,23,11,,,,,,,,,,,,,,,,,,,,,1.453,2.499,291.152857100009,None,,,,,,,,,,,,,,,,,,,,291.69090420007706,292.1973757999949,0.5121434500906616,1.0124267500359565,292.18072950001806,292.2974084999878,292.18072950001806,292.2974084999878,292.2807347000344,None,c,1,1.0755669000791386,292.2807347000344,None,,,,,,,p27,2022_May_20_1623,training+cueing,2021.1.4,59.94711465752226,
Stranger.png,Stranger,Stranger,c,3,13,23,93,,,,,0,0,0,0,,,,,2,0,24,11,,,,,,,,,,,,,,,,,,,,,1.421,1.764,293.4877268000273,None,,,,,,,,,,,,,,,,,,,,294.0253423000686,294.53241390001494,0.5110409499611706,1.0113195499870926,294.5157596000936,294.6324925000081,294.5157596000936,294.6324925000081,294.61579360009637,None,c,1,0.7566711999243125,294.61579360009637,None,,,,,,,p27,2022_May_20_1623,training+cueing,2021.1.4,59.94711465752226,
Stranger.png,You,Stranger,m,1.3,15,25,95,,,,,0,0,0,0,,,,,2,1,25,6,,,,,,,,,,,,,,,,,,,,,1.764,1.588,295.50568639999256,None,,,,,,,,,,,,,,,,,,,,296.0655522000743,296.56733290001284,0.5036714999005198,1.0040222998941317,296.5506480000913,296.6507164000068,296.5506480000913,296.6507164000068,296.6507164000068,None,m,1,0.6417180000571534,296.6507164000068,None,,,,,,,p27,2022_May_20_1623,training+cueing,2021.1.4,59.94711465752226,
Friend.png,Friend,Friend,c,2,12,22,92,,,,,0,0,0,0,,,,,2,2,26,10,,,,,,,,,,,,,,,,,,,,,1.605,1.232,297.4254545000149,None,,,,,,,,,,,,,,,,,,,,297.9667496000184,298.46862800000235,0.5032629499910399,1.0041109499288723,298.45192180003505,298.56864700000733,298.45192180003505,298.56864700000733,298.5519435000606,None,c,1,0.6925405999645591,298.5519435000606,None,,,,,,,p27,2022_May_20_1623,training+cueing,2021.1.4,59.94711465752226,
Self.png,You,Self ,c,1,11,21,91,,,,,0,0,0,0,,,,,2,3,27,0,,,,,,,,,,,,,,,,,,,,,1.732,1.617,299.37649819999933,None,,,,,,,,,,,,,,,,,,,,299.91704160009976,300.4199632999953,0.5036599501036108,1.003952550003305,300.4033406000817,300.50339800002985,300.4033406000817,300.50339800002985,300.50339800002985,None,c,1,0.6129560000263155,300.50339800002985,None,,,,,,,p27,2022_May_20_1623,training+cueing,2021.1.4,59.94711465752226,
Self.png,Stranger,Self ,m,3.1,18,28,98,,,,,0,0,0,0,,,,,2,4,28,2,,,,,,,,,,,,,,,,,,,,,1.559,1.469,301.24288230005186,None,,,,,,,,,,,,,,,,,,,,301.78449019999243,302.2879865000723,0.5056696500396356,1.0059419500175864,302.2713602000149,302.3880550999893,302.2713602000149,302.3880550999893,302.3713990000542,None,m,1,0.7129528999794275,302.3713990000542,None,,,,,,,p27,2022_May_20_1623,training+cueing,2021.1.4,59.94711465752226,
Friend.png,Friend,Friend,c,2,12,22,92,,,,,0,0,0,0,,,,,2,5,29,4,,,,,,,,,,,,,,,,,,,,,1.782,1.769,303.2118035000749,None,,,,,,,,,,,,,,,,,,,,303.7521296000341,304.25614409998525,0.5077554499730468,1.0080572499427944,304.2394054000033,304.35619540000334,304.2394054000033,304.35619540000334,304.33944810007233,None,m,0,1.0969354000408202,304.33944810007233,None,,,,,,,p27,2022_May_20_1623,training+cueing,2021.1.4,59.94711465752226,
Self.png,Friend,Self ,m,2.1,16,26,96,,,,,0,0,0,0,,,,,2,6,30,1,,,,,,,,,,,,,,,,,,,,,1.746,1.515,305.5633670000825,None,,,,,,,,,,,,,,,,,,,,306.10143839998636,306.6078266000841,0.5109081499977037,1.0113823499996215,306.59111660008784,306.70804480009247,306.59111660008784,306.70804480009247,306.69130940001924,None,m,1,0.8091669999994338,306.69130940001924,None,,,,,,,p27,2022_May_20_1623,training+cueing,2021.1.4,59.94711465752226,
Stranger.png,Stranger,Stranger,c,3,13,23,93,,,,,0,0,0,0,,,,,2,7,31,8,,,,,,,,,,,,,,,,,,,,,1.64,1.731,307.63320670009125,None,,,,,,,,,,,,,,,,,,,,308.17484480002895,308.67599510005675,0.5023066500434652,1.0025652500335127,308.65929089998826,308.77604670007713,308.65929089998826,308.77604670007713,308.75934200000484,None,c,1,0.8692706000292674,308.75934200000484,None,,,,,,,p27,2022_May_20_1623,training+cueing,2021.1.4,59.94711465752226,
Stranger.png,Friend,Stranger,m,2.3,17,27,97,,,,,0,0,0,0,,,,,2,8,32,7,,,,,,,,,,,,,,,,,,,,,1.633,2.446,309.7528711000923,None,,,,,,,,,,,,,,,,,,,,310.29257849999703,310.79419859999325,0.5024774500634521,1.0029650500509888,310.77746580005623,310.8947995000053,310.77746580005623,310.8947995000053,310.87806290003937,None,m,1,0.9423886999720708,310.87806290003937,None,,,,,,,p27,2022_May_20_1623,training+cueing,2021.1.4,59.94711465752226,
Self.png,You,Self ,c,1,11,21,91,,,,,0,0,0,0,,,,,2,9,33,9,,,,,,,,,,,,,,,,,,,,,1.726,1.216,311.9522611000575,None,,,,,,,,,,,,,,,,,,,,312.4940711000236,312.99574020004366,0.5034732499625534,1.0037648499710485,312.97911350009963,313.0791777999839,312.97911350009963,313.0791777999839,313.0791777999839,None,c,1,1.077220700099133,313.0791777999839,None,,,,,,,p27,2022_May_20_1623,training+cueing,2021.1.4,59.94711465752226,
Friend.png,Stranger,Friend,m,3.2,19,29,99,,,,,0,0,0,0,,,,,2,10,34,5,,,,,,,,,,,,,,,,,,,,,1.417,2.058,314.28639860008843,None,,,,,,,,,,,,,,,,,,,,314.82698240003083,315.3308129000943,0.5062231499468908,1.0065181499812752,315.3141378000146,315.4308719000546,315.3141378000146,315.4308719000546,315.4141675999854,None,None,0,,315.4141675999854,None,,,,,,,p27,2022_May_20_1623,training+cueing,2021.1.4,59.94711465752226,
Friend.png,You,Friend,m,1.2,14,24,94,,,,,0,0,0,0,,,,,2,11,35,3,,,,,,,,,,,,,,,,,,,,,1.796,2.218,316.93604220007546,None,,,,,,,,,,,,,,,,,,,,317.47607800003607,317.98272730002645,0.5103737500030547,1.0112975500524044,317.9660150000127,318.0661176000722,317.9660150000127,318.0661176000722,318.0661176000722,None,m,1,1.0822077000048012,318.0661176000722,None,,,,,,,p27,2022_May_20_1623,training+cueing,2021.1.4,59.94711465752226,
Self.png,Friend,Self ,m,2.1,16,26,96,,,,,0,0,0,0,,,,,3,0,36,1,,,,,,,,,,,,,,,,,,,,,1.796,2.375,319.27284520003013,None,,,,,,,,,,,,,,,,,,,,319.8141769000795,320.317707200069,0.5062125499825925,1.0064793499186635,320.3011028000619,320.41778310004156,320.3011028000619,320.41778310004156,320.40113330003805,None,m,1,0.6991873000515625,320.40113330003805,None,,,,,,,p27,2022_May_20_1623,training+cueing,2021.1.4,59.94711465752226,
Friend.png,Friend,Friend,c,2,12,22,92,,,,,0,0,0,0,,,,,3,1,37,4,,,,,,,,,,,,,,,,,,,,,1.773,2.078,321.22592540003825,None,,,,,,,,,,,,,,,,,,,,321.7635562000796,322.2691274000099,0.5110765501158312,1.01196505012922,322.25248070003,322.3697357000783,322.25248070003,322.3697357000783,322.3525299000321,None,c,1,1.01991110004019,322.3525299000321,None,,,,,,,p27,2022_May_20_1623,training+cueing,2021.1.4,59.94711465752226,
Friend.png,Stranger,Friend,m,3.2,19,29,99,,,,,0,0,0,0,,,,,3,2,38,5,,,,,,,,,,,,,,,,,,,,,1.51,2.329,323.51092410006095,None,,,,,,,,,,,,,,,,,,,,324.0524353000801,324.5542682000669,0.5023390500573441,1.0027297500055283,324.53759700001683,324.65438910003286,324.53759700001683,324.65438910003286,324.637622200069,None,m,1,1.054780799895525,324.637622200069,None,,,,,,,p27,2022_May_20_1623,training+cueing,2021.1.4,59.94711465752226,
Friend.png,You,Friend,m,1.2,14,24,94,,,,,0,0,0,0,,,,,3,3,39,3,,,,,,,,,,,,,,,,,,,,,1.516,1.924,325.82921510003507,None,,,,,,,,,,,,,,,,,,,,326.3683485999936,326.87252650002483,0.5071736500831321,1.0074217501096427,326.85585799999535,326.9558773000026,326.85585799999535,326.9558773000026,326.9558773000026,None,m,1,0.8005182000342757,326.9558773000026,None,,,,,,,p27,2022_May_20_1623,training+cueing,2021.1.4,59.94711465752226,
Self.png,You,Self ,c,1,11,21,91,,,,,0,0,0,0,,,,,3,4,40,9,,,,,,,,,,,,,,,,,,,,,1.722,1.615,327.8797230999917,None,,,,,,,,,,,,,,,,,,,,328.4158521000063,328.92403390002437,0.514193250099197,1.0145113500766456,328.907283400069,329.0073615000583,328.907283400069,329.0073615000583,329.0073615000583,None,c,1,0.6530154999345541,329.0073615000583,None,,,,,,,p27,2022_May_20_1623,training+cueing,2021.1.4,59.94711465752226,
Self.png,Stranger,Self ,m,3.1,18,28,98,,,,,0,0,0,0,,,,,3,5,41,2,,,,,,,,,,,,,,,,,,,,,1.449,1.84,329.7981472000247,None,,,,,,,,,,,,,,,,,,,,330.34036959998775,330.8420538000064,0.5047931500012055,1.0052184499800205,330.82535130006727,330.9421957000159,330.82535130006727,330.9421957000159,330.92552580009215,None,m,1,0.7188447999069467,330.92552580009215,None,,,,,,,p27,2022_May_20_1623,training+cueing,2021.1.4,59.94711465752226,
Stranger.png,Friend,Stranger,m,2.3,17,27,97,,,,,0,0,0,0,,,,,3,6,42,7,,,,,,,,,,,,,,,,,,,,,1.452,2.428,331.76571340009104,None,,,,,,,,,,,,,,,,,,,,332.3050886000274,332.8101000000024,0.5094476500526071,1.009774349979125,332.79344050004147,332.91013620002195,332.79344050004147,332.91013620002195,332.89351820002776,None,m,1,0.8307311000535265,332.89351820002776,None,,,,,,,p27,2022_May_20_1623,training+cueing,2021.1.4,59.94711465752226,
Self.png,You,Self ,c,1,11,21,91,,,,,0,0,0,0,,,,,3,7,43,0,,,,,,,,,,,,,,,,,,,,,1.773,2.223,333.85080200002994,None,,,,,,,,,,,,,,,,,,,,334.3907010999974,334.8950048000552,0.5072766499361023,1.0073942500166595,334.8784411000088,334.9783649999881,334.8784411000088,334.9783649999881,334.9783649999881,None,c,1,0.9539474000921473,334.9783649999881,None,,,,,,,p27,2022_May_20_1623,training+cueing,2021.1.4,59.94711465752226,
Stranger.png,Stranger,Stranger,c,3,13,23,93,,,,,0,0,0,0,,,,,3,8,44,11,,,,,,,,,,,,,,,,,,,,,1.758,1.707,336.06860280002,None,,,,,,,,,,,,,,,,,,,,336.61236890009604,337.1132440000074,0.5019407500512898,1.0022629500599578,337.0965644000098,337.2133052999852,337.0965644000098,337.2133052999852,337.19662639999297,None,c,1,0.9437309999484569,337.19662639999297,None,,,,,,,p27,2022_May_20_1623,training+cueing,2021.1.4,59.94711465752226,
Stranger.png,You,Stranger,m,1.3,15,25,95,,,,,0,0,0,0,,,,,3,9,45,6,,,,,,,,,,,,,,,,,,,,,1.585,1.422,338.2701193999965,None,,,,,,,,,,,,,,,,,,,,338.810794500052,339.3148650000803,0.5071800501318648,1.0074606500566006,339.2981992000714,339.39821200002916,339.2981992000714,339.39821200002916,339.39821200002916,None,m,1,0.7261320999823511,339.39821200002916,None,,,,,,,p27,2022_May_20_1623,training+cueing,2021.1.4,59.94711465752226,
Friend.png,Friend,Friend,c,2,12,22,92,,,,,0,0,0,0,,,,,3,10,46,10,,,,,,,,,,,,,,,,,,,,,1.657,2.239,340.2551626000786,None,,,,,,,,,,,,,,,,,,,,340.8083187000593,341.3163154000649,0.5142979000229388,1.0146643000189215,341.29959690000396,341.416314400034,341.29959690000396,341.416314400034,341.3996093000751,None,c,1,0.6926397000206634,341.3996093000751,None,,,,,,,p27,2022_May_20_1623,training+cueing,2021.1.4,59.94711465752226,
Stranger.png,Stranger,Stranger,c,3,13,23,93,,,,,0,0,0,0,,,,,3,11,47,8,,,,,,,,,,,,,,,,,,,,,1.561,1.537,342.22346930007916,None,,,,,,,,,,,,,,,,,,,,342.77653800009284,343.28438329999335,0.5148740998702124,1.01518899993971,343.267705700011,343.38443360000383,343.267705700011,343.38443360000383,343.3677019000752,None,c,1,0.6125811999663711,343.3677019000752,None,,,,,,,p27,2022_May_20_1623,training+cueing,2021.1.4,59.94711465752226,
Stranger.png,Friend,Stranger,m,2.3,17,27,97,,,,,0,0,0,0,,,,,4,0,48,7,,,,,,,,,,,,,,,,,,,,,1.565,1.829,344.1081484000897,None,,,,,,,,,,,,,,,,,,,,344.6513714999892,345.15238810004666,0.5000382498838007,1.0005442498950288,345.13568380009383,345.2524336000206,345.13568380009383,345.2524336000206,345.2524336000206,None,m,1,0.6799680000403896,345.2524336000206,None,,,,,,,p27,2022_May_20_1623,training+cueing,2021.1.4,59.94711465752226,
Self.png,Stranger,Self ,m,3.1,18,28,98,,,,,0,0,0,0,,,,,4,1,49,2,,,,,,,,,,,,,,,,,,,,,1.479,2.09,346.05958020000253,None,,,,,,,,,,,,,,,,,,,,346.61156210000627,347.1204555000877,0.5005558499833569,1.0008788499981165,347.10375920007937,347.22055710002314,347.10375920007937,347.22055710002314,347.22055710002314,None,m,1,0.6316194999963045,347.22055710002314,None,,,,,,,p27,2022_May_20_1623,training+cueing,2021.1.4,59.94711465752226,
Friend.png,Stranger,Friend,m,3.2,19,29,99,,,,,0,0,0,0,,,,,4,2,50,5,,,,,,,,,,,,,,,,,,,,,1.436,2.237,347.97722520004027,None,,,,,,,,,,,,,,,,,,,,348.5165105999913,349.0219212000957,0.5111428499221802,1.011354349902831,349.0052253000904,349.12190160003956,349.0052253000904,349.12190160003956,349.10519210004713,None,m,1,1.243183600017801,349.10519210004713,None,,,,,,,p27,2022_May_20_1623,training+cueing,2021.1.4,59.94711465752226,
Self.png,You,Self ,c,1,11,21,91,,,,,0,0,0,0,,,,,4,3,51,9,,,,,,,,,,,,,,,,,,,,,1.716,1.999,350.4789418000728,None,,,,,,,,,,,,,,,,,,,,351.01901140005793,351.523675100063,0.5070843499852344,1.007962750038132,351.5069724000059,351.6070107000414,351.5069724000059,351.6070107000414,351.6070107000414,None,c,1,0.6294236000394449,351.6070107000414,None,,,,,,,p27,2022_May_20_1623,training+cueing,2021.1.4,59.94711465752226,
Friend.png,You,Friend,m,1.2,14,24,94,,,,,0,0,0,0,,,,,4,4,52,3,,,,,,,,,,,,,,,,,,,,,1.759,2.191,352.36505860008765,None,,,,,,,,,,,,,,,,,,,,352.9031812000321,353.40834500000346,0.5095073499251157,1.0098136499291286,353.3916942999931,353.49174060008954,353.3916942999931,353.49174060008954,353.49174060008954,None,m,1,0.8245562999509275,353.49174060008954,None,,,,,,,p27,2022_May_20_1623,training+cueing,2021.1.4,59.94711465752226,
Stranger.png,Stranger,Stranger,c,3,13,23,93,,,,,0,0,0,0,,,,,4,5,53,8,,,,,,,,,,,,,,,,,,,,,1.694,1.246,354.4483143000398,None,,,,,,,,,,,,,,,,,,,,354.9904191000387,355.4932173000416,0.50529095006641,1.0055759500246495,355.4765098000644,355.59327020007186,355.4765098000644,355.59327020007186,355.57654839998577,None,c,1,0.6760753999697044,355.57654839998577,None,,,,,,,p27,2022_May_20_1623,training+cueing,2021.1.4,59.94711465752226,
Stranger.png,You,Stranger,m,1.3,15,25,95,,,,,0,0,0,0,,,,,4,6,54,6,,,,,,,,,,,,,,,,,,,,,1.722,1.739,356.38617790001445,None,,,,,,,,,,,,,,,,,,,,356.9285716000013,357.42796370002907,0.5125333500327542,1.012836950016208,357.42796370002907,357.5279933999991,357.42796370002907,357.5279933999991,357.5279933999991,None,m,1,0.69233750004787,357.5279933999991,None,,,,,,,p27,2022_May_20_1623,training+cueing,2021.1.4,59.94711465752226,
Friend.png,Friend,Friend,c,2,12,22,92,,,,,0,0,0,0,,,,,4,7,55,4,,,,,,,,,,,,,,,,,,,,,1.47,1.735,358.3512117000064,None,,,,,,,,,,,,,,,,,,,,358.8927544000326,359.3960522999987,0.5057841500965878,1.0061129500390962,359.3793748000171,359.4961253000656,359.3793748000171,359.4961253000656,359.4793813000433,None,c,1,0.5968849000055343,359.4793813000433,None,,,,,,,p27,2022_May_20_1623,training+cueing,2021.1.4,59.94711465752226,
Stranger.png,Stranger,Stranger,c,3,13,23,93,,,,,0,0,0,0,,,,,4,8,56,11,,,,,,,,,,,,,,,,,,,,,1.451,1.37,360.2021074000513,None,,,,,,,,,,,,,,,,,,,,360.7411867000628,361.24737690004986,0.5097179500153288,1.0100166499614716,361.23068000003695,361.34744270006195,361.23068000003695,361.34744270006195,361.3307136000367,None,c,1,0.841629600035958,361.3307136000367,None,,,,,,,p27,2022_May_20_1623,training+cueing,2021.1.4,59.94711465752226,
Self.png,You,Self ,c,1,11,21,91,,,,,0,0,0,0,,,,,4,9,57,0,,,,,,,,,,,,,,,,,,,,,1.506,2.399,362.3045784999849,None,,,,,,,,,,,,,,,,,,,,362.844774600002,363.3489119000733,0.5066587500041351,1.0075436499901116,363.3321964000352,363.43225350009743,363.3321964000352,363.43225350009743,363.43225350009743,None,c,1,0.6761004000436515,363.43225350009743,None,,,,,,,p27,2022_May_20_1623,training+cueing,2021.1.4,59.94711465752226,
Friend.png,Friend,Friend,c,2,12,22,92,,,,,0,0,0,0,,,,,4,10,58,10,,,,,,,,,,,,,,,,,,,,,1.59,1.667,364.23985470004845,None,,,,,,,,,,,,,,,,,,,,364.7790555000538,365.2835829000687,0.5086367500480264,1.0096043499652296,365.2669939000625,365.3836435000412,365.2669939000625,365.3836435000412,365.36701789998915,None,c,1,0.7412033999571577,365.36701789998915,None,,,,,,,p27,2022_May_20_1623,training+cueing,2021.1.4,59.94711465752226,
Self.png,Friend,Self ,m,2.1,16,26,96,,,,,0,0,0,0,,,,,4,11,59,1,,,,,,,,,,,,,,,,,,,,,1.414,2.498,366.24059310008306,None,,,,,,,,,,,,,,,,,,,,366.7781437000958,367.2850505000679,0.5108165501151234,1.0111233501229435,367.2684081000043,367.38509180000983,367.2684081000043,367.38509180000983,367.36846210004296,None,m,1,0.6599040000000969,367.36846210004296,None,,,,,,,p27,2022_May_20_1623,training+cueing,2021.1.4,59.94711465752226,
Self.png,You,Self ,c,1,11,21,91,,,,,0,0,0,0,,,,,5,0,60,9,,,,,,,,,,,,,,,,,,,,,1.607,2.159,368.15883169998415,None,,,,,,,,,,,,,,,,,,,,368.69934930000454,369.2030911000911,0.5071029500104487,1.0073501500301063,369.18648490007035,369.2865247000009,369.18648490007035,369.2865247000009,369.2865247000009,None,c,1,0.6457479000091553,369.2865247000009,None,,,,,,,p27,2022_May_20_1623,training+cueing,2021.1.4,59.94711465752226,
Stranger.png,Friend,Stranger,m,2.3,17,27,97,,,,,0,0,0,0,,,,,5,1,61,7,,,,,,,,,,,,,,,,,,,,,1.602,2.397,370.05965569999535,None,,,,,,,,,,,,,,,,,,,,370.6011239000363,371.10452890000306,0.507532550022006,1.007913350011222,371.08784779999405,371.2045869000722,371.08784779999405,371.2045869000722,371.1878772000782,None,m,1,1.2883844999596477,371.1878772000782,None,,,,,,,p27,2022_May_20_1623,training+cueing,2021.1.4,59.94711465752226,
Friend.png,Friend,Friend,c,2,12,22,92,,,,,0,0,0,0,,,,,5,2,62,4,,,,,,,,,,,,,,,,,,,,,1.708,2.307,372.61155050003435,None,,,,,,,,,,,,,,,,,,,,373.1484857000178,373.6563753000228,0.5139445500681177,1.014252750086598,373.6396841000533,373.75643519998994,373.6396841000533,373.75643519998994,373.7397359000752,None,c,1,0.4965091999620199,373.7397359000752,None,,,,,,,p27,2022_May_20_1623,training+cueing,2021.1.4,59.94711465752226,
Stranger.png,You,Stranger,m,1.3,15,25,95,,,,,0,0,0,0,,,,,5,3,63,6,,,,,,,,,,,,,,,,,,,,,1.422,2.321,374.3634640000528,None,,,,,,,,,,,,,,,,,,,,374.90375110006426,375.4076425000094,0.5073665500385687,1.007657750044018,375.390937600052,375.4910087999888,375.390937600052,375.4910087999888,375.4910087999888,None,m,1,0.6012302999151871,375.4910087999888,None,,,,,,,p27,2022_May_20_1623,training+cueing,2021.1.4,59.94711465752226,
Self.png,You,Self ,c,1,11,21,91,,,,,0,0,0,0,,,,,5,4,64,0,,,,,,,,,,,,,,,,,,,,,1.684,1.204,376.21369380003307,None,,,,,,,,,,,,,,,,,,,,376.7529501999961,377.2589920000173,0.5094578501302749,1.0097335500176996,377.24231940007303,377.3423524000682,377.24231940007303,377.3423524000682,377.3423524000682,None,c,1,0.47795159998349845,377.3423524000682,None,,,,,,,p27,2022_May_20_1623,training+cueing,2021.1.4,59.94711465752226,
Stranger.png,Stranger,Stranger,c,3,13,23,93,,,,,0,0,0,0,,,,,5,5,65,11,,,,,,,,,,,,,,,,,,,,,1.64,2.342,377.94912160001695,None,,,,,,,,,,,,,,,,,,,,378.4893416000996,378.99358190002386,0.508367049973458,1.00866844994016,378.97685500001535,379.0936154000228,378.97685500001535,379.0936154000228,379.0768927000463,None,c,1,0.9993627000367269,379.0768927000463,None,,,,,,,p27,2022_May_20_1623,training+cueing,2021.1.4,59.94711465752226,
Self.png,Friend,Self ,m,2.1,16,26,96,,,,,0,0,0,0,,,,,5,6,66,1,,,,,,,,,,,,,,,,,,,,,1.544,2.007,380.20092830003705,None,,,,,,,,,,,,,,,,,,,,380.7530052000657,381.2618706000503,0.5017534501384944,1.0020304501522332,381.2451588000404,381.3619270999916,381.2451588000404,381.3619270999916,381.3619270999916,None,m,1,0.6983229001052678,381.3619270999916,None,,,,,,,p27,2022_May_20_1623,training+cueing,2021.1.4,59.94711465752226,
Self.png,Stranger,Self ,m,3.1,18,28,98,,,,,0,0,0,0,,,,,5,7,67,2,,,,,,,,,,,,,,,,,,,,,1.544,1.898,382.1852587000467,None,,,,,,,,,,,,,,,,,,,,382.72589200001676,383.2299660000717,0.5056283499579877,1.0059388499939814,383.21330270008184,383.3300377000123,383.21330270008184,383.3300377000123,383.3133321000496,None,m,1,0.8429300000425428,383.3133321000496,None,,,,,,,p27,2022_May_20_1623,training+cueing,2021.1.4,59.94711465752226,
Stranger.png,Stranger,Stranger,c,3,13,23,93,,,,,0,0,0,0,,,,,5,8,68,8,,,,,,,,,,,,,,,,,,,,,1.746,2.161,384.2871643000981,None,,,,,,,,,,,,,,,,,,,,384.82342460006475,385.33146790007595,0.4991432500537485,0.9994035500567406,385.29810120002367,385.3981363000348,385.29810120002367,385.3981363000348,385.3981363000348,None,c,1,0.7264058999717236,385.3981363000348,None,,,,,,,p27,2022_May_20_1623,training+cueing,2021.1.4,59.94711465752226,
Friend.png,Friend,Friend,c,2,12,22,92,,,,,0,0,0,0,,,,,5,9,69,10,,,,,,,,,,,,,,,,,,,,,1.407,2.245,386.25883230008185,None,,,,,,,,,,,,,,,,,,,,386.7975302999839,387.2995844000252,0.503723950125277,1.0040288501186296,387.2829199000262,387.3996369000524,387.2829199000262,387.3996369000524,387.38291610009037,None,c,1,0.5174127999925986,387.38291610009037,None,,,,,,,p27,2022_May_20_1623,training+cueing,2021.1.4,59.94711465752226,
Friend.png,Stranger,Friend,m,3.2,19,29,99,,,,,0,0,0,0,,,,,5,10,70,5,,,,,,,,,,,,,,,,,,,,,1.497,1.983,388.0224318000255,None,,,,,,,,,,,,,,,,,,,,388.56389570003375,389.06753340002615,0.5043311500921845,1.0045851501636207,389.0508640999906,389.16758370003663,389.0508640999906,389.16758370003663,389.15089729998726,None,m,1,0.7974237999878824,389.15089729998726,None,,,,,,,p27,2022_May_20_1623,training+cueing,2021.1.4,59.94711465752226,
Friend.png,You,Friend,m,1.2,14,24,94,,,,,0,0,0,0,,,,,5,11,71,3,,,,,,,,,,,,,,,,,,,,,1.49,1.482,390.07400160003453,None,,,,,,,,,,,,,,,,,,,,390.6237178000156,391.1356851999881,0.5077737499959767,1.0081142500275746,391.1189741000999,391.2190657000756,391.1189741000999,391.2190657000756,391.2190657000756,None,m,1,0.6972943999571726,391.2190657000756,None,,,,,,,p27,2022_May_20_1623,training+cueing,2021.1.4,59.94711465752226,
Self.png,You,Self ,c,1,11,21,91,,,,,0,0,0,0,,,,,6,0,72,9,,,,,,,,,,,,,,,,,,,,,1.621,1.855,392.0424363000784,None,,,,,,,,,,,,,,,,,,,,392.58060320001096,393.0871021000203,0.5113377500092611,1.011869449983351,393.0704263000516,393.17050310003106,393.0704263000516,393.17050310003106,393.17050310003106,None,c,1,0.49016869999468327,393.17050310003106,None,,,,,,,p27,2022_May_20_1623,training+cueing,2021.1.4,59.94711465752226,
Self.png,Stranger,Self ,m,3.1,18,28,98,,,,,0,0,0,0,,,,,6,1,73,2,,,,,,,,,,,,,,,,,,,,,1.617,1.942,393.7954561000224,None,,,,,,,,,,,,,,,,,,,,394.34963720000815,394.8550297000911,0.5115702000912279,1.011842800071463,394.8383837000001,394.9551011000294,394.8383837000001,394.9551011000294,394.9384025000036,None,m,1,0.5779062999645248,394.9384025000036,None,,,,,,,p27,2022_May_20_1623,training+cueing,2021.1.4,59.94711465752226,
Self.png,Friend,Self ,m,2.1,16,26,96,,,,,0,0,0,0,,,,,6,2,74,1,,,,,,,,,,,,,,,,,,,,,1.443,2.334,395.64439919998404,None,,,,,,,,,,,,,,,,,,,,396.18555530009326,396.68973530002404,0.5079656499437988,1.0082629499956965,396.6729942000238,396.7898330000462,396.6729942000238,396.7898330000462,396.7730409000069,None,m,1,0.743178200093098,396.7730409000069,None,,,,,,,p27,2022_May_20_1623,training+cueing,2021.1.4,59.94711465752226,
Stranger.png,Stranger,Stranger,c,3,13,23,93,,,,,0,0,0,0,,,,,6,3,75,11,,,,,,,,,,,,,,,,,,,,,1.658,1.583,397.64606950001325,None,,,,,,,,,,,,,,,,,,,,398.20244260004256,398.70784170005936,0.5090306999627501,1.0095220998628065,398.6911587000359,398.808622200042,398.6911587000359,398.808622200042,398.7911778000416,None,c,1,0.7891117000253871,398.7911778000416,None,,,,,,,p27,2022_May_20_1623,training+cueing,2021.1.4,59.94711465752226,
Friend.png,Friend,Friend,c,2,12,22,92,,,,,0,0,0,0,,,,,6,4,76,4,,,,,,,,,,,,,,,,,,,,,1.757,1.522,399.7161947999848,None,,,,,,,,,,,,,,,,,,,,400.2576742999954,400.75929570000153,0.5040922500193119,1.00439095008187,400.74264630000107,400.8593383000698,400.74264630000107,400.8593383000698,400.8426874000579,None,c,1,0.6255193999968469,400.8426874000579,None,,,,,,,p27,2022_May_20_1623,training+cueing,2021.1.4,59.94711465752226,
Stranger.png,Stranger,Stranger,c,3,13,23,93,,,,,0,0,0,0,,,,,6,5,77,8,,,,,,,,,,,,,,,,,,,,,1.661,2.022,401.5993801000295,None,,,,,,,,,,,,,,,,,,,,402.14911970007233,402.6607025000267,0.5056677499087527,1.0060894498601556,402.6440353000071,402.7610195000889,402.6440353000071,402.7610195000889,402.7441505000461,None,c,1,0.644111100002192,402.7441505000461,None,,,,,,,p27,2022_May_20_1623,training+cueing,2021.1.4,59.94711465752226,
Stranger.png,Friend,Stranger,m,2.3,17,27,97,,,,,0,0,0,0,,,,,6,6,78,7,,,,,,,,,,,,,,,,,,,,,1.499,2.21,403.51777750009205,None,,,,,,,,,,,,,,,,,,,,404.0585540999891,404.5621015999932,0.504650849965401,1.0055122500052676,404.54538380005397,404.6621220000088,404.54538380005397,404.6621220000088,404.64540919999126,None,m,1,0.4710737999994308,404.64540919999126,None,,,,,,,p27,2022_May_20_1623,training+cueing,2021.1.4,59.94711465752226,
Friend.png,You,Friend,m,1.2,14,24,94,,,,,0,0,0,0,,,,,6,7,79,3,,,,,,,,,,,,,,,,,,,,,1.728,1.487,405.2554193000542,None,,,,,,,,,,,,,,,,,,,,405.7984956,406.3132961000083,0.5124379500048235,1.0127345499349758,406.29667800001334,406.3967310000444,406.29667800001334,406.3967310000444,406.3967310000444,None,m,1,0.8155218999600038,406.3967310000444,None,,,,,,,p27,2022_May_20_1623,training+cueing,2021.1.4,59.94711465752226,
Self.png,You,Self ,c,1,11,21,91,,,,,0,0,0,0,,,,,6,8,80,0,,,,,,,,,,,,,,,,,,,,,1.718,1.755,407.33655290002935,None,,,,,,,,,,,,,,,,,,,,407.88734920008574,408.39821050001774,0.502267450094223,1.0025573500897735,408.38148330000695,408.48153610003646,408.38148330000695,408.48153610003646,408.48153610003646,None,c,1,0.4905791999772191,408.48153610003646,None,,,,,,,p27,2022_May_20_1623,training+cueing,2021.1.4,59.94711465752226,
Friend.png,Friend,Friend,c,2,12,22,92,,,,,0,0,0,0,,,,,6,9,81,10,,,,,,,,,,,,,,,,,,,,,1.573,2.214,409.1048678000225,None,,,,,,,,,,,,,,,,,,,,409.64373820007313,410.14955020009074,0.510356149985455,1.0106293499702588,410.1327659999952,410.2495191000635,410.1327659999952,410.2495191000635,410.2327958000824,None,c,1,1.2834978000028059,410.2327958000824,None,,,,,,,p27,2022_May_20_1623,training+cueing,2021.1.4,59.94711465752226,
Stranger.png,You,Stranger,m,1.3,15,25,95,,,,,0,0,0,0,,,,,6,10,82,6,,,,,,,,,,,,,,,,,,,,,1.704,1.504,411.6431448000949,None,,,,,,,,,,,,,,,,,,,,412.1831081000855,412.68479540001135,0.5024958499707282,1.0032272499520332,412.66810730006546,412.7682449000422,412.66810730006546,412.7682449000422,412.7682449000422,None,m,1,0.6361676000524312,412.7682449000422,None,,,,,,,p27,2022_May_20_1623,training+cueing,2021.1.4,59.94711465752226,
Friend.png,Stranger,Friend,m,3.2,19,29,99,,,,,0,0,0,0,,,,,6,11,83,5,,,,,,,,,,,,,,,,,,,,,1.693,2.039,413.54514609999023,None,,,,,,,,,,,,,,,,,,,,414.0844696999993,414.5860185000347,0.5015360498800874,1.001806449959986,414.5692859000992,414.68622899998445,414.5692859000992,414.68622899998445,414.68622899998445,None,m,1,0.8459756000665948,414.68622899998445,None,,,,,,,p27,2022_May_20_1623,training+cueing,2021.1.4,59.94711465752226,
Friend.png,Friend,Friend,c,2,12,22,92,,,,,0,0,0,0,,,,,7,0,84,4,,,,,,,,,,,,,,,,,,,,,1.489,1.824,415.65958410000894,None,,,,,,,,,,,,,,,,,,,,416.1990627000341,416.7042213000823,0.5095451499801129,1.0097992499358952,416.68754930002615,416.8042614000151,416.68754930002615,416.8042614000151,416.7875459000934,None,c,1,0.7285661000059918,416.7875459000934,None,,,,,,,p27,2022_May_20_1623,training+cueing,2021.1.4,59.94711465752226,
Self.png,Stranger,Self ,m,3.1,18,28,98,,,,,0,0,0,0,,,,,7,1,85,2,,,,,,,,,,,,,,,,,,,,,1.444,2.374,417.64374930004124,None,,,,,,,,,,,,,,,,,,,,418.18722279998474,418.689011999988,0.505397150060162,1.0056502500083297,418.67231809999794,418.78899150004145,418.67231809999794,418.78899150004145,418.77234240004327,None,m,1,0.8079367000609636,418.77234240004327,None,,,,,,,p27,2022_May_20_1623,training+cueing,2021.1.4,59.94711465752226,
Self.png,You,Self ,c,1,11,21,91,,,,,0,0,0,0,,,,,7,2,86,9,,,,,,,,,,,,,,,,,,,,,1.492,2.027,419.711937700049,None,,,,,,,,,,,,,,,,,,,,420.25075870007277,420.757132000057,0.5105768500361592,1.01083775004372,420.7404254000867,420.8404634000035,420.7404254000867,420.8404634000035,420.8404634000035,None,c,1,0.6762820000294596,420.8404634000035,None,,,,,,,p27,2022_May_20_1623,training+cueing,2021.1.4,59.94711465752226,
Stranger.png,Stranger,Stranger,c,3,13,23,93,,,,,0,0,0,0,,,,,7,3,87,8,,,,,,,,,,,,,,,,,,,,,1.495,1.587,421.6509376000613,None,,,,,,,,,,,,,,,,,,,,422.20003700000234,422.70853559998795,0.5008954501245171,1.0016961500514299,422.6918911000248,422.80858720000833,422.6918911000248,422.80858720000833,422.80858720000833,None,c,1,0.6915582000510767,422.80858720000833,None,,,,,,,p27,2022_May_20_1623,training+cueing,2021.1.4,59.94711465752226,
Friend.png,Friend,Friend,c,2,12,22,92,,,,,0,0,0,0,,,,,7,4,88,10,,,,,,,,,,,,,,,,,,,,,1.793,1.81,423.63220410002396,None,,,,,,,,,,,,,,,,,,,,424.17200560006313,424.67664349998813,0.5060342499054968,1.0065128499409184,424.6599289000733,424.7766799000092,424.6599289000733,424.7766799000092,424.7599597000517,None,c,1,0.5643376000225544,424.7599597000517,None,,,,,,,p27,2022_May_20_1623,training+cueing,2021.1.4,59.94711465752226,
Self.png,You,Self ,c,1,11,21,91,,,,,0,0,0,0,,,,,7,5,89,0,,,,,,,,,,,,,,,,,,,,,1.57,1.629,425.45139609999023,None,,,,,,,,,,,,,,,,,,,,425.99312009999994,426.49463930004276,0.5038057500496507,1.0042721499921754,426.4779376999941,426.57796090003103,426.4779376999941,426.57796090003103,426.57796090003103,None,c,1,0.522138400003314,426.57796090003103,None,,,,,,,p27,2022_May_20_1623,training+cueing,2021.1.4,59.94711465752226,
Friend.png,You,Friend,m,1.2,14,24,94,,,,,0,0,0,0,,,,,7,6,90,3,,,,,,,,,,,,,,,,,,,,,1.787,1.97,427.23462070000824,None,,,,,,,,,,,,,,,,,,,,427.77004010009114,428.2792193000205,0.5000688500003889,1.0003757500089705,428.2458901000209,428.3459171000868,428.2458901000209,428.3459171000868,428.3459171000868,None,m,1,0.6742604000028223,428.3459171000868,None,,,,,,,p27,2022_May_20_1623,training+cueing,2021.1.4,59.94711465752226,
Stranger.png,Stranger,Stranger,c,3,13,23,93,,,,,0,0,0,0,,,,,7,7,91,11,,,,,,,,,,,,,,,,,,,,,1.503,1.217,429.15267270000186,None,,,,,,,,,,,,,,,,,,,,429.69327260006685,430.1973166000098,0.5056169499875978,1.0058776499936357,430.1806135000661,430.29736440000124,430.1806135000661,430.29736440000124,430.2806337000802,None,c,1,0.5476322999456897,430.2806337000802,None,,,,,,,p27,2022_May_20_1623,training+cueing,2021.1.4,59.94711465752226,
Friend.png,Stranger,Friend,m,3.2,19,29,99,,,,,0,0,0,0,,,,,7,8,92,5,,,,,,,,,,,,,,,,,,,,,1.528,2.091,430.95507980010007,None,,,,,,,,,,,,,,,,,,,,431.49417050008196,431.99863430007827,0.5084015500033274,1.0088201500475407,431.9818793000886,432.09876060008537,431.9818793000886,432.09876060008537,432.0820334000746,None,c,0,0.4905177999753505,432.0820334000746,None,,,,,,,p27,2022_May_20_1623,training+cueing,2021.1.4,59.94711465752226,
Self.png,Friend,Self ,m,2.1,16,26,96,,,,,0,0,0,0,,,,,7,9,93,1,,,,,,,,,,,,,,,,,,,,,1.748,2.267,432.70493000000715,None,,,,,,,,,,,,,,,,,,,,433.2439875000855,433.749887800077,0.5116233499720693,1.0122928499476984,433.73280130000785,433.84997020009905,433.73280130000785,433.84997020009905,433.83327559998725,None,m,1,0.5788951999275014,433.83327559998725,None,,,,,,,p27,2022_May_20_1623,training+cueing,2021.1.4,59.94711465752226,
Stranger.png,Friend,Stranger,m,2.3,17,27,97,,,,,0,0,0,0,,,,,7,10,94,7,,,,,,,,,,,,,,,,,,,,,1.467,1.483,434.53993040008936,None,,,,,,,,,,,,,,,,,,,,435.09534360002726,435.60140300006606,0.5108002000488341,1.0110656000906602,435.58474800002296,435.7014814000577,435.58474800002296,435.7014814000577,435.6848059000913,None,c,0,1.0634365000296384,435.6848059000913,None,,,,,,,p27,2022_May_20_1623,training+cueing,2021.1.4,59.94711465752226,
Stranger.png,You,Stranger,m,1.3,15,25,95,,,,,0,0,0,0,,,,,7,11,95,6,,,,,,,,,,,,,,,,,,,,,1.455,2.133,436.87595740007237,None,,,,,,,,,,,,,,,,,,,,437.4154345000861,437.91951320006046,0.5076265500392765,1.0079240500926971,437.902882500086,438.00293900002725,437.902882500086,438.00293900002725,438.00293900002725,None,m,1,0.9853285000426695,438.00293900002725,None,,,,,,,p27,2022_May_20_1623,training+cueing,2021.1.4,59.94711465752226,
Stranger.png,Stranger,Stranger,c,3,13,23,93,,,,,0,0,0,0,,,,,8,0,96,8,,,,,,,,,,,,,,,,,,,,,1.515,1.497,439.109756299993,None,,,,,,,,,,,,,,,,,,,,439.65114110009745,440.15448430005927,0.5046096500009298,1.0048296500463039,440.1378442000132,440.25457360001747,440.1378442000132,440.25457360001747,440.23788140004035,None,c,1,0.7184104999760166,440.23788140004035,None,,,,,,,p27,2022_May_20_1623,training+cueing,2021.1.4,59.94711465752226,
Self.png,You,Self ,c,1,11,21,91,,,,,0,0,0,0,,,,,8,1,97,0,,,,,,,,,,,,,,,,,,,,,1.765,1.694,441.07769559998997,None,,,,,,,,,,,,,,,,,,,,441.6178532000631,442.12259110005107,0.5088252500863746,1.0093030501157045,442.1059267000528,442.2059956000885,442.1059267000528,442.2059956000885,442.2059956000885,None,c,1,0.5901676999637857,442.2059956000885,None,,,,,,,p27,2022_May_20_1623,training+cueing,2021.1.4,59.94711465752226,
Self.png,Friend,Self ,m,2.1,16,26,96,,,,,0,0,0,0,,,,,8,2,98,1,,,,,,,,,,,,,,,,,,,,,1.737,2.204,442.92968840000685,None,,,,,,,,,,,,,,,,,,,,443.4717968000332,443.9739902000874,0.5055210499558598,1.0060489500174299,443.9572373999981,444.0740167000331,443.9572373999981,444.0740167000331,444.0572863999987,None,m,1,0.5790223999647424,444.0572863999987,None,,,,,,,p27,2022_May_20_1623,training+cueing,2021.1.4,59.94711465752226,
Self.png,You,Self ,c,1,11,21,91,,,,,0,0,0,0,,,,,8,3,99,9,,,,,,,,,,,,,,,,,,,,,1.429,2.472,444.76513670000713,None,,,,,,,,,,,,,,,,,,,,445.3067816999974,445.80878870002925,0.5025124499807134,1.002634649979882,445.7920319000259,445.89199690008536,445.7920319000259,445.89199690008536,445.89199690008536,None,c,1,0.6480572000145912,445.89199690008536,None,,,,,,,p27,2022_May_20_1623,training+cueing,2021.1.4,59.94711465752226,
Friend.png,Friend,Friend,c,2,12,22,92,,,,,0,0,0,0,,,,,8,4,100,10,,,,,,,,,,,,,,,,,,,,,1.419,1.977,446.66541190003045,None,,,,,,,,,,,,,,,,,,,,447.20665649999864,447.71011260000523,0.506255550077185,1.0064804500434548,447.6935201000888,447.8099850000581,447.6935201000888,447.8099850000581,447.79346690000966,None,c,1,0.5865883999504149,447.79346690000966,None,,,,,,,p27,2022_May_20_1623,training+cueing,2021.1.4,59.94711465752226,
Stranger.png,You,Stranger,m,1.3,15,25,95,,,,,0,0,0,0,,,,,8,5,101,6,,,,,,,,,,,,,,,,,,,,,1.431,1.641,448.51714340003673,None,,,,,,,,,,,,,,,,,,,,449.06033640005626,449.5614553000778,0.5017892500618473,1.0020921500399709,449.5447459000861,449.64483490004204,449.5447459000861,449.64483490004204,449.64483490004204,None,m,1,0.8632520000683144,449.64483490004204,None,,,,,,,p27,2022_May_20_1623,training+cueing,2021.1.4,59.94711465752226,
Friend.png,Stranger,Friend,m,3.2,19,29,99,,,,,0,0,0,0,,,,,8,6,102,5,,,,,,,,,,,,,,,,,,,,,1.443,2.242,450.6351840000134,None,,,,,,,,,,,,,,,,,,,,451.1762214000337,451.6798288000282,0.5057723501231521,1.0059282500296831,451.6631755999988,451.77976890001446,451.6631755999988,451.77976890001446,451.76324460003525,None,m,1,0.9368155000265688,451.76324460003525,None,,,,,,,p27,2022_May_20_1623,training+cueing,2021.1.4,59.94711465752226,
Friend.png,Friend,Friend,c,2,12,22,92,,,,,0,0,0,0,,,,,8,7,103,4,,,,,,,,,,,,,,,,,,,,,1.571,2.341,452.8367347000167,None,,,,,,,,,,,,,,,,,,,,453.3787171000149,453.8811333000194,0.5048080501146615,1.0051061500562355,453.8644422000507,453.98117110005114,453.8644422000507,453.98117110005114,453.96448070008773,None,c,1,1.0716421999968588,453.96448070008773,None,,,,,,,p27,2022_May_20_1623,training+cueing,2021.1.4,59.94711465752226,
Friend.png,You,Friend,m,1.2,14,24,94,,,,,0,0,0,0,,,,,8,8,104,3,,,,,,,,,,,,,,,,,,,,,1.799,1.267,455.170809000032,None,,,,,,,,,,,,,,,,,,,,455.7091802000068,456.21619910001755,0.5104105501668528,1.0107080501038581,456.1994488000637,456.2995049000019,456.1994488000637,456.2995049000019,456.2995049000019,None,m,1,0.6245778000447899,456.2995049000019,None,,,,,,,p27,2022_May_20_1623,training+cueing,2021.1.4,59.94711465752226,
Self.png,Stranger,Self ,m,3.1,18,28,98,,,,,0,0,0,0,,,,,8,9,105,2,,,,,,,,,,,,,,,,,,,,,1.782,1.454,457.0560754000908,None,,,,,,,,,,,,,,,,,,,,457.61180300009437,458.1175290000392,0.511763000045903,1.0119494000682607,458.10089620004874,458.217517400044,458.10089620004874,458.217517400044,458.20085900009144,None,m,1,0.7713470999151468,458.20085900009144,None,,,,,,,p27,2022_May_20_1623,training+cueing,2021.1.4,59.94711465752226,
Stranger.png,Stranger,Stranger,c,3,13,23,93,,,,,0,0,0,0,,,,,8,10,106,11,,,,,,,,,,,,,,,,,,,,,1.404,1.957,459.1071719999891,None,,,,,,,,,,,,,,,,,,,,459.64413400006015,460.1523259000387,0.5150023499736562,1.0153287500143051,460.13563949998934,460.2523800000781,460.13563949998934,460.2523800000781,460.23577740008477,None,m,0,0.6563488999381661,460.23577740008477,None,,,,,,,p27,2022_May_20_1623,training+cueing,2021.1.4,59.94711465752226,
Stranger.png,Friend,Stranger,m,2.3,17,27,97,,,,,0,0,0,0,,,,,8,11,107,7,,,,,,,,,,,,,,,,,,,,,1.482,1.724,461.02611440001056,None,,,,,,,,,,,,,,,,,,,,461.5866922000423,462.0871143999975,0.5157166999997571,1.016196799930185,462.0871143999975,462.18713710003067,462.0871143999975,462.18713710003067,462.18713710003067,None,m,1,0.7369687999598682,462.18713710003067,None,,,,,,,p27,2022_May_20_1623,training+cueing,2021.1.4,59.94711465752226,
Self.png,Friend,Self ,m,2.1,16,26,96,,,,,0,0,0,0,,,,,9,0,108,1,,,,,,,,,,,,,,,,,,,,,1.666,1.39,463.0619715000503,None,,,,,,,,,,,,,,,,,,,,463.60025710007176,464.10520059999544,0.5105179499369115,1.0108363499166444,464.08851969998796,464.2053389000939,464.08851969998796,464.2053389000939,464.18858110008296,None,m,1,0.7357121999375522,464.18858110008296,None,,,,,,,p27,2022_May_20_1623,training+cueing,2021.1.4,59.94711465752226,
Friend.png,Friend,Friend,c,2,12,22,92,,,,,0,0,0,0,,,,,9,1,109,4,,,,,,,,,,,,,,,,,,,,,1.492,2.077,465.0649858000688,None,,,,,,,,,,,,,,,,,,,,465.6024561000522,466.1066359000979,0.5081295499112457,1.0084197499090806,466.089970500092,466.2067203000188,466.089970500092,466.2067203000188,466.1900081000058,None,c,1,0.5901853000978008,466.1900081000058,None,,,,,,,p27,2022_May_20_1623,training+cueing,2021.1.4,59.94711465752226,
Stranger.png,Stranger,Stranger,c,3,13,23,93,,,,,0,0,0,0,,,,,9,2,110,8,,,,,,,,,,,,,,,,,,,,,1.735,2.077,466.9128991999896,None,,,,,,,,,,,,,,,,,,,,467.46631889999844,467.9746718000388,0.514964499976486,1.015363599988632,467.9580041000154,468.0748267000308,467.9580041000154,468.0748267000308,468.05809170007706,None,c,1,0.6580193999689072,468.05809170007706,None,,,,,,,p27,2022_May_20_1623,training+cueing,2021.1.4,59.94711465752226,
Stranger.png,Friend,Stranger,m,2.3,17,27,97,,,,,0,0,0,0,,,,,9,3,111,7,,,,,,,,,,,,,,,,,,,,,1.67,1.434,468.8483048999915,None,,,,,,,,,,,,,,,,,,,,469.39014110004064,469.8927412000485,0.5061157499440014,1.006456849980168,469.8760342000751,469.99276310007554,469.8760342000751,469.99276310007554,469.97607520001475,None,m,1,0.9160710000433028,469.97607520001475,None,,,,,,,p27,2022_May_20_1623,training+cueing,2021.1.4,59.94711465752226,
Stranger.png,You,Stranger,m,1.3,15,25,95,,,,,0,0,0,0,,,,,9,4,112,6,,,,,,,,,,,,,,,,,,,,,1.616,1.671,471.0162087000208,None,,,,,,,,,,,,,,,,,,,,471.55336580006406,472.0609215000877,0.5126815501134843,1.0129756500246003,472.0442714000819,472.14432850002777,472.0442714000819,472.14432850002777,472.14432850002777,None,m,1,1.2760894000530243,472.14432850002777,None,,,,,,,p27,2022_May_20_1623,training+cueing,2021.1.4,59.94711465752226,
Self.png,Stranger,Self ,m,3.1,18,28,98,,,,,0,0,0,0,,,,,9,5,113,2,,,,,,,,,,,,,,,,,,,,,1.498,2.4,473.5556425000541,None,,,,,,,,,,,,,,,,,,,,474.09239600005094,474.5961272000568,0.5069456499768421,1.00721774995327,474.5794520000927,474.6961565000238,474.5794520000927,474.6961565000238,474.679487699992,None,m,1,0.7407104999292642,474.679487699992,None,,,,,,,p27,2022_May_20_1623,training+cueing,2021.1.4,59.94711465752226,
Friend.png,Stranger,Friend,m,3.2,19,29,99,,,,,0,0,0,0,,,,,9,6,114,5,,,,,,,,,,,,,,,,,,,,,1.498,1.686,475.5526586000342,None,,,,,,,,,,,,,,,,,,,,476.1064147000434,476.6143495000433,0.49941179994493723,0.9996509999036789,476.5810316000134,476.68108550005127,476.5810316000134,476.68108550005127,476.68108550005127,None,c,0,0.8030570999253541,476.68108550005127,None,,,,,,,p27,2022_May_20_1623,training+cueing,2021.1.4,59.94711465752226,
Friend.png,Friend,Friend,c,2,12,22,92,,,,,0,0,0,0,,,,,9,7,115,10,,,,,,,,,,,,,,,,,,,,,1.768,1.672,477.6210992000997,None,,,,,,,,,,,,,,,,,,,,478.1580300000496,478.6657778000226,0.5119848499307409,1.0127354499418288,478.6490251000505,478.7496328999987,478.6490251000505,478.7496328999987,478.7496328999987,None,c,1,0.574570200056769,478.7496328999987,None,,,,,,,p27,2022_May_20_1623,training+cueing,2021.1.4,59.94711465752226,
Stranger.png,Stranger,Stranger,c,3,13,23,93,,,,,0,0,0,0,,,,,9,8,116,11,,,,,,,,,,,,,,,,,,,,,1.641,1.434,479.4567505000159,None,,,,,,,,,,,,,,,,,,,,479.9975056000985,480.50040710007306,0.5057890500174835,1.0066688500810415,480.4837455000961,480.6009628000902,480.4837455000961,480.6009628000902,480.58432760008145,None,c,1,0.5318904999876395,480.58432760008145,None,,,,,,,p27,2022_May_20_1623,training+cueing,2021.1.4,59.94711465752226,
Friend.png,You,Friend,m,1.2,14,24,94,,,,,0,0,0,0,,,,,9,9,117,3,,,,,,,,,,,,,,,,,,,,,1.658,1.411,481.2436824000906,None,,,,,,,,,,,,,,,,,,,,481.78004520002287,482.28503170004115,0.5093937499914318,1.0096487500704825,482.26831360009965,482.3684544999851,482.26831360009965,482.3684544999851,482.3684544999851,None,m,1,0.5076042000437155,482.3684544999851,None,,,,,,,p27,2022_May_20_1623,training+cueing,2021.1.4,59.94711465752226,
Self.png,You,Self ,c,1,11,21,91,,,,,0,0,0,0,,,,,9,10,118,0,,,,,,,,,,,,,,,,,,,,,1.731,1.65,483.00822760001756,None,,,,,,,,,,,,,,,,,,,,483.54503250005655,484.05297170009,0.5128454500809312,1.0131757500348613,484.0362867000513,484.1363964000484,484.0362867000513,484.1363964000484,484.1363964000484,None,c,1,0.5476232999935746,484.1363964000484,None,,,,,,,p27,2022_May_20_1623,training+cueing,2021.1.4,59.94711465752226,
Self.png,You,Self ,c,1,11,21,91,,,,,0,0,0,0,,,,,9,11,119,9,,,,,,,,,,,,,,,,,,,,,1.482,2.193,484.8100705000106,None,,,,,,,,,,,,,,,,,,,,485.35990220005624,485.87100310006645,0.5055558499880135,1.00645904999692,485.85429920000024,485.95434170006774,485.85429920000024,485.95434170006774,485.95434170006774,None,c,1,0.6658480999758467,485.95434170006774,None,,,,,,,p27,2022_May_20_1623,training+cueing,2021.1.4,59.94711465752226,
,,,,,,,,,,,,0,0,0,0,,,,,,,,,,,,,,,,,,,,,,,,,,,,,,,,,,,,,,,,,,,,,,,,,,,,,,,,,,,,,,,,,,,0.015971599961631,None,,,,,p27,2022_May_20_1623,training+cueing,2021.1.4,59.94711465752226,
Friend.png,Stranger,Friend,m,3.2,19,29,99,,,,,1,0,1,0,0,0,0,5,,,,,,,,,,,,,,,,,487.2558379000984,None,space,2.6279279000591487,2.0136002498911694,None,491.89203930005897,None,1.497,1.699,494.9067253000103,None,495.4247167999856,495.9282470000908,495.9115521000931,496.0283016000176,495.9115521000931,496.0283016000176,496.01161080005113,None,None,0,496.01161080005113,None,497.512728300062,None,,,,,,,,,,,,,,,,,,,,,,,,,,,p27,2022_May_20_1623,training+cueing,2021.1.4,59.94711465752226,
Self.png,You,Self ,c,1,11,21,91,,,,,1,0,1,0,0,1,1,0,,,,,,,,,,,,,,,,,,,,,,,,,1.748,1.306,497.91317810001783,None,498.4500386000145,498.96378210000694,498.9470846999902,499.0471249000402,498.9470846999902,499.0471249000402,499.0471249000402,None,c,1,499.0471249000402,None,499.6294514000183,None,0.5649138999870047,,,,,,,,,,,,,,,,,,,,,,,,,,p27,2022_May_20_1623,training+cueing,2021.1.4,59.94711465752226,
Stranger.png,You,Stranger,m,1.3,15,25,95,,,,,1,0,1,0,0,2,2,6,,,,,,,,,,,,,,,,,,,,,,,,,1.657,1.603,500.0313636000501,None,500.571594200097,501.08197480009403,501.0652303000679,501.1653261000756,501.0652303000679,501.1653261000756,501.1653261000756,None,c,0,501.1653261000756,None,501.91647240007296,None,0.7348014999879524,,,,,,,,,,,,,,,,,,,,,,,,,,p27,2022_May_20_1623,training+cueing,2021.1.4,59.94711465752226,
Friend.png,Friend,Friend,c,2,12,22,92,,,,,1,0,1,0,0,3,3,10,,,,,,,,,,,,,,,,,,,,,,,,,1.414,1.21,502.3167432000628,None,502.8529143000487,503.3669713001,503.3502915999852,503.46703070006333,503.3502915999852,503.46703070006333,503.45034540002234,None,c,1,503.45034540002234,None,504.0331069000531,None,0.5616904000053182,,,,,,,,,,,,,,,,,,,,,,,,,,p27,2022_May_20_1623,training+cueing,2021.1.4,59.94711465752226,
Self.png,Stranger,Self ,m,3.1,18,28,98,,,,,1,0,1,0,0,4,4,2,,,,,,,,,,,,,,,,,,,,,,,,,1.79,1.3,504.43453299999237,None,504.9698716000421,505.48518650000915,505.46850850002375,505.58524640009273,505.46850850002375,505.58524640009273,505.5685356000904,None,None,0,505.5685356000904,None,507.37015390000306,None,,,,,,,,,,,,,,,,,,,,,,,,,,,p27,2022_May_20_1623,training+cueing,2021.1.4,59.94711465752226,
Stranger.png,Friend,Stranger,m,2.3,17,27,97,,,,,1,0,1,0,0,5,5,7,,,,,,,,,,,,,,,,,,,,,,,,,1.742,2.214,507.7701067000162,None,508.29854340001475,508.8042145000072,508.78755920007825,508.90480440005194,508.78755920007825,508.90480440005194,508.8876362000592,None,None,0,508.8876362000592,None,510.63891960005276,None,,,,,,,,,,,,,,,,,,,,,,,,,,,p27,2022_May_20_1623,training+cueing,2021.1.4,59.94711465752226,
Friend.png,Friend,Friend,c,2,12,22,92,,,,,1,0,1,0,0,6,6,4,,,,,,,,,,,,,,,,,,,,,,,,,1.418,2.337,511.03935470001306,None,511.5782065000385,512.0900040999986,512.0733126000268,512.1900090000127,512.0733126000268,512.1900090000127,512.17330210004,None,m,0,512.17330210004,None,512.4235703999875,None,0.22268010000698268,,,,,,,,,,,,,,,,,,,,,,,,,,p27,2022_May_20_1623,training+cueing,2021.1.4,59.94711465752226,
Friend.png,You,Friend,m,1.2,14,24,94,,,,,1,0,1,0,0,7,7,3,,,,,,,,,,,,,,,,,,,,,,,,,1.641,2.007,512.8238192000426,None,513.3527509000851,513.8578907999909,513.8411759000737,513.9412644000258,513.8411759000737,513.9412644000258,513.9412644000258,None,None,0,513.9412644000258,None,515.5924753000727,None,,,,,,,,,,,,,,,,,,,,,,,,,,,p27,2022_May_20_1623,training+cueing,2021.1.4,59.94711465752226,
Self.png,You,Self ,c,1,11,21,91,,,,,1,0,1,0,0,8,8,9,,,,,,,,,,,,,,,,,,,,,,,,,1.491,2.149,515.992737499997,None,516.5191426000092,517.0267779000569,517.0101737000514,517.1102319000056,517.0101737000514,517.1102319000056,517.1102319000056,None,None,0,517.1102319000056,None,518.6113787000068,None,,,,,,,,,,,,,,,,,,,,,,,,,,,p27,2022_May_20_1623,training+cueing,2021.1.4,59.94711465752226,
Stranger.png,Stranger,Stranger,c,3,13,23,93,,,,,1,0,1,0,0,9,9,8,,,,,,,,,,,,,,,,,,,,,,,,,1.777,2.471,519.0117863999913,None,519.5481834000675,520.0625222000526,520.0458987000166,520.1630151000572,520.0458987000166,520.1630151000572,520.1459288999904,None,c,1,520.1459288999904,None,521.1284955000738,None,0.954157599946484,,,,,,,,,,,,,,,,,,,,,,,,,,p27,2022_May_20_1623,training+cueing,2021.1.4,59.94711465752226,
Self.png,Friend,Self ,m,2.1,16,26,96,,,,,1,0,1,0,0,10,10,1,,,,,,,,,,,,,,,,,,,,,,,,,1.74,1.824,521.5300836000824,None,522.061954600038,522.5642528000753,522.547505900031,522.6642727000872,522.547505900031,522.6642727000872,522.6475259000435,None,m,1,522.6475259000435,None,523.6650273000123,None,0.9965467000147328,,,,,,,,,,,,,,,,,,,,,,,,,,p27,2022_May_20_1623,training+cueing,2021.1.4,59.94711465752226,
Stranger.png,Stranger,Stranger,c,3,13,23,93,,,,,1,0,1,0,0,11,11,11,,,,,,,,,,,,,,,,,,,,,,,,,1.457,1.611,524.0652835000074,None,524.595813699998,525.0994560000254,525.0825043000514,525.1994773000479,525.0825043000514,525.1994773000479,525.1827751999954,None,c,1,525.1827751999954,None,526.2168314000592,None,1.0052765000145882,,,,,,,,,,,,,,,,,,,,,,,,,,p27,2022_May_20_1623,training+cueing,2021.1.4,59.94711465752226,
Stranger.png,Stranger,Stranger,c,3,13,23,93,,,,,1,0,1,0,,,,,0,0,0,8,,,,,,,,,,,,,,,,,,,529.6192865000339,None,1.712,2.474,533.1433264000807,None,,,,,,,,,,,,,,,,526.6171352000674,None,0.014195049880072474,0.5126610499573871,533.6707569999853,534.1726331000682,0.5050137499347329,1.0053199499379843,534.1558789000846,534.2726706000976,534.1558789000846,534.2726706000976,534.2559343000175,None,c,1,0.7160433999961242,534.2559343000175,None,,,,,,,p27,2022_May_20_1623,training+cueing,2021.1.4,59.94711465752226,
Friend.png,Friend,Friend,c,2,12,22,92,,,,,1,0,1,0,,,,,0,1,1,10,,,,,,,,,,,,,,,,,,,,,1.518,2.289,535.097130900016,None,,,,,,,,,,,,,,,,,,,,535.6366403000429,536.1406986000948,0.5085413500200957,1.008838149951771,536.1240292000584,536.2407267000526,536.1240292000584,536.2407267000526,536.2240801000735,None,c,1,0.572094599949196,536.2240801000735,None,,,,,,,p27,2022_May_20_1623,training+cueing,2021.1.4,59.94711465752226,
Friend.png,Stranger,Friend,m,3.2,19,29,99,,,,,1,0,1,0,,,,,0,2,2,5,,,,,,,,,,,,,,,,,,,,,1.575,2.015,536.9340196000412,None,,,,,,,,,,,,,,,,,,,,537.4734895000001,537.9753508000867,0.5032147500896826,1.0034935501171276,537.9587029000977,538.0753878999967,537.9587029000977,538.0753878999967,538.0587029000744,None,m,1,0.5456356999929994,538.0587029000744,None,,,,,,,p27,2022_May_20_1623,training+cueing,2021.1.4,59.94711465752226,
Friend.png,You,Friend,m,1.2,14,24,94,,,,,1,0,1,0,,,,,0,3,3,3,,,,,,,,,,,,,,,,,,,,,1.433,1.556,538.7360089999856,None,,,,,,,,,,,,,,,,,,,,539.2711464000167,539.776651800028,0.5104016499826685,1.0107227499829605,539.7599820999894,539.8600373000372,539.7599820999894,539.8600373000372,539.8600373000372,None,m,1,0.5680368000175804,539.8600373000372,None,,,,,,,p27,2022_May_20_1623,training+cueing,2021.1.4,59.94711465752226,
Stranger.png,Stranger,Stranger,c,3,13,23,93,,,,,1,0,1,0,,,,,0,4,4,11,,,,,,,,,,,,,,,,,,,,,1.459,2.115,540.5501207000343,None,,,,,,,,,,,,,,,,,,,,541.0890852999873,541.5946832000045,0.5079133501276374,1.0083380501018837,541.5779696000973,541.6947079000529,541.5779696000973,541.6947079000529,541.6779748999979,None,c,1,1.038165699923411,541.6779748999979,None,,,,,,,p27,2022_May_20_1623,training+cueing,2021.1.4,59.94711465752226,
Stranger.png,You,Stranger,m,1.3,15,25,95,,,,,1,0,1,0,,,,,0,5,5,6,,,,,,,,,,,,,,,,,,,,,1.77,1.243,542.8530921000056,None,,,,,,,,,,,,,,,,,,,,543.3894522000337,543.8963258999866,0.511956850066781,1.0123187500284985,543.8796042000176,543.9796684000175,543.8796042000176,543.9796684000175,543.9796684000175,None,m,1,1.0083769999910146,543.9796684000175,None,,,,,,,p27,2022_May_20_1623,training+cueing,2021.1.4,59.94711465752226,
Self.png,You,Self ,c,1,11,21,91,,,,,1,0,1,0,,,,,0,6,6,0,,,,,,,,,,,,,,,,,,,,,1.453,1.923,545.1200901999837,None,,,,,,,,,,,,,,,,,,,,545.6549405000405,546.1646245000884,0.5009812999051064,1.001497899997048,546.1479601000901,546.248540300061,546.1479601000901,546.248540300061,546.248540300061,None,c,1,0.4034809999866411,546.248540300061,None,,,,,,,p27,2022_May_20_1623,training+cueing,2021.1.4,59.94711465752226,
Stranger.png,Friend,Stranger,m,2.3,17,27,97,,,,,1,0,1,0,,,,,0,7,7,7,,,,,,,,,,,,,,,,,,,,,1.673,1.485,546.7885881999973,None,,,,,,,,,,,,,,,,,,,,547.325351400068,547.8324567000382,0.5120064499787986,1.012312849983573,547.8158275000751,547.932539200061,547.8158275000751,547.932539200061,547.915870900033,None,m,1,0.9761870000511408,547.915870900033,None,,,,,,,p27,2022_May_20_1623,training+cueing,2021.1.4,59.94711465752226,
Self.png,You,Self ,c,1,11,21,91,,,,,1,0,1,0,,,,,0,8,8,9,,,,,,,,,,,,,,,,,,,,,1.677,1.988,549.022344200057,None,,,,,,,,,,,,,,,,,,,,549.5633190000663,550.0674606000539,0.5073015500092879,1.0075720500899479,550.050797700067,550.150840700022,550.050797700067,550.150840700022,550.150840700022,None,c,1,0.6931957000633702,550.150840700022,None,,,,,,,p27,2022_May_20_1623,training+cueing,2021.1.4,59.94711465752226,
Friend.png,Friend,Friend,c,2,12,22,92,,,,,1,0,1,0,,,,,0,9,9,4,,,,,,,,,,,,,,,,,,,,,1.681,2.473,550.9746269000461,None,,,,,,,,,,,,,,,,,,,,551.5137350000441,552.0188714000396,0.5094809499569237,1.0097932500066236,552.0021857999964,552.1189086000668,552.0021857999964,552.1189086000668,552.1021927000256,None,c,1,0.9337463000556454,552.1021927000256,None,,,,,,,p27,2022_May_20_1623,training+cueing,2021.1.4,59.94711465752226,
Self.png,Stranger,Self ,m,3.1,18,28,98,,,,,1,0,1,0,,,,,0,10,10,2,,,,,,,,,,,,,,,,,,,,,1.621,1.559,553.1592474000063,None,,,,,,,,,,,,,,,,,,,,553.696912500076,554.203818500042,0.5121157501125708,1.0124370501143858,554.1870786000509,554.3038402000675,554.1870786000509,554.3038402000675,554.2871329000918,None,m,1,0.7647879999130964,554.2871329000918,None,,,,,,,p27,2022_May_20_1623,training+cueing,2021.1.4,59.94711465752226,
Self.png,Friend,Self ,m,2.1,16,26,96,,,,,1,0,1,0,,,,,0,11,11,1,,,,,,,,,,,,,,,,,,,,,1.409,1.59,555.1767598000588,None,,,,,,,,,,,,,,,,,,,,555.7168003000552,556.2219150000019,0.5095139500917867,1.0103837500791997,556.20525800006,556.3219574000686,556.20525800006,556.3219574000686,556.3052723000292,None,c,0,0.571037600049749,556.3052723000292,None,,,,,,,p27,2022_May_20_1623,training+cueing,2021.1.4,59.94711465752226,
Stranger.png,Friend,Stranger,m,2.3,17,27,97,,,,,1,0,1,0,,,,,1,0,12,7,,,,,,,,,,,,,,,,,,,,,1.633,1.892,557.014963200083,None,,,,,,,,,,,,,,,,,,,,557.5507928000297,558.0565816999879,0.5096163500566036,1.0100837500067428,558.0398648000555,558.1571107000345,558.0398648000555,558.1571107000345,558.1399116000393,None,None,0,,558.1399116000393,None,,,,,,,p27,2022_May_20_1623,training+cueing,2021.1.4,59.94711465752226,
Stranger.png,Stranger,Stranger,c,3,13,23,93,,,,,1,0,1,0,,,,,1,1,13,8,,,,,,,,,,,,,,,,,,,,,1.785,1.561,559.8787730000913,None,,,,,,,,,,,,,,,,,,,,560.4189916000469,560.9253121000947,0.5114609500160441,1.0117526499088854,560.9086447000736,561.0253632999957,560.9086447000736,561.0253632999957,561.0086893000407,None,c,1,0.7792707000626251,561.0086893000407,None,,,,,,,p27,2022_May_20_1623,training+cueing,2021.1.4,59.94711465752226,
Stranger.png,You,Stranger,m,1.3,15,25,95,,,,,1,0,1,0,,,,,1,2,14,6,,,,,,,,,,,,,,,,,,,,,1.722,1.334,561.9156100000255,None,,,,,,,,,,,,,,,,,,,,562.4544420000166,562.9601022000425,0.5104352498892695,1.0107209499692544,562.9434148999862,563.0435025000479,562.9434148999862,563.0435025000479,563.0435025000479,None,m,1,0.6169982999563217,563.0435025000479,None,,,,,,,p27,2022_May_20_1623,training+cueing,2021.1.4,59.94711465752226,
Friend.png,You,Friend,m,1.2,14,24,94,,,,,1,0,1,0,,,,,1,3,15,3,,,,,,,,,,,,,,,,,,,,,1.677,2.344,563.7868725000881,None,,,,,,,,,,,,,,,,,,,,564.3242196000647,564.8283728000242,0.5065291499486193,1.0066162499133497,564.8117339999881,564.9116271000821,564.8117339999881,564.9116271000821,564.9116271000821,None,m,1,0.6524243000894785,564.9116271000821,None,,,,,,,p27,2022_May_20_1623,training+cueing,2021.1.4,59.94711465752226,
Friend.png,Stranger,Friend,m,3.2,19,29,99,,,,,1,0,1,0,,,,,1,4,16,5,,,,,,,,,,,,,,,,,,,,,1.665,1.855,565.7017385000363,None,,,,,,,,,,,,,,,,,,,,566.2412595000351,566.7463164000073,0.510500350035727,1.010612350073643,566.729703500052,566.8463565000566,566.729703500052,566.8463565000566,566.8297257000813,None,m,1,0.622478999895975,566.8297257000813,None,,,,,,,p27,2022_May_20_1623,training+cueing,2021.1.4,59.94711465752226,
Friend.png,Friend,Friend,c,2,12,22,92,,,,,1,0,1,0,,,,,1,5,17,10,,,,,,,,,,,,,,,,,,,,,1.449,1.392,567.586057000095,None,,,,,,,,,,,,,,,,,,,,568.1275254000211,568.6309210000327,0.5070576500147581,None,568.6142210999969,568.7309315000894,568.6142210999969,568.7309315000894,568.7142251000041,None,m,0,0.3698732000775635,568.7142251000041,None,,,,,,,p27,2022_May_20_1623,training+cueing,2021.1.4,59.94711465752226,
Self.png,You,Self ,c,1,11,21,91,,,,,1,0,1,0,,,,,1,6,18,0,,,,,,,,,,,,,,,,,,,,,1.655,2.306,569.2225231000921,None,,,,,,,,,,,,,,,,,,,,569.7591689000838,570.2653796999948,0.5107938500586897,1.0110873500816524,570.2487516000401,570.3487790999934,570.2487516000401,570.3487790999934,570.3487790999934,None,c,1,0.511178300017491,570.3487790999934,None,,,,,,,p27,2022_May_20_1623,training+cueing,2021.1.4,59.94711465752226,
Self.png,Friend,Self ,m,2.1,16,26,96,,,,,1,0,1,0,,,,,1,7,19,1,,,,,,,,,,,,,,,,,,,,,1.67,1.809,570.9886439000256,None,,,,,,,,,,,,,,,,,,,,571.5332156000659,572.033324600081,0.5003354501677677,1.0006638501072302,572.0167018000502,572.1334097000072,572.0167018000502,572.1334097000072,572.1334097000072,None,m,1,0.5506671000039205,572.1334097000072,None,,,,,,,p27,2022_May_20_1623,training+cueing,2021.1.4,59.94711465752226,
Friend.png,Friend,Friend,c,2,12,22,92,,,,,1,0,1,0,,,,,1,8,20,4,,,,,,,,,,,,,,,,,,,,,1.749,1.235,572.8065932000754,None,,,,,,,,,,,,,,,,,,,,573.3431514000986,573.8513473999919,0.5133535501081496,1.0137108500348404,573.8346487000817,573.9514192000497,573.8346487000817,573.9514192000497,573.9349422000814,None,c,1,0.5090093000326306,573.9349422000814,None,,,,,,,p27,2022_May_20_1623,training+cueing,2021.1.4,59.94711465752226,
Stranger.png,Stranger,Stranger,c,3,13,23,93,,,,,1,0,1,0,,,,,1,9,21,11,,,,,,,,,,,,,,,,,,,,,1.724,1.644,574.5749518000521,None,,,,,,,,,,,,,,,,,,,,575.1172321999911,575.6193080000812,0.5057867499999702,None,575.6025996000972,575.7193155999994,575.6025996000972,575.7193155999994,575.702627300052,None,c,1,0.35735329997260123,575.702627300052,None,,,,,,,p27,2022_May_20_1623,training+cueing,2021.1.4,59.94711465752226,
Self.png,You,Self ,c,1,11,21,91,,,,,1,0,1,0,,,,,1,10,22,9,,,,,,,,,,,,,,,,,,,,,1.743,1.211,576.1928125000559,None,,,,,,,,,,,,,,,,,,,,576.7304683000548,577.2371405999875,0.5139481499791145,1.014234850066714,577.2204760999884,577.3204738000641,577.2204760999884,577.3204738000641,577.3204738000641,None,m,0,0.46743269998114556,577.3204738000641,None,,,,,,,p27,2022_May_20_1623,training+cueing,2021.1.4,59.94711465752226,
Self.png,Stranger,Self ,m,3.1,18,28,98,,,,,1,0,1,0,,,,,1,11,23,2,,,,,,,,,,,,,,,,,,,,,1.593,1.525,577.9102980000898,None,,,,,,,,,,,,,,,,,,,,578.4493263000622,578.9550390000222,0.5096142500406131,1.0099430500995368,578.9383431000169,579.0550636000698,578.9383431000169,579.0550636000698,579.0383888999932,None,m,1,0.5736314998939633,579.0383888999932,None,,,,,,,p27,2022_May_20_1623,training+cueing,2021.1.4,59.94711465752226,
Stranger.png,Stranger,Stranger,c,3,13,23,93,,,,,1,0,1,0,,,,,2,0,24,8,,,,,,,,,,,,,,,,,,,,,1.696,2.053,579.7452954000328,None,,,,,,,,,,,,,,,,,,,,580.2838093000464,580.7897530000191,0.5123806500341743,1.0126737500540912,580.7730512000853,580.8897334000794,580.7730512000853,580.8897334000794,580.8730515000643,None,c,1,0.5468766000121832,580.8730515000643,None,,,,,,,p27,2022_May_20_1623,training+cueing,2021.1.4,59.94711465752226,
Self.png,Stranger,Self ,m,3.1,18,28,98,,,,,1,0,1,0,,,,,2,1,25,2,,,,,,,,,,,,,,,,,,,,,1.425,1.798,581.5464964000275,None,,,,,,,,,,,,,,,,,,,,582.0851333000464,582.5910059000598,0.5110285499831662,1.011858050012961,582.5743287000805,582.6910635000095,582.5743287000805,582.6910635000095,582.6743780000834,None,m,1,0.8097581999609247,582.6743780000834,None,,,,,,,p27,2022_May_20_1623,training+cueing,2021.1.4,59.94711465752226,
Friend.png,You,Friend,m,1.2,14,24,94,,,,,1,0,1,0,,,,,2,2,26,3,,,,,,,,,,,,,,,,,,,,,1.494,1.792,583.6164045000914,None,,,,,,,,,,,,,,,,,,,,584.1552916000364,584.6592327000108,0.5047756499843672,1.0050167499575764,584.6425457000732,584.7425663000904,584.6425457000732,584.7425663000904,584.7425663000904,None,m,1,0.6773539999267086,584.7425663000904,None,,,,,,,p27,2022_May_20_1623,training+cueing,2021.1.4,59.94711465752226,
Stranger.png,Friend,Stranger,m,2.3,17,27,97,,,,,1,0,1,0,,,,,2,3,27,7,,,,,,,,,,,,,,,,,,,,,1.686,1.254,585.5496507000644,None,,,,,,,,,,,,,,,,,,,,586.0882528000511,586.5938969000708,0.5120470500551164,1.012332750018686,586.577246800065,586.6939831000054,586.577246800065,586.6939831000054,586.6772597000236,None,m,1,0.630728300078772,586.6772597000236,None,,,,,,,p27,2022_May_20_1623,training+cueing,2021.1.4,59.94711465752226,
Friend.png,Stranger,Friend,m,3.2,19,29,99,,,,,1,0,1,0,,,,,2,4,28,5,,,,,,,,,,,,,,,,,,,,,1.626,1.644,587.4334591000807,None,,,,,,,,,,,,,,,,,,,,587.9729278000304,588.4786256999942,0.5095649501308799,1.0098226501140743,588.4619235000573,588.5786573000951,588.4619235000573,588.5786573000951,588.5619225000264,None,c,0,0.44201910006813705,588.5619225000264,None,,,,,,,p27,2022_May_20_1623,training+cueing,2021.1.4,59.94711465752226,
Self.png,Friend,Self ,m,2.1,16,26,96,,,,,1,0,1,0,,,,,2,5,29,1,,,,,,,,,,,,,,,,,,,,,1.466,1.888,589.1347288000397,None,,,,,,,,,,,,,,,,,,,,589.6757042000536,590.1799227000447,0.5076536500127986,1.007909950101748,590.1631537000649,590.2799416000489,590.1631537000649,590.2799416000489,590.2631413000636,None,m,1,0.6450545999687165,590.2631413000636,None,,,,,,,p27,2022_May_20_1623,training+cueing,2021.1.4,59.94711465752226,
Self.png,You,Self ,c,1,11,21,91,,,,,1,0,1,0,,,,,2,6,30,9,,,,,,,,,,,,,,,,,,,,,1.74,1.816,591.039762700093,None,,,,,,,,,,,,,,,,,,,,591.5757402000017,592.0812272999901,0.5114606500137597,1.0117819500155747,592.0644730000058,592.1645602000644,592.0644730000058,592.1645602000644,592.1645602000644,None,c,1,0.5993611000012606,592.1645602000644,None,,,,,,,p27,2022_May_20_1623,training+cueing,2021.1.4,59.94711465752226,
Stranger.png,You,Stranger,m,1.3,15,25,95,,,,,1,0,1,0,,,,,2,7,31,6,,,,,,,,,,,,,,,,,,,,,1.621,1.732,592.8875870000338,None,,,,,,,,,,,,,,,,,,,,593.4243573000422,593.932559799985,0.5142677499679849,1.01463915000204,593.915795900044,594.0158961000852,593.915795900044,594.0158961000852,594.0158961000852,None,m,1,0.5562976999208331,594.0158961000852,None,,,,,,,p27,2022_May_20_1623,training+cueing,2021.1.4,59.94711465752226,
Self.png,You,Self ,c,1,11,21,91,,,,,1,0,1,0,,,,,2,8,32,0,,,,,,,,,,,,,,,,,,,,,1.586,1.818,594.706159900059,None,,,,,,,,,,,,,,,,,,,,595.2605946999975,595.7674041000428,0.5116031999932602,1.0136885999236256,595.7488122000359,595.8507766000694,595.7488122000359,595.8507766000694,595.8507766000694,None,c,1,0.6891006000805646,595.8507766000694,None,,,,,,,p27,2022_May_20_1623,training+cueing,2021.1.4,59.94711465752226,
Friend.png,Friend,Friend,c,2,12,22,92,,,,,1,0,1,0,,,,,2,9,33,10,,,,,,,,,,,,,,,,,,,,,1.749,1.589,596.674714700086,None,,,,,,,,,,,,,,,,,,,,597.2144038000843,597.7186650000513,0.5078498501097783,1.0082622501067817,597.7020203000866,597.8187139000511,597.7020203000866,597.8187139000511,597.8020586000057,None,c,1,0.5139270999934524,597.8020586000057,None,,,,,,,p27,2022_May_20_1623,training+cueing,2021.1.4,59.94711465752226,
Stranger.png,Stranger,Stranger,c,3,13,23,93,,,,,1,0,1,0,,,,,2,10,34,11,,,,,,,,,,,,,,,,,,,,,1.615,2.068,598.4417570000514,None,,,,,,,,,,,,,,,,,,,,598.9850219000364,599.4865678000497,0.5018293500179425,1.0019749499624595,599.4700081000337,599.5866130000213,599.4700081000337,599.5866130000213,599.5866130000213,None,c,1,0.6653000999940559,599.5866130000213,None,,,,,,,p27,2022_May_20_1623,training+cueing,2021.1.4,59.94711465752226,
Friend.png,Friend,Friend,c,2,12,22,92,,,,,1,0,1,0,,,,,2,11,35,4,,,,,,,,,,,,,,,,,,,,,1.434,2.254,600.3765045000473,None,,,,,,,,,,,,,,,,,,,,600.914150500088,601.4213047000812,0.5126683498965576,1.0129810499493033,601.4046405000845,601.5213819000637,601.4046405000845,601.5213819000637,601.5046835000394,None,c,1,0.8114988000597805,601.5046835000394,None,,,,,,,p27,2022_May_20_1623,training+cueing,2021.1.4,59.94711465752226,
Stranger.png,Stranger,Stranger,c,3,13,23,93,,,,,1,0,1,0,,,,,3,0,36,8,,,,,,,,,,,,,,,,,,,,,1.55,1.532,602.4479675000766,None,,,,,,,,,,,,,,,,,,,,602.9933324999874,603.506340800086,0.5066333501599729,1.0070876501267776,603.4894859000342,603.6061733000679,603.4894859000342,603.6061733000679,603.5895219000522,None,c,1,0.5664131999947131,603.5895219000522,None,,,,,,,p27,2022_May_20_1623,training+cueing,2021.1.4,59.94711465752226,
Friend.png,Friend,Friend,c,2,12,22,92,,,,,1,0,1,0,,,,,3,1,37,10,,,,,,,,,,,,,,,,,,,,,1.792,2.042,604.2798956000479,None,,,,,,,,,,,,,,,,,,,,604.8172738000285,605.3241512000095,0.5122984501067549,1.012590250116773,605.3074034000747,605.4242054000497,605.3074034000747,605.4242054000497,605.407522500027,None,c,1,0.4284666000166908,605.407522500027,None,,,,,,,p27,2022_May_20_1623,training+cueing,2021.1.4,59.94711465752226,
Self.png,You,Self ,c,1,11,21,91,,,,,1,0,1,0,,,,,3,2,38,0,,,,,,,,,,,,,,,,,,,,,1.688,2.222,605.9636755000101,None,,,,,,,,,,,,,,,,,,,,606.5096105000703,607.0086990999989,0.5141102500492707,1.0144018500577658,607.0086990999989,607.1087446000893,607.0086990999989,607.1087446000893,607.1087446000893,None,c,1,0.4710976999485865,607.1087446000893,None,,,,,,,p27,2022_May_20_1623,training+cueing,2021.1.4,59.94711465752226,
Stranger.png,Friend,Stranger,m,2.3,17,27,97,,,,,1,0,1,0,,,,,3,3,39,7,,,,,,,,,,,,,,,,,,,,,1.623,2.085,607.7166635000613,None,,,,,,,,,,,,,,,,,,,,608.2557989000343,608.7600097000832,0.5067226501414552,1.0069875500630587,608.743334800005,608.8600305999862,608.743334800005,608.8600305999862,608.8433287000516,None,m,1,0.6885076999897137,608.8433287000516,None,,,,,,,p27,2022_May_20_1623,training+cueing,2021.1.4,59.94711465752226,
Friend.png,You,Friend,m,1.2,14,24,94,,,,,1,0,1,0,,,,,3,4,40,3,,,,,,,,,,,,,,,,,,,,,1.475,1.547,609.6666767999995,None,,,,,,,,,,,,,,,,,,,,610.2042045000708,610.7113834000193,0.5132177501218393,1.0137374501209706,610.6947107000742,610.7947621000931,610.6947107000742,610.7947621000931,610.7947621000931,None,m,1,0.5131659000180662,610.7947621000931,None,,,,,,,p27,2022_May_20_1623,training+cueing,2021.1.4,59.94711465752226,
Stranger.png,Stranger,Stranger,c,3,13,23,93,,,,,1,0,1,0,,,,,3,5,41,11,,,,,,,,,,,,,,,,,,,,,1.718,1.715,611.4356811000034,None,,,,,,,,,,,,,,,,,,,,612.0066578000551,612.5127997000236,0.5015337000368163,1.0018092000391334,612.4961832000408,612.6128638000228,612.4961832000408,612.6128638000228,612.6128638000228,None,c,1,0.5510321999900043,612.6128638000228,None,,,,,,,p27,2022_May_20_1623,training+cueing,2021.1.4,59.94711465752226,
Friend.png,Friend,Friend,c,2,12,22,92,,,,,1,0,1,0,,,,,3,6,42,4,,,,,,,,,,,,,,,,,,,,,1.58,1.341,613.2857738999883,None,,,,,,,,,,,,,,,,,,,,613.8243296000874,614.3306738000829,0.5094328500563279,1.0098810500930995,614.3139566000318,614.430746100028,614.3139566000318,614.430746100028,614.4140138000948,None,c,1,0.46191640000324696,614.4140138000948,None,,,,,,,p27,2022_May_20_1623,training+cueing,2021.1.4,59.94711465752226,
Self.png,Friend,Self ,m,2.1,16,26,96,,,,,1,0,1,0,,,,,3,7,43,1,,,,,,,,,,,,,,,,,,,,,1.63,1.42,615.0045643000631,None,,,,,,,,,,,,,,,,,,,,615.5402466000523,616.0485616000369,0.49920225015375763,0.9994976500747725,616.0151887000538,616.1152449999936,616.0151887000538,616.1152449999936,616.1152449999936,None,m,1,0.5526452999329194,616.1152449999936,None,,,,,,,p27,2022_May_20_1623,training+cueing,2021.1.4,59.94711465752226,
Self.png,You,Self ,c,1,11,21,91,,,,,1,0,1,0,,,,,3,8,44,9,,,,,,,,,,,,,,,,,,,,,1.678,1.546,616.8052901000483,None,,,,,,,,,,,,,,,,,,,,617.3444956000894,617.8498513000086,0.5089558500330895,None,617.8332062000409,617.9332790999906,617.8332062000409,617.9332790999906,617.9332790999906,None,c,1,0.38265929999761283,617.9332790999906,None,,,,,,,p27,2022_May_20_1623,training+cueing,2021.1.4,59.94711465752226,
Friend.png,Stranger,Friend,m,3.2,19,29,99,,,,,1,0,1,0,,,,,3,9,45,5,,,,,,,,,,,,,,,,,,,,,1.643,2.293,618.4975034000818,None,,,,,,,,,,,,,,,,,,,,618.9817605999997,619.4845926000271,0.5062009498942643,1.006448849919252,619.467902900069,619.5846157000633,619.467902900069,619.5846157000633,619.5679088000907,None,m,1,1.3080297999549657,619.5679088000907,None,,,,,,,p27,2022_May_20_1623,training+cueing,2021.1.4,59.94711465752226,
Stranger.png,You,Stranger,m,1.3,15,25,95,,,,,1,0,1,0,,,,,3,10,46,6,,,,,,,,,,,,,,,,,,,,,1.42,1.466,621.008933700039,None,,,,,,,,,,,,,,,,,,,,621.5487927000504,622.0530460000737,0.5076649500988424,None,622.0364149000961,622.1364681000123,622.0364149000961,622.1364681000123,622.1364681000123,None,c,0,0.32375179999507964,622.1364681000123,None,,,,,,,p27,2022_May_20_1623,training+cueing,2021.1.4,59.94711465752226,
Self.png,Stranger,Self ,m,3.1,18,28,98,,,,,1,0,1,0,,,,,3,11,47,2,,,,,,,,,,,,,,,,,,,,,1.701,1.402,622.5934414000949,None,,,,,,,,,,,,,,,,,,,,623.1437804000452,623.6541039000731,0.5012266499688849,1.0015859499108046,623.6373724000296,623.754142299993,623.6373724000296,623.754142299993,623.754142299993,None,m,1,0.7697801000904292,623.754142299993,None,,,,,,,p27,2022_May_20_1623,training+cueing,2021.1.4,59.94711465752226,
Self.png,You,Self ,c,1,11,21,91,,,,,1,0,1,0,,,,,4,0,48,9,,,,,,,,,,,,,,,,,,,,,1.661,1.783,624.6613789000548,None,,,,,,,,,,,,,,,,,,,,625.2014965000562,625.7055744000245,0.508160850033164,1.0084838500479236,625.6889048999874,625.7889678000938,625.6889048999874,625.7889678000938,625.7889678000938,None,c,1,0.4629153999267146,625.7889678000938,None,,,,,,,p27,2022_May_20_1623,training+cueing,2021.1.4,59.94711465752226,
Stranger.png,You,Stranger,m,1.3,15,25,95,,,,,1,0,1,0,,,,,4,1,49,6,,,,,,,,,,,,,,,,,,,,,1.769,1.777,626.3787399000721,None,,,,,,,,,,,,,,,,,,,,626.9173521000193,627.4234937999863,0.51239245000761,1.012659150059335,627.4068393000634,627.506852600025,627.4068393000634,627.506852600025,627.506852600025,None,m,1,0.6171052000718191,627.506852600025,None,,,,,,,p27,2022_May_20_1623,training+cueing,2021.1.4,59.94711465752226,
Self.png,You,Self ,c,1,11,21,91,,,,,1,0,1,0,,,,,4,2,50,0,,,,,,,,,,,,,,,,,,,,,1.518,1.525,628.2469123000046,None,,,,,,,,,,,,,,,,,,,,628.7999923999887,629.3081914000213,0.5140064000152051,1.0142928999848664,629.2914990000427,629.3915325000416,629.2914990000427,629.3915325000416,629.3915325000416,None,c,1,0.476265300065279,629.3915325000416,None,,,,,,,p27,2022_May_20_1623,training+cueing,2021.1.4,59.94711465752226,
Friend.png,Friend,Friend,c,2,12,22,92,,,,,1,0,1,0,,,,,4,3,51,10,,,,,,,,,,,,,,,,,,,,,1.731,1.975,629.9984427000163,None,,,,,,,,,,,,,,,,,,,,630.5385628000367,631.0427396000596,0.5082146499771625,1.0085643499623984,631.0261281999992,631.1428009000374,631.0261281999992,631.1428009000374,631.1261444000993,None,c,1,0.5177715999307111,631.1261444000993,None,,,,,,,p27,2022_May_20_1623,training+cueing,2021.1.4,59.94711465752226,
Stranger.png,Stranger,Stranger,c,3,13,23,93,,,,,1,0,1,0,,,,,4,4,52,11,,,,,,,,,,,,,,,,,,,,,1.558,2.435,631.7657147999853,None,,,,,,,,,,,,,,,,,,,,632.3203965000575,632.8273984000552,0.5125027000904083,1.0127282000612468,632.8107547000982,632.9274685001001,632.8107547000982,632.9274685001001,632.9107153000077,None,c,1,0.7810785000910982,632.9107153000077,None,,,,,,,p27,2022_May_20_1623,training+cueing,2021.1.4,59.94711465752226,
Friend.png,Stranger,Friend,m,3.2,19,29,99,,,,,1,0,1,0,,,,,4,5,53,5,,,,,,,,,,,,,,,,,,,,,1.656,1.771,633.8172240999993,None,,,,,,,,,,,,,,,,,,,,634.3792818000074,634.8790662999963,0.5009060999145731,1.001021199976094,634.8624130000826,634.9790937000653,634.8624130000826,634.9790937000653,634.9790937000653,None,m,1,0.5688209999352694,634.9790937000653,None,,,,,,,p27,2022_May_20_1623,training+cueing,2021.1.4,59.94711465752226,
Stranger.png,Friend,Stranger,m,2.3,17,27,97,,,,,1,0,1,0,,,,,4,6,54,7,,,,,,,,,,,,,,,,,,,,,1.448,1.547,635.6854628000874,None,,,,,,,,,,,,,,,,,,,,636.2461878000759,636.7469377000816,0.501956400112249,1.002247300115414,636.7302070000442,636.8469844000647,636.7302070000442,636.8469844000647,636.8302494999953,None,m,1,0.8296821999829262,636.8302494999953,None,,,,,,,p27,2022_May_20_1623,training+cueing,2021.1.4,59.94711465752226,
Self.png,Friend,Self ,m,2.1,16,26,96,,,,,1,0,1,0,,,,,4,7,55,1,,,,,,,,,,,,,,,,,,,,,1.776,1.768,637.7867391000036,None,,,,,,,,,,,,,,,,,,,,638.322696999996,638.8316859999904,0.49933835002593696,1.000262949964963,638.7984054000117,638.8991651000688,638.7984054000117,638.8991651000688,638.8991651000688,None,m,1,0.9047652999870479,638.8991651000688,None,,,,,,,p27,2022_May_20_1623,training+cueing,2021.1.4,59.94711465752226,
Friend.png,You,Friend,m,1.2,14,24,94,,,,,1,0,1,0,,,,,4,8,56,3,,,,,,,,,,,,,,,,,,,,,1.75,1.239,639.9418064000783,None,,,,,,,,,,,,,,,,,,,,640.4819219000638,640.9833514000056,0.5035389499971643,1.0037590500432998,640.9666662000818,641.0667050000047,640.9666662000818,641.0667050000047,641.0667050000047,None,m,1,0.6411054000491276,641.0667050000047,None,,,,,,,p27,2022_May_20_1623,training+cueing,2021.1.4,59.94711465752226,
Friend.png,Friend,Friend,c,2,12,22,92,,,,,1,0,1,0,,,,,4,9,57,4,,,,,,,,,,,,,,,,,,,,,1.447,1.576,641.8400055000093,None,,,,,,,,,,,,,,,,,,,,642.3794363000197,642.8847126000328,0.5104915500851348,1.0105744500178844,642.8682174000423,642.9847386000911,642.8682174000423,642.9847386000911,642.9680458999937,None,c,1,0.46780509990639985,642.9680458999937,None,,,,,,,p27,2022_May_20_1623,training+cueing,2021.1.4,59.94711465752226,
Stranger.png,Stranger,Stranger,c,3,13,23,93,,,,,1,0,1,0,,,,,4,10,58,8,,,,,,,,,,,,,,,,,,,,,1.492,2.179,643.5581962000579,None,,,,,,,,,,,,,,,,,,,,644.0983846000163,644.6027993999887,0.5063446500571445,1.0066327500389889,644.5859413000289,644.7026054000016,644.5859413000289,644.7026054000016,644.6859710999997,None,c,1,0.5418679000576958,644.6859710999997,None,,,,,,,p27,2022_May_20_1623,training+cueing,2021.1.4,59.94711465752226,
Self.png,Stranger,Self ,m,3.1,18,28,98,,,,,1,0,1,0,,,,,4,11,59,2,,,,,,,,,,,,,,,,,,,,,1.585,2.273,645.3591982000507,None,,,,,,,,,,,,,,,,,,,,645.8981248000637,646.4038617000915,0.5116603500209749,1.0119650500128046,646.3872386000585,646.5039234000724,646.3872386000585,646.5039234000724,646.4872632999904,None,m,1,0.5805970999645069,646.4872632999904,None,,,,,,,p27,2022_May_20_1623,training+cueing,2021.1.4,59.94711465752226,
Friend.png,You,Friend,m,1.2,14,24,94,,,,,1,0,1,0,,,,,5,0,60,3,,,,,,,,,,,,,,,,,,,,,1.76,1.465,647.1943783999886,None,,,,,,,,,,,,,,,,,,,,647.7329359999858,648.2385760000907,0.5095665500266477,1.0098509499803185,648.2219090000726,648.3219409000594,648.2219090000726,648.3219409000594,648.3219409000594,None,m,1,0.8259074999950826,648.3219409000594,None,,,,,,,p27,2022_May_20_1623,training+cueing,2021.1.4,59.94711465752226,
Stranger.png,Friend,Stranger,m,2.3,17,27,97,,,,,1,0,1,0,,,,,5,1,61,7,,,,,,,,,,,,,,,,,,,,,1.659,2.051,649.2790138000855,None,,,,,,,,,,,,,,,,,,,,649.8197941000108,650.3234147999901,0.5070165499346331,1.0072917499346659,650.3067598000634,650.4234272000613,650.3067598000634,650.4234272000613,650.4067622000584,None,m,1,0.9811442999634892,650.4067622000584,None,,,,,,,p27,2022_May_20_1623,training+cueing,2021.1.4,59.94711465752226,
Self.png,You,Self ,c,1,11,21,91,,,,,1,0,1,0,,,,,5,2,62,0,,,,,,,,,,,,,,,,,,,,,1.612,2.274,651.5137071000645,None,,,,,,,,,,,,,,,,,,,,652.053400700097,652.5583584000124,0.508593250066042,1.008885950082913,652.5416977000423,652.6417401999934,652.5416977000423,652.6417401999934,652.6417401999934,None,c,1,0.5700837000040337,652.6417401999934,None,,,,,,,p27,2022_May_20_1623,training+cueing,2021.1.4,59.94711465752226,
Self.png,Friend,Self ,m,2.1,16,26,96,,,,,1,0,1,0,,,,,5,3,63,1,,,,,,,,,,,,,,,,,,,,,1.675,2.004,653.3485396000324,None,,,,,,,,,,,,,,,,,,,,653.8879879000597,654.393037800095,0.5067726499401033,1.0070719498908147,654.376333400025,654.4930794000393,654.376333400025,654.4930794000393,654.4763229000382,None,m,1,0.7040560999885201,654.4763229000382,None,,,,,,,p27,2022_May_20_1623,training+cueing,2021.1.4,59.94711465752226,
Stranger.png,Stranger,Stranger,c,3,13,23,93,,,,,1,0,1,0,,,,,5,4,64,8,,,,,,,,,,,,,,,,,,,,,1.478,2.009,655.319602600066,None,,,,,,,,,,,,,,,,,,,,655.858012599987,656.3610820000758,0.5052635499741882,1.00560674990993,656.3443874000804,656.4611526000081,656.3443874000804,656.4611526000081,656.4444455000339,None,c,1,0.5274400999769568,656.4444455000339,None,,,,,,,p27,2022_May_20_1623,training+cueing,2021.1.4,59.94711465752226,
Friend.png,Friend,Friend,c,2,12,22,92,,,,,1,0,1,0,,,,,5,5,65,4,,,,,,,,,,,,,,,,,,,,,1.739,1.958,657.1006113000913,None,,,,,,,,,,,,,,,,,,,,657.6482342000818,658.1624141000211,0.5117624499835074,1.0120041499612853,658.1457921999972,658.2624791000271,658.1457921999972,658.2624791000271,658.2457820000127,None,c,1,0.5183403000701219,658.2457820000127,None,,,,,,,p27,2022_May_20_1623,training+cueing,2021.1.4,59.94711465752226,
Self.png,Stranger,Self ,m,3.1,18,28,98,,,,,1,0,1,0,,,,,5,6,66,2,,,,,,,,,,,,,,,,,,,,,1.64,1.657,658.8894543000497,None,,,,,,,,,,,,,,,,,,,,659.4263628000626,659.9303717000876,0.5059317500563338,1.0084609501063824,659.913646500092,660.030423499993,659.913646500092,660.030423499993,660.0137047000462,None,m,1,1.0861529000103474,660.0137047000462,None,,,,,,,p27,2022_May_20_1623,training+cueing,2021.1.4,59.94711465752226,
Friend.png,Stranger,Friend,m,3.2,19,29,99,,,,,1,0,1,0,,,,,5,7,67,5,,,,,,,,,,,,,,,,,,,,,1.575,1.216,661.2211264000507,None,,,,,,,,,,,,,,,,,,,,661.7589795000385,662.2655191000085,0.5122249500127509,1.0124927499564365,662.2488956000889,662.3655871000374,662.2488956000889,662.3655871000374,662.3489211000269,None,m,1,0.8949931999668479,662.3489211000269,None,,,,,,,p27,2022_May_20_1623,training+cueing,2021.1.4,59.94711465752226,
Friend.png,Friend,Friend,c,2,12,22,92,,,,,1,0,1,0,,,,,5,8,68,10,,,,,,,,,,,,,,,,,,,,,1.575,1.394,663.3737399000674,None,,,,,,,,,,,,,,,,,,,,663.9139243999962,664.4174742000178,0.5043940498726442,1.0047219499247149,664.4002742000157,664.5171325000701,664.4002742000157,664.5171325000701,664.5004225000739,None,c,1,0.471349100000225,664.5004225000739,None,,,,,,,p27,2022_May_20_1623,training+cueing,2021.1.4,59.94711465752226,
Stranger.png,Stranger,Stranger,c,3,13,23,93,,,,,1,0,1,0,,,,,5,9,69,11,,,,,,,,,,,,,,,,,,,,,1.554,1.207,665.106390900095,None,,,,,,,,,,,,,,,,,,,,665.6605610999977,666.1683142000111,0.515307700028643,1.0155571000650525,666.1515855999896,666.2683615999995,666.1515855999896,666.2683615999995,666.25161450007,None,c,1,0.5442237999523059,666.25161450007,None,,,,,,,p27,2022_May_20_1623,training+cueing,2021.1.4,59.94711465752226,
Stranger.png,You,Stranger,m,1.3,15,25,95,,,,,1,0,1,0,,,,,5,10,70,6,,,,,,,,,,,,,,,,,,,,,1.695,1.245,666.9247794999974,None,,,,,,,,,,,,,,,,,,,,667.4685949999839,667.9697339000413,0.5018841499695554,1.0019684499129653,667.9530560000567,668.053121700068,667.9530560000567,668.053121700068,668.053121700068,None,m,1,0.5026956000365317,668.053121700068,None,,,,,,,p27,2022_May_20_1623,training+cueing,2021.1.4,59.94711465752226,
Self.png,You,Self ,c,1,11,21,91,,,,,1,0,1,0,,,,,5,11,71,9,,,,,,,,,,,,,,,,,,,,,1.434,1.544,668.6924203000963,None,,,,,,,,,,,,,,,,,,,,669.2452300000004,669.7541647000471,0.4994537999155,0.9997537999879569,669.7208325000247,669.8208455999848,669.7208325000247,669.8208455999848,669.8208455999848,None,c,1,0.47897809999994934,669.8208455999848,None,,,,,,,p27,2022_May_20_1623,training+cueing,2021.1.4,59.94711465752226,
Self.png,Friend,Self ,m,2.1,16,26,96,,,,,1,0,1,0,,,,,6,0,72,1,,,,,,,,,,,,,,,,,,,,,1.615,1.846,670.4274779000552,None,,,,,,,,,,,,,,,,,,,,670.9687581000617,671.4721006000182,0.5071869500679895,1.0078660500003025,671.4553800000576,671.5726463000756,671.4553800000576,671.5726463000756,671.5555633000331,None,m,1,0.648214100045152,671.5555633000331,None,,,,,,,p27,2022_May_20_1623,training+cueing,2021.1.4,59.94711465752226,
Stranger.png,Friend,Stranger,m,2.3,17,27,97,,,,,1,0,1,0,,,,,6,1,73,7,,,,,,,,,,,,,,,,,,,,,1.625,2.234,672.3285700000124,None,,,,,,,,,,,,,,,,,,,,672.8652098000748,673.3734455000376,0.5153956500580534,1.0156999500468373,673.3567091000732,673.4734887999948,673.3567091000732,673.4734887999948,673.4567769999849,None,c,0,0.6030296999961138,673.4567769999849,None,,,,,,,p27,2022_May_20_1623,training+cueing,2021.1.4,59.94711465752226,
Stranger.png,Stranger,Stranger,c,3,13,23,93,,,,,1,0,1,0,,,,,6,2,74,8,,,,,,,,,,,,,,,,,,,,,1.601,1.577,674.1972240000032,None,,,,,,,,,,,,,,,,,,,,674.7371604000218,675.2414618000621,0.5061649500858039,1.0064519500592723,675.2248060000129,675.3415146000916,675.2248060000129,675.3415146000916,675.3247994000558,None,m,0,0.43098169995937496,675.3247994000558,None,,,,,,,p27,2022_May_20_1623,training+cueing,2021.1.4,59.94711465752226,
Stranger.png,Stranger,Stranger,c,3,13,23,93,,,,,1,0,1,0,,,,,6,3,75,11,,,,,,,,,,,,,,,,,,,,,1.682,2.41,675.8814775000792,None,,,,,,,,,,,,,,,,,,,,676.4209382000845,676.926021900028,0.5108770499937236,1.0112073499476537,676.9093090000097,677.0260688000126,676.9093090000097,677.0260688000126,677.009295900003,None,c,1,0.5384867999237031,677.009295900003,None,,,,,,,p27,2022_May_20_1623,training+cueing,2021.1.4,59.94711465752226,
Self.png,Stranger,Self ,m,3.1,18,28,98,,,,,1,0,1,0,,,,,6,4,76,2,,,,,,,,,,,,,,,,,,,,,1.644,2.221,677.6832970000105,None,,,,,,,,,,,,,,,,,,,,678.2182300999993,678.7273198000621,0.5147244500694796,None,678.7106245000614,678.8273811000399,678.7106245000614,678.8273811000399,678.8106554000406,None,c,0,0.3371994000626728,678.8106554000406,None,,,,,,,p27,2022_May_20_1623,training+cueing,2021.1.4,59.94711465752226,
Friend.png,You,Friend,m,1.2,14,24,94,,,,,1,0,1,0,,,,,6,5,77,3,,,,,,,,,,,,,,,,,,,,,1.54,1.766,679.2837565999944,None,,,,,,,,,,,,,,,,,,,,679.8383929000702,680.3452005999861,0.5137062999419868,1.0140051000053063,680.3284553000703,680.428534500068,680.3284553000703,680.428534500068,680.428534500068,None,m,1,0.6073292000219226,680.428534500068,None,,,,,,,p27,2022_May_20_1623,training+cueing,2021.1.4,59.94711465752226,
Stranger.png,You,Stranger,m,1.3,15,25,95,,,,,1,0,1,0,,,,,6,6,78,6,,,,,,,,,,,,,,,,,,,,,1.747,1.663,681.1687268000096,None,,,,,,,,,,,,,,,,,,,,681.7065021999879,682.2131821000949,0.5120404500048608,1.012322650058195,682.1965034999885,682.2965782000683,682.1965034999885,682.2965782000683,682.2965782000683,None,m,1,0.6592910999897867,682.2965782000683,None,,,,,,,p27,2022_May_20_1623,training+cueing,2021.1.4,59.94711465752226,
Friend.png,Stranger,Friend,m,3.2,19,29,99,,,,,1,0,1,0,,,,,6,7,79,5,,,,,,,,,,,,,,,,,,,,,1.57,1.926,683.0863051000051,None,,,,,,,,,,,,,,,,,,,,683.6256108999951,684.1312098000199,0.5091700500342995,1.0099513499299064,684.1146645999979,684.2312609000364,684.1146645999979,684.2312609000364,684.2146010000724,None,m,1,0.7572378000477329,684.2146010000724,None,,,,,,,p27,2022_May_20_1623,training+cueing,2021.1.4,59.94711465752226,
Self.png,You,Self ,c,1,11,21,91,,,,,1,0,1,0,,,,,6,8,80,9,,,,,,,,,,,,,,,,,,,,,1.478,2.006,685.1054496000288,None,,,,,,,,,,,,,,,,,,,,685.6422928000102,686.1493748000357,0.5133054500911385,1.0135777500690892,686.1326722000958,686.2327040000819,686.1326722000958,686.2327040000819,686.2327040000819,None,c,1,0.5471312999725342,686.2327040000819,None,,,,,,,p27,2022_May_20_1623,training+cueing,2021.1.4,59.94711465752226,
Self.png,You,Self ,c,1,11,21,91,,,,,1,0,1,0,,,,,6,9,81,0,,,,,,,,,,,,,,,,,,,,,1.503,1.845,686.905960700009,None,,,,,,,,,,,,,,,,,,,,687.4424552000128,687.9506758000934,0.5152231500251219,1.0161558500258252,687.9339025000809,688.0340142000932,687.9339025000809,688.0340142000932,688.0340142000932,None,c,1,0.490133999963291,688.0340142000932,None,,,,,,,p27,2022_May_20_1623,training+cueing,2021.1.4,59.94711465752226,
Friend.png,Friend,Friend,c,2,12,22,92,,,,,1,0,1,0,,,,,6,10,82,10,,,,,,,,,,,,,,,,,,,,,1.576,1.356,688.6573503999971,None,,,,,,,,,,,,,,,,,,,,689.1972262000199,689.7019533000421,0.5071394500555471,1.007380950031802,689.6853129999945,689.8019682000158,689.6853129999945,689.8019682000158,689.7852764000418,None,c,1,0.6267918000230566,689.7852764000418,None,,,,,,,p27,2022_May_20_1623,training+cueing,2021.1.4,59.94711465752226,
Friend.png,Friend,Friend,c,2,12,22,92,,,,,1,0,1,0,,,,,6,11,83,4,,,,,,,,,,,,,,,,,,,,,1.491,1.555,690.5458790999837,None,,,,,,,,,,,,,,,,,,,,691.0799638000317,691.5866184000624,0.5132138500921428,1.0135614500613883,691.5699361000443,691.6867069000145,691.5699361000443,691.6867069000145,691.6700108000077,None,c,1,0.5498802999500185,691.6700108000077,None,,,,,,,p27,2022_May_20_1623,training+cueing,2021.1.4,59.94711465752226,
Stranger.png,You,Stranger,m,1.3,15,25,95,,,,,1,0,1,0,,,,,7,0,84,6,,,,,,,,,,,,,,,,,,,,,1.573,1.426,692.343910900061,None,,,,,,,,,,,,,,,,,,,,692.8813535000663,693.3879460000899,0.5102855501463637,1.0105843500932679,693.3712801000802,693.471316200099,693.3712801000802,693.471316200099,693.471316200099,None,m,1,0.6207335999934003,693.471316200099,None,,,,,,,p27,2022_May_20_1623,training+cueing,2021.1.4,59.94711465752226,
