Image,Name,Face,CorrAns,Match,Face_onset,CResponse_onset,IResponse_onset,Match.thisRepN,Match.thisTrialN,Match.thisN,Match.thisIndex,Blocks.thisRepN,Blocks.thisTrialN,Blocks.thisN,Blocks.thisIndex,trials.thisRepN,trials.thisTrialN,trials.thisN,trials.thisIndex,trials_2.thisRepN,trials_2.thisTrialN,trials_2.thisN,trials_2.thisIndex,text.started,text.stopped,p1.started,p1.stopped,MatchInstructions.started,MatchInstructions.stopped,Name1.started,Name1.stopped,Face_Relevance.started,Face_Relevance.stopped,MismatchInstructions.started,MismatchInstructions.stopped,Rest_trainingInstruct.started,Rest_trainingInstruct.stopped,next8.keys,next8.rt,next8.started,next8.stopped,Ready.started,Ready.stopped,delay_one_picked,delay_two_picked,blank0.started,blank0.stopped,FixationCross1.started,FixationCross1.stopped,Name3.started,Name3.stopped,Face_Relevance3.started,Face_Relevance3.stopped,responseTime.started,responseTime.stopped,resp.keys,resp.corr,resp.rt,resp.started,resp.stopped,Accuracy.started,Accuracy.stopped,questions.started,questions.stopped,p2.started,p2.stopped,FixationCross3.started,FixationCross3.stopped,port_Face_onset.started,port_Face_onset.stopped,Name4.started,Name4.stopped,Face_Relevance4.started,Face_Relevance4.stopped,responseTime2.started,responseTime2.stopped,Response.keys,Response.corr,Response.rt,Response.started,Response.stopped,p3.started,p3.stopped,Finish.started,Finish.stopped,gender,age,participant,date,expName,psychopyVersion,frameRate,
Self.png,You,,,,,,,0,0,0,0,,,,,,,,,,,,,19.870143300155178,None,0.0035917640198022127,0.49953536386601627,21.874962700065225,None,24.02964109997265,None,24.02964109997265,None,,,,,,,,,,,,,,,,,,,,,,,,,,,,,,,,,,,,,,,,,,,,,,,,,,,,,,,p29b,2022-09-07_12h04.20.523,training+cueing,2022.1.3,59.83659825498851,
Stranger.png,Stranger,,,,,,,0,1,1,2,,,,,,,,,,,,,,,,,,,43.92885010014288,None,43.92885010014288,None,,,,,,,,,,,,,,,,,,,,,,,,,,,,,,,,,,,,,,,,,,,,,,,,,,,,,,,p29b,2022-09-07_12h04.20.523,training+cueing,2022.1.3,59.83659825498851,
Friend.png,Friend,,,,,,,0,2,2,1,,,,,,,,,,,,,,,,,,,63.92988080019131,None,63.92988080019131,None,,,,,,,,,,,,,,,,,,,,,,,,,,,,,,,,,,,,,,,,,,,,,,,,,,,,,,,p29b,2022-09-07_12h04.20.523,training+cueing,2022.1.3,59.83659825498851,
Friend.png,Friend,Friend,c,2,12,22,92,,,,,0,0,0,0,0,0,0,4,,,,,,,,,,,,,,,83.88822149997577,None,86.69045520015061,None,space,-0.8823586001526564,2.0131702597718686,None,88.69168810010888,None,1.636,1.915,91.7029236999806,None,92.31734560010955,92.82808000012301,92.79475640016608,92.89471800019965,92.79475640016608,92.89471800019965,92.89471800019965,None,c,1,1.5066418999340385,92.89471800019965,None,94.42900960007682,None,,,,,,,,,,,,,,,,,,,,,,,,,,p29b,2022-09-07_12h04.20.523,training+cueing,2022.1.3,59.83659825498851,
Self.png,You,Self ,c,1,11,21,91,,,,,0,0,0,0,0,1,1,0,,,,,,,,,,,,,,,,,,,,,,,,,1.486,2.108,94.82979800016619,None,95.36648670001887,95.88021550001577,95.86352710006759,95.96382730011828,95.86352710006759,95.96382730011828,95.96382730011828,None,m,0,0.5815383996814489,95.96382730011828,None,96.56416540010832,None,,,,,,,,,,,,,,,,,,,,,,,,,,p29b,2022-09-07_12h04.20.523,training+cueing,2022.1.3,59.83659825498851,
Friend.png,Stranger,Friend,m,3.2,19,29,99,,,,,0,0,0,0,0,2,2,5,,,,,,,,,,,,,,,,,,,,,,,,,1.517,2.283,96.96421680017374,None,97.49649549997412,97.99845429998823,97.98179870005697,98.09840810019523,97.98179870005697,98.09840810019523,98.09840810019523,None,c,0,0.3341048997826874,98.09840810019523,None,98.46541650011204,None,,,,,,,,,,,,,,,,,,,,,,,,,,p29b,2022-09-07_12h04.20.523,training+cueing,2022.1.3,59.83659825498851,
Self.png,You,Self ,c,1,11,21,91,,,,,0,0,0,0,0,3,3,9,,,,,,,,,,,,,,,,,,,,,,,,,1.41,2.096,98.86674470012076,None,99.39578650007024,99.89982310007326,99.8831635999959,99.9832154000178,99.8831635999959,99.9832154000178,99.9832154000178,None,c,1,0.7685416997410357,99.9832154000178,None,100.78358020004816,None,,,,,,,,,,,,,,,,,,,,,,,,,,p29b,2022-09-07_12h04.20.523,training+cueing,2022.1.3,59.83659825498851,
Stranger.png,Stranger,Stranger,c,3,13,23,93,,,,,0,0,0,0,0,4,4,11,,,,,,,,,,,,,,,,,,,,,,,,,1.785,1.352,101.18405840010382,None,101.71795319998637,102.21820660005324,102.21820660005324,102.31820980017073,102.21820660005324,102.31820980017073,102.31820980017073,None,c,1,0.705873399740085,102.31820980017073,None,103.05217240005732,None,,,,,,,,,,,,,,,,,,,,,,,,,,p29b,2022-09-07_12h04.20.523,training+cueing,2022.1.3,59.83659825498851,
Stranger.png,You,Stranger,m,1.3,15,25,95,,,,,0,0,0,0,0,5,5,6,,,,,,,,,,,,,,,,,,,,,,,,,1.544,2.462,103.45236890017986,None,103.98366190004162,104.48651950014755,104.46985230012797,104.56986930011772,104.46985230012797,104.56986930011772,104.56986930011772,None,m,1,0.6943955000024289,104.56986930011772,None,105.28704780014232,None,,,,,,,,,,,,,,,,,,,,,,,,,,p29b,2022-09-07_12h04.20.523,training+cueing,2022.1.3,59.83659825498851,
Self.png,Friend,Self ,m,2.1,16,26,96,,,,,0,0,0,0,0,6,6,1,,,,,,,,,,,,,,,,,,,,,,,,,1.598,1.634,105.68748770002276,None,106.21790569997393,106.72131450008601,106.70477940002456,106.82143190014176,106.70477940002456,106.82143190014176,106.8047041001264,None,m,1,0.7155695997644216,106.8047041001264,None,107.53863289998844,None,,,,,,,,,,,,,,,,,,,,,,,,,,p29b,2022-09-07_12h04.20.523,training+cueing,2022.1.3,59.83659825498851,
Friend.png,You,Friend,m,1.2,14,24,94,,,,,0,0,0,0,0,7,7,3,,,,,,,,,,,,,,,,,,,,,,,,,1.771,1.425,107.93918180000037,None,108.46966310008429,108.97307860013098,108.95647160010412,109.05638550012372,108.95647160010412,109.05638550012372,109.05638550012372,None,m,1,0.9921925999224186,109.05638550012372,None,110.07391060004011,None,,,,,,,,,,,,,,,,,,,,,,,,,,p29b,2022-09-07_12h04.20.523,training+cueing,2022.1.3,59.83659825498851,
Stranger.png,Stranger,Stranger,c,3,13,23,93,,,,,0,0,0,0,0,8,8,8,,,,,,,,,,,,,,,,,,,,,,,,,1.413,1.208,110.47412999998778,None,111.00565030006692,111.50826230016537,111.49155220016837,111.60824350011535,111.49155220016837,111.60824350011535,111.60824350011535,None,c,1,0.6961473997216672,111.60824350011535,None,112.32571370014921,None,,,,,,,,,,,,,,,,,,,,,,,,,,p29b,2022-09-07_12h04.20.523,training+cueing,2022.1.3,59.83659825498851,
Stranger.png,Friend,Stranger,m,2.3,17,27,97,,,,,0,0,0,0,0,9,9,7,,,,,,,,,,,,,,,,,,,,,,,,,1.734,1.305,112.726584300166,None,113.27840030007064,113.79325410001911,113.7764566000551,113.89328710013069,113.7764566000551,113.89328710013069,113.87647620006464,None,m,1,0.6519720999058336,113.87647620006464,None,114.56042380002327,None,,,,,,,,,,,,,,,,,,,,,,,,,,p29b,2022-09-07_12h04.20.523,training+cueing,2022.1.3,59.83659825498851,
Self.png,Stranger,Self ,m,3.1,18,28,98,,,,,0,0,0,0,0,10,10,2,,,,,,,,,,,,,,,,,,,,,,,,,1.59,1.334,114.96090160007589,None,115.49287590011954,115.99488390004262,115.97821770003065,116.0948372001294,115.97821770003065,116.0948372001294,116.07811000011861,None,m,1,0.6420730000827461,116.07811000011861,None,116.74567660014145,None,,,,,,,,,,,,,,,,,,,,,,,,,,p29b,2022-09-07_12h04.20.523,training+cueing,2022.1.3,59.83659825498851,
Friend.png,Friend,Friend,c,2,12,22,92,,,,,0,0,0,0,0,11,11,10,,,,,,,,,,,,,,,,,,,,,,,,,1.511,1.356,117.14564640005119,None,117.68242720002308,118.19639080017805,118.17973110009916,118.29637560015544,118.17973110009916,118.29637560015544,118.27962450007908,None,None,0,,118.27962450007908,None,119.7974080001004,None,,,,,,,,,,,,,,,,,,,,,,,,,,p29b,2022-09-07_12h04.20.523,training+cueing,2022.1.3,59.83659825498851,
Stranger.png,You,Stranger,m,1.3,15,25,95,,,,,0,0,0,0,,,,,0,0,0,6,,,,,,,,,,,,,,,,,,,157.62495710002258,None,1.527,1.524,161.13179800007492,None,,,,,,,,,,,,,,,,120.19815760012716,None,0.01630805991590023,None,161.74976370017976,162.26166890002787,0.5025739802513272,1.0029533803462982,162.24494430003688,162.34499950008467,162.24494430003688,162.34499950008467,162.34499950008467,None,c,0,0.967038800008595,162.34499950008467,None,,,,,,,p29b,2022-09-07_12h04.20.523,training+cueing,2022.1.3,59.83659825498851,
Stranger.png,Stranger,Stranger,c,3,13,23,93,,,,,0,0,0,0,,,,,0,1,1,11,,,,,,,,,,,,,,,,,,,,,1.691,2.282,163.431773400167,None,,,,,,,,,,,,,,,,,,,,163.9782065001782,164.4799901000224,0.5017098800744861,1.002287480281666,164.46329650003463,164.58021370018832,164.46329650003463,164.58021370018832,164.56323630013503,None,c,1,1.0207255000714213,164.56323630013503,None,,,,,,,p29b,2022-09-07_12h04.20.523,training+cueing,2022.1.3,59.83659825498851,
Friend.png,Friend,Friend,c,2,12,22,92,,,,,0,0,0,0,,,,,0,2,2,4,,,,,,,,,,,,,,,,,,,,,1.536,1.369,165.7182124000974,None,,,,,,,,,,,,,,,,,,,,166.261499900138,166.764961700188,0.5044437802862376,1.0046615803148597,166.74825330008753,166.8649464000482,166.74825330008753,166.8649464000482,166.84824040019885,None,c,1,0.8805285997223109,166.84824040019885,None,,,,,,,p29b,2022-09-07_12h04.20.523,training+cueing,2022.1.3,59.83659825498851,
Self.png,You,Self ,c,1,11,21,91,,,,,0,0,0,0,,,,,0,3,3,0,,,,,,,,,,,,,,,,,,,,,1.623,2.307,167.85059030004777,None,,,,,,,,,,,,,,,,,,,,168.40219930000603,168.91655650013126,0.5080047801602632,1.0082041802816093,168.89991719997488,168.99987339996733,168.89991719997488,168.99987339996733,168.99987339996733,None,m,0,0.5201801999937743,168.99987339996733,None,,,,,,,p29b,2022-09-07_12h04.20.523,training+cueing,2022.1.3,59.83659825498851,
Self.png,Stranger,Self ,m,3.1,18,28,98,,,,,0,0,0,0,,,,,0,4,4,2,,,,,,,,,,,,,,,,,,,,,1.513,1.392,169.65634090011008,None,,,,,,,,,,,,,,,,,,,,170.19913970003836,170.7011227000039,0.501536080148071,1.0018888802733272,170.68434910010546,170.8011277001351,170.68434910010546,170.8011277001351,170.78438860015012,None,c,0,0.8158886998426169,170.78438860015012,None,,,,,,,p29b,2022-09-07_12h04.20.523,training+cueing,2022.1.3,59.83659825498851,
Stranger.png,Stranger,Stranger,c,3,13,23,93,,,,,0,0,0,0,,,,,0,5,5,8,,,,,,,,,,,,,,,,,,,,,1.674,2.21,171.7201831000857,None,,,,,,,,,,,,,,,,,,,,172.26985920011066,172.7694682001602,0.513542280299589,1.013552080374211,172.7694682001602,172.86959830019623,172.7694682001602,172.86959830019623,172.86959830019623,None,c,1,1.3859901998657733,172.86959830019623,None,,,,,,,p29b,2022-09-07_12h04.20.523,training+cueing,2022.1.3,59.83659825498851,
Self.png,Friend,Self ,m,2.1,16,26,96,,,,,0,0,0,0,,,,,0,6,6,1,,,,,,,,,,,,,,,,,,,,,1.445,2.021,174.3893275000155,None,,,,,,,,,,,,,,,,,,,,174.93764060013928,175.43787750019692,0.5132465802598745,1.013736880151555,175.43787750019692,175.537884300109,175.43787750019692,175.537884300109,175.537884300109,None,m,1,0.8316701997537166,175.537884300109,None,,,,,,,p29b,2022-09-07_12h04.20.523,training+cueing,2022.1.3,59.83659825498851,
Stranger.png,Friend,Stranger,m,2.3,17,27,97,,,,,0,0,0,0,,,,,0,7,7,7,,,,,,,,,,,,,,,,,,,,,1.465,1.88,176.49004160007462,None,,,,,,,,,,,,,,,,,,,,177.01719230017625,177.5227519001346,0.5086365800816566,1.008861580165103,177.50606500008143,177.6227434000466,177.50606500008143,177.6227434000466,177.60600520018488,None,None,0,,177.60600520018488,None,,,,,,,p29b,2022-09-07_12h04.20.523,training+cueing,2022.1.3,59.83659825498851,
Friend.png,Friend,Friend,c,2,12,22,92,,,,,0,0,0,0,,,,,0,8,8,10,,,,,,,,,,,,,,,,,,,,,1.488,1.59,179.17494469997473,None,,,,,,,,,,,,,,,,,,,,179.7037274001632,180.20792640000582,0.5043800801504403,1.0044145800638944,180.19149680016562,180.30814910004847,180.19149680016562,180.30814910004847,180.29129100008868,None,c,1,1.00474219978787,180.29129100008868,None,,,,,,,p29b,2022-09-07_12h04.20.523,training+cueing,2022.1.3,59.83659825498851,
Self.png,You,Self ,c,1,11,21,91,,,,,0,0,0,0,,,,,0,9,9,9,,,,,,,,,,,,,,,,,,,,,1.526,1.444,181.4271750000771,None,,,,,,,,,,,,,,,,,,,,181.9744252001401,182.47623080015182,0.501547280466184,1.0021763804834336,182.4596555000171,182.5596529999748,182.4596555000171,182.5596529999748,182.5596529999748,None,m,0,0.6725421000737697,182.5596529999748,None,,,,,,,p29b,2022-09-07_12h04.20.523,training+cueing,2022.1.3,59.83659825498851,
Friend.png,Stranger,Friend,m,3.2,19,29,99,,,,,0,0,0,0,,,,,0,10,10,5,,,,,,,,,,,,,,,,,,,,,1.574,1.624,183.36177970003337,None,,,,,,,,,,,,,,,,,,,,183.90865220013075,184.4111074001994,0.5032078803051263,1.0034280803520232,184.39448470016941,184.51112899999134,184.39448470016941,184.51112899999134,184.49435780011117,None,None,0,,184.49435780011117,None,,,,,,,p29b,2022-09-07_12h04.20.523,training+cueing,2022.1.3,59.83659825498851,
Friend.png,You,Friend,m,1.2,14,24,94,,,,,0,0,0,0,,,,,0,11,11,3,,,,,,,,,,,,,,,,,,,,,1.788,2.054,186.1803998001851,None,,,,,,,,,,,,,,,,,,,,186.72613080008887,187.23181820008904,0.5035606801975518,1.02053088019602,187.21300930017605,187.31311960006133,187.21300930017605,187.31311960006133,187.31311960006133,None,m,1,1.2789784998167306,187.31311960006133,None,,,,,,,p29b,2022-09-07_12h04.20.523,training+cueing,2022.1.3,59.83659825498851,
Self.png,Friend,Self ,m,2.1,16,26,96,,,,,0,0,0,0,,,,,1,0,12,1,,,,,,,,,,,,,,,,,,,,,1.553,2.037,188.71552600013092,None,,,,,,,,,,,,,,,,,,,,189.24904210004024,189.74827370001003,0.5124613801017404,1.012803580146283,189.74827370001003,189.8483316001948,189.74827370001003,189.8483316001948,189.8483316001948,None,m,1,0.8558334000408649,189.8483316001948,None,,,,,,,p29b,2022-09-07_12h04.20.523,training+cueing,2022.1.3,59.83659825498851,
Self.png,Stranger,Self ,m,3.1,18,28,98,,,,,0,0,0,0,,,,,1,1,13,2,,,,,,,,,,,,,,,,,,,,,1.478,1.643,190.83387150010094,None,,,,,,,,,,,,,,,,,,,,191.38075160002336,191.88317900011316,0.5029192799702287,1.0030025800224394,191.86653360002674,191.98336250009015,191.86653360002674,191.98336250009015,191.96683300007135,None,m,1,0.7533908998593688,191.96683300007135,None,,,,,,,p29b,2022-09-07_12h04.20.523,training+cueing,2022.1.3,59.83659825498851,
Self.png,You,Self ,c,1,11,21,91,,,,,0,0,0,0,,,,,1,2,14,0,,,,,,,,,,,,,,,,,,,,,1.784,1.652,192.85204360005446,None,,,,,,,,,,,,,,,,,,,,193.39709069998935,193.90129840001464,0.5044708801433444,1.0046631800942123,193.88467749999836,193.98468039999716,193.88467749999836,193.98468039999716,193.98468039999716,None,c,1,1.1835572998970747,193.98468039999716,None,,,,,,,p29b,2022-09-07_12h04.20.523,training+cueing,2022.1.3,59.83659825498851,
Friend.png,Friend,Friend,c,2,12,22,92,,,,,0,0,0,0,,,,,1,3,15,4,,,,,,,,,,,,,,,,,,,,,1.516,1.376,195.28745720000006,None,,,,,,,,,,,,,,,,,,,,195.83337060012855,196.33640950010158,0.5037022798787802,1.0040143800433725,196.31963410018943,196.43641320010647,196.31963410018943,196.43641320010647,196.41965320007876,None,None,0,,196.41965320007876,None,,,,,,,p29b,2022-09-07_12h04.20.523,training+cueing,2022.1.3,59.83659825498851,
Stranger.png,You,Stranger,m,1.3,15,25,95,,,,,0,0,0,0,,,,,1,4,16,6,,,,,,,,,,,,,,,,,,,,,1.683,1.776,198.03885750006884,None,,,,,,,,,,,,,,,,,,,,198.56800070009194,199.07169160014018,0.5030497801490128,1.0033634800929576,199.05506500019692,199.15503110014834,199.05506500019692,199.15503110014834,199.15503110014834,None,m,1,0.7815294996835291,199.15503110014834,None,,,,,,,p29b,2022-09-07_12h04.20.523,training+cueing,2022.1.3,59.83659825498851,
Friend.png,You,Friend,m,1.2,14,24,94,,,,,0,0,0,0,,,,,1,5,17,3,,,,,,,,,,,,,,,,,,,,,1.408,2.408,200.05847020004876,None,,,,,,,,,,,,,,,,,,,,200.5999132001307,201.1065126999747,0.5105522801168263,1.0107919801957905,201.08980199997313,201.18980609998107,201.08980199997313,201.18980609998107,201.18980609998107,None,None,0,,201.18980609998107,None,,,,,,,p29b,2022-09-07_12h04.20.523,training+cueing,2022.1.3,59.83659825498851,
Stranger.png,Stranger,Stranger,c,3,13,23,93,,,,,0,0,0,0,,,,,1,6,18,11,,,,,,,,,,,,,,,,,,,,,1.652,1.707,202.71279310015962,None,,,,,,,,,,,,,,,,,,,,203.25578530016355,203.7584433001466,0.503203280037269,1.0035247800406069,203.74171700002626,203.858388800174,203.74171700002626,203.858388800174,203.8417084000539,None,c,1,0.9108549999073148,203.8417084000539,None,,,,,,,p29b,2022-09-07_12h04.20.523,training+cueing,2022.1.3,59.83659825498851,
Self.png,You,Self ,c,1,11,21,91,,,,,0,0,0,0,,,,,1,7,19,9,,,,,,,,,,,,,,,,,,,,,1.569,1.208,204.87821750016883,None,,,,,,,,,,,,,,,,,,,,205.4223676000256,205.9266582999844,0.5043735799845308,1.00468998006545,205.90997360018082,206.01006170012988,205.90997360018082,206.01006170012988,206.01006170012988,None,c,1,1.190021599875763,206.01006170012988,None,,,,,,,p29b,2022-09-07_12h04.20.523,training+cueing,2022.1.3,59.83659825498851,
Stranger.png,Friend,Stranger,m,2.3,17,27,97,,,,,0,0,0,0,,,,,1,8,20,7,,,,,,,,,,,,,,,,,,,,,1.585,2.091,207.32916530012153,None,,,,,,,,,,,,,,,,,,,,207.87514270003885,208.3787779000122,0.5046919800806791,1.0051477800589055,208.36177100008354,208.4786184001714,208.36177100008354,208.4786184001714,208.4624615001958,None,m,1,1.3620485998690128,208.4624615001958,None,,,,,,,p29b,2022-09-07_12h04.20.523,training+cueing,2022.1.3,59.83659825498851,
Stranger.png,Stranger,Stranger,c,3,13,23,93,,,,,0,0,0,0,,,,,1,9,21,8,,,,,,,,,,,,,,,,,,,,,1.407,2.222,209.94812340009958,None,,,,,,,,,,,,,,,,,,,,210.4992021000944,211.01369639998302,0.5099786801729351,1.0104815801605582,210.99706259998493,211.11460059997626,210.99706259998493,211.11460059997626,211.09792600013316,None,c,1,0.7584104998968542,211.09792600013316,None,,,,,,,p29b,2022-09-07_12h04.20.523,training+cueing,2022.1.3,59.83659825498851,
Friend.png,Stranger,Friend,m,3.2,19,29,99,,,,,0,0,0,0,,,,,1,10,22,5,,,,,,,,,,,,,,,,,,,,,1.519,1.68,211.98297880007885,None,,,,,,,,,,,,,,,,,,,,212.5239969000686,213.0315763000399,0.5104010801296681,1.0109350802376866,213.01491150003858,213.13166800001636,213.01491150003858,213.13166800001636,213.11486510001123,None,m,1,1.1259442998562008,213.11486510001123,None,,,,,,,p29b,2022-09-07_12h04.20.523,training+cueing,2022.1.3,59.83659825498851,
Friend.png,Friend,Friend,c,2,12,22,92,,,,,0,0,0,0,,,,,1,11,23,10,,,,,,,,,,,,,,,,,,,,,1.44,1.727,214.3677472001873,None,,,,,,,,,,,,,,,,,,,,214.91661910014227,215.4168914000038,0.5145766800269485,1.0148113800678402,215.4168914000038,215.51693440019153,215.4168914000038,215.51693440019153,215.51693440019153,None,c,1,0.866902899928391,215.51693440019153,None,,,,,,,p29b,2022-09-07_12h04.20.523,training+cueing,2022.1.3,59.83659825498851,
Self.png,You,Self ,c,1,11,21,91,,,,,0,0,0,0,,,,,2,0,24,0,,,,,,,,,,,,,,,,,,,,,1.623,1.734,216.5029786999803,None,,,,,,,,,,,,,,,,,,,,217.04708420019597,217.5519585001748,0.5052908801008016,1.0052743800915778,217.5353600999806,217.635328900069,217.5353600999806,217.635328900069,217.635328900069,None,c,1,0.7814866998232901,217.635328900069,None,,,,,,,p29b,2022-09-07_12h04.20.523,training+cueing,2022.1.3,59.83659825498851,
Stranger.png,You,Stranger,m,1.3,15,25,95,,,,,0,0,0,0,,,,,2,1,25,6,,,,,,,,,,,,,,,,,,,,,1.558,1.975,218.53736810013652,None,,,,,,,,,,,,,,,,,,,,219.08039530017413,219.58654330018908,0.5099547798745334,1.010145179927349,219.56993800005876,219.6700254001189,219.56993800005876,219.6700254001189,219.6700254001189,None,m,1,1.0659182998351753,219.6700254001189,None,,,,,,,p29b,2022-09-07_12h04.20.523,training+cueing,2022.1.3,59.83659825498851,
Stranger.png,Stranger,Stranger,c,3,13,23,93,,,,,0,0,0,0,,,,,2,2,26,11,,,,,,,,,,,,,,,,,,,,,1.536,1.888,220.85561379999854,None,,,,,,,,,,,,,,,,,,,,221.40209520002827,221.9049996000249,0.5038943800609559,1.0040099802426994,221.88851179997437,222.0049901001621,221.88851179997437,222.0049901001621,221.9882412001025,None,c,1,0.8602422999683768,221.9882412001025,None,,,,,,,p29b,2022-09-07_12h04.20.523,training+cueing,2022.1.3,59.83659825498851,
Friend.png,Stranger,Friend,m,3.2,19,29,99,,,,,0,0,0,0,,,,,2,3,27,5,,,,,,,,,,,,,,,,,,,,,1.615,2.084,222.97495490009896,None,,,,,,,,,,,,,,,,,,,,223.5151575000491,224.02310760016553,0.5108889800030738,1.0111875801812857,224.00651920004748,224.12310700002126,224.00651920004748,224.12310700002126,224.1063940001186,None,m,1,0.7745822998695076,224.1063940001186,None,,,,,,,p29b,2022-09-07_12h04.20.523,training+cueing,2022.1.3,59.83659825498851,
Friend.png,Friend,Friend,c,2,12,22,92,,,,,0,0,0,0,,,,,2,4,28,4,,,,,,,,,,,,,,,,,,,,,1.426,1.264,225.00931550003588,None,,,,,,,,,,,,,,,,,,,,225.5543838001322,226.0579731001053,0.5045735801104456,1.0046839800197631,226.04131170012988,226.15798400016502,226.04131170012988,226.15798400016502,226.1412426000461,None,c,1,0.7389522998128086,226.1412426000461,None,,,,,,,p29b,2022-09-07_12h04.20.523,training+cueing,2022.1.3,59.83659825498851,
Friend.png,Friend,Friend,c,2,12,22,92,,,,,0,0,0,0,,,,,2,5,29,10,,,,,,,,,,,,,,,,,,,,,1.47,2.002,227.01089020003565,None,,,,,,,,,,,,,,,,,,,,227.55290250014514,228.05939420009963,0.5102494799066335,1.0107880800496787,228.04267530003563,228.16040330007672,228.04267530003563,228.16040330007672,228.14354129997082,None,c,1,0.5764134998898953,228.14354129997082,None,,,,,,,p29b,2022-09-07_12h04.20.523,training+cueing,2022.1.3,59.83659825498851,
Friend.png,You,Friend,m,1.2,14,24,94,,,,,0,0,0,0,,,,,2,6,30,3,,,,,,,,,,,,,,,,,,,,,1.509,1.998,228.84660840011202,None,,,,,,,,,,,,,,,,,,,,229.3940586000681,229.89435450010933,0.5129590802825987,1.012896380154416,229.89435450010933,229.99404120002873,229.89435450010933,229.99404120002873,229.99404120002873,None,m,1,0.7267382997088134,229.99404120002873,None,,,,,,,p29b,2022-09-07_12h04.20.523,training+cueing,2022.1.3,59.83659825498851,
Self.png,You,Self ,c,1,11,21,91,,,,,0,0,0,0,,,,,2,7,31,9,,,,,,,,,,,,,,,,,,,,,1.705,2.375,230.84635500004515,None,,,,,,,,,,,,,,,,,,,,231.3889503001701,231.8957561000716,0.510841780109331,1.0108845802024007,231.878987000091,231.97916129999794,231.878987000091,231.97916129999794,231.97916129999794,None,c,1,0.6928677000105381,231.97916129999794,None,,,,,,,p29b,2022-09-07_12h04.20.523,training+cueing,2022.1.3,59.83659825498851,
Stranger.png,Friend,Stranger,m,2.3,17,27,97,,,,,0,0,0,0,,,,,2,8,32,7,,,,,,,,,,,,,,,,,,,,,1.555,2.036,232.79736670013517,None,,,,,,,,,,,,,,,,,,,,233.34205180010758,233.84693240001798,0.5044632800854743,1.0047233800869435,233.83025600016117,233.94692909996957,233.83025600016117,233.94692909996957,233.93025340000167,None,m,1,0.8701433998066932,233.93025340000167,None,,,,,,,p29b,2022-09-07_12h04.20.523,training+cueing,2022.1.3,59.83659825498851,
Stranger.png,Stranger,Stranger,c,3,13,23,93,,,,,0,0,0,0,,,,,2,9,33,8,,,,,,,,,,,,,,,,,,,,,1.793,2.316,234.93276500003412,None,,,,,,,,,,,,,,,,,,,,235.48531790007837,235.99854800011963,0.5073435802478343,1.007481480250135,235.98179750004783,236.09850940015167,235.98179750004783,236.09850940015167,236.0817242001649,None,c,1,0.750857199775055,236.0817242001649,None,,,,,,,p29b,2022-09-07_12h04.20.523,training+cueing,2022.1.3,59.83659825498851,
Self.png,Friend,Self ,m,2.1,16,26,96,,,,,0,0,0,0,,,,,2,10,34,1,,,,,,,,,,,,,,,,,,,,,1.531,2.477,236.9510133001022,None,,,,,,,,,,,,,,,,,,,,237.49641780019738,237.99986250000075,0.5045048801694065,1.005029080202803,237.98326890007593,238.10020460002124,237.98326890007593,238.10020460002124,238.08355089998804,None,m,1,0.8760547998826951,238.08355089998804,None,,,,,,,p29b,2022-09-07_12h04.20.523,training+cueing,2022.1.3,59.83659825498851,
Self.png,Stranger,Self ,m,3.1,18,28,98,,,,,0,0,0,0,,,,,2,11,35,2,,,,,,,,,,,,,,,,,,,,,1.433,1.607,239.0872617000714,None,,,,,,,,,,,,,,,,,,,,239.6343565999996,240.13488350016996,0.5137382801622152,1.0138466800563037,240.13488350016996,240.23492790013552,240.13488350016996,240.23492790013552,240.23492790013552,None,m,1,0.7568262997083366,240.23492790013552,None,,,,,,,p29b,2022-09-07_12h04.20.523,training+cueing,2022.1.3,59.83659825498851,
Self.png,Stranger,Self ,m,3.1,18,28,98,,,,,0,0,0,0,,,,,3,0,36,2,,,,,,,,,,,,,,,,,,,,,1.489,2.428,241.12040400016122,None,,,,,,,,,,,,,,,,,,,,241.66293700016104,242.16966820019297,0.5106728801038116,1.0109151802025735,242.1529531001579,242.26959020015784,242.1529531001579,242.26959020015784,242.25291629997082,None,m,1,0.5636470997706056,242.25291629997082,None,,,,,,,p29b,2022-09-07_12h04.20.523,training+cueing,2022.1.3,59.83659825498851,
Friend.png,Friend,Friend,c,2,12,22,92,,,,,0,0,0,0,,,,,3,1,37,4,,,,,,,,,,,,,,,,,,,,,1.571,2.427,242.93838650011458,None,,,,,,,,,,,,,,,,,,,,243.4841763000004,243.98763820016757,0.5045451803598553,1.0046455801930279,243.97098710015416,244.0876130000688,243.97098710015416,244.0876130000688,244.07099650008604,None,c,1,1.1768891997635365,244.07099650008604,None,,,,,,,p29b,2022-09-07_12h04.20.523,training+cueing,2022.1.3,59.83659825498851,
Self.png,Friend,Self ,m,2.1,16,26,96,,,,,0,0,0,0,,,,,3,2,38,1,,,,,,,,,,,,,,,,,,,,,1.726,2.448,245.3737488000188,None,,,,,,,,,,,,,,,,,,,,245.915540400194,246.42274030018598,0.5102251800708473,1.0105440800543875,246.40602040011436,246.52269980008714,246.40602040011436,246.52269980008714,246.50599580002017,None,m,1,0.6300268997438252,246.50599580002017,None,,,,,,,p29b,2022-09-07_12h04.20.523,training+cueing,2022.1.3,59.83659825498851,
Friend.png,Friend,Friend,c,2,12,22,92,,,,,0,0,0,0,,,,,3,3,39,10,,,,,,,,,,,,,,,,,,,,,1.709,1.558,247.25829769996926,None,,,,,,,,,,,,,,,,,,,,247.80135120009072,248.30756910005584,0.510217180242762,1.0103709802497178,248.29093850008212,248.40754330018535,248.29093850008212,248.40754330018535,248.39084250014275,None,c,1,0.8411634999793023,248.39084250014275,None,,,,,,,p29b,2022-09-07_12h04.20.523,training+cueing,2022.1.3,59.83659825498851,
Stranger.png,Stranger,Stranger,c,3,13,23,93,,,,,0,0,0,0,,,,,3,4,40,8,,,,,,,,,,,,,,,,,,,,,1.699,1.302,249.35976180015132,None,,,,,,,,,,,,,,,,,,,,249.90534429997206,250.4091315001715,0.5027735799085349,1.003118280088529,250.3923435001634,250.50911870016716,250.3923435001634,250.50911870016716,250.4923580000177,None,c,1,1.395324599929154,250.4923580000177,None,,,,,,,p29b,2022-09-07_12h04.20.523,training+cueing,2022.1.3,59.83659825498851,
Self.png,You,Self ,c,1,11,21,91,,,,,0,0,0,0,,,,,3,5,41,0,,,,,,,,,,,,,,,,,,,,,1.48,1.408,252.01308619999327,None,,,,,,,,,,,,,,,,,,,,252.55672510014847,253.060853500152,0.5055768804159015,1.0057939803227782,253.04421520000324,253.144335700199,253.04421520000324,253.144335700199,253.144335700199,None,m,0,0.6001927999313921,253.144335700199,None,,,,,,,p29b,2022-09-07_12h04.20.523,training+cueing,2022.1.3,59.83659825498851,
Stranger.png,Friend,Stranger,m,2.3,17,27,97,,,,,0,0,0,0,,,,,3,6,42,7,,,,,,,,,,,,,,,,,,,,,1.588,1.791,253.8632533000782,None,,,,,,,,,,,,,,,,,,,,254.41360660013743,254.92892400012352,0.5119619800243527,1.0124410800635815,254.91225980012678,255.02889080019668,254.91225980012678,255.02889080019668,255.01225570007227,None,None,0,,255.01225570007227,None,,,,,,,p29b,2022-09-07_12h04.20.523,training+cueing,2022.1.3,59.83659825498851,
Friend.png,Stranger,Friend,m,3.2,19,29,99,,,,,0,0,0,0,,,,,3,7,43,5,,,,,,,,,,,,,,,,,,,,,1.772,1.28,256.71423980011605,None,,,,,,,,,,,,,,,,,,,,257.24500680016354,257.7476053000428,0.5013666800223291,1.0016689801122993,257.7308424001094,257.84762100013904,257.7308424001094,257.84762100013904,257.84762100013904,None,m,1,0.8724962999112904,257.84762100013904,None,,,,,,,p29b,2022-09-07_12h04.20.523,training+cueing,2022.1.3,59.83659825498851,
Stranger.png,You,Stranger,m,1.3,15,25,95,,,,,0,0,0,0,,,,,3,8,44,6,,,,,,,,,,,,,,,,,,,,,1.42,2.447,258.8501317000482,None,,,,,,,,,,,,,,,,,,,,259.39516060007736,259.89919730019756,0.5054392800666392,1.0056283799931407,259.88249440002255,259.98276120005175,259.88249440002255,259.98276120005175,259.98276120005175,None,m,1,0.6738438997417688,259.98276120005175,None,,,,,,,p29b,2022-09-07_12h04.20.523,training+cueing,2022.1.3,59.83659825498851,
Friend.png,You,Friend,m,1.2,14,24,94,,,,,0,0,0,0,,,,,3,9,45,3,,,,,,,,,,,,,,,,,,,,,1.607,2.275,260.78484860016033,None,,,,,,,,,,,,,,,,,,,,261.3273601999972,261.8339440000709,0.5105079801287502,1.010712580056861,261.817196900025,261.9172459000256,261.817196900025,261.9172459000256,261.9172459000256,None,m,1,0.9155633000191301,261.9172459000256,None,,,,,,,p29b,2022-09-07_12h04.20.523,training+cueing,2022.1.3,59.83659825498851,
Self.png,You,Self ,c,1,11,21,91,,,,,0,0,0,0,,,,,3,10,46,9,,,,,,,,,,,,,,,,,,,,,1.567,2.057,262.9528965000063,None,,,,,,,,,,,,,,,,,,,,263.49591800011694,264.00216210004874,0.5084233800880611,1.0086845802143216,263.9854868000839,264.08547869999893,263.9854868000839,264.08547869999893,264.08547869999893,None,c,1,0.7158862997312099,264.08547869999893,None,,,,,,,p29b,2022-09-07_12h04.20.523,training+cueing,2022.1.3,59.83659825498851,
Stranger.png,Stranger,Stranger,c,3,13,23,93,,,,,0,0,0,0,,,,,3,11,47,11,,,,,,,,,,,,,,,,,,,,,1.409,1.233,264.9210153000895,None,,,,,,,,,,,,,,,,,,,,265.46739110001363,265.97029140009545,0.5037592800799757,1.0040591801516712,265.95353469997644,266.07028400013223,265.95353469997644,266.07028400013223,266.05356450006366,None,c,1,0.7623071998823434,266.05356450006366,None,,,,,,,p29b,2022-09-07_12h04.20.523,training+cueing,2022.1.3,59.83659825498851,
Friend.png,Stranger,Friend,m,3.2,19,29,99,,,,,0,0,0,0,,,,,4,0,48,5,,,,,,,,,,,,,,,,,,,,,1.49,2.423,266.9390979001764,None,,,,,,,,,,,,,,,,,,,,267.4811577000655,267.98839189996943,0.5104095803108066,1.0104687802959234,267.9717624001205,268.0883328001946,267.9717624001205,268.0883328001946,268.07165489997715,None,m,1,1.2251138996798545,268.07165489997715,None,,,,,,,p29b,2022-09-07_12h04.20.523,training+cueing,2022.1.3,59.83659825498851,
Friend.png,You,Friend,m,1.2,14,24,94,,,,,0,0,0,0,,,,,4,1,49,3,,,,,,,,,,,,,,,,,,,,,1.501,1.757,269.42877100012265,None,,,,,,,,,,,,,,,,,,,,269.9714054001961,270.4741065001581,0.503119480330497,1.0028251803014427,270.45760470000096,270.55718230013736,270.45760470000096,270.55718230013736,270.55718230013736,None,m,1,0.690763299819082,270.55718230013736,None,,,,,,,p29b,2022-09-07_12h04.20.523,training+cueing,2022.1.3,59.83659825498851,
Stranger.png,Stranger,Stranger,c,3,13,23,93,,,,,0,0,0,0,,,,,4,2,50,11,,,,,,,,,,,,,,,,,,,,,1.538,1.626,271.3757571000606,None,,,,,,,,,,,,,,,,,,,,271.92212770017795,272.4249172001146,0.5033358798827976,1.0035580799449235,272.40818730019964,272.52503430005163,272.40818730019964,272.52503430005163,272.508244600147,None,c,1,1.0437140997964889,272.508244600147,None,,,,,,,p29b,2022-09-07_12h04.20.523,training+cueing,2022.1.3,59.83659825498851,
Self.png,Stranger,Self ,m,3.1,18,28,98,,,,,0,0,0,0,,,,,4,3,51,2,,,,,,,,,,,,,,,,,,,,,1.783,2.148,273.67726769996807,None,,,,,,,,,,,,,,,,,,,,274.21955350018106,274.72651090007275,0.510031680110842,1.010423979954794,274.70991279999726,274.826613600133,274.70991279999726,274.826613600133,274.81001939997077,None,m,1,0.6147001998033375,274.81001939997077,None,,,,,,,p29b,2022-09-07_12h04.20.523,training+cueing,2022.1.3,59.83659825498851,
Friend.png,Friend,Friend,c,2,12,22,92,,,,,0,0,0,0,,,,,4,4,52,4,,,,,,,,,,,,,,,,,,,,,1.482,1.376,275.54531020019203,None,,,,,,,,,,,,,,,,,,,,276.09112460003234,276.59459340013564,0.50427988008596,1.0045218800660223,276.57794640003704,276.6946111000143,276.57794640003704,276.6946111000143,276.67781430017203,None,c,1,1.450153999729082,276.67781430017203,None,,,,,,,p29b,2022-09-07_12h04.20.523,training+cueing,2022.1.3,59.83659825498851,
Stranger.png,You,Stranger,m,1.3,15,25,95,,,,,0,0,0,0,,,,,4,5,53,6,,,,,,,,,,,,,,,,,,,,,1.657,2.317,278.2475809000898,None,,,,,,,,,,,,,,,,,,,,278.7927639000118,279.2965991999954,0.5053119801450521,1.0055757802911103,279.2799150000792,279.3799420001451,279.2799150000792,279.3799420001451,279.3799420001451,None,m,1,0.6520474997814745,279.3799420001451,None,,,,,,,p29b,2022-09-07_12h04.20.523,training+cueing,2022.1.3,59.83659825498851,
Stranger.png,Stranger,Stranger,c,3,13,23,93,,,,,0,0,0,0,,,,,4,6,54,8,,,,,,,,,,,,,,,,,,,,,1.415,1.394,280.16549669997767,None,,,,,,,,,,,,,,,,,,,,280.7137228001375,281.21461440017447,0.5145133801270276,1.0147794801741838,281.21461440017447,281.31460650009103,281.21461440017447,281.31460650009103,281.31460650009103,None,c,1,0.8628228998277336,281.31460650009103,None,,,,,,,p29b,2022-09-07_12h04.20.523,training+cueing,2022.1.3,59.83659825498851,
Self.png,You,Self ,c,1,11,21,91,,,,,0,0,0,0,,,,,4,7,55,9,,,,,,,,,,,,,,,,,,,,,1.432,1.821,282.30036570015363,None,,,,,,,,,,,,,,,,,,,,282.8456886000931,283.3495049001649,0.5054312802385539,1.0055191800929606,283.3331053999718,283.4328225001227,283.3331053999718,283.4328225001227,283.4328225001227,None,c,1,0.871584499720484,283.4328225001227,None,,,,,,,p29b,2022-09-07_12h04.20.523,training+cueing,2022.1.3,59.83659825498851,
Self.png,You,Self ,c,1,11,21,91,,,,,0,0,0,0,,,,,4,8,56,0,,,,,,,,,,,,,,,,,,,,,1.718,1.984,284.43540660012513,None,,,,,,,,,,,,,,,,,,,,284.9777412000112,285.4844395001419,0.5089598800987005,1.0094249800313264,285.46778690000065,285.56772900000215,285.46778690000065,285.56772900000215,285.56772900000215,None,c,1,0.544855099869892,285.56772900000215,None,,,,,,,p29b,2022-09-07_12h04.20.523,training+cueing,2022.1.3,59.83659825498851,
Stranger.png,Friend,Stranger,m,2.3,17,27,97,,,,,0,0,0,0,,,,,4,9,57,7,,,,,,,,,,,,,,,,,,,,,1.548,2.104,286.2368787000887,None,,,,,,,,,,,,,,,,,,,,286.7821602001786,287.28575330018066,0.5046606801915914,1.0049588803667575,287.2689528001938,287.38576530013233,287.2689528001938,287.38576530013233,287.3690029999707,None,m,1,1.032036599703133,287.3690029999707,None,,,,,,,p29b,2022-09-07_12h04.20.523,training+cueing,2022.1.3,59.83659825498851,
Self.png,Friend,Self ,m,2.1,16,26,96,,,,,0,0,0,0,,,,,4,10,58,1,,,,,,,,,,,,,,,,,,,,,1.486,2.33,288.52145870006643,None,,,,,,,,,,,,,,,,,,,,289.064204600174,289.5707431000192,0.5103965802118182,1.010681580286473,289.5540216001682,289.6707854999695,289.5540216001682,289.6707854999695,289.6539469000418,None,m,1,0.8262743998784572,289.6539469000418,None,,,,,,,p29b,2022-09-07_12h04.20.523,training+cueing,2022.1.3,59.83659825498851,
Friend.png,Friend,Friend,c,2,12,22,92,,,,,0,0,0,0,,,,,4,11,59,10,,,,,,,,,,,,,,,,,,,,,1.735,1.634,290.60718529997393,None,,,,,,,,,,,,,,,,,,,,291.14846020005643,291.65547730005346,0.5097563802264631,1.0099518802016973,291.63887020014226,291.75555450003594,291.63887020014226,291.75555450003594,291.73884200002067,None,c,1,0.6769852999132127,291.73884200002067,None,,,,,,,p29b,2022-09-07_12h04.20.523,training+cueing,2022.1.3,59.83659825498851,
Stranger.png,You,Stranger,m,1.3,15,25,95,,,,,0,0,0,0,,,,,5,0,60,6,,,,,,,,,,,,,,,,,,,,,1.515,1.563,292.5409848000854,None,,,,,,,,,,,,,,,,,,,,293.08657280006446,293.59026250010356,0.5047749802470207,1.004992880159989,293.57362899999134,293.67360470001586,293.57362899999134,293.67360470001586,293.67360470001586,None,m,1,0.615381799871102,293.67360470001586,None,,,,,,,p29b,2022-09-07_12h04.20.523,training+cueing,2022.1.3,59.83659825498851,
Self.png,You,Self ,c,1,11,21,91,,,,,0,0,0,0,,,,,5,1,61,9,,,,,,,,,,,,,,,,,,,,,1.612,2.412,294.40980220003985,None,,,,,,,,,,,,,,,,,,,,294.9556556001771,295.4582764999941,0.5034529804252088,1.0038214803207666,295.44160869996995,295.5416147999931,295.44160869996995,295.5416147999931,295.5416147999931,None,m,0,0.5539719997905195,295.5416147999931,None,,,,,,,p29b,2022-09-07_12h04.20.523,training+cueing,2022.1.3,59.83659825498851,
Stranger.png,Friend,Stranger,m,2.3,17,27,97,,,,,0,0,0,0,,,,,5,2,62,7,,,,,,,,,,,,,,,,,,,,,1.432,1.519,296.2270766000729,None,,,,,,,,,,,,,,,,,,,,296.7772819001693,297.27720140013844,0.5115744802169502,1.0110868802294135,297.27720140013844,297.3765573001001,297.27720140013844,297.3765573001001,297.3765573001001,None,None,0,,297.3765573001001,None,,,,,,,p29b,2022-09-07_12h04.20.523,training+cueing,2022.1.3,59.83659825498851,
Stranger.png,Stranger,Stranger,c,3,13,23,93,,,,,0,0,0,0,,,,,5,3,63,11,,,,,,,,,,,,,,,,,,,,,1.514,1.716,298.91291080019437,None,,,,,,,,,,,,,,,,,,,,299.4582283999771,299.96155390003696,0.5035511800087988,1.0036795800551772,299.9447948001325,300.0613705001306,299.9447948001325,300.0613705001306,300.04462040006183,None,c,1,0.9163599996827543,300.04462040006183,None,,,,,,,p29b,2022-09-07_12h04.20.523,training+cueing,2022.1.3,59.83659825498851,
Self.png,Friend,Self ,m,2.1,16,26,96,,,,,0,0,0,0,,,,,5,4,64,1,,,,,,,,,,,,,,,,,,,,,1.739,2.463,301.08089690003544,None,,,,,,,,,,,,,,,,,,,,301.62546590017155,302.12981150019914,0.5043120800983161,1.0047327801585197,302.11313960002735,302.22979730018415,302.11313960002735,302.22979730018415,302.2131690001115,None,c,0,0.8601611000485718,302.2131690001115,None,,,,,,,p29b,2022-09-07_12h04.20.523,training+cueing,2022.1.3,59.83659825498851,
Self.png,You,Self ,c,1,11,21,91,,,,,0,0,0,0,,,,,5,5,65,0,,,,,,,,,,,,,,,,,,,,,1.668,2.253,303.19978500017896,None,,,,,,,,,,,,,,,,,,,,303.7440830001142,304.24800590006635,0.5055070803500712,1.0057439804077148,304.23137730010785,304.33128010015935,304.23137730010785,304.33128010015935,304.33128010015935,None,m,0,0.9973243998829275,304.33128010015935,None,,,,,,,p29b,2022-09-07_12h04.20.523,training+cueing,2022.1.3,59.83659825498851,
Stranger.png,Stranger,Stranger,c,3,13,23,93,,,,,0,0,0,0,,,,,5,6,66,8,,,,,,,,,,,,,,,,,,,,,1.589,1.286,305.45033110002987,None,,,,,,,,,,,,,,,,,,,,305.9974893000908,306.49962030001916,0.5023045798297971,1.0025140799116343,306.48299930011854,306.59968090010807,306.48299930011854,306.59968090010807,306.58293590019457,None,c,1,1.2899083998054266,306.58293590019457,None,,,,,,,p29b,2022-09-07_12h04.20.523,training+cueing,2022.1.3,59.83659825498851,
Friend.png,Friend,Friend,c,2,12,22,92,,,,,0,0,0,0,,,,,5,7,67,4,,,,,,,,,,,,,,,,,,,,,1.638,1.818,308.00283450004645,None,,,,,,,,,,,,,,,,,,,,308.54753960017115,309.0515329001937,0.5037271799519658,1.0040002800524235,309.03483989997767,309.1515627000481,309.03483989997767,309.1515627000481,309.1347318000626,None,c,1,1.0413911999203265,309.1347318000626,None,,,,,,,p29b,2022-09-07_12h04.20.523,training+cueing,2022.1.3,59.83659825498851,
Friend.png,Stranger,Friend,m,3.2,19,29,99,,,,,0,0,0,0,,,,,5,8,68,5,,,,,,,,,,,,,,,,,,,,,1.438,1.528,310.304198600119,None,,,,,,,,,,,,,,,,,,,,310.85067309997976,311.35314940009266,0.5030441801063716,1.00340338004753,311.3364429001231,311.4531558000017,311.3364429001231,311.4531558000017,311.4364748999942,None,m,1,1.0113027999177575,311.4364748999942,None,,,,,,,p29b,2022-09-07_12h04.20.523,training+cueing,2022.1.3,59.83659825498851,
Friend.png,You,Friend,m,1.2,14,24,94,,,,,0,0,0,0,,,,,5,9,69,3,,,,,,,,,,,,,,,,,,,,,1.733,1.578,312.57253100001253,None,,,,,,,,,,,,,,,,,,,,313.1173779000528,313.6214883001521,0.5055835801176727,1.0058927801437676,313.60480189998634,313.7048014001921,313.60480189998634,313.7048014001921,313.7048014001921,None,m,1,0.9029914997518063,313.7048014001921,None,,,,,,,p29b,2022-09-07_12h04.20.523,training+cueing,2022.1.3,59.83659825498851,
Friend.png,Friend,Friend,c,2,12,22,92,,,,,0,0,0,0,,,,,5,10,70,10,,,,,,,,,,,,,,,,,,,,,1.602,1.735,314.74179230001755,None,,,,,,,,,,,,,,,,,,,,315.28576470003463,315.79067660006694,0.504359079990536,1.004361080005765,315.773242500145,315.8902131000068,315.773242500145,315.8902131000068,315.873372200178,None,c,1,0.8784448998048902,315.873372200178,None,,,,,,,p29b,2022-09-07_12h04.20.523,training+cueing,2022.1.3,59.83659825498851,
Self.png,Stranger,Self ,m,3.1,18,28,98,,,,,0,0,0,0,,,,,5,11,71,2,,,,,,,,,,,,,,,,,,,,,1.756,2.25,316.8752367000561,None,,,,,,,,,,,,,,,,,,,,317.42427690001205,317.9247565001715,0.5153692802414298,1.0154157802462578,317.9247565001715,318.0246657000389,317.9247565001715,318.0246657000389,318.0246657000389,None,m,1,1.3035335999447852,318.0246657000389,None,,,,,,,p29b,2022-09-07_12h04.20.523,training+cueing,2022.1.3,59.83659825498851,
Self.png,Friend,Self ,m,2.1,16,26,96,,,,,0,0,0,0,,,,,6,0,72,1,,,,,,,,,,,,,,,,,,,,,1.616,1.967,319.46109600015916,None,,,,,,,,,,,,,,,,,,,,320.01772940019146,320.52652140008286,0.513569540111348,1.0139996400102973,320.5098247001879,320.62652440019883,320.5098247001879,320.62652440019883,320.6097626001574,None,m,1,0.6705596998799592,320.6097626001574,None,,,,,,,p29b,2022-09-07_12h04.20.523,training+cueing,2022.1.3,59.83659825498851,
Friend.png,You,Friend,m,1.2,14,24,94,,,,,0,0,0,0,,,,,6,1,73,3,,,,,,,,,,,,,,,,,,,,,1.698,1.626,321.41228669998236,None,,,,,,,,,,,,,,,,,,,,321.9575770001393,322.4612092000898,0.5049078799784184,1.005179279949516,322.4445589000825,322.54454560019076,322.4445589000825,322.54454560019076,322.54454560019076,None,m,1,0.7835867998655885,322.54454560019076,None,,,,,,,p29b,2022-09-07_12h04.20.523,training+cueing,2022.1.3,59.83659825498851,
Friend.png,Stranger,Friend,m,3.2,19,29,99,,,,,0,0,0,0,,,,,6,2,74,5,,,,,,,,,,,,,,,,,,,,,1.486,2.317,323.44815940014087,None,,,,,,,,,,,,,,,,,,,,323.99373280000873,324.4960761000402,0.5028121802024543,1.003095880150795,324.47942550014704,324.5960721001029,324.47942550014704,324.5960721001029,324.57931870012544,None,None,0,,324.57931870012544,None,,,,,,,p29b,2022-09-07_12h04.20.523,training+cueing,2022.1.3,59.83659825498851,
Self.png,You,Self ,c,1,11,21,91,,,,,0,0,0,0,,,,,6,3,75,9,,,,,,,,,,,,,,,,,,,,,1.463,1.361,326.18153130006976,None,,,,,,,,,,,,,,,,,,,,326.7104297999758,327.21465680003166,0.5041358803864568,1.0043945803772658,327.19797760015354,327.2979782000184,327.19797760015354,327.2979782000184,327.2979782000184,None,c,1,0.9266489997971803,327.2979782000184,None,,,,,,,p29b,2022-09-07_12h04.20.523,training+cueing,2022.1.3,59.83659825498851,
Stranger.png,You,Stranger,m,1.3,15,25,95,,,,,0,0,0,0,,,,,6,4,76,6,,,,,,,,,,,,,,,,,,,,,1.52,2.281,328.3503990001045,None,,,,,,,,,,,,,,,,,,,,328.8932426001411,329.39964219997637,0.5102629798930138,1.010785979917273,329.38291490008123,329.48291849996895,329.38291490008123,329.48291849996895,329.48291849996895,None,m,1,0.86927459994331,329.48291849996895,None,,,,,,,p29b,2022-09-07_12h04.20.523,training+cueing,2022.1.3,59.83659825498851,
Friend.png,Friend,Friend,c,2,12,22,92,,,,,0,0,0,0,,,,,6,5,77,4,,,,,,,,,,,,,,,,,,,,,1.523,2.24,330.48921130015515,None,,,,,,,,,,,,,,,,,,,,331.03141860011965,331.53449410013855,0.5037828800268471,1.0040700801182538,331.5178431000095,331.6346768999938,331.5178431000095,331.6346768999938,331.61793459998444,None,c,1,0.6544254997279495,331.61793459998444,None,,,,,,,p29b,2022-09-07_12h04.20.523,training+cueing,2022.1.3,59.83659825498851,
Self.png,You,Self ,c,1,11,21,91,,,,,0,0,0,0,,,,,6,6,78,0,,,,,,,,,,,,,,,,,,,,,1.515,1.309,332.40339200012386,None,,,,,,,,,,,,,,,,,,,,332.94822310004383,333.4525310001336,0.5046590801794082,1.0050243800505996,333.4358519001398,333.53587310016155,333.4358519001398,333.53587310016155,333.53587310016155,None,c,1,0.8483245999086648,333.53587310016155,None,,,,,,,p29b,2022-09-07_12h04.20.523,training+cueing,2022.1.3,59.83659825498851,
Stranger.png,Friend,Stranger,m,2.3,17,27,97,,,,,0,0,0,0,,,,,6,7,79,7,,,,,,,,,,,,,,,,,,,,,1.729,1.751,334.50568750011735,None,,,,,,,,,,,,,,,,,,,,335.0515122001525,335.5541067000013,0.5033434801734984,1.003586880164221,335.53741640015505,335.6540779999923,335.53741640015505,335.6540779999923,335.63739090017043,None,m,1,1.4666327997110784,335.63739090017043,None,,,,,,,p29b,2022-09-07_12h04.20.523,training+cueing,2022.1.3,59.83659825498851,
Stranger.png,Stranger,Stranger,c,3,13,23,93,,,,,0,0,0,0,,,,,6,8,80,11,,,,,,,,,,,,,,,,,,,,,1.734,2.205,337.22355190012604,None,,,,,,,,,,,,,,,,,,,,337.7688792999834,338.2727287001908,0.5032413799781352,1.0035226801410317,338.2560012000613,338.37271120003425,338.2560012000613,338.37271120003425,338.3559708001558,None,c,1,0.6363617999013513,338.3559708001558,None,,,,,,,p29b,2022-09-07_12h04.20.523,training+cueing,2022.1.3,59.83659825498851,
Stranger.png,Stranger,Stranger,c,3,13,23,93,,,,,0,0,0,0,,,,,6,9,81,8,,,,,,,,,,,,,,,,,,,,,1.421,1.386,339.1251271001529,None,,,,,,,,,,,,,,,,,,,,339.6675988000352,340.1742110999767,0.5112010801676661,1.010668080067262,340.15815570019186,340.2741084001027,340.15815570019186,340.2741084001027,340.25736100017093,None,c,1,0.623306900030002,340.25736100017093,None,,,,,,,p29b,2022-09-07_12h04.20.523,training+cueing,2022.1.3,59.83659825498851,
Self.png,Stranger,Self ,m,3.1,18,28,98,,,,,0,0,0,0,,,,,6,10,82,2,,,,,,,,,,,,,,,,,,,,,1.625,1.996,341.0099995001219,None,,,,,,,,,,,,,,,,,,,,341.55246160016395,342.0589076001197,0.510255980072543,1.0104058801662177,342.0422154001426,342.15880280011334,342.0422154001426,342.15880280011334,342.142060900107,None,m,1,0.962248400086537,342.142060900107,None,,,,,,,p29b,2022-09-07_12h04.20.523,training+cueing,2022.1.3,59.83659825498851,
Friend.png,Friend,Friend,c,2,12,22,92,,,,,0,0,0,0,,,,,6,11,83,10,,,,,,,,,,,,,,,,,,,,,1.758,2.103,343.2316628000699,None,,,,,,,,,,,,,,,,,,,,343.78003849997185,344.29379710019566,0.5066931801848114,1.0070465800818056,344.27706420002505,344.39364120014943,344.27706420002505,344.39364120014943,344.3770934001077,None,c,1,0.9670012998394668,344.3770934001077,None,,,,,,,p29b,2022-09-07_12h04.20.523,training+cueing,2022.1.3,59.83659825498851,
Self.png,Friend,Self ,m,2.1,16,26,96,,,,,0,0,0,0,,,,,7,0,84,1,,,,,,,,,,,,,,,,,,,,,1.659,1.792,345.4625676001888,None,,,,,,,,,,,,,,,,,,,,345.98966660001315,346.4953983000014,0.5088256802409887,1.0090766800567508,346.47866060002707,346.5953575000167,346.47866060002707,346.5953575000167,346.578639900079,None,m,1,0.9092016997747123,346.578639900079,None,,,,,,,p29b,2022-09-07_12h04.20.523,training+cueing,2022.1.3,59.83659825498851,
Stranger.png,Stranger,Stranger,c,3,13,23,93,,,,,0,0,0,0,,,,,7,1,85,11,,,,,,,,,,,,,,,,,,,,,1.563,1.42,347.61440320010297,None,,,,,,,,,,,,,,,,,,,,348.161195400171,348.66365210013464,0.5030400801915675,1.0031206803396344,348.64702610019594,348.76446010009386,348.64702610019594,348.76446010009386,348.7477305000648,None,c,1,0.7243516999296844,348.7477305000648,None,,,,,,,p29b,2022-09-07_12h04.20.523,training+cueing,2022.1.3,59.83659825498851,
Self.png,Stranger,Self ,m,3.1,18,28,98,,,,,0,0,0,0,,,,,7,2,86,2,,,,,,,,,,,,,,,,,,,,,1.678,2.124,349.59971510013565,None,,,,,,,,,,,,,,,,,,,,350.1411621000152,350.64833360002376,0.5103379799984396,1.0106310800183564,350.6317161000334,350.7483815001324,350.6317161000334,350.7483815001324,350.7316921001766,None,m,1,1.045143999857828,350.7316921001766,None,,,,,,,p29b,2022-09-07_12h04.20.523,training+cueing,2022.1.3,59.83659825498851,
Stranger.png,Stranger,Stranger,c,3,13,23,93,,,,,0,0,0,0,,,,,7,3,87,8,,,,,,,,,,,,,,,,,,,,,1.405,2.489,351.9007487001363,None,,,,,,,,,,,,,,,,,,,,352.4437773001846,352.95005350001156,0.5101084804628044,1.0103741802740842,352.9333954001777,353.05005640001036,352.9333954001777,353.05005640001036,353.0333540001884,None,c,1,0.6317335998173803,353.0333540001884,None,,,,,,,p29b,2022-09-07_12h04.20.523,training+cueing,2022.1.3,59.83659825498851,
Friend.png,Friend,Friend,c,2,12,22,92,,,,,0,0,0,0,,,,,7,4,88,4,,,,,,,,,,,,,,,,,,,,,1.602,1.946,353.7856606000569,None,,,,,,,,,,,,,,,,,,,,354.330752100097,354.8348741000518,0.5038558801170439,1.0037895801942796,354.81827699998394,354.93493070011027,354.81827699998394,354.93493070011027,354.9180870000273,None,c,1,0.6180885997600853,354.9180870000273,None,,,,,,,p29b,2022-09-07_12h04.20.523,training+cueing,2022.1.3,59.83659825498851,
Self.png,You,Self ,c,1,11,21,91,,,,,0,0,0,0,,,,,7,5,89,9,,,,,,,,,,,,,,,,,,,,,1.743,1.544,355.6700279000215,None,,,,,,,,,,,,,,,,,,,,356.21557850018144,356.71942900004797,0.5051699802279472,1.0054076800588518,356.7027781000361,356.8028164000716,356.7027781000361,356.8028164000716,356.8028164000716,None,m,0,0.4933555999305099,356.8028164000716,None,,,,,,,p29b,2022-09-07_12h04.20.523,training+cueing,2022.1.3,59.83659825498851,
Self.png,You,Self ,c,1,11,21,91,,,,,0,0,0,0,,,,,7,6,90,0,,,,,,,,,,,,,,,,,,,,,1.729,1.565,357.4212715001777,None,,,,,,,,,,,,,,,,,,,,357.94931720010936,358.4540485001635,0.5070199801120907,1.0074763800948858,358.4373376001604,358.5381042000372,358.4373376001604,358.5381042000372,358.5381042000372,None,c,1,0.7264314999338239,358.5381042000372,None,,,,,,,p29b,2022-09-07_12h04.20.523,training+cueing,2022.1.3,59.83659825498851,
Friend.png,Stranger,Friend,m,3.2,19,29,99,,,,,0,0,0,0,,,,,7,7,91,5,,,,,,,,,,,,,,,,,,,,,1.627,2.086,359.39641649997793,None,,,,,,,,,,,,,,,,,,,,359.93654470006004,360.4387540000025,0.5010951801668853,1.0015560800675303,360.42213100008667,360.5388258001767,360.42213100008667,360.5388258001767,360.5388258001767,None,m,1,0.9818837000057101,360.5388258001767,None,,,,,,,p29b,2022-09-07_12h04.20.523,training+cueing,2022.1.3,59.83659825498851,
Friend.png,You,Friend,m,1.2,14,24,94,,,,,0,0,0,0,,,,,7,8,92,3,,,,,,,,,,,,,,,,,,,,,1.752,1.884,361.64109500008635,None,,,,,,,,,,,,,,,,,,,,362.1866530000698,362.6904441001825,0.5051787800621241,1.0054056800436229,362.6737422000151,362.77375479997136,362.6737422000151,362.77375479997136,362.77375479997136,None,m,1,0.7797627998515964,362.77375479997136,None,,,,,,,p29b,2022-09-07_12h04.20.523,training+cueing,2022.1.3,59.83659825498851,
Friend.png,Friend,Friend,c,2,12,22,92,,,,,0,0,0,0,,,,,7,9,93,10,,,,,,,,,,,,,,,,,,,,,1.436,1.85,363.67601789999753,None,,,,,,,,,,,,,,,,,,,,364.22239740006626,364.725390000036,0.5040677802171558,1.0041082801762968,364.7088377000764,364.8261279000435,364.7088377000764,364.8261279000435,364.80951240006834,None,c,1,0.8230235998053104,364.80951240006834,None,,,,,,,p29b,2022-09-07_12h04.20.523,training+cueing,2022.1.3,59.83659825498851,
Stranger.png,Friend,Stranger,m,2.3,17,27,97,,,,,0,0,0,0,,,,,7,10,94,7,,,,,,,,,,,,,,,,,,,,,1.676,1.799,365.76113700005226,None,,,,,,,,,,,,,,,,,,,,366.30369990016334,366.81016770005226,0.5089149803388864,1.0091220801696181,366.7935124000069,366.910124800168,366.7935124000069,366.910124800168,366.89338680007495,None,m,1,0.70697409985587,366.89338680007495,None,,,,,,,p29b,2022-09-07_12h04.20.523,training+cueing,2022.1.3,59.83659825498851,
Stranger.png,You,Stranger,m,1.3,15,25,95,,,,,0,0,0,0,,,,,7,11,95,6,,,,,,,,,,,,,,,,,,,,,1.449,1.546,367.7290779000614,None,,,,,,,,,,,,,,,,,,,,368.27443970018066,368.77822330011986,0.5050959803629667,1.0052906803321093,368.761572400108,368.86158780008554,368.761572400108,368.86158780008554,368.86158780008554,None,m,1,0.7706161998212337,368.86158780008554,None,,,,,,,p29b,2022-09-07_12h04.20.523,training+cueing,2022.1.3,59.83659825498851,
Friend.png,You,Friend,m,1.2,14,24,94,,,,,0,0,0,0,,,,,8,0,96,3,,,,,,,,,,,,,,,,,,,,,1.539,2.002,369.7639912001323,None,,,,,,,,,,,,,,,,,,,,370.30601539998315,370.81323179998435,0.5097060799598694,1.0097979800775647,370.7964709000662,370.8965758001432,370.7964709000662,370.8965758001432,370.8965758001432,None,m,1,1.0237215997185558,370.8965758001432,None,,,,,,,p29b,2022-09-07_12h04.20.523,training+cueing,2022.1.3,59.83659825498851,
Friend.png,Friend,Friend,c,2,12,22,92,,,,,0,0,0,0,,,,,8,1,97,10,,,,,,,,,,,,,,,,,,,,,1.525,2.496,372.04910590010695,None,,,,,,,,,,,,,,,,,,,,372.59845330007374,373.0980488001369,0.5133363804779947,1.0137533803936094,373.0980488001369,373.19804679998197,373.0980488001369,373.19804679998197,373.19804679998197,None,c,1,0.7216121999081224,373.19804679998197,None,,,,,,,p29b,2022-09-07_12h04.20.523,training+cueing,2022.1.3,59.83659825498851,
Self.png,Stranger,Self ,m,3.1,18,28,98,,,,,0,0,0,0,,,,,8,2,98,2,,,,,,,,,,,,,,,,,,,,,1.556,1.356,374.05222559999675,None,,,,,,,,,,,,,,,,,,,,374.60325500019826,375.1161919001024,0.5070945802144706,1.007293380331248,375.0994593000505,375.2161966001149,375.0994593000505,375.2161966001149,375.1994791000616,None,m,1,0.9451463997829705,375.1994791000616,None,,,,,,,p29b,2022-09-07_12h04.20.523,training+cueing,2022.1.3,59.83659825498851,
Stranger.png,Stranger,Stranger,c,3,13,23,93,,,,,0,0,0,0,,,,,8,3,99,8,,,,,,,,,,,,,,,,,,,,,1.648,2.025,376.268648999976,None,,,,,,,,,,,,,,,,,,,,376.810517600039,377.3177630000282,0.5101957800798118,1.0105394800193608,377.3010376000311,377.41779730003327,377.3010376000311,377.41779730003327,377.4010377000086,None,c,1,1.0632410999387503,377.4010377000086,None,,,,,,,p29b,2022-09-07_12h04.20.523,training+cueing,2022.1.3,59.83659825498851,
Self.png,You,Self ,c,1,11,21,91,,,,,0,0,0,0,,,,,8,4,100,0,,,,,,,,,,,,,,,,,,,,,1.629,2.126,378.58665930014104,None,,,,,,,,,,,,,,,,,,,,379.1162913001608,379.619423000142,0.5038865800015628,1.0043196799233556,379.6026779001113,379.7027512001805,379.6026779001113,379.7027512001805,379.7027512001805,None,m,0,0.7779459999874234,379.7027512001805,None,,,,,,,p29b,2022-09-07_12h04.20.523,training+cueing,2022.1.3,59.83659825498851,
Friend.png,Stranger,Friend,m,3.2,19,29,99,,,,,0,0,0,0,,,,,8,5,101,5,,,,,,,,,,,,,,,,,,,,,1.703,1.681,380.60486189997755,None,,,,,,,,,,,,,,,,,,,,381.15133880008943,381.65441810013726,0.5036459800321609,1.0037717800587416,381.63764440012164,381.75433770008385,381.63764440012164,381.75433770008385,381.73759190016426,None,None,0,,381.73759190016426,None,,,,,,,p29b,2022-09-07_12h04.20.523,training+cueing,2022.1.3,59.83659825498851,
Stranger.png,You,Stranger,m,1.3,15,25,95,,,,,0,0,0,0,,,,,8,6,102,6,,,,,,,,,,,,,,,,,,,,,1.716,1.789,383.55610390007496,None,,,,,,,,,,,,,,,,,,,,384.08885399997234,384.589698900003,0.5137624798808247,1.0139748798683286,384.589698900003,384.6897119001951,384.589698900003,384.6897119001951,384.6897119001951,None,None,0,,384.6897119001951,None,,,,,,,p29b,2022-09-07_12h04.20.523,training+cueing,2022.1.3,59.83659825498851,
Stranger.png,Stranger,Stranger,c,3,13,23,93,,,,,0,0,0,0,,,,,8,7,103,11,,,,,,,,,,,,,,,,,,,,,1.585,2.061,386.50843070005067,None,,,,,,,,,,,,,,,,,,,,387.04002150008455,387.54181910003535,0.5016387801151723,1.001894179964438,387.5251649999991,387.64186320011504,387.5251649999991,387.64186320011504,387.625132500194,None,c,1,0.7592118000611663,387.625132500194,None,,,,,,,p29b,2022-09-07_12h04.20.523,training+cueing,2022.1.3,59.83659825498851,
Friend.png,Friend,Friend,c,2,12,22,92,,,,,0,0,0,0,,,,,8,8,104,4,,,,,,,,,,,,,,,,,,,,,1.744,1.24,388.51077840011567,None,,,,,,,,,,,,,,,,,,,,389.0405155001208,389.5433557999786,0.5018527801148593,1.0022892800625414,389.5265450000297,389.6434122000355,389.5265450000297,389.6434122000355,389.62658999999985,None,c,1,0.6297613999340683,389.62658999999985,None,,,,,,,p29b,2022-09-07_12h04.20.523,training+cueing,2022.1.3,59.83659825498851,
Self.png,You,Self ,c,1,11,21,91,,,,,0,0,0,0,,,,,8,9,105,9,,,,,,,,,,,,,,,,,,,,,1.632,1.965,390.3789753001183,None,,,,,,,,,,,,,,,,,,,,390.9244117999915,391.42805660003796,0.5047701802104712,1.0051149802748114,391.4113958000671,391.5113833001815,391.4113958000671,391.5113833001815,391.5113833001815,None,c,1,0.953062699874863,391.5113833001815,None,,,,,,,p29b,2022-09-07_12h04.20.523,training+cueing,2022.1.3,59.83659825498851,
Self.png,Friend,Self ,m,2.1,16,26,96,,,,,0,0,0,0,,,,,8,10,106,1,,,,,,,,,,,,,,,,,,,,,1.64,1.907,392.59689799998887,None,,,,,,,,,,,,,,,,,,,,393.14292810019106,393.6462003001943,0.504160380223766,1.0043716800864786,393.6296209001448,393.7462483001873,393.6296209001448,393.7462483001873,393.7295262000989,None,m,1,0.6232348999474198,393.7295262000989,None,,,,,,,p29b,2022-09-07_12h04.20.523,training+cueing,2022.1.3,59.83659825498851,
Stranger.png,Friend,Stranger,m,2.3,17,27,97,,,,,0,0,0,0,,,,,8,11,107,7,,,,,,,,,,,,,,,,,,,,,1.461,1.314,394.4819900000002,None,,,,,,,,,,,,,,,,,,,,395.0244905001018,395.5309959000442,0.5087461802177131,1.0093506802804768,395.51433100015856,395.6309329001233,395.51433100015856,395.6309329001233,395.6142577000428,None,m,1,1.3142651000525802,395.6142577000428,None,,,,,,,p29b,2022-09-07_12h04.20.523,training+cueing,2022.1.3,59.83659825498851,
Stranger.png,You,Stranger,m,1.3,15,25,95,,,,,0,0,0,0,,,,,9,0,108,6,,,,,,,,,,,,,,,,,,,,,1.653,1.937,397.05174900009297,None,,,,,,,,,,,,,,,,,,,,397.5958557999693,398.0995013001375,0.5048431800678372,1.0050596799701452,398.0828232001513,398.18279290013015,398.0828232001513,398.18279290013015,398.18279290013015,None,m,1,0.8733744998462498,398.18279290013015,None,,,,,,,p29b,2022-09-07_12h04.20.523,training+cueing,2022.1.3,59.83659825498851,
Self.png,Friend,Self ,m,2.1,16,26,96,,,,,0,0,0,0,,,,,9,1,109,1,,,,,,,,,,,,,,,,,,,,,1.488,1.778,399.1850458001718,None,,,,,,,,,,,,,,,,,,,,399.7191022001207,400.23449459997937,0.5117147802375257,1.01198488031514,400.21767930011265,400.3343731001951,400.21767930011265,400.3343731001951,400.3176523000002,None,m,1,0.6744393000844866,400.3176523000002,None,,,,,,,p29b,2022-09-07_12h04.20.523,training+cueing,2022.1.3,59.83659825498851,
Friend.png,Friend,Friend,c,2,12,22,92,,,,,0,0,0,0,,,,,9,2,110,10,,,,,,,,,,,,,,,,,,,,,1.56,1.248,401.1203232000116,None,,,,,,,,,,,,,,,,,,,,401.66194929997437,402.1691561001353,0.5102872801944613,1.0105434800498188,402.1524196001701,402.26911750016734,402.1524196001701,402.26911750016734,402.2524240000639,None,c,1,0.6119306997861713,402.2524240000639,None,,,,,,,p29b,2022-09-07_12h04.20.523,training+cueing,2022.1.3,59.83659825498851,
Friend.png,Friend,Friend,c,2,12,22,92,,,,,0,0,0,0,,,,,9,3,111,4,,,,,,,,,,,,,,,,,,,,,1.523,2.387,402.98788560018875,None,,,,,,,,,,,,,,,,,,,,403.53070270013995,404.0371854000259,0.5106572799850255,1.010706780012697,404.0205542000476,404.137193800183,404.0205542000476,404.137193800183,404.12043290003203,None,c,1,0.7440724999178201,404.12043290003203,None,,,,,,,p29b,2022-09-07_12h04.20.523,training+cueing,2022.1.3,59.83659825498851,
Friend.png,Stranger,Friend,m,3.2,19,29,99,,,,,0,0,0,0,,,,,9,4,112,5,,,,,,,,,,,,,,,,,,,,,1.547,2.109,404.989602799993,None,,,,,,,,,,,,,,,,,,,,405.5348497000523,406.03860490000807,0.5033748801797628,1.003401080146432,406.02203280013055,406.13856260012835,406.02203280013055,406.13856260012835,406.1218857001513,None,None,0,,406.1218857001513,None,,,,,,,p29b,2022-09-07_12h04.20.523,training+cueing,2022.1.3,59.83659825498851,
Stranger.png,Stranger,Stranger,c,3,13,23,93,,,,,0,0,0,0,,,,,9,5,113,8,,,,,,,,,,,,,,,,,,,,,1.785,2.235,407.774218400009,None,,,,,,,,,,,,,,,,,,,,408.30133499996737,408.808163800044,0.5094058800023049,1.0096569799352437,408.7905855001882,408.9076531000901,408.7905855001882,408.9076531000901,408.8910968999844,None,c,1,0.7090421998873353,408.8910968999844,None,,,,,,,p29b,2022-09-07_12h04.20.523,training+cueing,2022.1.3,59.83659825498851,
Friend.png,You,Friend,m,1.2,14,24,94,,,,,0,0,0,0,,,,,9,6,114,3,,,,,,,,,,,,,,,,,,,,,1.659,2.39,409.726121700136,None,,,,,,,,,,,,,,,,,,,,410.2717419001274,410.77533780015074,0.5048617802094668,1.0052534800488502,410.7586430001538,410.85873219999485,410.7586430001538,410.85873219999485,410.85873219999485,None,m,1,0.6307202000170946,410.85873219999485,None,,,,,,,p29b,2022-09-07_12h04.20.523,training+cueing,2022.1.3,59.83659825498851,
Self.png,You,Self ,c,1,11,21,91,,,,,0,0,0,0,,,,,9,7,115,0,,,,,,,,,,,,,,,,,,,,,1.777,1.293,411.61105579999276,None,,,,,,,,,,,,,,,,,,,,412.15286520007066,412.6599829001352,0.5102107801940292,1.010465380270034,412.64347350015305,412.7434118001256,412.64347350015305,412.7434118001256,412.7434118001256,None,c,1,0.7293896998744458,412.7434118001256,None,,,,,,,p29b,2022-09-07_12h04.20.523,training+cueing,2022.1.3,59.83659825498851,
Stranger.png,Friend,Stranger,m,2.3,17,27,97,,,,,0,0,0,0,,,,,9,8,116,7,,,,,,,,,,,,,,,,,,,,,1.422,1.284,413.59578870004043,None,,,,,,,,,,,,,,,,,,,,414.14121140004136,414.6448832000606,0.504855080274865,1.0050874801818281,414.62816280010156,414.7449060000945,414.62816280010156,414.7449060000945,414.7281576001551,None,m,1,0.7443184000439942,414.7281576001551,None,,,,,,,p29b,2022-09-07_12h04.20.523,training+cueing,2022.1.3,59.83659825498851,
Self.png,Stranger,Self ,m,3.1,18,28,98,,,,,0,0,0,0,,,,,9,9,117,2,,,,,,,,,,,,,,,,,,,,,1.618,1.988,415.5983593000565,None,,,,,,,,,,,,,,,,,,,,416.14277260005474,416.64604780008085,0.5036602802574635,1.0038966801948845,416.6294134000782,416.7461248000618,416.6294134000782,416.7461248000618,416.72937140008435,None,m,1,0.774886799743399,416.72937140008435,None,,,,,,,p29b,2022-09-07_12h04.20.523,training+cueing,2022.1.3,59.83659825498851,
Stranger.png,Stranger,Stranger,c,3,13,23,93,,,,,0,0,0,0,,,,,9,10,118,11,,,,,,,,,,,,,,,,,,,,,1.705,2.288,417.6321036000736,None,,,,,,,,,,,,,,,,,,,,418.1751793001313,418.68113779998384,0.5079604801721871,1.0081291801761836,418.66449400014244,418.7811422999948,418.66449400014244,418.7811422999948,418.764438000042,None,c,1,0.5961464999709278,418.764438000042,None,,,,,,,p29b,2022-09-07_12h04.20.523,training+cueing,2022.1.3,59.83659825498851,
Self.png,You,Self ,c,1,11,21,91,,,,,0,0,0,0,,,,,9,11,119,9,,,,,,,,,,,,,,,,,,,,,1.532,1.542,419.4836480000522,None,,,,,,,,,,,,,,,,,,,,420.03091330011375,420.5326259001158,0.5010335803963244,1.0015928803477436,420.5160170001909,420.61598230013624,420.5160170001909,420.61598230013624,420.61598230013624,None,c,1,1.4322128999046981,420.61598230013624,None,,,,,,,p29b,2022-09-07_12h04.20.523,training+cueing,2022.1.3,59.83659825498851,
,,,,,,,,,,,,0,0,0,0,,,,,,,,,,,,,,,,,,,,,,,,,,,,,,,,,,,,,,,,,,,,,,,,,,,,,,,,,,,,,,,,,,,0.0039552201051265,0.4912844200152904,,,,,p29b,2022-09-07_12h04.20.523,training+cueing,2022.1.3,59.83659825498851,
Stranger.png,Stranger,Stranger,c,3,13,23,93,,,,,1,0,1,0,0,0,0,11,,,,,,,,,,,,,,,,,422.66730890003964,None,space,8.692344199866056,2.015734259970486,None,433.37510520010255,None,1.551,1.724,436.38199330004863,None,436.9120023001451,437.4112897000741,437.4112897000741,437.51145190000534,437.4112897000741,437.51145190000534,437.51145190000534,None,None,0,,437.51145190000534,None,439.0626747000497,None,,,,,,,,,,,,,,,,,,,,,,,,,,p29b,2022-09-07_12h04.20.523,training+cueing,2022.1.3,59.83659825498851,
Friend.png,You,Friend,m,1.2,14,24,94,,,,,1,0,1,0,0,1,1,3,,,,,,,,,,,,,,,,,,,,,,,,,1.707,2.385,439.4628672001418,None,439.99486450012773,440.49779860000126,440.4804142001085,440.58041459997185,440.4804142001085,440.58041459997185,440.58041459997185,None,m,1,0.8131024998147041,440.58041459997185,None,441.41413350007497,None,,,,,,,,,,,,,,,,,,,,,,,,,,p29b,2022-09-07_12h04.20.523,training+cueing,2022.1.3,59.83659825498851,
Self.png,Stranger,Self ,m,3.1,18,28,98,,,,,1,0,1,0,0,2,2,2,,,,,,,,,,,,,,,,,,,,,,,,,1.757,1.238,441.81480990001,None,442.3464248999953,442.84868480009027,442.83204460004345,442.94867449998856,442.83204460004345,442.94867449998856,442.9319111001678,None,m,1,0.7957557998597622,442.9319111001678,None,443.74961569998413,None,,,,,,,,,,,,,,,,,,,,,,,,,,p29b,2022-09-07_12h04.20.523,training+cueing,2022.1.3,59.83659825498851,
Friend.png,Friend,Friend,c,2,12,22,92,,,,,1,0,1,0,0,3,3,4,,,,,,,,,,,,,,,,,,,,,,,,,1.723,2.381,444.14957210002467,None,444.6796930001583,445.1834699001629,445.1668426000979,445.2835286001209,445.1668426000979,445.2835286001209,445.2668416001834,None,m,0,0.9733190999832004,445.2668416001834,None,446.2676775001455,None,,,,,,,,,,,,,,,,,,,,,,,,,,p29b,2022-09-07_12h04.20.523,training+cueing,2022.1.3,59.83659825498851,
Stranger.png,You,Stranger,m,1.3,15,25,95,,,,,1,0,1,0,0,4,4,6,,,,,,,,,,,,,,,,,,,,,,,,,1.43,1.356,446.66809600009583,None,447.1987068001181,447.7021809001453,447.6854843001347,447.78589479997754,447.6854843001347,447.78589479997754,447.78589479997754,None,m,1,1.1258909997995943,447.78589479997754,None,448.934758100193,None,,,,,,,,,,,,,,,,,,,,,,,,,,p29b,2022-09-07_12h04.20.523,training+cueing,2022.1.3,59.83659825498851,
Self.png,Friend,Self ,m,2.1,16,26,96,,,,,1,0,1,0,0,5,5,1,,,,,,,,,,,,,,,,,,,,,,,,,1.51,2.309,449.3366871001199,None,449.8676065001637,450.3707999000326,450.3541572999675,450.4707830999978,450.3541572999675,450.4707830999978,450.45408340008,None,m,1,0.6657625997904688,450.45408340008,None,451.1380975001957,None,,,,,,,,,,,,,,,,,,,,,,,,,,p29b,2022-09-07_12h04.20.523,training+cueing,2022.1.3,59.83659825498851,
Friend.png,Stranger,Friend,m,3.2,19,29,99,,,,,1,0,1,0,0,6,6,5,,,,,,,,,,,,,,,,,,,,,,,,,1.654,1.643,451.5385047001764,None,452.06974339997396,452.57241790019907,452.55570630007423,452.6723937999923,452.55570630007423,452.6723937999923,452.65564270014875,None,c,0,0.7524346997961402,452.65564270014875,None,453.43962610000744,None,,,,,,,,,,,,,,,,,,,,,,,,,,p29b,2022-09-07_12h04.20.523,training+cueing,2022.1.3,59.83659825498851,
Self.png,You,Self ,c,1,11,21,91,,,,,1,0,1,0,0,7,7,9,,,,,,,,,,,,,,,,,,,,,,,,,1.649,1.625,453.8402407001704,None,454.37072360003367,454.87411770015024,454.8573769000359,454.95746450009756,454.8573769000359,454.95746450009756,454.95746450009756,None,c,1,0.7704928999301046,454.95746450009756,None,455.75596039998345,None,,,,,,,,,,,,,,,,,,,,,,,,,,p29b,2022-09-07_12h04.20.523,training+cueing,2022.1.3,59.83659825498851,
Stranger.png,Friend,Stranger,m,2.3,17,27,97,,,,,1,0,1,0,0,8,8,7,,,,,,,,,,,,,,,,,,,,,,,,,1.666,1.526,456.15822450001724,None,456.6886367001571,457.1924060001038,457.175742499996,457.2924643000588,457.175742499996,457.2924643000588,457.27580120018683,None,m,1,0.7557765000965446,457.27580120018683,None,458.059745100094,None,,,,,,,,,,,,,,,,,,,,,,,,,,p29b,2022-09-07_12h04.20.523,training+cueing,2022.1.3,59.83659825498851,
Friend.png,Friend,Friend,c,2,12,22,92,,,,,1,0,1,0,0,9,9,10,,,,,,,,,,,,,,,,,,,,,,,,,1.733,2.052,458.46005800017156,None,458.98788939998485,459.4941712000873,459.47749430011027,459.5941534000449,459.47749430011027,459.5941534000449,459.57742740004323,None,c,1,0.6625184000004083,459.57742740004323,None,460.26134059997275,None,,,,,,,,,,,,,,,,,,,,,,,,,,p29b,2022-09-07_12h04.20.523,training+cueing,2022.1.3,59.83659825498851,
Stranger.png,Stranger,Stranger,c,3,13,23,93,,,,,1,0,1,0,0,10,10,8,,,,,,,,,,,,,,,,,,,,,,,,,1.721,2.161,460.6615820999723,None,461.19335180008784,461.6956544001587,461.67899919999763,461.79580139997415,461.67899919999763,461.79580139997415,461.7789626000449,None,c,1,0.6370848000515252,461.7789626000449,None,462.4462409999687,None,,,,,,,,,,,,,,,,,,,,,,,,,,p29b,2022-09-07_12h04.20.523,training+cueing,2022.1.3,59.83659825498851,
Self.png,You,Self ,c,1,11,21,91,,,,,1,0,1,0,0,11,11,0,,,,,,,,,,,,,,,,,,,,,,,,,1.569,1.3,462.8465037001297,None,463.3759592000861,463.88064290001057,463.86388580012135,463.9639493001159,463.86388580012135,463.9639493001159,463.9639493001159,None,c,1,0.5648656999692321,463.9639493001159,None,464.54779750015587,None,,,,,,,,,,,,,,,,,,,,,,,,,,p29b,2022-09-07_12h04.20.523,training+cueing,2022.1.3,59.83659825498851,
Stranger.png,Stranger,Stranger,c,3,13,23,93,,,,,1,0,1,0,,,,,0,0,0,11,,,,,,,,,,,,,,,,,,,467.95024610008113,None,1.744,2.443,471.46016670018435,None,,,,,,,,,,,,,,,,464.948073200183,None,0.016262559918686748,None,471.9842605001759,472.48689609998837,0.5033279801718891,1.003569080028683,472.4701875001192,472.5869338000193,472.4701875001192,472.5869338000193,472.570143799996,None,c,1,0.6783463000319898,472.570143799996,None,,,,,,,p29b,2022-09-07_12h04.20.523,training+cueing,2022.1.3,59.83659825498851,
Stranger.png,Stranger,Stranger,c,3,13,23,93,,,,,1,0,1,0,,,,,0,1,1,8,,,,,,,,,,,,,,,,,,,,,1.418,1.919,473.3735419001896,None,,,,,,,,,,,,,,,,,,,,473.9149119001813,474.42171030002646,0.5109112800564617,1.0113163799978793,474.40499499998987,474.5219578000251,474.40499499998987,474.5219578000251,474.505322500132,None,c,1,0.5024565998464823,474.505322500132,None,,,,,,,p29b,2022-09-07_12h04.20.523,training+cueing,2022.1.3,59.83659825498851,
Friend.png,Friend,Friend,c,2,12,22,92,,,,,1,0,1,0,,,,,0,2,2,4,,,,,,,,,,,,,,,,,,,,,1.723,2.023,475.140923100058,None,,,,,,,,,,,,,,,,,,,,475.68731230008416,476.18964260001667,0.5012795804068446,1.0013862804044038,476.17298869998194,476.289631200023,476.17298869998194,476.289631200023,476.289631200023,None,c,1,0.5261676998343319,476.289631200023,None,,,,,,,p29b,2022-09-07_12h04.20.523,training+cueing,2022.1.3,59.83659825498851,
Stranger.png,You,Stranger,m,1.3,15,25,95,,,,,1,0,1,0,,,,,0,3,3,6,,,,,,,,,,,,,,,,,,,,,1.769,2.486,476.94181310012937,None,,,,,,,,,,,,,,,,,,,,477.4868356999941,477.991134500131,0.5054956800304353,1.0057452800683677,477.97420030017383,478.074378099991,477.97420030017383,478.074378099991,478.074378099991,None,m,1,0.7096438996959478,478.074378099991,None,,,,,,,p29b,2022-09-07_12h04.20.523,training+cueing,2022.1.3,59.83659825498851,
Friend.png,You,Friend,m,1.2,14,24,94,,,,,1,0,1,0,,,,,0,4,4,3,,,,,,,,,,,,,,,,,,,,,1.691,1.846,478.90993229998276,None,,,,,,,,,,,,,,,,,,,,479.4515590001829,479.9590545000974,0.5104664803948253,1.0106685801874846,479.94232070003636,480.04234430007637,479.94232070003636,480.04234430007637,480.04234430007637,None,m,1,0.6618407997302711,480.04234430007637,None,,,,,,,p29b,2022-09-07_12h04.20.523,training+cueing,2022.1.3,59.83659825498851,
Friend.png,Friend,Friend,c,2,12,22,92,,,,,1,0,1,0,,,,,0,5,5,10,,,,,,,,,,,,,,,,,,,,,1.77,2.188,480.8276196999941,None,,,,,,,,,,,,,,,,,,,,481.37352150003426,481.8770515001379,0.5046736802905798,1.0048751800786704,481.86041620001197,481.9770611000713,481.86041620001197,481.9770611000713,481.9604090000503,None,m,0,0.6961892999242991,481.9604090000503,None,,,,,,,p29b,2022-09-07_12h04.20.523,training+cueing,2022.1.3,59.83659825498851,
Self.png,Friend,Self ,m,2.1,16,26,96,,,,,1,0,1,0,,,,,0,6,6,1,,,,,,,,,,,,,,,,,,,,,1.659,1.735,482.7792064000387,None,,,,,,,,,,,,,,,,,,,,483.3217094000429,483.82848810008727,0.5109188801143318,1.01122968015261,483.8117009999696,483.92843750002794,483.8117009999696,483.92843750002794,483.9117472001817,None,m,1,0.6649731998331845,483.9117472001817,None,,,,,,,p29b,2022-09-07_12h04.20.523,training+cueing,2022.1.3,59.83659825498851,
Self.png,Stranger,Self ,m,3.1,18,28,98,,,,,1,0,1,0,,,,,0,7,7,2,,,,,,,,,,,,,,,,,,,,,1.54,1.969,484.6972215999849,None,,,,,,,,,,,,,,,,,,,,485.24265730008483,485.74651039997116,0.5036177800502628,1.0037936801090837,485.72985970019363,485.84655970009044,485.72985970019363,485.84655970009044,485.8300774001982,None,m,1,0.5223167000804096,485.8300774001982,None,,,,,,,p29b,2022-09-07_12h04.20.523,training+cueing,2022.1.3,59.83659825498851,
Friend.png,Stranger,Friend,m,3.2,19,29,99,,,,,1,0,1,0,,,,,0,8,8,5,,,,,,,,,,,,,,,,,,,,,1.728,2.356,486.4817971000448,None,,,,,,,,,,,,,,,,,,,,487.01343469996937,487.51448910008185,0.49995498009957373,1.0000130801927298,487.49781229998916,487.6144986001309,487.49781229998916,487.6144986001309,487.6144986001309,None,m,1,1.0102042998187244,487.6144986001309,None,,,,,,,p29b,2022-09-07_12h04.20.523,training+cueing,2022.1.3,59.83659825498851,
Stranger.png,Friend,Stranger,m,2.3,17,27,97,,,,,1,0,1,0,,,,,0,9,9,7,,,,,,,,,,,,,,,,,,,,,1.483,1.405,488.7501425000373,None,,,,,,,,,,,,,,,,,,,,489.3002820000984,489.7997338999994,0.5127941800747067,1.012819180265069,489.7997338999994,489.8996621000115,489.7997338999994,489.8996621000115,489.8996621000115,None,m,1,0.676241299835965,489.8996621000115,None,,,,,,,p29b,2022-09-07_12h04.20.523,training+cueing,2022.1.3,59.83659825498851,
Self.png,You,Self ,c,1,11,21,91,,,,,1,0,1,0,,,,,0,10,10,0,,,,,,,,,,,,,,,,,,,,,1.513,2.397,490.70142120006494,None,,,,,,,,,,,,,,,,,,,,491.2508396001067,491.750861100154,0.5119482800364494,1.0121637801639736,491.750861100154,491.8509347999934,491.750861100154,491.8509347999934,491.8509347999934,None,c,1,0.660790299763903,491.8509347999934,None,,,,,,,p29b,2022-09-07_12h04.20.523,training+cueing,2022.1.3,59.83659825498851,
Self.png,You,Self ,c,1,11,21,91,,,,,1,0,1,0,,,,,0,11,11,9,,,,,,,,,,,,,,,,,,,,,1.599,1.913,492.6362762001809,None,,,,,,,,,,,,,,,,,,,,493.1790770001244,493.68559050001204,0.510459880111739,1.010666280053556,493.6689222001005,493.76894100010395,493.6689222001005,493.76894100010395,493.76894100010395,None,c,1,0.503256999887526,493.76894100010395,None,,,,,,,p29b,2022-09-07_12h04.20.523,training+cueing,2022.1.3,59.83659825498851,
Friend.png,Friend,Friend,c,2,12,22,92,,,,,1,0,1,0,,,,,1,0,12,4,,,,,,,,,,,,,,,,,,,,,1.514,1.317,494.4046667001676,None,,,,,,,,,,,,,,,,,,,,494.95758350007236,495.47024920000695,0.504602680215612,1.0048695800360292,495.45354350004345,495.5701969000511,495.45354350004345,495.5701969000511,495.55344480019994,None,c,1,0.6066056997515261,495.55344480019994,None,,,,,,,p29b,2022-09-07_12h04.20.523,training+cueing,2022.1.3,59.83659825498851,
Friend.png,Friend,Friend,c,2,12,22,92,,,,,1,0,1,0,,,,,1,1,13,10,,,,,,,,,,,,,,,,,,,,,1.454,1.786,496.2935753001366,None,,,,,,,,,,,,,,,,,,,,496.83929800009355,497.33847240009345,0.512445880100131,1.012708680005744,497.33847240009345,497.4384954001289,497.33847240009345,497.4384954001289,497.4384954001289,None,c,1,0.3854774998035282,497.4384954001289,None,,,,,,,p29b,2022-09-07_12h04.20.523,training+cueing,2022.1.3,59.83659825498851,
Stranger.png,Stranger,Stranger,c,3,13,23,93,,,,,1,0,1,0,,,,,1,2,14,8,,,,,,,,,,,,,,,,,,,,,1.766,1.483,497.9578118000645,None,,,,,,,,,,,,,,,,,,,,498.50310950004496,499.00622800015844,0.501741680316627,1.003830480389297,498.98761800001375,499.0897288999986,498.98761800001375,499.0897288999986,499.0897288999986,None,c,1,0.5582867998164147,499.0897288999986,None,,,,,,,p29b,2022-09-07_12h04.20.523,training+cueing,2022.1.3,59.83659825498851,
Friend.png,Stranger,Friend,m,3.2,19,29,99,,,,,1,0,1,0,,,,,1,3,15,5,,,,,,,,,,,,,,,,,,,,,1.753,2.179,499.7747796000913,None,,,,,,,,,,,,,,,,,,,,500.3167211001273,500.82418350013904,0.5098726800642908,None,500.80741590005346,500.9241003000643,500.80741590005346,500.9241003000643,500.90742090018466,None,c,0,0.35640039993450046,500.90742090018466,None,,,,,,,p29b,2022-09-07_12h04.20.523,training+cueing,2022.1.3,59.83659825498851,
Friend.png,You,Friend,m,1.2,14,24,94,,,,,1,0,1,0,,,,,1,4,16,3,,,,,,,,,,,,,,,,,,,,,1.436,1.768,501.3927142000757,None,,,,,,,,,,,,,,,,,,,,501.92691070004366,502.4418997000903,0.5117065801750869,1.011963080149144,502.4252926001791,502.52746340003796,502.4252926001791,502.52746340003796,502.52746340003796,None,m,1,0.9607249998953193,502.52746340003796,None,,,,,,,p29b,2022-09-07_12h04.20.523,training+cueing,2022.1.3,59.83659825498851,
Stranger.png,Stranger,Stranger,c,3,13,23,93,,,,,1,0,1,0,,,,,1,5,17,11,,,,,,,,,,,,,,,,,,,,,1.499,1.485,503.6110374000855,None,,,,,,,,,,,,,,,,,,,,504.14183750003576,504.6435911001172,0.5012139801401645,1.001552680041641,504.62682060012594,504.7436400000006,504.62682060012594,504.7436400000006,504.7436400000006,None,c,1,0.5685757999308407,504.7436400000006,None,,,,,,,p29b,2022-09-07_12h04.20.523,training+cueing,2022.1.3,59.83659825498851,
Stranger.png,Friend,Stranger,m,2.3,17,27,97,,,,,1,0,1,0,,,,,1,6,18,7,,,,,,,,,,,,,,,,,,,,,1.643,1.203,505.4461872000247,None,,,,,,,,,,,,,,,,,,,,505.9908802001737,506.49494670005515,0.5040221801027656,1.0042653800919652,506.4782978000585,506.5949220000766,506.4782978000585,506.5949220000766,506.578181900084,None,m,1,0.6855720998719335,506.578181900084,None,,,,,,,p29b,2022-09-07_12h04.20.523,training+cueing,2022.1.3,59.83659825498851,
Self.png,You,Self ,c,1,11,21,91,,,,,1,0,1,0,,,,,1,7,19,9,,,,,,,,,,,,,,,,,,,,,1.493,1.956,507.39730409998447,None,,,,,,,,,,,,,,,,,,,,507.94255290017463,508.44633559999056,0.5049600801430643,1.0053484800737351,508.42957819998264,508.52959499997087,508.42957819998264,508.52959499997087,508.52959499997087,None,c,1,0.6383048999123275,508.52959499997087,None,,,,,,,p29b,2022-09-07_12h04.20.523,training+cueing,2022.1.3,59.83659825498851,
Self.png,Stranger,Self ,m,3.1,18,28,98,,,,,1,0,1,0,,,,,1,8,20,2,,,,,,,,,,,,,,,,,,,,,1.513,1.447,509.2988220001571,None,,,,,,,,,,,,,,,,,,,,509.84376950003207,510.34772990015335,0.5035137801896781,1.0037976801395416,510.3310554001946,510.4477231001947,510.3310554001946,510.4477231001947,510.43104110006243,None,m,1,0.8809561999514699,510.43104110006243,None,,,,,,,p29b,2022-09-07_12h04.20.523,training+cueing,2022.1.3,59.83659825498851,
Self.png,Friend,Self ,m,2.1,16,26,96,,,,,1,0,1,0,,,,,1,9,21,1,,,,,,,,,,,,,,,,,,,,,1.621,2.177,511.43352199997753,None,,,,,,,,,,,,,,,,,,,,511.97902370011434,512.4825954001863,0.5062953401356936,1.0065741399303079,512.4659402000252,512.582608200144,512.4659402000252,512.582608200144,512.5658933001105,None,m,1,0.570615699980408,512.5658933001105,None,,,,,,,p29b,2022-09-07_12h04.20.523,training+cueing,2022.1.3,59.83659825498851,
Self.png,You,Self ,c,1,11,21,91,,,,,1,0,1,0,,,,,1,10,22,0,,,,,,,,,,,,,,,,,,,,,1.758,1.247,513.2680049000774,None,,,,,,,,,,,,,,,,,,,,513.8049974001478,514.3172638001852,0.5059467803221196,1.0062068803235888,514.3006234001368,514.4006815000903,514.3006234001368,514.4006815000903,514.4006815000903,None,c,1,0.5759110997896641,514.4006815000903,None,,,,,,,p29b,2022-09-07_12h04.20.523,training+cueing,2022.1.3,59.83659825498851,
Stranger.png,You,Stranger,m,1.3,15,25,95,,,,,1,0,1,0,,,,,1,11,23,6,,,,,,,,,,,,,,,,,,,,,1.498,2.186,515.1034947000444,None,,,,,,,,,,,,,,,,,,,,515.6447821001057,516.1519436000381,0.5100561804138124,1.010495480382815,516.1352620001417,516.2361029000022,516.1352620001417,516.2361029000022,516.2361029000022,None,m,1,0.6919162999838591,516.2361029000022,None,,,,,,,p29b,2022-09-07_12h04.20.523,training+cueing,2022.1.3,59.83659825498851,
Stranger.png,Friend,Stranger,m,2.3,17,27,97,,,,,1,0,1,0,,,,,2,0,24,7,,,,,,,,,,,,,,,,,,,,,1.609,2.452,517.0549537001643,None,,,,,,,,,,,,,,,,,,,,517.5997846000828,518.1034010001458,0.5047150799073279,1.004763080039993,518.0867616001051,518.2034206001554,518.0867616001051,518.2034206001554,518.186653100187,None,m,1,0.9824783997610211,518.186653100187,None,,,,,,,p29b,2022-09-07_12h04.20.523,training+cueing,2022.1.3,59.83659825498851,
Self.png,Stranger,Self ,m,3.1,18,28,98,,,,,1,0,1,0,,,,,2,1,25,2,,,,,,,,,,,,,,,,,,,,,1.538,2.127,519.289441900095,None,,,,,,,,,,,,,,,,,,,,519.8353548001032,520.3383649999741,0.5036523803137243,1.0039591803215444,520.3216200000606,520.438338899985,520.3216200000606,520.438338899985,520.4215822999831,None,m,1,0.6357028998900205,520.4215822999831,None,,,,,,,p29b,2022-09-07_12h04.20.523,training+cueing,2022.1.3,59.83659825498851,
Self.png,Friend,Self ,m,2.1,16,26,96,,,,,1,0,1,0,,,,,2,2,26,1,,,,,,,,,,,,,,,,,,,,,1.649,2.482,521.1910680001602,None,,,,,,,,,,,,,,,,,,,,521.7386882000137,522.2396859000437,0.5146958800032735,1.0149137801490724,522.2396859000437,522.3396982999984,522.2396859000437,522.3396982999984,522.3396982999984,None,m,1,0.8282388998195529,522.3396982999984,None,,,,,,,p29b,2022-09-07_12h04.20.523,training+cueing,2022.1.3,59.83659825498851,
Friend.png,You,Friend,m,1.2,14,24,94,,,,,1,0,1,0,,,,,2,3,27,3,,,,,,,,,,,,,,,,,,,,,1.743,2.17,523.2920103000943,None,,,,,,,,,,,,,,,,,,,,523.8372122000437,524.3413118000608,0.5056208800524473,1.0057794800959527,524.3246741001494,524.4246494001709,524.3246741001494,524.4246494001709,524.4246494001709,None,m,1,0.6634139998350292,524.4246494001709,None,,,,,,,p29b,2022-09-07_12h04.20.523,training+cueing,2022.1.3,59.83659825498851,
Stranger.png,Stranger,Stranger,c,3,13,23,93,,,,,1,0,1,0,,,,,2,4,28,11,,,,,,,,,,,,,,,,,,,,,1.746,1.339,525.2116674999706,None,,,,,,,,,,,,,,,,,,,,525.755178200081,526.2592607999686,0.5038861802313477,1.0041090801823884,526.2426203000359,526.3594078000169,526.2426203000359,526.3594078000169,526.342548100045,None,c,1,0.4894414998125285,526.342548100045,None,,,,,,,p29b,2022-09-07_12h04.20.523,training+cueing,2022.1.3,59.83659825498851,
Friend.png,Friend,Friend,c,2,12,22,92,,,,,1,0,1,0,,,,,2,5,29,4,,,,,,,,,,,,,,,,,,,,,1.488,1.832,526.9615710000508,None,,,,,,,,,,,,,,,,,,,,527.5070344000123,528.0106002001557,0.5046957801096141,1.004914779914543,527.9939340001438,528.1107264000457,527.9939340001438,528.1107264000457,528.0940511000808,None,c,1,0.8989670998416841,528.0940511000808,None,,,,,,,p29b,2022-09-07_12h04.20.523,training+cueing,2022.1.3,59.83659825498851,
Stranger.png,You,Stranger,m,1.3,15,25,95,,,,,1,0,1,0,,,,,2,6,30,6,,,,,,,,,,,,,,,,,,,,,1.485,2.378,529.1134232000913,None,,,,,,,,,,,,,,,,,,,,529.6582937000785,530.1619834001176,0.5053378802258521,1.0054076802916825,530.1455348001327,530.245513100177,530.1455348001327,530.245513100177,530.245513100177,None,m,1,0.923289299942553,530.245513100177,None,,,,,,,p29b,2022-09-07_12h04.20.523,training+cueing,2022.1.3,59.83659825498851,
Friend.png,Stranger,Friend,m,3.2,19,29,99,,,,,1,0,1,0,,,,,2,7,31,5,,,,,,,,,,,,,,,,,,,,,1.577,2.321,531.2977152999956,None,,,,,,,,,,,,,,,,,,,,531.8466140001547,532.3470417000353,0.5138079801108688,1.0141094799619168,532.3470417000353,532.4470032001846,532.3470417000353,532.4470032001846,532.4470032001846,None,m,1,0.6570233998354524,532.4470032001846,None,,,,,,,p29b,2022-09-07_12h04.20.523,training+cueing,2022.1.3,59.83659825498851,
Stranger.png,Stranger,Stranger,c,3,13,23,93,,,,,1,0,1,0,,,,,2,8,32,8,,,,,,,,,,,,,,,,,,,,,1.479,1.296,533.232532300055,None,,,,,,,,,,,,,,,,,,,,533.7751772999763,534.281774800038,0.5105577800422907,1.0109826801344752,534.2650963000488,534.3821772001684,534.2650963000488,534.3821772001684,534.3654309001286,None,c,1,0.642775199841708,534.3654309001286,None,,,,,,,p29b,2022-09-07_12h04.20.523,training+cueing,2022.1.3,59.83659825498851,
Friend.png,Friend,Friend,c,2,12,22,92,,,,,1,0,1,0,,,,,2,9,33,10,,,,,,,,,,,,,,,,,,,,,1.51,2.14,535.1343212001957,None,,,,,,,,,,,,,,,,,,,,535.6798660000786,536.1831847000867,0.5042852801270783,1.0045478800311685,536.1665006000549,536.2831508000381,536.1665006000549,536.2831508000381,536.2664067000151,None,c,1,0.726615599822253,536.2664067000151,None,,,,,,,p29b,2022-09-07_12h04.20.523,training+cueing,2022.1.3,59.83659825498851,
Self.png,You,Self ,c,1,11,21,91,,,,,1,0,1,0,,,,,2,10,34,0,,,,,,,,,,,,,,,,,,,,,1.474,2.468,537.1191269000992,None,,,,,,,,,,,,,,,,,,,,537.6633606001269,538.1679144999944,0.5049918801523745,1.0052267801947892,538.1512317000888,538.2513477001339,538.1512317000888,538.2513477001339,538.2513477001339,None,c,1,0.709277399815619,538.2513477001339,None,,,,,,,p29b,2022-09-07_12h04.20.523,training+cueing,2022.1.3,59.83659825498851,
Self.png,You,Self ,c,1,11,21,91,,,,,1,0,1,0,,,,,2,11,35,9,,,,,,,,,,,,,,,,,,,,,1.436,2.493,539.0874850000255,None,,,,,,,,,,,,,,,,,,,,539.6295396999922,540.1360959999729,0.5106443800032139,1.0108141801320016,540.1193984001875,540.2193232001737,540.1193984001875,540.2193232001737,540.2193232001737,None,c,1,0.4528196998871863,540.2193232001737,None,,,,,,,p29b,2022-09-07_12h04.20.523,training+cueing,2022.1.3,59.83659825498851,
Friend.png,Friend,Friend,c,2,12,22,92,,,,,1,0,1,0,,,,,3,0,36,10,,,,,,,,,,,,,,,,,,,,,1.421,1.785,540.8045781000983,None,,,,,,,,,,,,,,,,,,,,541.34966980014,541.8539627999999,0.5044720801524818,1.0047186801675707,541.837275300175,541.9538667001761,541.837275300175,541.9538667001761,541.937229000032,None,c,1,0.5589107999112457,541.937229000032,None,,,,,,,p29b,2022-09-07_12h04.20.523,training+cueing,2022.1.3,59.83659825498851,
Friend.png,Stranger,Friend,m,3.2,19,29,99,,,,,1,0,1,0,,,,,3,1,37,5,,,,,,,,,,,,,,,,,,,,,1.719,2.313,542.6225462001748,None,,,,,,,,,,,,,,,,,,,,543.1735423000064,543.6885744000319,0.5112359800841659,1.0115182800218463,543.6719370000064,543.7886347000021,543.6719370000064,543.7886347000021,543.7719722001348,None,m,1,1.0125793998595327,543.7719722001348,None,,,,,,,p29b,2022-09-07_12h04.20.523,training+cueing,2022.1.3,59.83659825498851,
Stranger.png,Stranger,Stranger,c,3,13,23,93,,,,,1,0,1,0,,,,,3,2,38,11,,,,,,,,,,,,,,,,,,,,,1.463,2.461,544.9091861001216,None,,,,,,,,,,,,,,,,,,,,545.4503055000678,545.9572427000385,0.5108206802979112,1.0109849802684039,545.9403169001453,546.0569667001255,545.9403169001453,546.0569667001255,546.0402087999973,None,c,1,0.6162221999838948,546.0402087999973,None,,,,,,,p29b,2022-09-07_12h04.20.523,training+cueing,2022.1.3,59.83659825498851,
Stranger.png,Stranger,Stranger,c,3,13,23,93,,,,,1,0,1,0,,,,,3,3,39,8,,,,,,,,,,,,,,,,,,,,,1.793,2.273,546.7756301001646,None,,,,,,,,,,,,,,,,,,,,547.3177877999842,547.8250142000616,0.510294180130586,1.0105326802004129,547.8082736001816,547.9249285999686,547.8082736001816,547.9249285999686,547.9082636001986,None,c,1,0.9873422000091523,547.9082636001986,None,,,,,,,p29b,2022-09-07_12h04.20.523,training+cueing,2022.1.3,59.83659825498851,
Self.png,You,Self ,c,1,11,21,91,,,,,1,0,1,0,,,,,3,4,40,9,,,,,,,,,,,,,,,,,,,,,1.66,1.937,549.0272921000142,None,,,,,,,,,,,,,,,,,,,,549.5727489001583,550.0765851000324,0.5054755799937993,1.0057395801413804,550.0599398000631,550.1599344001152,550.0599398000631,550.1599344001152,550.1599344001152,None,c,1,0.5923311000224203,550.1599344001152,None,,,,,,,p29b,2022-09-07_12h04.20.523,training+cueing,2022.1.3,59.83659825498851,
Friend.png,You,Friend,m,1.2,14,24,94,,,,,1,0,1,0,,,,,3,5,41,3,,,,,,,,,,,,,,,,,,,,,1.538,2.18,550.878710700199,None,,,,,,,,,,,,,,,,,,,,551.4216056000441,551.9278955000918,0.5102695801761001,1.0106314802542329,551.9112462000921,552.0113121999893,551.9112462000921,552.0113121999893,552.0113121999893,None,m,1,0.5654573999345303,552.0113121999893,None,,,,,,,p29b,2022-09-07_12h04.20.523,training+cueing,2022.1.3,59.83659825498851,
Self.png,Stranger,Self ,m,3.1,18,28,98,,,,,1,0,1,0,,,,,3,6,42,2,,,,,,,,,,,,,,,,,,,,,1.762,1.417,552.6966044001747,None,,,,,,,,,,,,,,,,,,,,553.2426854001824,553.7459079001565,0.5024500801227987,1.002717780182138,553.7292657999787,553.8459227001294,553.7292657999787,553.8459227001294,553.8292135000229,None,m,1,0.6509827999398112,553.8292135000229,None,,,,,,,p29b,2022-09-07_12h04.20.523,training+cueing,2022.1.3,59.83659825498851,
Stranger.png,You,Stranger,m,1.3,15,25,95,,,,,1,0,1,0,,,,,3,7,43,6,,,,,,,,,,,,,,,,,,,,,1.49,2.247,554.6149763001595,None,,,,,,,,,,,,,,,,,,,,555.159885100089,555.6639817999676,0.5056029800325632,1.0058490799274296,555.6473297001794,555.7473565000109,555.6473297001794,555.7473565000109,555.7473565000109,None,m,1,0.7648794997949153,555.7473565000109,None,,,,,,,p29b,2022-09-07_12h04.20.523,training+cueing,2022.1.3,59.83659825498851,
Self.png,You,Self ,c,1,11,21,91,,,,,1,0,1,0,,,,,3,8,44,0,,,,,,,,,,,,,,,,,,,,,1.696,1.98,556.6327739001717,None,,,,,,,,,,,,,,,,,,,,557.1748401999939,557.6821197001263,0.5101104802452028,1.0104008801281452,557.6653736000881,557.7654444000218,557.6653736000881,557.7654444000218,557.7654444000218,None,m,0,0.6346219999250025,557.7654444000218,None,,,,,,,p29b,2022-09-07_12h04.20.523,training+cueing,2022.1.3,59.83659825498851,
Friend.png,Friend,Friend,c,2,12,22,92,,,,,1,0,1,0,,,,,3,9,45,4,,,,,,,,,,,,,,,,,,,,,1.717,2.387,558.5387918001506,None,,,,,,,,,,,,,,,,,,,,559.0794757001568,559.5835470000748,0.5046983803622425,1.0049338801763952,559.5668498000596,559.6835816001985,559.5668498000596,559.6835816001985,559.6667941000778,None,c,1,0.4936514999717474,559.6667941000778,None,,,,,,,p29b,2022-09-07_12h04.20.523,training+cueing,2022.1.3,59.83659825498851,
Self.png,Friend,Self ,m,2.1,16,26,96,,,,,1,0,1,0,,,,,3,10,46,1,,,,,,,,,,,,,,,,,,,,,1.67,1.667,560.2856040000916,None,,,,,,,,,,,,,,,,,,,,560.8283007000573,561.3348399000242,0.5104855801910162,1.0106816801708192,561.3181086000986,561.4347842000425,561.3181086000986,561.4347842000425,561.4180662001017,None,m,1,0.7106120998505503,561.4180662001017,None,,,,,,,p29b,2022-09-07_12h04.20.523,training+cueing,2022.1.3,59.83659825498851,
Stranger.png,Friend,Stranger,m,2.3,17,27,97,,,,,1,0,1,0,,,,,3,11,47,7,,,,,,,,,,,,,,,,,,,,,1.61,2.023,562.2537350000348,None,,,,,,,,,,,,,,,,,,,,562.7955242001917,563.302737900056,0.5105167801957577,1.0107790799811482,563.2861862001009,563.4029475999996,563.2861862001009,563.4029475999996,563.3861446001101,None,m,1,0.6938480997923762,563.3861446001101,None,,,,,,,p29b,2022-09-07_12h04.20.523,training+cueing,2022.1.3,59.83659825498851,
Self.png,Friend,Self ,m,2.1,16,26,96,,,,,1,0,1,0,,,,,4,0,48,1,,,,,,,,,,,,,,,,,,,,,1.455,2.155,564.20562540018,None,,,,,,,,,,,,,,,,,,,,564.7479372001253,565.2543067000806,0.5104792800266296,1.0107704801484942,565.2376842000522,565.3542861000169,565.2376842000522,565.3542861000169,565.3376140000764,None,m,1,0.5985385999083519,565.3376140000764,None,,,,,,,p29b,2022-09-07_12h04.20.523,training+cueing,2022.1.3,59.83659825498851,
Friend.png,Friend,Friend,c,2,12,22,92,,,,,1,0,1,0,,,,,4,1,49,10,,,,,,,,,,,,,,,,,,,,,1.476,1.462,566.0567533001304,None,,,,,,,,,,,,,,,,,,,,566.5993248000741,567.1057314001955,0.5102484801318496,1.0105168800801039,567.0889659000095,567.2056657001376,567.0889659000095,567.2056657001376,567.1889169001952,None,c,1,0.6026932997629046,567.1889169001952,None,,,,,,,p29b,2022-09-07_12h04.20.523,training+cueing,2022.1.3,59.83659825498851,
Self.png,You,Self ,c,1,11,21,91,,,,,1,0,1,0,,,,,4,2,50,0,,,,,,,,,,,,,,,,,,,,,1.448,2.0,567.9248915000353,None,,,,,,,,,,,,,,,,,,,,568.4692620001733,568.9736770000309,0.5047580802347511,1.0050315803382546,568.9569254000671,569.056958500063,568.9569254000671,569.056958500063,569.056958500063,None,c,1,0.6390405998099595,569.056958500063,None,,,,,,,p29b,2022-09-07_12h04.20.523,training+cueing,2022.1.3,59.83659825498851,
Friend.png,You,Friend,m,1.2,14,24,94,,,,,1,0,1,0,,,,,4,3,51,3,,,,,,,,,,,,,,,,,,,,,1.567,2.209,569.8256498000119,None,,,,,,,,,,,,,,,,,,,,570.3687166001182,570.8750881000888,0.510662280023098,1.0108232798520476,570.8584500001743,570.9584377000574,570.8584500001743,570.9584377000574,570.9584377000574,None,m,1,0.5771814999170601,570.9584377000574,None,,,,,,,p29b,2022-09-07_12h04.20.523,training+cueing,2022.1.3,59.83659825498851,
Self.png,Stranger,Self ,m,3.1,18,28,98,,,,,1,0,1,0,,,,,4,4,52,2,,,,,,,,,,,,,,,,,,,,,1.781,1.47,571.6606294000521,None,,,,,,,,,,,,,,,,,,,,572.2056531000417,572.7097073001787,0.5037419800646603,1.0041659800335765,572.6929568999913,572.809687100118,572.6929568999913,572.809687100118,572.7930142001715,None,m,1,1.0161035999190062,572.7930142001715,None,,,,,,,p29b,2022-09-07_12h04.20.523,training+cueing,2022.1.3,59.83659825498851,
Stranger.png,Stranger,Stranger,c,3,13,23,93,,,,,1,0,1,0,,,,,4,5,53,11,,,,,,,,,,,,,,,,,,,,,1.747,1.313,573.9289727001451,None,,,,,,,,,,,,,,,,,,,,574.4716775000561,574.9780539001804,0.5104468802455813,1.0107194802258164,574.9612972000614,575.078104800079,574.9612972000614,575.078104800079,575.0613158000633,None,c,1,0.5385625998023897,575.0613158000633,None,,,,,,,p29b,2022-09-07_12h04.20.523,training+cueing,2022.1.3,59.83659825498851,
Self.png,You,Self ,c,1,11,21,91,,,,,1,0,1,0,,,,,4,6,54,9,,,,,,,,,,,,,,,,,,,,,1.737,1.869,575.7355566001497,None,,,,,,,,,,,,,,,,,,,,576.2754926001653,576.7793056999799,0.5052058801520616,1.0053806800860912,576.7627169000916,576.8626412001904,576.7627169000916,576.8626412001904,576.8626412001904,None,c,1,0.6256415997631848,576.8626412001904,None,,,,,,,p29b,2022-09-07_12h04.20.523,training+cueing,2022.1.3,59.83659825498851,
Stranger.png,Stranger,Stranger,c,3,13,23,93,,,,,1,0,1,0,,,,,4,7,55,8,,,,,,,,,,,,,,,,,,,,,1.549,2.29,577.6149888001382,None,,,,,,,,,,,,,,,,,,,,578.1605026000179,578.6641745001543,0.5030986801721156,1.0031529802363366,578.6475002001971,578.7642368001398,578.6475002001971,578.7642368001398,578.7474605001044,None,c,1,0.5167746997904032,578.7474605001044,None,,,,,,,p29b,2022-09-07_12h04.20.523,training+cueing,2022.1.3,59.83659825498851,
Friend.png,Stranger,Friend,m,3.2,19,29,99,,,,,1,0,1,0,,,,,4,8,56,5,,,,,,,,,,,,,,,,,,,,,1.524,1.648,579.3829830000177,None,,,,,,,,,,,,,,,,,,,,579.9254132001661,580.432000100147,0.5107336803339422,1.010952080367133,580.4153184001334,580.5320127001032,580.4153184001334,580.5320127001032,580.5152623001486,None,m,1,0.6047569999936968,580.5152623001486,None,,,,,,,p29b,2022-09-07_12h04.20.523,training+cueing,2022.1.3,59.83659825498851,
Friend.png,Friend,Friend,c,2,12,22,92,,,,,1,0,1,0,,,,,4,9,57,4,,,,,,,,,,,,,,,,,,,,,1.649,1.977,581.2507619999815,None,,,,,,,,,,,,,,,,,,,,581.796608600067,582.3000019001774,0.5044330798555166,1.0046881798189133,582.2833287001122,582.400043600006,582.2833287001122,582.400043600006,582.3832948000636,None,c,1,0.5926135997287929,582.3832948000636,None,,,,,,,p29b,2022-09-07_12h04.20.523,training+cueing,2022.1.3,59.83659825498851,
Stranger.png,You,Stranger,m,1.3,15,25,95,,,,,1,0,1,0,,,,,4,10,58,6,,,,,,,,,,,,,,,,,,,,,1.681,2.241,583.1025948000606,None,,,,,,,,,,,,,,,,,,,,583.6467373000924,584.1513940000441,0.5053011800628155,1.0062288800254464,584.1347156001721,584.2347407999914,584.1347156001721,584.2347407999914,584.2347407999914,None,m,1,1.0780457998625934,584.2347407999914,None,,,,,,,p29b,2022-09-07_12h04.20.523,training+cueing,2022.1.3,59.83659825498851,
Stranger.png,Friend,Stranger,m,2.3,17,27,97,,,,,1,0,1,0,,,,,4,11,59,7,,,,,,,,,,,,,,,,,,,,,1.723,1.926,585.4373186000157,None,,,,,,,,,,,,,,,,,,,,585.9828553001862,586.4863599999808,0.5045198802836239,1.004818580346182,586.4696725001559,586.5863636001013,586.4696725001559,586.5863636001013,586.569664800074,None,m,1,0.9343930999748409,586.569664800074,None,,,,,,,p29b,2022-09-07_12h04.20.523,training+cueing,2022.1.3,59.83659825498851,
Friend.png,Friend,Friend,c,2,12,22,92,,,,,1,0,1,0,,,,,5,0,60,10,,,,,,,,,,,,,,,,,,,,,1.646,1.79,587.6225227999967,None,,,,,,,,,,,,,,,,,,,,588.1643728001509,588.6713233999908,0.5095872802194208,1.0098623801022768,588.6546223000623,588.7713338001631,588.6546223000623,588.7713338001631,588.7545784001704,None,c,1,0.5257947999052703,588.7545784001704,None,,,,,,,p29b,2022-09-07_12h04.20.523,training+cueing,2022.1.3,59.83659825498851,
Stranger.png,Stranger,Stranger,c,3,13,23,93,,,,,1,0,1,0,,,,,5,1,61,11,,,,,,,,,,,,,,,,,,,,,1.779,2.037,589.4070884999819,None,,,,,,,,,,,,,,,,,,,,589.9533659999724,590.455978800077,0.5032579801045358,None,590.4392963000573,590.5559221000876,590.4392963000573,590.5559221000876,590.5392599999905,None,c,1,0.32500039995647967,590.5392599999905,None,,,,,,,p29b,2022-09-07_12h04.20.523,training+cueing,2022.1.3,59.83659825498851,
Self.png,You,Self ,c,1,11,21,91,,,,,1,0,1,0,,,,,5,2,62,0,,,,,,,,,,,,,,,,,,,,,1.741,1.987,590.9910387001,None,,,,,,,,,,,,,,,,,,,,591.521194400033,592.0237824001815,0.5032110798638314,1.0034348799381405,592.0070678000338,592.1072233000305,592.0070678000338,592.1072233000305,592.1072233000305,None,c,1,0.5981457999441773,592.1072233000305,None,,,,,,,p29b,2022-09-07_12h04.20.523,training+cueing,2022.1.3,59.83659825498851,
Friend.png,You,Friend,m,1.2,14,24,94,,,,,1,0,1,0,,,,,5,3,63,3,,,,,,,,,,,,,,,,,,,,,1.566,2.215,592.8259203000925,None,,,,,,,,,,,,,,,,,,,,593.3679446000606,593.8750110999681,0.5103309801779687,1.0108323802705854,593.8584519000724,593.9585310001858,593.8584519000724,593.9585310001858,593.9585310001858,None,m,1,0.7461397999431938,593.9585310001858,None,,,,,,,p29b,2022-09-07_12h04.20.523,training+cueing,2022.1.3,59.83659825498851,
Stranger.png,Friend,Stranger,m,2.3,17,27,97,,,,,1,0,1,0,,,,,5,4,64,7,,,,,,,,,,,,,,,,,,,,,1.619,1.498,594.8273494001478,None,,,,,,,,,,,,,,,,,,,,595.3734635000583,595.8765942000318,0.5040308800525963,1.004245180170983,595.8599078000989,595.9766105001327,595.8599078000989,595.9766105001327,595.9598819001112,None,m,1,0.6807969999499619,595.9598819001112,None,,,,,,,p29b,2022-09-07_12h04.20.523,training+cueing,2022.1.3,59.83659825498851,
Friend.png,Stranger,Friend,m,3.2,19,29,99,,,,,1,0,1,0,,,,,5,5,65,5,,,,,,,,,,,,,,,,,,,,,1.559,1.327,596.7622150001116,None,,,,,,,,,,,,,,,,,,,,597.3083542000968,597.8112567001954,0.5035775802098215,1.0038957800716162,597.7946062001865,597.9112911999691,597.7946062001865,597.9112911999691,597.8945564001333,None,m,1,0.7941103000193834,597.8945564001333,None,,,,,,,p29b,2022-09-07_12h04.20.523,training+cueing,2022.1.3,59.83659825498851,
Stranger.png,You,Stranger,m,1.3,15,25,95,,,,,1,0,1,0,,,,,5,6,66,6,,,,,,,,,,,,,,,,,,,,,1.672,1.313,598.8180913999677,None,,,,,,,,,,,,,,,,,,,,599.3586667000782,599.8627734000329,0.5044522800017148,1.0047654800582677,599.8461025999859,599.9461635001935,599.8461025999859,599.9461635001935,599.9461635001935,None,m,1,0.7102122998330742,599.9461635001935,None,,,,,,,p29b,2022-09-07_12h04.20.523,training+cueing,2022.1.3,59.83659825498851,
Stranger.png,Stranger,Stranger,c,3,13,23,93,,,,,1,0,1,0,,,,,5,7,67,8,,,,,,,,,,,,,,,,,,,,,1.467,1.741,600.7821392000187,None,,,,,,,,,,,,,,,,,,,,601.3284728999715,601.8311530000065,0.502984480233863,1.0030787801370025,601.8143772999756,601.9310668001417,601.8143772999756,601.9310668001417,601.9143992001191,None,c,1,0.7259839000180364,601.9143992001191,None,,,,,,,p29b,2022-09-07_12h04.20.523,training+cueing,2022.1.3,59.83659825498851,
Self.png,Stranger,Self ,m,3.1,18,28,98,,,,,1,0,1,0,,,,,5,8,68,2,,,,,,,,,,,,,,,,,,,,,1.541,2.225,602.7666266001761,None,,,,,,,,,,,,,,,,,,,,603.3078042999841,603.8156999000348,0.5105094800237566,1.0109698800370097,603.7989721000195,603.9156816999894,603.7989721000195,603.9156816999894,603.8989575000014,None,m,1,0.5650795998517424,603.8989575000014,None,,,,,,,p29b,2022-09-07_12h04.20.523,training+cueing,2022.1.3,59.83659825498851,
Friend.png,Friend,Friend,c,2,12,22,92,,,,,1,0,1,0,,,,,5,9,69,4,,,,,,,,,,,,,,,,,,,,,1.577,1.201,604.5858581999782,None,,,,,,,,,,,,,,,,,,,,605.1306192001794,605.6336100001354,0.503724180161953,1.0040993802249432,605.616925300099,605.7337983001489,605.616925300099,605.7337983001489,605.7168904000428,None,c,1,0.4916927998419851,605.7168904000428,None,,,,,,,p29b,2022-09-07_12h04.20.523,training+cueing,2022.1.3,59.83659825498851,
Self.png,Friend,Self ,m,2.1,16,26,96,,,,,1,0,1,0,,,,,5,10,70,1,,,,,,,,,,,,,,,,,,,,,1.601,1.85,606.3357156000566,None,,,,,,,,,,,,,,,,,,,,606.8784867001232,607.3849399001338,0.5104059800505638,1.010742480168119,607.3681634999812,607.4849378999788,607.3681634999812,607.4849378999788,607.4682240001857,None,m,1,0.6600780996959656,607.4682240001857,None,,,,,,,p29b,2022-09-07_12h04.20.523,training+cueing,2022.1.3,59.83659825498851,
Self.png,You,Self ,c,1,11,21,91,,,,,1,0,1,0,,,,,5,11,71,9,,,,,,,,,,,,,,,,,,,,,1.523,2.462,608.254001900088,None,,,,,,,,,,,,,,,,,,,,608.8067565001547,609.3196986000985,0.5051357802003622,1.0055760801769793,609.3030412001535,609.4032331001945,609.3030412001535,609.4032331001945,609.4032331001945,None,m,0,0.597546000033617,609.4032331001945,None,,,,,,,p29b,2022-09-07_12h04.20.523,training+cueing,2022.1.3,59.83659825498851,
Self.png,You,Self ,c,1,11,21,91,,,,,1,0,1,0,,,,,6,0,72,0,,,,,,,,,,,,,,,,,,,,,1.693,1.354,610.1236430001445,None,,,,,,,,,,,,,,,,,,,,610.6645122000482,611.1710477999877,0.510568980127573,1.010806079953909,611.1543176001869,611.2542552000377,611.1543176001869,611.2542552000377,611.2542552000377,None,c,1,0.7937519997358322,611.2542552000377,None,,,,,,,p29b,2022-09-07_12h04.20.523,training+cueing,2022.1.3,59.83659825498851,
Friend.png,Friend,Friend,c,2,12,22,92,,,,,1,0,1,0,,,,,6,1,73,4,,,,,,,,,,,,,,,,,,,,,1.543,2.49,612.1738197000232,None,,,,,,,,,,,,,,,,,,,,612.7235024999827,613.2224022999872,0.5122304800897837,1.012653980171308,613.2224022999872,613.322552600177,613.2224022999872,613.322552600177,613.322552600177,None,c,1,1.1576920999214053,613.322552600177,None,,,,,,,p29b,2022-09-07_12h04.20.523,training+cueing,2022.1.3,59.83659825498851,
Stranger.png,You,Stranger,m,1.3,15,25,95,,,,,1,0,1,0,,,,,6,2,74,6,,,,,,,,,,,,,,,,,,,,,1.565,1.44,614.6085638999939,None,,,,,,,,,,,,,,,,,,,,615.1535469000228,615.6576221999712,0.5044113802723587,1.004689680179581,615.640878100181,615.7410236999858,615.640878100181,615.7410236999858,615.7410236999858,None,m,1,0.5322505999356508,615.7410236999858,None,,,,,,,p29b,2022-09-07_12h04.20.523,training+cueing,2022.1.3,59.83659825498851,
Stranger.png,Stranger,Stranger,c,3,13,23,93,,,,,1,0,1,0,,,,,6,3,75,11,,,,,,,,,,,,,,,,,,,,,1.477,1.994,616.3929535001516,None,,,,,,,,,,,,,,,,,,,,616.9395622999873,617.442236199975,0.503523780265823,1.003817180171609,617.4255892001092,617.5422478001565,617.4255892001092,617.5422478001565,617.5255067001563,None,c,1,0.6021199999377131,617.5255067001563,None,,,,,,,p29b,2022-09-07_12h04.20.523,training+cueing,2022.1.3,59.83659825498851,
Self.png,Friend,Self ,m,2.1,16,26,96,,,,,1,0,1,0,,,,,6,4,76,1,,,,,,,,,,,,,,,,,,,,,1.536,1.409,618.2610601000488,None,,,,,,,,,,,,,,,,,,,,618.805945900036,619.3102357999887,0.5042891802731901,1.0045071800705045,619.2935893000104,619.4102300000377,619.2935893000104,619.4102300000377,619.3935649001505,None,m,1,0.511047599837184,619.3935649001505,None,,,,,,,p29b,2022-09-07_12h04.20.523,training+cueing,2022.1.3,59.83659825498851,
Friend.png,You,Friend,m,1.2,14,24,94,,,,,1,0,1,0,,,,,6,5,77,3,,,,,,,,,,,,,,,,,,,,,1.661,1.908,620.0289219000842,None,,,,,,,,,,,,,,,,,,,,620.5745912001003,621.0782141000964,0.5049145801458508,1.0051164801698178,621.06162030017,621.1615630001761,621.06162030017,621.1615630001761,621.1615630001761,None,m,1,0.7103386998642236,621.1615630001761,None,,,,,,,p29b,2022-09-07_12h04.20.523,training+cueing,2022.1.3,59.83659825498851,
Friend.png,Stranger,Friend,m,3.2,19,29,99,,,,,1,0,1,0,,,,,6,6,78,5,,,,,,,,,,,,,,,,,,,,,1.764,2.43,621.9971808001865,None,,,,,,,,,,,,,,,,,,,,622.5465263000224,623.0463243999984,0.5138631800655276,1.0140198799781501,623.0463243999984,623.1463430000003,623.0463243999984,623.1463430000003,623.1463430000003,None,c,0,0.870141499908641,623.1463430000003,None,,,,,,,p29b,2022-09-07_12h04.20.523,training+cueing,2022.1.3,59.83659825498851,
Stranger.png,Friend,Stranger,m,2.3,17,27,97,,,,,1,0,1,0,,,,,6,7,79,7,,,,,,,,,,,,,,,,,,,,,1.744,1.678,624.1491727000102,None,,,,,,,,,,,,,,,,,,,,624.6942404999863,625.1979030000512,0.5030771803576499,1.0033934803213924,625.1811911000405,625.2979850000702,625.1811911000405,625.2979850000702,625.2811394000892,None,m,1,0.7993044999893755,625.2811394000892,None,,,,,,,p29b,2022-09-07_12h04.20.523,training+cueing,2022.1.3,59.83659825498851,
Self.png,Stranger,Self ,m,3.1,18,28,98,,,,,1,0,1,0,,,,,6,8,80,2,,,,,,,,,,,,,,,,,,,,,1.526,1.678,626.2006497001275,None,,,,,,,,,,,,,,,,,,,,626.746521800058,627.2493337001652,0.5036574800033122,1.0039700800552964,627.2327120001428,627.3493405000772,627.2327120001428,627.3493405000772,627.3326413000468,None,m,1,0.699415999930352,627.3326413000468,None,,,,,,,p29b,2022-09-07_12h04.20.523,training+cueing,2022.1.3,59.83659825498851,
