Image,Name,Face,CorrAns,Match,Face_onset,CResponse_onset,IResponse_onset,Match.thisRepN,Match.thisTrialN,Match.thisN,Match.thisIndex,Blocks.thisRepN,Blocks.thisTrialN,Blocks.thisN,Blocks.thisIndex,trials.thisRepN,trials.thisTrialN,trials.thisN,trials.thisIndex,trials_2.thisRepN,trials_2.thisTrialN,trials_2.thisN,trials_2.thisIndex,text.started,text.stopped,p1.started,p1.stopped,MatchInstructions.started,MatchInstructions.stopped,Name1.started,Name1.stopped,Face_Relevance.started,Face_Relevance.stopped,MismatchInstructions.started,MismatchInstructions.stopped,Rest_trainingInstruct.started,Rest_trainingInstruct.stopped,next8.keys,next8.rt,next8.started,next8.stopped,Ready.started,Ready.stopped,delay_one_picked,delay_two_picked,blank0.started,blank0.stopped,FixationCross1.started,FixationCross1.stopped,Name3.started,Name3.stopped,Face_Relevance3.started,Face_Relevance3.stopped,responseTime.started,responseTime.stopped,resp.keys,resp.corr,resp.started,resp.stopped,Accuracy.started,Accuracy.stopped,resp.rt,questions.started,questions.stopped,p2.started,p2.stopped,FixationCross3.started,FixationCross3.stopped,port_Face_onset.started,port_Face_onset.stopped,Name4.started,Name4.stopped,Face_Relevance4.started,Face_Relevance4.stopped,responseTime2.started,responseTime2.stopped,Response.keys,Response.corr,Response.rt,Response.started,Response.stopped,p3.started,p3.stopped,Finish.started,Finish.stopped,gender,age,participant,date,expName,psychopyVersion,frameRate,
Stranger.png,Stranger,,,,,,,0,0,0,2,,,,,,,,,,,,,15.67899899999611,None,0.008537810062989593,0.5340336100198328,17.67417289991863,None,19.83925489988178,None,19.83925489988178,None,,,,,,,,,,,,,,,,,,,,,,,,,,,,,,,,,,,,,,,,,,,,,,,,,,,,,f,,p2,2022_Mar_10_1321,training+cueing,2021.1.4,59.95006153952082,
Friend.png,Friend,,,,,,,0,1,1,1,,,,,,,,,,,,,,,,,,,39.73086229991168,None,39.73086229991168,None,,,,,,,,,,,,,,,,,,,,,,,,,,,,,,,,,,,,,,,,,,,,,,,,,,,,,f,,p2,2022_Mar_10_1321,training+cueing,2021.1.4,59.95006153952082,
Self.png,You,,,,,,,0,2,2,0,,,,,,,,,,,,,,,,,,,59.73077389993705,None,59.73077389993705,None,,,,,,,,,,,,,,,,,,,,,,,,,,,,,,,,,,,,,,,,,,,,,,,,,,,,,f,,p2,2022_Mar_10_1321,training+cueing,2021.1.4,59.95006153952082,
Friend.png,Friend,Friend,c,2,12,22,92,,,,,0,0,0,0,0,0,0,4,,,,,,,,,,,,,,,79.6860289000906,None,108.90707729989663,None,space,9.698028800077736,2.0081209300551564,None,120.61556380009279,None,1.732,1.449,123.63154820003547,None,124.2607193000149,124.76850200002082,124.75185439991765,124.86856459989212,124.75185439991765,124.86856459989212,124.85188889992423,None,None,0,124.85188889992423,None,126.58521969988942,None,,,,,,,,,,,,,,,,,,,,,,,,,f,,p2,2022_Mar_10_1321,training+cueing,2021.1.4,59.95006153952082,
Stranger.png,Friend,Stranger,m,2.3,17,27,97,,,,,0,0,0,0,0,1,1,7,,,,,,,,,,,,,,,,,,,,,,,,,1.446,2.236,126.98677499988116,None,127.51628259988502,128.020833699964,128.0041783999186,128.12089490005746,128.0041783999186,128.12089490005746,128.10422559990548,None,None,0,128.10422559990548,None,129.55530410003848,None,,,,,,,,,,,,,,,,,,,,,,,,,f,,p2,2022_Mar_10_1321,training+cueing,2021.1.4,59.95006153952082,
Friend.png,Stranger,Friend,m,3.2,19,29,99,,,,,0,0,0,0,0,2,2,5,,,,,,,,,,,,,,,,,,,,,,,,,1.538,1.6,129.9555772000458,None,130.49254080001265,131.00635519996285,130.98969369987026,131.10638949996792,130.98969369987026,131.10638949996792,131.089709199965,None,None,0,131.089709199965,None,132.64087009988725,None,,,,,,,,,,,,,,,,,,,,,,,,,f,,p2,2022_Mar_10_1321,training+cueing,2021.1.4,59.95006153952082,
Stranger.png,Stranger,Stranger,c,3,13,23,93,,,,,0,0,0,0,0,3,3,8,,,,,,,,,,,,,,,,,,,,,,,,,1.715,1.466,133.0411358999554,None,133.5707835999783,134.0752075999044,134.05851490003988,134.1752430999186,134.05851490003988,134.1752430999186,134.15854729991406,None,None,0,134.15854729991406,None,135.87703289999627,None,,,,,,,,,,,,,,,,,,,,,,,,,f,,p2,2022_Mar_10_1321,training+cueing,2021.1.4,59.95006153952082,
Self.png,You,Self ,c,1,11,21,91,,,,,0,0,0,0,0,4,4,0,,,,,,,,,,,,,,,,,,,,,,,,,1.655,1.722,136.2768756998703,None,136.81540119997226,137.32755329995416,137.31089089997113,137.41095239995047,137.31089089997113,137.41095239995047,137.41095239995047,None,c,1,137.41095239995047,None,138.34324100008234,None,0.906821700045839,,,,,,,,,,,,,,,,,,,,,,,,f,,p2,2022_Mar_10_1321,training+cueing,2021.1.4,59.95006153952082,
Stranger.png,Stranger,Stranger,c,3,13,23,93,,,,,0,0,0,0,0,5,5,11,,,,,,,,,,,,,,,,,,,,,,,,,1.64,1.338,138.7453737000469,None,139.28918890003115,139.7959942999296,139.7793066999875,139.89602370001376,139.7793066999875,139.89602370001376,139.87936139991507,None,None,0,139.87936139991507,None,141.5292895999737,None,,,,,,,,,,,,,,,,,,,,,,,,,f,,p2,2022_Mar_10_1321,training+cueing,2021.1.4,59.95006153952082,
Friend.png,You,Friend,m,1.2,14,24,94,,,,,0,0,0,0,0,6,6,3,,,,,,,,,,,,,,,,,,,,,,,,,1.619,1.907,141.93087049992755,None,142.4666995999869,142.98164479993284,142.96492709987797,143.0649909998756,142.96492709987797,143.0649909998756,143.0649909998756,None,m,1,143.0649909998756,None,144.56494880001992,None,1.4768289001658559,,,,,,,,,,,,,,,,,,,,,,,,f,,p2,2022_Mar_10_1321,training+cueing,2021.1.4,59.95006153952082,
Self.png,Stranger,Self ,m,3.1,18,28,98,,,,,0,0,0,0,0,7,7,2,,,,,,,,,,,,,,,,,,,,,,,,,1.496,2.383,144.9664286999032,None,145.5006935999263,146.00045880000107,145.9837599999737,146.10053949989378,145.9837599999737,146.10053949989378,146.10053949989378,None,m,1,146.10053949989378,None,147.3014312000014,None,1.177230800036341,,,,,,,,,,,,,,,,,,,,,,,,f,,p2,2022_Mar_10_1321,training+cueing,2021.1.4,59.95006153952082,
Self.png,Friend,Self ,m,2.1,16,26,96,,,,,0,0,0,0,0,8,8,1,,,,,,,,,,,,,,,,,,,,,,,,,1.789,1.487,147.70169780007564,None,148.2335808998905,148.73577579995617,148.7191204999108,148.83581080008298,148.7191204999108,148.83581080008298,148.83581080008298,None,m,1,148.83581080008298,None,149.6531307999976,None,0.7939805998466909,,,,,,,,,,,,,,,,,,,,,,,,f,,p2,2022_Mar_10_1321,training+cueing,2021.1.4,59.95006153952082,
Stranger.png,You,Stranger,m,1.3,15,25,95,,,,,0,0,0,0,0,9,9,6,,,,,,,,,,,,,,,,,,,,,,,,,1.795,2.443,150.05341050005518,None,150.58602789998986,151.08742100000381,151.07084039994515,151.17085779993795,151.07084039994515,151.17085779993795,151.17085779993795,None,None,0,151.17085779993795,None,152.98894549999386,None,,,,,,,,,,,,,,,,,,,,,,,,,f,,p2,2022_Mar_10_1321,training+cueing,2021.1.4,59.95006153952082,
Self.png,You,Self ,c,1,11,21,91,,,,,0,0,0,0,0,10,10,9,,,,,,,,,,,,,,,,,,,,,,,,,1.449,1.226,153.3894223999232,None,153.93825099989772,154.43988249986432,154.4232010000851,154.5232607999351,154.4232010000851,154.5232607999351,154.5232607999351,None,c,1,154.5232607999351,None,155.8059535000939,None,1.2664781000930816,,,,,,,,,,,,,,,,,,,,,,,,f,,p2,2022_Mar_10_1321,training+cueing,2021.1.4,59.95006153952082,
Friend.png,Friend,Friend,c,2,12,22,92,,,,,0,0,0,0,0,11,11,10,,,,,,,,,,,,,,,,,,,,,,,,,1.589,2.114,156.20781440008432,None,156.73900950001553,157.24188650003634,157.22524060006253,157.34194030007347,157.22524060006253,157.34194030007347,157.3252941998653,None,c,1,157.3252941998653,None,158.65957530005835,None,1.3124626998323947,,,,,,,,,,,,,,,,,,,,,,,,f,,p2,2022_Mar_10_1321,training+cueing,2021.1.4,59.95006153952082,
Friend.png,Friend,Friend,c,2,12,22,92,,,,,0,0,0,0,,,,,0,0,0,4,,,,,,,,,,,,,,,,,,,183.16071289987303,None,1.594,1.971,186.68263479997404,None,,,,,,,,,,,,,,,,159.05989530007355,None,0.014391529839485884,None,187.28317640000023,187.79725320008583,0.5077339399140328,1.0080258399248123,187.78060490009375,187.89732869993895,187.78060490009375,187.89732869993895,187.88062279997393,None,c,1,1.5572184000629932,187.88062279997393,None,,,,,f,,p2,2022_Mar_10_1321,training+cueing,2021.1.4,59.95006153952082,
Stranger.png,Stranger,Stranger,c,3,13,23,93,,,,,0,0,0,0,,,,,0,1,1,8,,,,,,,,,,,,,,,,,,,,,1.764,2.447,189.57211209996603,None,,,,,,,,,,,,,,,,,,,,190.1124950000085,190.61596100009046,0.5073185900691897,1.0076851900666952,190.59929729998112,190.71601830003783,190.59929729998112,190.71601830003783,190.69936119997874,None,c,1,1.346344499848783,190.69936119997874,None,,,,,f,,p2,2022_Mar_10_1321,training+cueing,2021.1.4,59.95006153952082,
Stranger.png,You,Stranger,m,1.3,15,25,95,,,,,0,0,0,0,,,,,0,2,2,6,,,,,,,,,,,,,,,,,,,,,1.793,1.649,192.17248270008713,None,,,,,,,,,,,,,,,,,,,,192.7122812999878,193.2178368999157,0.5110052903182805,1.0112923902925104,193.20117440004833,193.3012409999501,193.20117440004833,193.3012409999501,193.3012409999501,None,m,1,0.824434099951759,193.3012409999501,None,,,,,f,,p2,2022_Mar_10_1321,training+cueing,2021.1.4,59.95006153952082,
Friend.png,Friend,Friend,c,2,12,22,92,,,,,0,0,0,0,,,,,0,3,3,10,,,,,,,,,,,,,,,,,,,,,1.538,1.815,194.2574600998778,None,,,,,,,,,,,,,,,,,,,,194.81108999997377,195.319334999891,0.5138199201319367,1.0141867201309651,195.30270699993707,195.41947140009142,195.30270699993707,195.41947140009142,195.40274289995432,None,c,1,1.2029810000676662,195.40274289995432,None,,,,,f,,p2,2022_Mar_10_1321,training+cueing,2021.1.4,59.95006153952082,
Stranger.png,Stranger,Stranger,c,3,13,23,93,,,,,0,0,0,0,,,,,0,4,4,11,,,,,,,,,,,,,,,,,,,,,1.55,1.981,196.7432069000788,None,,,,,,,,,,,,,,,,,,,,197.2846115999855,197.78781679994427,0.5065969901625067,1.0074324901215732,197.7711543000769,197.8878502000589,197.7711543000769,197.8878502000589,197.8711808999069,None,c,1,1.1665619001723826,197.8711808999069,None,,,,,f,,p2,2022_Mar_10_1321,training+cueing,2021.1.4,59.95006153952082,
Friend.png,Stranger,Friend,m,3.2,19,29,99,,,,,0,0,0,0,,,,,0,5,5,5,,,,,,,,,,,,,,,,,,,,,1.717,1.655,199.16122199990787,None,,,,,,,,,,,,,,,,,,,,199.70084549998865,200.20616129995324,0.5115817901678383,1.0118786902166903,200.18954210006632,200.30624830001034,200.18954210006632,200.30624830001034,200.28959719999693,None,m,1,1.1962890999857336,200.28959719999693,None,,,,,f,,p2,2022_Mar_10_1321,training+cueing,2021.1.4,59.95006153952082,
Friend.png,You,Friend,m,1.2,14,24,94,,,,,0,0,0,0,,,,,0,6,6,3,,,,,,,,,,,,,,,,,,,,,1.565,2.445,201.61477390001528,None,,,,,,,,,,,,,,,,,,,,202.15520479995757,202.6580165999476,0.503794590011239,1.0039039901457727,202.64146489999257,202.74136979994364,202.64146489999257,202.74136979994364,202.74136979994364,None,m,1,1.0162884998135269,202.74136979994364,None,,,,,f,,p2,2022_Mar_10_1321,training+cueing,2021.1.4,59.95006153952082,
Self.png,You,Self ,c,1,11,21,91,,,,,0,0,0,0,,,,,0,7,7,9,,,,,,,,,,,,,,,,,,,,,1.539,1.492,203.8816001000814,None,,,,,,,,,,,,,,,,,,,,204.420606700005,204.92629179987125,0.5120922902133316,1.0123875900171697,204.90962389996275,205.00969079998322,204.90962389996275,205.00969079998322,205.00969079998322,None,c,1,0.8759800000116229,205.00969079998322,None,,,,,f,,p2,2022_Mar_10_1321,training+cueing,2021.1.4,59.95006153952082,
Self.png,Friend,Self ,m,2.1,16,26,96,,,,,0,0,0,0,,,,,0,8,8,1,,,,,,,,,,,,,,,,,,,,,1.734,2.071,206.01686060009524,None,,,,,,,,,,,,,,,,,,,,206.5570348999463,207.06121749989688,0.506229389924556,1.0064985898789018,207.04450469999574,207.16122619993985,207.04450469999574,207.16122619993985,207.14454589993693,None,c,0,0.773294199956581,207.14454589993693,None,,,,,f,,p2,2022_Mar_10_1321,training+cueing,2021.1.4,59.95006153952082,
Self.png,You,Self ,c,1,11,21,91,,,,,0,0,0,0,,,,,0,9,9,0,,,,,,,,,,,,,,,,,,,,,1.636,1.597,208.05146760004573,None,,,,,,,,,,,,,,,,,,,,208.5904562000651,209.0959854000248,0.5100181901361793,1.0108679900877178,209.07926329993643,209.17930489988066,209.07926329993643,209.17930489988066,209.17930489988066,None,m,0,0.8825196998659521,209.17930489988066,None,,,,,f,,p2,2022_Mar_10_1321,training+cueing,2021.1.4,59.95006153952082,
Stranger.png,Friend,Stranger,m,2.3,17,27,97,,,,,0,0,0,0,,,,,0,10,10,7,,,,,,,,,,,,,,,,,,,,,1.691,1.333,210.19022900005803,None,,,,,,,,,,,,,,,,,,,,210.74604579992592,211.24750629998744,0.5033002200070769,1.0034527201205492,211.2309641998727,211.34759410005063,211.2309641998727,211.34759410005063,211.33090359997004,None,None,0,,211.33090359997004,None,,,,,f,,p2,2022_Mar_10_1321,training+cueing,2021.1.4,59.95006153952082,
Self.png,Stranger,Self ,m,3.1,18,28,98,,,,,0,0,0,0,,,,,0,11,11,2,,,,,,,,,,,,,,,,,,,,,1.463,2.066,213.13611519988626,None,,,,,,,,,,,,,,,,,,,,213.67947979993187,214.18295269994996,0.5043529900722206,1.0053947900887579,214.16633699997328,214.28300380008295,214.16633699997328,214.28300380008295,214.26634020009078,None,m,1,1.2354103999678046,214.26634020009078,None,,,,,f,,p2,2022_Mar_10_1321,training+cueing,2021.1.4,59.95006153952082,
Self.png,You,Self ,c,1,11,21,91,,,,,0,0,0,0,,,,,1,0,12,0,,,,,,,,,,,,,,,,,,,,,1.719,2.477,215.62498129997402,None,,,,,,,,,,,,,,,,,,,,216.16619689995423,216.6680680999998,0.5041369898244739,1.0045532898511738,216.65136900008656,216.75140740000643,216.65136900008656,216.75140740000643,216.75140740000643,None,c,1,1.118332700105384,216.75140740000643,None,,,,,f,,p2,2022_Mar_10_1321,training+cueing,2021.1.4,59.95006153952082,
Friend.png,Stranger,Friend,m,3.2,19,29,99,,,,,0,0,0,0,,,,,1,1,13,5,,,,,,,,,,,,,,,,,,,,,1.477,1.946,217.99185510003008,None,,,,,,,,,,,,,,,,,,,,218.53442849987186,219.03649710002355,0.5052573899738491,1.005419789813459,219.01986039988697,219.13652119995095,219.01986039988697,219.13652119995095,219.119829100091,None,None,0,,219.119829100091,None,,,,,f,,p2,2022_Mar_10_1321,training+cueing,2021.1.4,59.95006153952082,
Stranger.png,Stranger,Stranger,c,3,13,23,93,,,,,0,0,0,0,,,,,1,2,14,11,,,,,,,,,,,,,,,,,,,,,1.487,1.291,220.70788079989143,None,,,,,,,,,,,,,,,,,,,,221.24877789989114,221.75506319990382,0.5106980900745839,1.0109926899895072,221.7384287000168,221.8551459000446,221.7384287000168,221.8551459000446,221.83847180008888,None,m,0,1.3432340000290424,221.83847180008888,None,,,,,f,,p2,2022_Mar_10_1321,training+cueing,2021.1.4,59.95006153952082,
Stranger.png,You,Stranger,m,1.3,15,25,95,,,,,0,0,0,0,,,,,1,3,15,6,,,,,,,,,,,,,,,,,,,,,1.637,1.719,223.31231860001571,None,,,,,,,,,,,,,,,,,,,,223.85356849990785,224.35699440003373,0.5065812901593745,1.0066058901138604,224.3404824999161,224.4403303998988,224.3404824999161,224.4403303998988,224.4403303998988,None,m,1,1.3493010001257062,224.4403303998988,None,,,,,f,,p2,2022_Mar_10_1321,training+cueing,2021.1.4,59.95006153952082,
Stranger.png,Stranger,Stranger,c,3,13,23,93,,,,,0,0,0,0,,,,,1,4,16,8,,,,,,,,,,,,,,,,,,,,,1.657,2.069,225.91490059997886,None,,,,,,,,,,,,,,,,,,,,226.46175669995137,226.97556099994108,0.5141659900546074,1.0144650901202112,226.95883619994856,227.07559900009073,226.95883619994856,227.07559900009073,227.05886729992926,None,None,0,,227.05886729992926,None,,,,,f,,p2,2022_Mar_10_1321,training+cueing,2021.1.4,59.95006153952082,
Friend.png,Friend,Friend,c,2,12,22,92,,,,,0,0,0,0,,,,,1,5,17,4,,,,,,,,,,,,,,,,,,,,,1.628,2.31,228.83139190007932,None,,,,,,,,,,,,,,,,,,,,229.37445889995433,229.8776165000163,0.5063829901628196,1.0066205903422087,229.86097280005924,229.9776743000839,229.86097280005924,229.9776743000839,229.9609894999303,None,c,1,1.2686143999453634,229.9609894999303,None,,,,,f,,p2,2022_Mar_10_1321,training+cueing,2021.1.4,59.95006153952082,
Self.png,You,Self ,c,1,11,21,91,,,,,0,0,0,0,,,,,1,6,18,9,,,,,,,,,,,,,,,,,,,,,1.641,1.586,231.35180559987202,None,,,,,,,,,,,,,,,,,,,,231.8930098998826,232.39608079986647,0.5062837903387845,1.006579990265891,232.379442299949,232.47948729991913,232.379442299949,232.47948729991913,232.47948729991913,None,c,1,0.6223058998584747,232.47948729991913,None,,,,,f,,p2,2022_Mar_10_1321,training+cueing,2021.1.4,59.95006153952082,
Friend.png,Friend,Friend,c,2,12,22,92,,,,,0,0,0,0,,,,,1,7,19,10,,,,,,,,,,,,,,,,,,,,,1.446,1.394,233.23600080003962,None,,,,,,,,,,,,,,,,,,,,233.77665019989945,234.28082039998844,0.5059761903248727,1.0063541901763529,234.26413800008595,234.38084460003302,234.26413800008595,234.38084460003302,234.36429679999128,None,c,1,0.9453700999729335,234.36429679999128,None,,,,,f,,p2,2022_Mar_10_1321,training+cueing,2021.1.4,59.95006153952082,
Friend.png,You,Friend,m,1.2,14,24,94,,,,,0,0,0,0,,,,,1,8,20,3,,,,,,,,,,,,,,,,,,,,,1.781,2.219,235.43782539991662,None,,,,,,,,,,,,,,,,,,,,235.97924720006995,236.4824383999221,0.5066317904274911,1.006696890341118,236.4658862000797,236.56574920006096,236.4658862000797,236.56574920006096,236.56574920006096,None,m,1,1.6559099000878632,236.56574920006096,None,,,,,f,,p2,2022_Mar_10_1321,training+cueing,2021.1.4,59.95006153952082,
Stranger.png,Friend,Stranger,m,2.3,17,27,97,,,,,0,0,0,0,,,,,1,9,21,7,,,,,,,,,,,,,,,,,,,,,1.604,2.076,238.3581509999931,None,,,,,,,,,,,,,,,,,,,,238.9000587000046,239.40114620001987,0.502324289875105,1.0025596900377423,239.38449879991822,239.50121310004033,239.38449879991822,239.50121310004033,239.4844903999474,None,None,0,,239.4844903999474,None,,,,,f,,p2,2022_Mar_10_1321,training+cueing,2021.1.4,59.95006153952082,
Self.png,Stranger,Self ,m,3.1,18,28,98,,,,,0,0,0,0,,,,,1,10,22,2,,,,,,,,,,,,,,,,,,,,,1.467,2.4,241.2067666000221,None,,,,,,,,,,,,,,,,,,,,241.7500616000034,242.2531951998826,0.5043374900706112,1.004602889996022,242.2365663999226,242.3532426999882,242.2365663999226,242.3532426999882,242.33658810006455,None,None,0,,242.33658810006455,None,,,,,f,,p2,2022_Mar_10_1321,training+cueing,2021.1.4,59.95006153952082,
Self.png,Friend,Self ,m,2.1,16,26,96,,,,,0,0,0,0,,,,,1,11,23,1,,,,,,,,,,,,,,,,,,,,,1.633,1.519,243.90856790007092,None,,,,,,,,,,,,,,,,,,,,244.45217760000378,244.9551872999873,0.5057487902231514,1.0060868901200593,244.93847339996137,245.05523559986614,244.93847339996137,245.05523559986614,245.03853529994376,None,None,0,,245.03853529994376,None,,,,,f,,p2,2022_Mar_10_1321,training+cueing,2021.1.4,59.95006153952082,
Stranger.png,Stranger,Stranger,c,3,13,23,93,,,,,0,0,0,0,,,,,2,0,24,8,,,,,,,,,,,,,,,,,,,,,1.419,1.763,246.7769307999406,None,,,,,,,,,,,,,,,,,,,,247.32088209991343,247.82393600000069,0.5042500901035964,1.0045344901736826,247.80722779990174,247.92402929998934,247.80722779990174,247.92402929998934,247.90726100001484,None,c,1,1.3862523999996483,247.90726100001484,None,,,,,f,,p2,2022_Mar_10_1321,training+cueing,2021.1.4,59.95006153952082,
Friend.png,You,Friend,m,1.2,14,24,94,,,,,0,0,0,0,,,,,2,1,25,3,,,,,,,,,,,,,,,,,,,,,1.494,1.552,249.41511199995875,None,,,,,,,,,,,,,,,,,,,,249.956082199933,250.4592641000636,0.5064004899468273,1.0066967899911106,250.4424886999186,250.54251519986428,250.4424886999186,250.54251519986428,250.54251519986428,None,m,1,1.0234662001021206,250.54251519986428,None,,,,,f,,p2,2022_Mar_10_1321,training+cueing,2021.1.4,59.95006153952082,
Friend.png,Friend,Friend,c,2,12,22,92,,,,,0,0,0,0,,,,,2,2,26,4,,,,,,,,,,,,,,,,,,,,,1.571,1.357,251.69890429987572,None,,,,,,,,,,,,,,,,,,,,252.25632550008595,252.7608201999683,0.5104434201493859,1.0107248201966286,252.74411619990133,252.8608633999247,252.74411619990133,252.8608633999247,252.84416049998254,None,None,0,,252.84416049998254,None,,,,,f,,p2,2022_Mar_10_1321,training+cueing,2021.1.4,59.95006153952082,
Self.png,Stranger,Self ,m,3.1,18,28,98,,,,,0,0,0,0,,,,,2,3,27,2,,,,,,,,,,,,,,,,,,,,,1.772,1.872,254.5327580999583,None,,,,,,,,,,,,,,,,,,,,255.08715229993686,255.59615599992685,0.5013751902151853,1.0016667901072651,255.57952359993942,255.69619930000044,255.57952359993942,255.69619930000044,255.69619930000044,None,m,1,0.7973953001201153,255.69619930000044,None,,,,,f,,p2,2022_Mar_10_1321,training+cueing,2021.1.4,59.95006153952082,
Self.png,You,Self ,c,1,11,21,91,,,,,0,0,0,0,,,,,2,4,28,0,,,,,,,,,,,,,,,,,,,,,1.647,2.484,256.619286299916,None,,,,,,,,,,,,,,,,,,,,257.1608082000166,257.66435569990426,0.5071692899800837,1.00749169010669,257.64771530008875,257.7477394999005,257.64771530008875,257.7477394999005,257.7477394999005,None,c,1,0.825894300127402,257.7477394999005,None,,,,,f,,p2,2022_Mar_10_1321,training+cueing,2021.1.4,59.95006153952082,
Stranger.png,Friend,Stranger,m,2.3,17,27,97,,,,,0,0,0,0,,,,,2,5,29,7,,,,,,,,,,,,,,,,,,,,,1.467,1.584,258.70461379992776,None,,,,,,,,,,,,,,,,,,,,259.2459644000046,259.7491778000258,0.5073195900768042,1.0082399901002645,259.73246890003793,259.84921570005827,259.73246890003793,259.84921570005827,259.8325096000917,None,c,0,1.349091999931261,259.8325096000917,None,,,,,f,,p2,2022_Mar_10_1321,training+cueing,2021.1.4,59.95006153952082,
Stranger.png,You,Stranger,m,1.3,15,25,95,,,,,0,0,0,0,,,,,2,6,30,6,,,,,,,,,,,,,,,,,,,,,1.53,1.698,261.30596469994634,None,,,,,,,,,,,,,,,,,,,,261.84504809998907,262.3510664999485,0.5092032898683101,1.0094976900145411,262.334371099947,262.43440989986993,262.334371099947,262.43440989986993,262.43440989986993,None,None,0,,262.43440989986993,None,,,,,f,,p2,2022_Mar_10_1321,training+cueing,2021.1.4,59.95006153952082,
Friend.png,Friend,Friend,c,2,12,22,92,,,,,0,0,0,0,,,,,2,7,31,10,,,,,,,,,,,,,,,,,,,,,1.571,1.402,264.0734133000951,None,,,,,,,,,,,,,,,,,,,,264.6164780999534,265.11970399995334,0.5060435901395977,1.0063682899344712,265.1029803000856,265.21977910003625,265.1029803000856,265.21977910003625,265.20302890008315,None,None,0,,265.20302890008315,None,,,,,f,,p2,2022_Mar_10_1321,training+cueing,2021.1.4,59.95006153952082,
Self.png,You,Self ,c,1,11,21,91,,,,,0,0,0,0,,,,,2,8,32,9,,,,,,,,,,,,,,,,,,,,,1.749,2.339,266.89193559996784,None,,,,,,,,,,,,,,,,,,,,267.4317697000224,267.9384641998913,0.5101174900773913,1.0104204900562763,267.92172949993983,268.021789399907,267.92172949993983,268.021789399907,268.021789399907,None,c,1,0.6638964999001473,268.021789399907,None,,,,,f,,p2,2022_Mar_10_1321,training+cueing,2021.1.4,59.95006153952082,
Friend.png,Stranger,Friend,m,3.2,19,29,99,,,,,0,0,0,0,,,,,2,9,33,5,,,,,,,,,,,,,,,,,,,,,1.742,2.124,268.8120383999776,None,,,,,,,,,,,,,,,,,,,,269.35392579995096,269.856496399967,0.5054897901136428,1.0063347900286317,269.83981440006755,269.95708570000716,269.83981440006755,269.95708570000716,269.9398852000013,None,None,0,,269.9398852000013,None,,,,,f,,p2,2022_Mar_10_1321,training+cueing,2021.1.4,59.95006153952082,
Stranger.png,Stranger,Stranger,c,3,13,23,93,,,,,0,0,0,0,,,,,2,10,34,11,,,,,,,,,,,,,,,,,,,,,1.541,1.846,271.79711030004546,None,,,,,,,,,,,,,,,,,,,,272.34604560001753,272.8586671000812,0.508393790340051,1.008701290236786,272.8419589998666,272.95869549992494,272.8419589998666,272.95869549992494,272.9419937999919,None,None,0,,272.9419937999919,None,,,,,f,,p2,2022_Mar_10_1321,training+cueing,2021.1.4,59.95006153952082,
Self.png,Friend,Self ,m,2.1,16,26,96,,,,,0,0,0,0,,,,,2,11,35,1,,,,,,,,,,,,,,,,,,,,,1.757,2.358,274.5972305999603,None,,,,,,,,,,,,,,,,,,,,275.13958070008084,275.64401079993695,0.5064181899651885,1.006493889959529,275.62747639999725,275.74403929989785,275.62747639999725,275.74403929989785,275.72736390004866,None,m,1,1.4541681001428515,275.72736390004866,None,,,,,f,,p2,2022_Mar_10_1321,training+cueing,2021.1.4,59.95006153952082,
Self.png,Stranger,Self ,m,3.1,18,28,98,,,,,0,0,0,0,,,,,3,0,36,2,,,,,,,,,,,,,,,,,,,,,1.742,2.428,277.31762879993767,None,,,,,,,,,,,,,,,,,,,,277.86095930007286,278.36258179997094,0.5045932901557535,1.00489879027009,278.34593479987234,278.4628419999499,278.34593479987234,278.4628419999499,278.44606240000576,None,m,1,1.359758600126952,278.44606240000576,None,,,,,f,,p2,2022_Mar_10_1321,training+cueing,2021.1.4,59.95006153952082,
Friend.png,You,Friend,m,1.2,14,24,94,,,,,0,0,0,0,,,,,3,1,37,3,,,,,,,,,,,,,,,,,,,,,1.504,1.699,279.94428210007027,None,,,,,,,,,,,,,,,,,,,,280.48983679991215,280.99787490000017,0.4993990201037377,0.9996433202177286,280.9645148999989,281.06453939992934,280.9645148999989,281.06453939992934,281.06453939992934,None,m,1,1.04498829995282,281.06453939992934,None,,,,,f,,p2,2022_Mar_10_1321,training+cueing,2021.1.4,59.95006153952082,
Friend.png,Friend,Friend,c,2,12,22,92,,,,,0,0,0,0,,,,,3,2,38,10,,,,,,,,,,,,,,,,,,,,,1.66,2.401,282.23746509989724,None,,,,,,,,,,,,,,,,,,,,282.7864739000797,283.2995033999905,0.5071420900058001,1.0075978899840266,283.2828120999038,283.39955169986933,283.2828120999038,283.39955169986933,283.3828475000337,None,c,1,1.3666672999970615,283.3828475000337,None,,,,,f,,p2,2022_Mar_10_1321,training+cueing,2021.1.4,59.95006153952082,
Stranger.png,Friend,Stranger,m,2.3,17,27,97,,,,,0,0,0,0,,,,,3,3,39,7,,,,,,,,,,,,,,,,,,,,,1.745,1.372,284.87291679996997,None,,,,,,,,,,,,,,,,,,,,285.4114703000523,285.91806719987653,0.5120622899848968,1.012350190198049,285.90136820008047,286.01811899989843,285.90136820008047,286.01811899989843,286.00144000002183,None,None,0,,286.00144000002183,None,,,,,f,,p2,2022_Mar_10_1321,training+cueing,2021.1.4,59.95006153952082,
Self.png,You,Self ,c,1,11,21,91,,,,,0,0,0,0,,,,,3,4,40,9,,,,,,,,,,,,,,,,,,,,,1.627,2.026,287.8583736999426,None,,,,,,,,,,,,,,,,,,,,288.39844019990414,288.90355929988436,0.5069711899850518,1.0072366900276393,288.8868706000503,288.9869031000417,288.8868706000503,288.9869031000417,288.9869031000417,None,c,1,0.5466438999865204,288.9869031000417,None,,,,,f,,p2,2022_Mar_10_1321,training+cueing,2021.1.4,59.95006153952082,
Stranger.png,You,Stranger,m,1.3,15,25,95,,,,,0,0,0,0,,,,,3,5,41,6,,,,,,,,,,,,,,,,,,,,,1.56,1.341,289.6600528000854,None,,,,,,,,,,,,,,,,,,,,290.19908199994825,290.7048223998863,0.5110867898911238,1.0116286899428815,290.6881260999944,290.7881932000164,290.6881260999944,290.7881932000164,290.7881932000164,None,m,1,1.4813761000987142,290.7881932000164,None,,,,,f,,p2,2022_Mar_10_1321,training+cueing,2021.1.4,59.95006153952082,
Self.png,Friend,Self ,m,2.1,16,26,96,,,,,0,0,0,0,,,,,3,6,42,1,,,,,,,,,,,,,,,,,,,,,1.402,1.485,292.3957795999013,None,,,,,,,,,,,,,,,,,,,,292.94829159998335,293.456814999925,0.5002110900823027,1.0005213900003582,293.4401604998857,293.5568573998753,293.4401604998857,293.5568573998753,293.5568573998753,None,m,1,1.0166104000527412,293.5568573998753,None,,,,,f,,p2,2022_Mar_10_1321,training+cueing,2021.1.4,59.95006153952082,
Stranger.png,Stranger,Stranger,c,3,13,23,93,,,,,0,0,0,0,,,,,3,7,43,11,,,,,,,,,,,,,,,,,,,,,1.615,2.187,294.69682290009223,None,,,,,,,,,,,,,,,,,,,,295.23765269992873,295.74181889998727,0.5051236902363598,1.0055469900835305,295.7251486000605,295.84189969999716,295.7251486000605,295.84189969999716,295.8251934000291,None,None,0,,295.8251934000291,None,,,,,f,,p2,2022_Mar_10_1321,training+cueing,2021.1.4,59.95006153952082,
Self.png,You,Self ,c,1,11,21,91,,,,,0,0,0,0,,,,,3,8,44,0,,,,,,,,,,,,,,,,,,,,,1.538,2.292,297.5478568999097,None,,,,,,,,,,,,,,,,,,,,298.0902712000534,298.5938714998774,0.5069182901643217,1.0072272901888937,298.5771595998667,298.67725449986756,298.5771595998667,298.67725449986756,298.67725449986756,None,c,1,0.9045088000129908,298.67725449986756,None,,,,,f,,p2,2022_Mar_10_1321,training+cueing,2021.1.4,59.95006153952082,
Friend.png,Stranger,Friend,m,3.2,19,29,99,,,,,0,0,0,0,,,,,3,9,45,5,,,,,,,,,,,,,,,,,,,,,1.727,1.978,299.7208964000456,None,,,,,,,,,,,,,,,,,,,,300.27420699992217,300.77877700002864,0.510158620076254,1.0104762201663107,300.76207980001345,300.8788288999349,300.76207980001345,300.8788288999349,300.8621181999333,None,m,1,1.551368199987337,300.8621181999333,None,,,,,f,,p2,2022_Mar_10_1321,training+cueing,2021.1.4,59.95006153952082,
Friend.png,Friend,Friend,c,2,12,22,92,,,,,0,0,0,0,,,,,3,10,46,4,,,,,,,,,,,,,,,,,,,,,1.673,1.206,302.53703449992463,None,,,,,,,,,,,,,,,,,,,,303.0763147000689,303.5808136998676,0.5068153901956975,1.0071223902050406,303.5641141999513,303.6808591999579,303.5641141999513,303.6808591999579,303.66417160001583,None,c,1,1.1495040000882,303.66417160001583,None,,,,,f,,p2,2022_Mar_10_1321,training+cueing,2021.1.4,59.95006153952082,
Stranger.png,Stranger,Stranger,c,3,13,23,93,,,,,0,0,0,0,,,,,3,11,47,8,,,,,,,,,,,,,,,,,,,,,1.639,2.227,304.94107849989086,None,,,,,,,,,,,,,,,,,,,,305.48085880000144,305.9825504999608,0.5046793899964541,1.0064199899788946,305.96582640009,306.08261510008015,305.96582640009,306.08261510008015,306.06588759995066,None,None,0,,306.06588759995066,None,,,,,f,,p2,2022_Mar_10_1321,training+cueing,2021.1.4,59.95006153952082,
Friend.png,Friend,Friend,c,2,12,22,92,,,,,0,0,0,0,,,,,4,0,48,4,,,,,,,,,,,,,,,,,,,,,1.514,1.429,307.8222552998923,None,,,,,,,,,,,,,,,,,,,,308.3628586998675,308.86794080003165,0.5079381901305169,1.0081831901334226,308.8512951999437,308.9679785000626,308.8512951999437,308.9679785000626,308.95131610007957,None,c,1,0.9982049998361617,308.95131610007957,None,,,,,f,,p2,2022_Mar_10_1321,training+cueing,2021.1.4,59.95006153952082,
Self.png,You,Self ,c,1,11,21,91,,,,,0,0,0,0,,,,,4,1,49,0,,,,,,,,,,,,,,,,,,,,,1.502,1.248,310.0747827999294,None,,,,,,,,,,,,,,,,,,,,310.6160826999694,311.11960799992085,0.5072523902636021,1.007534890435636,311.1029109999072,311.2029854999855,311.1029109999072,311.2029854999855,311.2029854999855,None,c,1,1.0825016000308096,311.2029854999855,None,,,,,f,,p2,2022_Mar_10_1321,training+cueing,2021.1.4,59.95006153952082,
Self.png,You,Self ,c,1,11,21,91,,,,,0,0,0,0,,,,,4,2,50,9,,,,,,,,,,,,,,,,,,,,,1.674,2.272,312.4100889998954,None,,,,,,,,,,,,,,,,,,,,312.9484437000938,313.4546032999642,0.511198990046978,1.011477790074423,313.43788410001434,313.53796119987965,313.43788410001434,313.53796119987965,313.53796119987965,None,c,1,0.6354815000668168,313.53796119987965,None,,,,,f,,p2,2022_Mar_10_1321,training+cueing,2021.1.4,59.95006153952082,
Stranger.png,Stranger,Stranger,c,3,13,23,93,,,,,0,0,0,0,,,,,4,3,51,8,,,,,,,,,,,,,,,,,,,,,1.717,1.535,314.3113347000908,None,,,,,,,,,,,,,,,,,,,,314.8524505998939,315.3559582999442,0.5053004899527878,1.005578390089795,315.339327899972,315.45602099993266,315.339327899972,315.45602099993266,315.43933909991756,None,c,1,1.3741244999691844,315.43933909991756,None,,,,,f,,p2,2022_Mar_10_1321,training+cueing,2021.1.4,59.95006153952082,
Friend.png,You,Friend,m,1.2,14,24,94,,,,,0,0,0,0,,,,,4,4,52,3,,,,,,,,,,,,,,,,,,,,,1.648,1.719,316.94690069998614,None,,,,,,,,,,,,,,,,,,,,317.48772739991546,317.9912596999202,0.5070894903037697,1.0075418902561069,317.97450629994273,318.0745808999054,317.97450629994273,318.0745808999054,318.0745808999054,None,m,1,1.0909386000130326,318.0745808999054,None,,,,,f,,p2,2022_Mar_10_1321,training+cueing,2021.1.4,59.95006153952082,
Stranger.png,Friend,Stranger,m,2.3,17,27,97,,,,,0,0,0,0,,,,,4,5,53,7,,,,,,,,,,,,,,,,,,,,,1.458,1.962,319.29765060008503,None,,,,,,,,,,,,,,,,,,,,319.83875359990634,320.3429026999511,0.5068693899083883,1.007130190031603,320.3262219000608,320.44296330004,320.3262219000608,320.44296330004,320.42624479997903,None,None,0,,320.42624479997903,None,,,,,f,,p2,2022_Mar_10_1321,training+cueing,2021.1.4,59.95006153952082,
Friend.png,Stranger,Friend,m,3.2,19,29,99,,,,,0,0,0,0,,,,,4,6,54,5,,,,,,,,,,,,,,,,,,,,,1.602,1.327,321.99843690008856,None,,,,,,,,,,,,,,,,,,,,322.5409641000442,323.0448306000326,0.5064000899437815,1.006731890141964,323.02812710008584,323.1448902999982,323.02812710008584,323.1448902999982,323.1282049000729,None,None,0,,323.1282049000729,None,,,,,f,,p2,2022_Mar_10_1321,training+cueing,2021.1.4,59.95006153952082,
Friend.png,Friend,Friend,c,2,12,22,92,,,,,0,0,0,0,,,,,4,7,55,10,,,,,,,,,,,,,,,,,,,,,1.403,2.317,324.8366264998913,None,,,,,,,,,,,,,,,,,,,,325.37801659991965,325.88021810003556,0.5036556900013238,1.0042320901993662,325.8635728000663,325.9803402000107,325.8635728000663,325.9803402000107,325.96359289996326,None,c,1,1.1699304999783635,325.96359289996326,None,,,,,f,,p2,2022_Mar_10_1321,training+cueing,2021.1.4,59.95006153952082,
Self.png,Friend,Self ,m,2.1,16,26,96,,,,,0,0,0,0,,,,,4,8,56,1,,,,,,,,,,,,,,,,,,,,,1.419,2.081,327.2707360999193,None,,,,,,,,,,,,,,,,,,,,327.80922799999826,328.31532879988663,0.5094292899593711,1.0097920899279416,328.29858529986814,328.41537020006217,328.29858529986814,328.41537020006217,328.3986495998688,None,m,1,1.294816399924457,328.3986495998688,None,,,,,f,,p2,2022_Mar_10_1321,training+cueing,2021.1.4,59.95006153952082,
Stranger.png,Stranger,Stranger,c,3,13,23,93,,,,,0,0,0,0,,,,,4,9,57,11,,,,,,,,,,,,,,,,,,,,,1.739,2.439,329.8219659999013,None,,,,,,,,,,,,,,,,,,,,330.37708229990676,330.88389609986916,0.5132585200481117,1.0135371200740337,330.8671595000196,330.983892200049,330.8671595000196,330.983892200049,330.96720189996995,None,None,0,,330.96720189996995,None,,,,,f,,p2,2022_Mar_10_1321,training+cueing,2021.1.4,59.95006153952082,
Stranger.png,You,Stranger,m,1.3,15,25,95,,,,,0,0,0,0,,,,,4,10,58,6,,,,,,,,,,,,,,,,,,,,,1.539,2.204,332.8226530998945,None,,,,,,,,,,,,,,,,,,,,333.3653581000399,333.869325599866,0.508559190435335,1.008771590422839,333.8526782998815,333.95270520006306,333.8526782998815,333.95270520006306,333.95270520006306,None,None,0,,333.95270520006306,None,,,,,f,,p2,2022_Mar_10_1321,training+cueing,2021.1.4,59.95006153952082,
Self.png,Stranger,Self ,m,3.1,18,28,98,,,,,0,0,0,0,,,,,4,11,59,2,,,,,,,,,,,,,,,,,,,,,1.618,2.175,335.6079849000089,None,,,,,,,,,,,,,,,,,,,,336.1512978998944,336.6546871000901,0.5050356900319457,1.0052237901836634,336.63803369994275,336.7547283999156,336.63803369994275,336.7547283999156,336.73802500008605,None,m,1,1.403510200092569,336.73802500008605,None,,,,,f,,p2,2022_Mar_10_1321,training+cueing,2021.1.4,59.95006153952082,
Friend.png,Friend,Friend,c,2,12,22,92,,,,,0,0,0,0,,,,,5,0,60,4,,,,,,,,,,,,,,,,,,,,,1.512,1.737,338.27884649997577,None,,,,,,,,,,,,,,,,,,,,338.819829700049,339.32328590005636,0.5064727901481092,1.0068154900800437,339.30660200002603,339.4234360998962,339.30660200002603,339.4234360998962,339.4067315000575,None,c,1,1.4547164000105113,339.4067315000575,None,,,,,f,,p2,2022_Mar_10_1321,training+cueing,2021.1.4,59.95006153952082,
Stranger.png,You,Stranger,m,1.3,15,25,95,,,,,0,0,0,0,,,,,5,1,61,6,,,,,,,,,,,,,,,,,,,,,1.536,2.207,340.9969865998719,None,,,,,,,,,,,,,,,,,,,,341.54854339989834,342.0587672998663,0.5031474900897592,1.003354090033099,342.0420881998725,342.14211230003275,342.0420881998725,342.14211230003275,342.14211230003275,None,None,0,,342.14211230003275,None,,,,,f,,p2,2022_Mar_10_1321,training+cueing,2021.1.4,59.95006153952082,
Self.png,Stranger,Self ,m,3.1,18,28,98,,,,,0,0,0,0,,,,,5,2,62,2,,,,,,,,,,,,,,,,,,,,,1.792,2.196,343.7968800999224,None,,,,,,,,,,,,,,,,,,,,344.34055299987085,344.8439265000634,0.504996889969334,1.0052760897669941,344.82725950004533,344.9439662999939,344.82725950004533,344.9439662999939,344.92730990005657,None,None,0,,344.92730990005657,None,,,,,f,,p2,2022_Mar_10_1321,training+cueing,2021.1.4,59.95006153952082,
Stranger.png,Stranger,Stranger,c,3,13,23,93,,,,,0,0,0,0,,,,,5,3,63,8,,,,,,,,,,,,,,,,,,,,,1.795,2.073,346.8329976000823,None,,,,,,,,,,,,,,,,,,,,347.37255249987356,347.8794976999052,0.5142909900750965,1.0145696902181953,347.86278830002993,347.979496399872,347.86278830002993,347.979496399872,347.9628025998827,None,None,0,,347.9628025998827,None,,,,,f,,p2,2022_Mar_10_1321,training+cueing,2021.1.4,59.95006153952082,
Self.png,Friend,Self ,m,2.1,16,26,96,,,,,0,0,0,0,,,,,5,4,64,1,,,,,,,,,,,,,,,,,,,,,1.784,2.234,349.86782769998536,None,,,,,,,,,,,,,,,,,,,,350.41649929992855,350.93160889996216,0.5067668899428099,1.0070327897556126,350.89832199993543,350.9983576000668,350.89832199993543,350.9983576000668,350.9983576000668,None,m,1,1.4790936999488622,350.9983576000668,None,,,,,f,,p2,2022_Mar_10_1321,training+cueing,2021.1.4,59.95006153952082,
Self.png,You,Self ,c,1,11,21,91,,,,,0,0,0,0,,,,,5,5,65,0,,,,,,,,,,,,,,,,,,,,,1.627,2.347,352.6056786000263,None,,,,,,,,,,,,,,,,,,,,353.1453148999717,353.6502960999496,0.5088156899437308,1.0091778901405632,353.6335753998719,353.7336774999276,353.6335753998719,353.7336774999276,353.7336774999276,None,c,1,0.6797719998285174,353.7336774999276,None,,,,,f,,p2,2022_Mar_10_1321,training+cueing,2021.1.4,59.95006153952082,
Friend.png,Stranger,Friend,m,3.2,19,29,99,,,,,0,0,0,0,,,,,5,6,66,5,,,,,,,,,,,,,,,,,,,,,1.626,2.16,354.54579990007915,None,,,,,,,,,,,,,,,,,,,,355.08434309996665,355.58501879987307,0.5016476900782436,1.0019489899277687,355.56834920006804,355.6850536998827,355.56834920006804,355.6850536998827,355.6850536998827,None,None,0,,355.6850536998827,None,,,,,f,,p2,2022_Mar_10_1321,training+cueing,2021.1.4,59.95006153952082,
Stranger.png,Stranger,Stranger,c,3,13,23,93,,,,,0,0,0,0,,,,,5,7,67,11,,,,,,,,,,,,,,,,,,,,,1.671,2.05,357.42447840003297,None,,,,,,,,,,,,,,,,,,,,357.9637553000357,358.4706218999345,0.511018390301615,1.0111777901183814,358.45383429992944,358.57051680004224,358.45383429992944,358.57051680004224,358.55380690004677,None,c,1,1.6036014000419527,358.55380690004677,None,,,,,f,,p2,2022_Mar_10_1321,training+cueing,2021.1.4,59.95006153952082,
Stranger.png,Friend,Stranger,m,2.3,17,27,97,,,,,0,0,0,0,,,,,5,8,68,7,,,,,,,,,,,,,,,,,,,,,1.442,1.943,360.2946152999066,None,,,,,,,,,,,,,,,,,,,,360.83562620007433,361.33916840003803,0.5060243899933994,1.0063187899067998,361.32250789995305,361.43922739988193,361.32250789995305,361.43922739988193,361.42255140002817,None,None,0,,361.42255140002817,None,,,,,f,,p2,2022_Mar_10_1321,training+cueing,2021.1.4,59.95006153952082,
Self.png,You,Self ,c,1,11,21,91,,,,,0,0,0,0,,,,,5,9,69,9,,,,,,,,,,,,,,,,,,,,,1.634,2.329,362.9777901999187,None,,,,,,,,,,,,,,,,,,,,363.52067209989764,364.0244462999981,0.5070113898254931,1.0073380898684263,364.0077497998718,364.10780210001394,364.0077497998718,364.10780210001394,364.10780210001394,None,c,1,0.6256399999838322,364.10780210001394,None,,,,,f,,p2,2022_Mar_10_1321,training+cueing,2021.1.4,59.95006153952082,
Friend.png,Friend,Friend,c,2,12,22,92,,,,,0,0,0,0,,,,,5,10,70,10,,,,,,,,,,,,,,,,,,,,,1.661,2.335,364.86460219998844,None,,,,,,,,,,,,,,,,,,,,365.4186462999787,365.9257940000389,0.5119281199295074,1.0122002200223505,365.90914399991743,366.02587009989657,365.90914399991743,366.02587009989657,366.00917199999094,None,c,1,0.6282932998146862,366.00917199999094,None,,,,,f,,p2,2022_Mar_10_1321,training+cueing,2021.1.4,59.95006153952082,
Friend.png,You,Friend,m,1.2,14,24,94,,,,,0,0,0,0,,,,,5,11,71,3,,,,,,,,,,,,,,,,,,,,,1.703,1.407,366.7660121000372,None,,,,,,,,,,,,,,,,,,,,367.3066169999074,367.8105242000893,0.5068893900606781,1.0071611900348216,367.7938472998794,367.89390209992416,367.7938472998794,367.89390209992416,367.89390209992416,None,m,1,1.1275086000096053,367.89390209992416,None,,,,,f,,p2,2022_Mar_10_1321,training+cueing,2021.1.4,59.95006153952082,
Friend.png,You,Friend,m,1.2,14,24,94,,,,,0,0,0,0,,,,,6,0,72,3,,,,,,,,,,,,,,,,,,,,,1.517,1.7,369.1509479000233,None,,,,,,,,,,,,,,,,,,,,369.6883131999057,370.19551420002244,0.5109297900926322,1.0113271900918335,370.178845499875,370.27891770005226,370.178845499875,370.27891770005226,370.27891770005226,None,None,0,,370.27891770005226,None,,,,,f,,p2,2022_Mar_10_1321,training+cueing,2021.1.4,59.95006153952082,
Self.png,Stranger,Self ,m,3.1,18,28,98,,,,,0,0,0,0,,,,,6,1,73,2,,,,,,,,,,,,,,,,,,,,,1.606,1.959,371.9010683998931,None,,,,,,,,,,,,,,,,,,,,372.45335739990696,372.9642322000582,0.504096990218386,1.0043387901969254,372.9475714999717,373.06430209986866,372.9475714999717,373.06430209986866,373.04758009989746,None,m,1,1.2218905999325216,373.04758009989746,None,,,,,f,,p2,2022_Mar_10_1321,training+cueing,2021.1.4,59.95006153952082,
Stranger.png,Stranger,Stranger,c,3,13,23,93,,,,,0,0,0,0,,,,,6,2,74,11,,,,,,,,,,,,,,,,,,,,,1.519,1.217,374.4047580000479,None,,,,,,,,,,,,,,,,,,,,374.9567998999264,375.46605679998174,0.5009637903422117,1.0012043903116137,375.44938530004583,375.5660832999274,375.44938530004583,375.5660832999274,375.5660832999274,None,None,0,,375.5660832999274,None,,,,,f,,p2,2022_Mar_10_1321,training+cueing,2021.1.4,59.95006153952082,
Friend.png,Friend,Friend,c,2,12,22,92,,,,,0,0,0,0,,,,,6,3,75,4,,,,,,,,,,,,,,,,,,,,,1.784,1.515,377.204764300026,None,,,,,,,,,,,,,,,,,,,,377.7474225999322,378.2513989000581,0.5058339901734143,1.0060913902707398,378.23470779997297,378.3514550998807,378.23470779997297,378.3514550998807,378.3349144998938,None,c,1,1.0544767999090254,378.3349144998938,None,,,,,f,,p2,2022_Mar_10_1321,training+cueing,2021.1.4,59.95006153952082,
Stranger.png,Friend,Stranger,m,2.3,17,27,97,,,,,0,0,0,0,,,,,6,4,76,7,,,,,,,,,,,,,,,,,,,,,1.456,1.772,379.525158500066,None,,,,,,,,,,,,,,,,,,,,380.0635796999559,380.5697216000408,0.5119111898820847,1.0122269899584353,380.55303080007434,380.6697647999972,380.55303080007434,380.6697647999972,380.6530967000872,None,m,1,1.39233239996247,380.6530967000872,None,,,,,f,,p2,2022_Mar_10_1321,training+cueing,2021.1.4,59.95006153952082,
Friend.png,Friend,Friend,c,2,12,22,92,,,,,0,0,0,0,,,,,6,5,77,10,,,,,,,,,,,,,,,,,,,,,1.542,1.789,382.1764334999025,None,,,,,,,,,,,,,,,,,,,,382.7154763999861,383.22163669997826,0.5125064901076257,1.0133131900802255,383.204981100047,383.32167249987833,383.204981100047,383.32167249987833,383.3050023999531,None,m,0,1.252483599819243,383.3050023999531,None,,,,,f,,p2,2022_Mar_10_1321,training+cueing,2021.1.4,59.95006153952082,
Self.png,You,Self ,c,1,11,21,91,,,,,0,0,0,0,,,,,6,6,78,0,,,,,,,,,,,,,,,,,,,,,1.711,2.461,384.6797529999167,None,,,,,,,,,,,,,,,,,,,,385.2190773000475,385.72342350007966,0.5068848901428282,1.0071521901991218,385.7067913999781,385.80682779988274,385.7067913999781,385.80682779988274,385.80682779988274,None,c,1,0.574627700028941,385.80682779988274,None,,,,,f,,p2,2022_Mar_10_1321,training+cueing,2021.1.4,59.95006153952082,
Friend.png,Stranger,Friend,m,3.2,19,29,99,,,,,0,0,0,0,,,,,6,7,79,5,,,,,,,,,,,,,,,,,,,,,1.438,1.235,386.51387539994903,None,,,,,,,,,,,,,,,,,,,,387.05662419996224,387.55809820001014,0.5045079900883138,1.0049056899733841,387.5413822000846,387.65815169992857,387.5413822000846,387.65815169992857,387.641444100067,None,None,0,,387.641444100067,None,,,,,f,,p2,2022_Mar_10_1321,training+cueing,2021.1.4,59.95006153952082,
Stranger.png,Stranger,Stranger,c,3,13,23,93,,,,,0,0,0,0,,,,,6,8,80,8,,,,,,,,,,,,,,,,,,,,,1.676,2.367,389.19670449988917,None,,,,,,,,,,,,,,,,,,,,389.73816339997575,390.24339150008745,0.5082579900044948,1.0085633900016546,390.22667749994434,390.3434083000757,390.22667749994434,390.3434083000757,390.3267105000559,None,None,0,,390.3267105000559,None,,,,,f,,p2,2022_Mar_10_1321,training+cueing,2021.1.4,59.95006153952082,
Self.png,You,Self ,c,1,11,21,91,,,,,0,0,0,0,,,,,6,9,81,9,,,,,,,,,,,,,,,,,,,,,1.405,1.822,392.1158252998721,None,,,,,,,,,,,,,,,,,,,,392.66070050001144,393.1623088000342,0.5030631897971034,1.0033694899175316,393.1454560998827,393.24554489995353,393.1454560998827,393.24554489995353,393.24554489995353,None,c,1,0.5918798998463899,393.24554489995353,None,,,,,f,,p2,2022_Mar_10_1321,training+cueing,2021.1.4,59.95006153952082,
Self.png,Friend,Self ,m,2.1,16,26,96,,,,,0,0,0,0,,,,,6,10,82,1,,,,,,,,,,,,,,,,,,,,,1.642,1.765,393.96918040001765,None,,,,,,,,,,,,,,,,,,,,394.5098375000525,395.0134671998676,0.507467090152204,1.007737890118733,394.99681130005047,395.1135293999687,394.99681130005047,395.1135293999687,395.09685459989123,None,m,1,1.4285251998808235,395.09685459989123,None,,,,,f,,p2,2022_Mar_10_1321,training+cueing,2021.1.4,59.95006153952082,
Stranger.png,You,Stranger,m,1.3,15,25,95,,,,,0,0,0,0,,,,,6,11,83,6,,,,,,,,,,,,,,,,,,,,,1.741,1.677,396.6541544999927,None,,,,,,,,,,,,,,,,,,,,397.2037593999412,397.7154399000574,0.5052654899191111,1.0055489898659289,397.6987485999707,397.7988179998938,397.6987485999707,397.7988179998938,397.7988179998938,None,None,0,,397.7988179998938,None,,,,,f,,p2,2022_Mar_10_1321,training+cueing,2021.1.4,59.95006153952082,
Self.png,Stranger,Self ,m,3.1,18,28,98,,,,,0,0,0,0,,,,,7,0,84,2,,,,,,,,,,,,,,,,,,,,,1.425,1.914,399.6546590998769,None,,,,,,,,,,,,,,,,,,,,400.19747980008833,400.70088430005126,0.5055369902402163,1.0058351901825517,400.68425310007297,400.8009659999516,400.68425310007297,400.8009659999516,400.78429270000197,None,None,0,,400.78429270000197,None,,,,,f,,p2,2022_Mar_10_1321,training+cueing,2021.1.4,59.95006153952082,
Friend.png,Stranger,Friend,m,3.2,19,29,99,,,,,0,0,0,0,,,,,7,1,85,5,,,,,,,,,,,,,,,,,,,,,1.588,2.492,402.32225149986334,None,,,,,,,,,,,,,,,,,,,,402.871711099986,403.38620169996284,0.5122015899978578,1.0125525898765773,403.3694629999809,403.4862220999785,403.3694629999809,403.4862220999785,403.4695657999255,None,m,1,1.4238850001711398,403.4695657999255,None,,,,,f,,p2,2022_Mar_10_1321,training+cueing,2021.1.4,59.95006153952082,
Stranger.png,Stranger,Stranger,c,3,13,23,93,,,,,0,0,0,0,,,,,7,2,86,11,,,,,,,,,,,,,,,,,,,,,1.403,1.439,405.02762950002216,None,,,,,,,,,,,,,,,,,,,,405.57353729987517,406.08812749991193,0.5103771900758147,1.010659490013495,406.0714751998894,406.18818500009365,406.0714751998894,406.18818500009365,406.17151340004057,None,m,0,1.073803200153634,406.17151340004057,None,,,,,f,,p2,2022_Mar_10_1321,training+cueing,2021.1.4,59.95006153952082,
Self.png,You,Self ,c,1,11,21,91,,,,,0,0,0,0,,,,,7,3,87,0,,,,,,,,,,,,,,,,,,,,,1.73,2.252,407.3787767000031,None,,,,,,,,,,,,,,,,,,,,407.92013049987145,408.4232039998751,0.5065008900128305,1.0068105899263173,408.4064599000849,408.50668770004995,408.4064599000849,408.50668770004995,408.50668770004995,None,c,1,1.2026020002085716,408.50668770004995,None,,,,,f,,p2,2022_Mar_10_1321,training+cueing,2021.1.4,59.95006153952082,
Stranger.png,Friend,Stranger,m,2.3,17,27,97,,,,,0,0,0,0,,,,,7,4,88,7,,,,,,,,,,,,,,,,,,,,,1.59,2.125,409.8471703999676,None,,,,,,,,,,,,,,,,,,,,410.38723820005544,410.89161859988235,0.5054402898531407,1.0057801899965852,410.87490459997207,410.9916797000915,410.87490459997207,410.9916797000915,410.97498119995,None,m,1,1.5663737999275327,410.97498119995,None,,,,,f,,p2,2022_Mar_10_1321,training+cueing,2021.1.4,59.95006153952082,
Friend.png,You,Friend,m,1.2,14,24,94,,,,,0,0,0,0,,,,,7,5,89,3,,,,,,,,,,,,,,,,,,,,,1.49,2.268,412.66579089988954,None,,,,,,,,,,,,,,,,,,,,413.2062718998641,413.71031280001625,0.5066958901006728,1.0070042901206762,413.69366039987653,413.7937443999108,413.69366039987653,413.7937443999108,413.7937443999108,None,m,1,0.9876272000838071,413.7937443999108,None,,,,,f,,p2,2022_Mar_10_1321,training+cueing,2021.1.4,59.95006153952082,
Stranger.png,You,Stranger,m,1.3,15,25,95,,,,,0,0,0,0,,,,,7,6,90,6,,,,,,,,,,,,,,,,,,,,,1.702,1.519,414.91673579998314,None,,,,,,,,,,,,,,,,,,,,415.4568099998869,415.9621663999278,0.5109209902584553,1.0109691901598126,415.9454935998656,416.04531860002317,415.9454935998656,416.04531860002317,416.04531860002317,None,None,0,,416.04531860002317,None,,,,,f,,p2,2022_Mar_10_1321,training+cueing,2021.1.4,59.95006153952082,
Self.png,You,Self ,c,1,11,21,91,,,,,0,0,0,0,,,,,7,7,91,9,,,,,,,,,,,,,,,,,,,,,1.752,1.874,417.8498132999521,None,,,,,,,,,,,,,,,,,,,,418.39081120002083,418.89746250002645,0.5103350901044905,1.0106567901093513,418.8807001998648,418.9807812999934,418.8807001998648,418.9807812999934,418.9807812999934,None,c,1,0.6165420999750495,418.9807812999934,None,,,,,f,,p2,2022_Mar_10_1321,training+cueing,2021.1.4,59.95006153952082,
Friend.png,Friend,Friend,c,2,12,22,92,,,,,0,0,0,0,,,,,7,8,92,10,,,,,,,,,,,,,,,,,,,,,1.669,1.331,419.72062609996647,None,,,,,,,,,,,,,,,,,,,,420.26370609994046,420.7654257998802,0.5054158901330084,1.0056573902256787,420.7487482998986,420.8654809000436,420.7487482998986,420.8654809000436,420.8487760000862,None,None,0,,420.8487760000862,None,,,,,f,,p2,2022_Mar_10_1321,training+cueing,2021.1.4,59.95006153952082,
Self.png,Friend,Self ,m,2.1,16,26,96,,,,,0,0,0,0,,,,,7,9,93,1,,,,,,,,,,,,,,,,,,,,,1.761,1.88,422.6378238000907,None,,,,,,,,,,,,,,,,,,,,423.1785903999116,423.68418009998277,0.5106753900181502,1.0109838901553303,423.6675241999328,423.7842226999346,423.6675241999328,423.7842226999346,423.76755809993483,None,m,1,1.1737893999088556,423.76755809993483,None,,,,,f,,p2,2022_Mar_10_1321,training+cueing,2021.1.4,59.95006153952082,
Friend.png,Friend,Friend,c,2,12,22,92,,,,,0,0,0,0,,,,,7,10,94,4,,,,,,,,,,,,,,,,,,,,,1.624,1.506,425.07502610003576,None,,,,,,,,,,,,,,,,,,,,425.6127976998687,426.11927859997377,0.5101999901235104,1.0105113901663572,426.1025918999221,426.2193950000219,426.1025918999221,426.2193950000219,426.2026531000156,None,c,1,1.1867376000154763,426.2026531000156,None,,,,,f,,p2,2022_Mar_10_1321,training+cueing,2021.1.4,59.95006153952082,
Stranger.png,Stranger,Stranger,c,3,13,23,93,,,,,0,0,0,0,,,,,7,11,95,8,,,,,,,,,,,,,,,,,,,,,1.628,1.221,427.5262613000814,None,,,,,,,,,,,,,,,,,,,,428.0688197000418,428.57107200007886,0.5043309899047017,1.0051613899413496,428.5543484000955,428.6716350999195,428.5543484000955,428.6716350999195,428.6549348998815,None,None,0,,428.6549348998815,None,,,,,f,,p2,2022_Mar_10_1321,training+cueing,2021.1.4,59.95006153952082,
Stranger.png,Stranger,Stranger,c,3,13,23,93,,,,,0,0,0,0,,,,,8,0,96,8,,,,,,,,,,,,,,,,,,,,,1.541,2.287,430.3945744999219,None,,,,,,,,,,,,,,,,,,,,430.93341950001195,431.439801099943,0.5104379900731146,1.010754190152511,431.4230813998729,431.5398553998675,431.4230813998729,431.5398553998675,431.5231597998645,None,c,1,1.3541682998184115,431.5231597998645,None,,,,,f,,p2,2022_Mar_10_1321,training+cueing,2021.1.4,59.95006153952082,
Friend.png,Stranger,Friend,m,3.2,19,29,99,,,,,0,0,0,0,,,,,8,1,97,5,,,,,,,,,,,,,,,,,,,,,1.421,1.406,433.0132839998696,None,,,,,,,,,,,,,,,,,,,,433.55285610002466,434.05831160000525,0.5104760897811502,1.011001689825207,434.04167239996605,434.1589321999345,434.04167239996605,434.1589321999345,434.141907799989,None,m,1,1.199488200014457,434.141907799989,None,,,,,f,,p2,2022_Mar_10_1321,training+cueing,2021.1.4,59.95006153952082,
Friend.png,Friend,Friend,c,2,12,22,92,,,,,0,0,0,0,,,,,8,2,98,10,,,,,,,,,,,,,,,,,,,,,1.715,1.89,435.46678479993716,None,,,,,,,,,,,,,,,,,,,,436.00944279995747,436.5101290999446,0.5013683901634067,1.0016797902062535,436.49342800001614,436.61018000007607,436.49342800001614,436.61018000007607,436.61018000007607,None,c,1,1.5472646998241544,436.61018000007607,None,,,,,f,,p2,2022_Mar_10_1321,training+cueing,2021.1.4,59.95006153952082,
Friend.png,Friend,Friend,c,2,12,22,92,,,,,0,0,0,0,,,,,8,3,99,4,,,,,,,,,,,,,,,,,,,,,1.543,1.354,438.2852950999513,None,,,,,,,,,,,,,,,,,,,,438.8237562000286,439.328818900045,0.5067492898087949,1.0070593899581581,439.3121475998778,439.42885480006225,439.3121475998778,439.42885480006225,439.41218300000764,None,c,1,0.6810600999742746,439.41218300000764,None,,,,,f,,p2,2022_Mar_10_1321,training+cueing,2021.1.4,59.95006153952082,
Self.png,Friend,Self ,m,2.1,16,26,96,,,,,0,0,0,0,,,,,8,4,100,1,,,,,,,,,,,,,,,,,,,,,1.498,2.421,440.21894990000874,None,,,,,,,,,,,,,,,,,,,,440.786420899909,441.29692450002767,0.5047919198404998,1.005094719817862,441.2802192000672,441.396979900077,441.2802192000672,441.396979900077,441.3802972000558,None,m,1,1.3210138001013547,441.3802972000558,None,,,,,f,,p2,2022_Mar_10_1321,training+cueing,2021.1.4,59.95006153952082,
Stranger.png,Stranger,Stranger,c,3,13,23,93,,,,,0,0,0,0,,,,,8,5,101,11,,,,,,,,,,,,,,,,,,,,,1.674,1.438,442.83718580007553,None,,,,,,,,,,,,,,,,,,,,443.3800017000176,443.8822182000149,0.5048815899062902,1.0051638898439705,443.86554519995116,443.98227529996075,443.86554519995116,443.98227529996075,443.96556710009463,None,c,1,1.4077920001000166,443.96556710009463,None,,,,,f,,p2,2022_Mar_10_1321,training+cueing,2021.1.4,59.95006153952082,
Friend.png,You,Friend,m,1.2,14,24,94,,,,,0,0,0,0,,,,,8,6,102,3,,,,,,,,,,,,,,,,,,,,,1.416,2.324,445.5063457998913,None,,,,,,,,,,,,,,,,,,,,446.0617402999196,446.56741390004754,0.5101031202357262,1.0103420200757682,446.5507292000111,446.6507405999582,446.5507292000111,446.6507405999582,446.6507405999582,None,None,0,,446.6507405999582,None,,,,,f,,p2,2022_Mar_10_1321,training+cueing,2021.1.4,59.95006153952082,
Stranger.png,Friend,Stranger,m,2.3,17,27,97,,,,,0,0,0,0,,,,,8,7,103,7,,,,,,,,,,,,,,,,,,,,,1.725,2.266,448.1726869000122,None,,,,,,,,,,,,,,,,,,,,448.71628400008194,449.2193136999849,0.5053729899227619,1.0054293901193887,449.20281290006824,449.3193574999459,449.20281290006824,449.3193574999459,449.3026155999396,None,None,0,,449.3026155999396,None,,,,,f,,p2,2022_Mar_10_1321,training+cueing,2021.1.4,59.95006153952082,
Self.png,You,Self ,c,1,11,21,91,,,,,0,0,0,0,,,,,8,8,104,0,,,,,,,,,,,,,,,,,,,,,1.439,1.202,451.1410544998944,None,,,,,,,,,,,,,,,,,,,,451.68341149995103,452.18808740004897,0.5065851900726557,1.00685948994942,452.17142260004766,452.2714615999721,452.17142260004766,452.2714615999721,452.2714615999721,None,c,1,0.4938858998939395,452.2714615999721,None,,,,,f,,p2,2022_Mar_10_1321,training+cueing,2021.1.4,59.95006153952082,
Self.png,Stranger,Self ,m,3.1,18,28,98,,,,,0,0,0,0,,,,,8,9,105,2,,,,,,,,,,,,,,,,,,,,,1.5,1.557,452.89484700001776,None,,,,,,,,,,,,,,,,,,,,453.4484977000393,453.9561204998754,0.5151031201239675,1.0152836199849844,453.9394825999625,454.0561228999868,453.9394825999625,454.0561228999868,454.03942819987424,None,m,1,1.2058874999638647,454.03942819987424,None,,,,,f,,p2,2022_Mar_10_1321,training+cueing,2021.1.4,59.95006153952082,
Stranger.png,You,Stranger,m,1.3,15,25,95,,,,,0,0,0,0,,,,,8,10,106,6,,,,,,,,,,,,,,,,,,,,,1.716,1.652,455.38087189989164,None,,,,,,,,,,,,,,,,,,,,455.9194602998905,456.42446890007704,0.5087047903798521,1.0090462903026491,456.40777150006033,456.50788410007954,456.40777150006033,456.50788410007954,456.50788410007954,None,None,0,,456.50788410007954,None,,,,,f,,p2,2022_Mar_10_1321,training+cueing,2021.1.4,59.95006153952082,
Self.png,You,Self ,c,1,11,21,91,,,,,0,0,0,0,,,,,8,11,107,9,,,,,,,,,,,,,,,,,,,,,1.509,1.691,458.33305069990456,None,,,,,,,,,,,,,,,,,,,,458.87153939995915,459.37665700004436,0.5073707900010049,1.0081407900433987,459.35995700000785,459.45999219990335,459.35995700000785,459.45999219990335,459.45999219990335,None,c,1,0.5853577998932451,459.45999219990335,None,,,,,f,,p2,2022_Mar_10_1321,training+cueing,2021.1.4,59.95006153952082,
Stranger.png,Stranger,Stranger,c,3,13,23,93,,,,,0,0,0,0,,,,,9,0,108,8,,,,,,,,,,,,,,,,,,,,,1.59,2.141,460.16671820008196,None,,,,,,,,,,,,,,,,,,,,460.7094934999477,461.21126669994555,0.5048584898468107,1.0051405897829682,461.1946256000083,461.31138450000435,461.1946256000083,461.31138450000435,461.2946601998992,None,None,0,,461.2946601998992,None,,,,,f,,p2,2022_Mar_10_1321,training+cueing,2021.1.4,59.95006153952082,
Friend.png,Stranger,Friend,m,3.2,19,29,99,,,,,0,0,0,0,,,,,9,1,109,5,,,,,,,,,,,,,,,,,,,,,1.714,1.5,463.0005016999785,None,,,,,,,,,,,,,,,,,,,,463.54072370007634,464.0467018999625,0.5105840901378542,1.0108884901273996,464.02999729989097,464.14675999991596,464.02999729989097,464.14675999991596,464.1300327000208,None,m,1,1.0672645999584347,464.1300327000208,None,,,,,f,,p2,2022_Mar_10_1321,training+cueing,2021.1.4,59.95006153952082,
Friend.png,You,Friend,m,1.2,14,24,94,,,,,0,0,0,0,,,,,9,2,110,3,,,,,,,,,,,,,,,,,,,,,1.419,2.2,465.32172110001557,None,,,,,,,,,,,,,,,,,,,,465.8600854999386,466.3651060999837,0.5082425903528929,1.0083670902531594,466.34848709986545,466.44838680000976,466.34848709986545,466.44838680000976,466.44838680000976,None,m,1,1.1328781999181956,466.44838680000976,None,,,,,f,,p2,2022_Mar_10_1321,training+cueing,2021.1.4,59.95006153952082,
Self.png,You,Self ,c,1,11,21,91,,,,,0,0,0,0,,,,,9,3,111,0,,,,,,,,,,,,,,,,,,,,,1.434,1.426,467.7050332000945,None,,,,,,,,,,,,,,,,,,,,468.24447060003877,468.75005439994857,0.5109190901275724,1.0111758902203292,468.7334022000432,468.833416899899,468.7334022000432,468.833416899899,468.833416899899,None,c,1,0.6678534999955446,468.833416899899,None,,,,,f,,p2,2022_Mar_10_1321,training+cueing,2021.1.4,59.95006153952082,
Stranger.png,Stranger,Stranger,c,3,13,23,93,,,,,0,0,0,0,,,,,9,4,112,11,,,,,,,,,,,,,,,,,,,,,1.473,2.492,469.6229890999384,None,,,,,,,,,,,,,,,,,,,,470.1645650998689,470.6682136999443,0.5051889901515096,1.0054000900126994,470.65150170004927,470.76815890008584,470.65150170004927,470.76815890008584,470.7514629000798,None,c,1,1.4219488000962883,470.7514629000798,None,,,,,f,,p2,2022_Mar_10_1321,training+cueing,2021.1.4,59.95006153952082,
Self.png,You,Self ,c,1,11,21,91,,,,,0,0,0,0,,,,,9,5,113,9,,,,,,,,,,,,,,,,,,,,,1.592,1.622,472.3098883999046,None,,,,,,,,,,,,,,,,,,,,472.8482355000451,473.35339730000123,0.5087929901201278,1.009312089998275,473.3367117999587,473.43675859994255,473.3367117999587,473.43675859994255,473.43675859994255,None,c,1,0.5925353998318315,473.43675859994255,None,,,,,f,,p2,2022_Mar_10_1321,training+cueing,2021.1.4,59.95006153952082,
Stranger.png,Friend,Stranger,m,2.3,17,27,97,,,,,0,0,0,0,,,,,9,6,114,7,,,,,,,,,,,,,,,,,,,,,1.604,1.364,474.1601489998866,None,,,,,,,,,,,,,,,,,,,,474.7014770999085,475.2047270000912,0.5060626899357885,1.0069468901492655,475.18806260009296,475.3047626998741,475.18806260009296,475.3047626998741,475.28805490001105,None,m,1,1.1572704000864178,475.28805490001105,None,,,,,f,,p2,2022_Mar_10_1321,training+cueing,2021.1.4,59.95006153952082,
Self.png,Stranger,Self ,m,3.1,18,28,98,,,,,0,0,0,0,,,,,9,7,115,2,,,,,,,,,,,,,,,,,,,,,1.571,1.876,476.58022359991446,None,,,,,,,,,,,,,,,,,,,,477.12186359986663,477.6231416000519,0.5010261901188642,1.0012690902221948,477.6065034000203,477.72314199991524,477.6065034000203,477.72314199991524,477.72314199991524,None,c,0,1.2021313000004739,477.72314199991524,None,,,,,f,,p2,2022_Mar_10_1321,training+cueing,2021.1.4,59.95006153952082,
Stranger.png,You,Stranger,m,1.3,15,25,95,,,,,0,0,0,0,,,,,9,8,116,6,,,,,,,,,,,,,,,,,,,,,1.633,1.686,479.0636847000569,None,,,,,,,,,,,,,,,,,,,,479.6041474000085,480.1083134999499,0.508565389784053,1.0088288898114115,480.0915937998798,480.19162809988484,480.0915937998798,480.19162809988484,480.19162809988484,None,m,1,1.5980167998932302,480.19162809988484,None,,,,,f,,p2,2022_Mar_10_1321,training+cueing,2021.1.4,59.95006153952082,
Friend.png,Friend,Friend,c,2,12,22,92,,,,,0,0,0,0,,,,,9,9,117,10,,,,,,,,,,,,,,,,,,,,,1.51,2.213,481.9193456999492,None,,,,,,,,,,,,,,,,,,,,482.47554480005056,482.9770311000757,0.5041340203024447,1.0044337203726172,482.9603188999463,483.07706689997576,482.9603188999463,483.07706689997576,483.06034979992546,None,None,0,,483.06034979992546,None,,,,,f,,p2,2022_Mar_10_1321,training+cueing,2021.1.4,59.95006153952082,
Self.png,Friend,Self ,m,2.1,16,26,96,,,,,0,0,0,0,,,,,9,10,118,1,,,,,,,,,,,,,,,,,,,,,1.555,1.21,484.68251749989577,None,,,,,,,,,,,,,,,,,,,,485.2214554999955,485.7290008000564,0.5130650901701301,1.0133774902205914,485.7122881000396,485.829064700054,485.7122881000396,485.829064700054,485.8123337998986,None,m,1,1.2414358002133667,485.8123337998986,None,,,,,f,,p2,2022_Mar_10_1321,training+cueing,2021.1.4,59.95006153952082,
Friend.png,Friend,Friend,c,2,12,22,92,,,,,0,0,0,0,,,,,9,11,119,4,,,,,,,,,,,,,,,,,,,,,1.455,2.032,487.18798779998906,None,,,,,,,,,,,,,,,,,,,,487.7266704000067,488.23079559998587,0.5081753900740296,1.0084937901701778,488.21409570006654,488.3308737000916,488.21409570006654,488.3308737000916,488.3141423999332,None,None,0,,488.3141423999332,None,,,,,f,,p2,2022_Mar_10_1321,training+cueing,2021.1.4,59.95006153952082,
,,,,,,,,,,,,0,0,0,0,,,,,,,,,,,,,,,,,,,,,,,,,,,,,,,,,,,,,,,,,,,,,,,,,,,,,,,,,,,,,,,,,,,0.0031249099411070347,0.4905543099157512,,,f,,p2,2022_Mar_10_1321,training+cueing,2021.1.4,59.95006153952082,
Self.png,You,Self ,c,1,11,21,91,,,,,1,0,1,0,0,0,0,0,,,,,,,,,,,,,,,,,490.382006800035,None,space,44.97397150006145,2.0105598298832774,None,537.3664452999365,None,1.517,1.444,540.3793116000015,None,540.915638800012,541.4192460998893,541.402551200008,541.5025927000679,541.402551200008,541.5025927000679,541.5025927000679,None,c,1,541.5025927000679,None,542.7360562998801,None,1.2148186000995338,,,,,,,,,,,,,,,,,,,,,,,,f,,p2,2022_Mar_10_1321,training+cueing,2021.1.4,59.95006153952082,
Friend.png,Friend,Friend,c,2,12,22,92,,,,,1,0,1,0,0,1,1,10,,,,,,,,,,,,,,,,,,,,,,,,,1.428,1.677,543.1373487999663,None,543.6765880000312,544.1878911000676,544.1712026000023,544.2879200000316,544.1712026000023,544.2879200000316,544.2712405999191,None,c,1,544.2712405999191,None,545.0051295000594,None,0.7179525999817997,,,,,,,,,,,,,,,,,,,,,,,,f,,p2,2022_Mar_10_1321,training+cueing,2021.1.4,59.95006153952082,
Stranger.png,Stranger,Stranger,c,3,13,23,93,,,,,1,0,1,0,0,2,2,11,,,,,,,,,,,,,,,,,,,,,,,,,1.517,1.402,545.4059478999116,None,545.9480498000048,546.4563791998662,546.4395119000692,546.5562612998765,546.4395119000692,546.5562612998765,546.5395569000393,None,c,1,546.5395569000393,None,547.0899773999117,None,0.5296202001627535,,,,,,,,,,,,,,,,,,,,,,,,f,,p2,2022_Mar_10_1321,training+cueing,2021.1.4,59.95006153952082,
Self.png,Stranger,Self ,m,3.1,18,28,98,,,,,1,0,1,0,0,3,3,2,,,,,,,,,,,,,,,,,,,,,,,,,1.527,2.356,547.4902518000454,None,548.0189755999018,548.5243788999505,548.507683499949,548.6244256999344,548.507683499949,548.6244256999344,548.6076801000163,None,m,1,548.6076801000163,None,549.6918685000855,None,1.0534793001133949,,,,,,,,,,,,,,,,,,,,,,,,f,,p2,2022_Mar_10_1321,training+cueing,2021.1.4,59.95006153952082,
Friend.png,Stranger,Friend,m,3.2,19,29,99,,,,,1,0,1,0,0,4,4,5,,,,,,,,,,,,,,,,,,,,,,,,,1.476,1.51,550.0922558000311,None,550.6273791999556,551.1428972000722,551.1262310000602,551.2429603000637,551.1262310000602,551.2429603000637,551.2262629999314,None,m,1,551.2262629999314,None,552.4772838999052,None,1.2188402998726815,,,,,,,,,,,,,,,,,,,,,,,,f,,p2,2022_Mar_10_1321,training+cueing,2021.1.4,59.95006153952082,
Stranger.png,Stranger,Stranger,c,3,13,23,93,,,,,1,0,1,0,0,5,5,8,,,,,,,,,,,,,,,,,,,,,,,,,1.596,2.489,552.877479699906,None,553.4070770998951,553.91159839998,553.89490319998,554.0116246999241,553.89490319998,554.0116246999241,553.9949143999256,None,c,1,553.9949143999256,None,555.2458700998686,None,1.234144699992612,,,,,,,,,,,,,,,,,,,,,,,,f,,p2,2022_Mar_10_1321,training+cueing,2021.1.4,59.95006153952082,
Stranger.png,Friend,Stranger,m,2.3,17,27,97,,,,,1,0,1,0,0,6,6,7,,,,,,,,,,,,,,,,,,,,,,,,,1.791,1.294,555.6461237999611,None,556.1768388000783,556.6802213999908,556.6635668999515,556.7803054000251,556.6635668999515,556.7803054000251,556.7635872000828,None,m,1,556.7635872000828,None,557.9645465000067,None,1.1855932001490146,,,,,,,,,,,,,,,,,,,,,,,,f,,p2,2022_Mar_10_1321,training+cueing,2021.1.4,59.95006153952082,
Self.png,You,Self ,c,1,11,21,91,,,,,1,0,1,0,0,7,7,9,,,,,,,,,,,,,,,,,,,,,,,,,1.581,1.45,558.3649911000393,None,558.9046839999501,559.4155464998912,559.3988365000114,559.4989098999649,559.3988365000114,559.4989098999649,559.4989098999649,None,c,1,559.4989098999649,None,560.3163910999428,None,0.7863078999798745,,,,,,,,,,,,,,,,,,,,,,,,f,,p2,2022_Mar_10_1321,training+cueing,2021.1.4,59.95006153952082,
Friend.png,Friend,Friend,c,2,12,22,92,,,,,1,0,1,0,0,8,8,4,,,,,,,,,,,,,,,,,,,,,,,,,1.422,1.757,560.7164860998746,None,561.2646643000189,561.7672270000912,561.7505395000335,561.8678081999533,561.7505395000335,561.8678081999533,561.8507620000746,None,c,1,561.8507620000746,None,562.7832094000187,None,0.9143698001280427,,,,,,,,,,,,,,,,,,,,,,,,f,,p2,2022_Mar_10_1321,training+cueing,2021.1.4,59.95006153952082,
Self.png,Friend,Self ,m,2.1,16,26,96,,,,,1,0,1,0,0,9,9,1,,,,,,,,,,,,,,,,,,,,,,,,,1.535,1.756,563.1850771999452,None,563.7178609999828,564.2189843000378,564.2023400999606,564.3191364000086,564.2023400999606,564.3191364000086,564.3025491998997,None,m,1,564.3025491998997,None,565.1530283999164,None,0.8304995999205858,,,,,,,,,,,,,,,,,,,,,,,,f,,p2,2022_Mar_10_1321,training+cueing,2021.1.4,59.95006153952082,
Stranger.png,You,Stranger,m,1.3,15,25,95,,,,,1,0,1,0,0,10,10,6,,,,,,,,,,,,,,,,,,,,,,,,,1.478,2.209,565.5532764999662,None,566.0853494000621,566.587376399897,566.5707477000542,566.6707878999878,566.5707477000542,566.6707878999878,566.6707878999878,None,m,1,566.6707878999878,None,567.9216875000857,None,1.230374600039795,,,,,,,,,,,,,,,,,,,,,,,,f,,p2,2022_Mar_10_1321,training+cueing,2021.1.4,59.95006153952082,
Friend.png,You,Friend,m,1.2,14,24,94,,,,,1,0,1,0,0,11,11,3,,,,,,,,,,,,,,,,,,,,,,,,,1.586,1.305,568.3221509000286,None,568.8506131998729,569.3560679000802,569.3393987000454,569.4394107998814,569.3393987000454,569.4394107998814,569.4394107998814,None,m,1,569.4394107998814,None,570.2400610998739,None,0.7815737000200897,,,,,,,,,,,,,,,,,,,,,,,,f,,p2,2022_Mar_10_1321,training+cueing,2021.1.4,59.95006153952082,
Stranger.png,Stranger,Stranger,c,3,13,23,93,,,,,1,0,1,0,,,,,0,0,0,8,,,,,,,,,,,,,,,,,,,583.6831722999923,None,1.774,1.672,587.1979942000471,None,,,,,,,,,,,,,,,,570.640317699872,None,0.014744129963219166,None,587.7184905998874,588.2198322000913,0.5028427899815142,1.0029002900701016,588.2032347999047,588.3197451999877,588.2032347999047,588.3197451999877,588.3030526998919,None,None,0,,588.3030526998919,None,,,,,f,,p2,2022_Mar_10_1321,training+cueing,2021.1.4,59.95006153952082,
Stranger.png,Stranger,Stranger,c,3,13,23,93,,,,,1,0,1,0,,,,,0,1,1,11,,,,,,,,,,,,,,,,,,,,,1.474,2.347,590.195005999878,None,,,,,,,,,,,,,,,,,,,,590.7333271000534,591.2385315999854,0.5106815900653601,1.0109896901994944,591.2218446000479,591.3385846000165,591.2218446000479,591.3385846000165,591.321904799901,None,c,1,0.5792100001126528,591.321904799901,None,,,,,f,,p2,2022_Mar_10_1321,training+cueing,2021.1.4,59.95006153952082,
Friend.png,You,Friend,m,1.2,14,24,94,,,,,1,0,1,0,,,,,0,2,2,3,,,,,,,,,,,,,,,,,,,,,1.792,1.928,592.0288666998968,None,,,,,,,,,,,,,,,,,,,,592.5713857000228,593.0732040998992,0.5028462901245803,1.0031656899955124,593.0565056998748,593.1565674000885,593.0565056998748,593.1565674000885,593.1565674000885,None,m,1,1.1285284000914544,593.1565674000885,None,,,,,f,,p2,2022_Mar_10_1321,training+cueing,2021.1.4,59.95006153952082,
Self.png,Stranger,Self ,m,3.1,18,28,98,,,,,1,0,1,0,,,,,0,3,3,2,,,,,,,,,,,,,,,,,,,,,1.717,1.806,594.4146877999883,None,,,,,,,,,,,,,,,,,,,,594.9676222999115,595.4749354999512,0.5147600201889873,1.015045720152557,595.4582078000531,595.5750001000706,595.4582078000531,595.5750001000706,595.5582641998772,None,m,1,0.9028467000462115,595.5582641998772,None,,,,,f,,p2,2022_Mar_10_1321,training+cueing,2021.1.4,59.95006153952082,
Self.png,You,Self ,c,1,11,21,91,,,,,1,0,1,0,,,,,0,4,4,9,,,,,,,,,,,,,,,,,,,,,1.508,1.909,596.5987927999813,None,,,,,,,,,,,,,,,,,,,,597.1395505000837,597.6431634000037,0.5051601901650429,1.0054964900482446,597.6264160999563,597.7265290000942,597.6264160999563,597.7265290000942,597.7265290000942,None,c,1,0.7665146000217646,597.7265290000942,None,,,,,f,,p2,2022_Mar_10_1321,training+cueing,2021.1.4,59.95006153952082,
Self.png,You,Self ,c,1,11,21,91,,,,,1,0,1,0,,,,,0,5,5,0,,,,,,,,,,,,,,,,,,,,,1.772,1.543,598.6167108998634,None,,,,,,,,,,,,,,,,,,,,599.1556184999645,599.6613095998764,0.5108077900949866,1.0110993899870664,599.6446136999875,599.7447025000583,599.6446136999875,599.7447025000583,599.7447025000583,None,c,1,0.4603601999115199,599.7447025000583,None,,,,,f,,p2,2022_Mar_10_1321,training+cueing,2021.1.4,59.95006153952082,
Stranger.png,You,Stranger,m,1.3,15,25,95,,,,,1,0,1,0,,,,,0,6,6,6,,,,,,,,,,,,,,,,,,,,,1.726,2.285,600.3341407999396,None,,,,,,,,,,,,,,,,,,,,600.8722769999877,601.3791855000891,0.5138493902049959,1.0141497901640832,601.3625129999127,601.4625707999803,601.3625129999127,601.4625707999803,601.4625707999803,None,m,1,0.9824673999100924,601.4625707999803,None,,,,,f,,p2,2022_Mar_10_1321,training+cueing,2021.1.4,59.95006153952082,
Friend.png,Friend,Friend,c,2,12,22,92,,,,,1,0,1,0,,,,,0,7,7,4,,,,,,,,,,,,,,,,,,,,,1.413,2.359,602.5692894000094,None,,,,,,,,,,,,,,,,,,,,603.1101315999404,603.614192100009,0.5060080899856985,1.0060926901642233,603.5976382999215,603.7141976000275,603.5976382999215,603.7141976000275,603.6974953000899,None,c,1,1.1155709000304341,603.6974953000899,None,,,,,f,,p2,2022_Mar_10_1321,training+cueing,2021.1.4,59.95006153952082,
Friend.png,Stranger,Friend,m,3.2,19,29,99,,,,,1,0,1,0,,,,,0,8,8,5,,,,,,,,,,,,,,,,,,,,,1.797,1.657,604.93738509994,None,,,,,,,,,,,,,,,,,,,,605.4808694999665,605.9825118000153,0.5037823899183422,1.004289689939469,605.9658480000217,606.0825555999763,605.9658480000217,606.0825555999763,606.0658774999902,None,m,1,0.9391157999634743,606.0658774999902,None,,,,,f,,p2,2022_Mar_10_1321,training+cueing,2021.1.4,59.95006153952082,
Self.png,Friend,Self ,m,2.1,16,26,96,,,,,1,0,1,0,,,,,0,9,9,1,,,,,,,,,,,,,,,,,,,,,1.437,2.238,607.1395666999742,None,,,,,,,,,,,,,,,,,,,,607.7138545999769,608.2177639999427,0.5086781501304358,1.0089035499840975,608.2009425000288,608.3176317999605,608.2009425000288,608.3176317999605,608.3009655000642,None,m,1,1.0082316000480205,608.3009655000642,None,,,,,f,,p2,2022_Mar_10_1321,training+cueing,2021.1.4,59.95006153952082,
Stranger.png,Friend,Stranger,m,2.3,17,27,97,,,,,1,0,1,0,,,,,0,10,10,7,,,,,,,,,,,,,,,,,,,,,1.688,1.802,609.4424977998715,None,,,,,,,,,,,,,,,,,,,,609.9885400999337,610.5024840999395,0.508776789996773,1.0090400900226086,610.4857965998817,610.6025143999141,610.4857965998817,610.6025143999141,610.5858255999628,None,c,0,1.2193446999881417,610.5858255999628,None,,,,,f,,p2,2022_Mar_10_1321,training+cueing,2021.1.4,59.95006153952082,
Friend.png,Friend,Friend,c,2,12,22,92,,,,,1,0,1,0,,,,,0,11,11,10,,,,,,,,,,,,,,,,,,,,,1.609,2.38,611.9467992000282,None,,,,,,,,,,,,,,,,,,,,612.4883926999755,612.9875652999617,0.5138179901987314,1.0141172900330275,612.9875652999617,613.0876237999182,612.9875652999617,613.0876237999182,613.0876237999182,None,c,1,1.357405599905178,613.0876237999182,None,,,,,f,,p2,2022_Mar_10_1321,training+cueing,2021.1.4,59.95006153952082,
Self.png,You,Self ,c,1,11,21,91,,,,,1,0,1,0,,,,,1,0,12,9,,,,,,,,,,,,,,,,,,,,,1.654,2.367,614.5783017000649,None,,,,,,,,,,,,,,,,,,,,615.1189294999931,615.622820999939,0.5059405898209661,1.0062503898516297,615.6061376999132,615.7061566999182,615.6061376999132,615.7061566999182,615.7061566999182,None,c,1,0.7711159999016672,615.7061566999182,None,,,,,f,,p2,2022_Mar_10_1321,training+cueing,2021.1.4,59.95006153952082,
Friend.png,Friend,Friend,c,2,12,22,92,,,,,1,0,1,0,,,,,1,1,13,4,,,,,,,,,,,,,,,,,,,,,1.506,2.298,616.6002203000244,None,,,,,,,,,,,,,,,,,,,,617.1562830999028,617.6576638000552,0.5038143200799823,1.0041072200983763,617.6409312998876,617.7576611998957,617.6409312998876,617.7576611998957,617.7409677999094,None,c,1,0.816033799899742,617.7409677999094,None,,,,,f,,p2,2022_Mar_10_1321,training+cueing,2021.1.4,59.95006153952082,
Self.png,Stranger,Self ,m,3.1,18,28,98,,,,,1,0,1,0,,,,,1,2,14,2,,,,,,,,,,,,,,,,,,,,,1.68,1.99,618.6812080999371,None,,,,,,,,,,,,,,,,,,,,619.2239606999792,619.7257427000441,0.5040201900992543,1.0043145900126547,619.7091202000156,619.8258440000936,619.7091202000156,619.8258440000936,619.8091378000099,None,m,1,1.0039585998747498,619.8091378000099,None,,,,,f,,p2,2022_Mar_10_1321,training+cueing,2021.1.4,59.95006153952082,
Stranger.png,Stranger,Stranger,c,3,13,23,93,,,,,1,0,1,0,,,,,1,3,15,11,,,,,,,,,,,,,,,,,,,,,1.481,1.772,620.9490119998809,None,,,,,,,,,,,,,,,,,,,,621.5013604999986,622.010846799938,0.5002136901021004,1.0005146900657564,621.9941563000903,622.1109203998931,621.9941563000903,622.1109203998931,622.1109203998931,None,c,1,1.214185600169003,622.1109203998931,None,,,,,f,,p2,2022_Mar_10_1321,training+cueing,2021.1.4,59.95006153952082,
Self.png,Friend,Self ,m,2.1,16,26,96,,,,,1,0,1,0,,,,,1,4,16,1,,,,,,,,,,,,,,,,,,,,,1.584,1.765,623.4510369999334,None,,,,,,,,,,,,,,,,,,,,623.9936550999992,624.4959199998993,0.5046504901256412,1.0048910900950432,624.4792577000335,624.5959296000656,624.4792577000335,624.5959296000656,624.5792350000702,None,m,1,1.289871099870652,624.5792350000702,None,,,,,f,,p2,2022_Mar_10_1321,training+cueing,2021.1.4,59.95006153952082,
Stranger.png,Friend,Stranger,m,2.3,17,27,97,,,,,1,0,1,0,,,,,1,5,17,7,,,,,,,,,,,,,,,,,,,,,1.648,2.105,626.0031447999645,None,,,,,,,,,,,,,,,,,,,,626.5425889999606,627.047722700052,0.51038689003326,1.010683590080589,627.0310374998953,627.1477908999659,627.0310374998953,627.1477908999659,627.1310779999476,None,m,1,1.5539245000109076,627.1310779999476,None,,,,,f,,p2,2022_Mar_10_1321,training+cueing,2021.1.4,59.95006153952082,
Stranger.png,Stranger,Stranger,c,3,13,23,93,,,,,1,0,1,0,,,,,1,6,18,8,,,,,,,,,,,,,,,,,,,,,1.787,1.87,628.8213118000422,None,,,,,,,,,,,,,,,,,,,,629.3629324999638,629.8664519998711,0.5041025900281966,1.0043885901104659,629.8497593998909,629.9665198998991,629.8497593998909,629.9665198998991,629.9497769998852,None,c,1,1.2313294999767095,629.9497769998852,None,,,,,f,,p2,2022_Mar_10_1321,training+cueing,2021.1.4,59.95006153952082,
Friend.png,Stranger,Friend,m,3.2,19,29,99,,,,,1,0,1,0,,,,,1,7,19,5,,,,,,,,,,,,,,,,,,,,,1.561,2.032,631.3076490999665,None,,,,,,,,,,,,,,,,,,,,631.8463135999627,632.3515504999086,0.5093344901688397,1.0096055900212377,632.334881399991,632.4516548998654,632.334881399991,632.4516548998654,632.4349354000296,None,m,1,0.7620980001520365,632.4349354000296,None,,,,,f,,p2,2022_Mar_10_1321,training+cueing,2021.1.4,59.95006153952082,
Friend.png,You,Friend,m,1.2,14,24,94,,,,,1,0,1,0,,,,,1,8,20,3,,,,,,,,,,,,,,,,,,,,,1.772,2.141,633.32511970005,None,,,,,,,,,,,,,,,,,,,,633.86594779999,634.369709999999,0.5042501899879426,1.004483490018174,634.3530387000646,634.4530686999205,634.3530387000646,634.4530686999205,634.4530686999205,None,m,1,0.9359357999637723,634.4530686999205,None,,,,,f,,p2,2022_Mar_10_1321,training+cueing,2021.1.4,59.95006153952082,
Stranger.png,You,Stranger,m,1.3,15,25,95,,,,,1,0,1,0,,,,,1,9,21,6,,,,,,,,,,,,,,,,,,,,,1.468,2.421,635.5265730000101,None,,,,,,,,,,,,,,,,,,,,636.0655489999335,636.5714791000355,0.5109975901432335,1.011261090170592,636.5545930999797,636.6546421998646,636.5545930999797,636.6546421998646,636.6546421998646,None,m,1,1.0223332000896335,636.6546421998646,None,,,,,f,,p2,2022_Mar_10_1321,training+cueing,2021.1.4,59.95006153952082,
Friend.png,Friend,Friend,c,2,12,22,92,,,,,1,0,1,0,,,,,1,10,22,10,,,,,,,,,,,,,,,,,,,,,1.8,1.857,637.8117553000338,None,,,,,,,,,,,,,,,,,,,,638.3545542000793,638.8562676999718,0.5050532899331301,1.00535419001244,638.839579399908,638.956303599989,638.839579399908,638.956303599989,638.9396289000288,None,c,1,1.1693573000375181,638.9396289000288,None,,,,,f,,p2,2022_Mar_10_1321,training+cueing,2021.1.4,59.95006153952082,
Self.png,You,Self ,c,1,11,21,91,,,,,1,0,1,0,,,,,1,11,23,0,,,,,,,,,,,,,,,,,,,,,1.583,1.22,640.2307488999795,None,,,,,,,,,,,,,,,,,,,,640.7704099998809,641.2746365000494,0.5062471898272634,1.0065552899613976,641.2580067000818,641.3580640000291,641.2580067000818,641.3580640000291,641.3580640000291,None,c,1,0.8788992001209408,641.3580640000291,None,,,,,f,,p2,2022_Mar_10_1321,training+cueing,2021.1.4,59.95006153952082,
Stranger.png,Stranger,Stranger,c,3,13,23,93,,,,,1,0,1,0,,,,,2,0,24,11,,,,,,,,,,,,,,,,,,,,,1.412,1.255,642.3649484999478,None,,,,,,,,,,,,,,,,,,,,642.9079273999669,643.409559099935,0.5027002899441868,1.0029992898926139,643.3928382000886,643.5096189999022,643.3928382000886,643.5096189999022,643.4928792999126,None,c,1,1.3840701000299305,643.4928792999126,None,,,,,f,,p2,2022_Mar_10_1321,training+cueing,2021.1.4,59.95006153952082,
Self.png,Stranger,Self ,m,3.1,18,28,98,,,,,1,0,1,0,,,,,2,1,25,2,,,,,,,,,,,,,,,,,,,,,1.456,2.088,645.0003712000325,None,,,,,,,,,,,,,,,,,,,,645.5394441999961,646.0447698000353,0.510176390176639,1.01048119016923,646.0281191000249,646.1448085999582,646.0281191000249,646.1448085999582,646.1281345000025,None,m,1,0.9730626000091434,646.1281345000025,None,,,,,f,,p2,2022_Mar_10_1321,training+cueing,2021.1.4,59.95006153952082,
Self.png,Friend,Self ,m,2.1,16,26,96,,,,,1,0,1,0,,,,,2,2,26,1,,,,,,,,,,,,,,,,,,,,,1.541,1.319,647.2353658999782,None,,,,,,,,,,,,,,,,,,,,647.7885225000791,648.2964232999366,0.5150515199638903,1.0153619199991226,648.279737399891,648.3964867999312,648.279737399891,648.3964867999312,648.379777800059,None,m,1,0.9772361998911947,648.379777800059,None,,,,,f,,p2,2022_Mar_10_1321,training+cueing,2021.1.4,59.95006153952082,
Friend.png,You,Friend,m,1.2,14,24,94,,,,,1,0,1,0,,,,,2,3,27,3,,,,,,,,,,,,,,,,,,,,,1.74,2.038,649.4861900000833,None,,,,,,,,,,,,,,,,,,,,650.0265186000615,650.5313740998972,0.5083068900275975,1.008595289895311,650.5146683999337,650.6147076999769,650.5146683999337,650.6147076999769,650.6147076999769,None,m,1,1.3822509997989982,650.6147076999769,None,,,,,f,,p2,2022_Mar_10_1321,training+cueing,2021.1.4,59.95006153952082,
Stranger.png,Friend,Stranger,m,2.3,17,27,97,,,,,1,0,1,0,,,,,2,4,28,7,,,,,,,,,,,,,,,,,,,,,1.583,1.864,652.1219943000469,None,,,,,,,,,,,,,,,,,,,,652.6629981999286,653.1666043000296,0.5048126901965588,1.0051079902332276,653.1499143999536,653.2666641999967,653.1499143999536,653.2666641999967,653.2499667000957,None,m,1,0.9389984000008553,653.2499667000957,None,,,,,f,,p2,2022_Mar_10_1321,training+cueing,2021.1.4,59.95006153952082,
Stranger.png,You,Stranger,m,1.3,15,25,95,,,,,1,0,1,0,,,,,2,5,29,6,,,,,,,,,,,,,,,,,,,,,1.607,2.426,654.323800199898,None,,,,,,,,,,,,,,,,,,,,654.8651354999747,655.3682081000879,0.5048948901239783,1.0051746901590377,655.3515053000301,655.4515378000215,655.3515053000301,655.4515378000215,655.4515378000215,None,m,1,1.5056480001658201,655.4515378000215,None,,,,,f,,p2,2022_Mar_10_1321,training+cueing,2021.1.4,59.95006153952082,
Friend.png,Friend,Friend,c,2,12,22,92,,,,,1,0,1,0,,,,,2,6,30,10,,,,,,,,,,,,,,,,,,,,,1.742,1.794,657.0957583000418,None,,,,,,,,,,,,,,,,,,,,657.6356023999397,658.136865099892,0.5017024902626872,1.0020335901062936,658.1201585999224,658.2369081999641,658.1201585999224,658.2369081999641,658.2369081999641,None,c,1,1.1040906999260187,658.2369081999641,None,,,,,f,,p2,2022_Mar_10_1321,training+cueing,2021.1.4,59.95006153952082,
Friend.png,Friend,Friend,c,2,12,22,92,,,,,1,0,1,0,,,,,2,7,31,4,,,,,,,,,,,,,,,,,,,,,1.694,1.571,659.4769550999627,None,,,,,,,,,,,,,,,,,,,,660.0148702000733,660.5219163000584,0.5120002902112901,1.0122785903513432,660.5052676000632,660.6219651000574,660.5052676000632,660.6219651000574,660.6052844000515,None,c,1,0.655671700136736,660.6052844000515,None,,,,,f,,p2,2022_Mar_10_1321,training+cueing,2021.1.4,59.95006153952082,
Self.png,You,Self ,c,1,11,21,91,,,,,1,0,1,0,,,,,2,8,32,0,,,,,,,,,,,,,,,,,,,,,1.504,2.085,661.3953368999064,None,,,,,,,,,,,,,,,,,,,,661.9381786999293,662.4399679000489,0.5050659899134189,1.0053700900170952,662.4232969998848,662.5233620998915,662.4232969998848,662.5233620998915,662.5233620998915,None,c,1,0.8177052999380976,662.5233620998915,None,,,,,f,,p2,2022_Mar_10_1321,training+cueing,2021.1.4,59.95006153952082,
Self.png,You,Self ,c,1,11,21,91,,,,,1,0,1,0,,,,,2,9,33,9,,,,,,,,,,,,,,,,,,,,,1.522,2.3,663.4635047998745,None,,,,,,,,,,,,,,,,,,,,664.0032530999742,664.508149500005,0.5097258898895234,1.0100182900205255,664.4914381999988,664.5914706999902,664.4914381999988,664.5914706999902,664.5914706999902,None,c,1,0.47749299998395145,664.5914706999902,None,,,,,f,,p2,2022_Mar_10_1321,training+cueing,2021.1.4,59.95006153952082,
Friend.png,Stranger,Friend,m,3.2,19,29,99,,,,,1,0,1,0,,,,,2,10,34,5,,,,,,,,,,,,,,,,,,,,,1.559,2.299,665.1975783999078,None,,,,,,,,,,,,,,,,,,,,665.7365121000912,666.242694000015,0.5097845902200788,1.0100905902218074,666.2260267999955,666.3427496999502,666.2260267999955,666.3427496999502,666.3260806000326,None,c,0,1.3987808001693338,666.3260806000326,None,,,,,f,,p2,2022_Mar_10_1321,training+cueing,2021.1.4,59.95006153952082,
Stranger.png,Stranger,Stranger,c,3,13,23,93,,,,,1,0,1,0,,,,,2,11,35,8,,,,,,,,,,,,,,,,,,,,,1.533,1.598,667.8499205000699,None,,,,,,,,,,,,,,,,,,,,668.3874158000108,668.8946181999054,0.5129607901908457,1.0132232902105898,668.8779557999223,668.9946584999561,668.8779557999223,668.9946584999561,668.9779809000902,None,c,1,1.1629806999117136,668.9779809000902,None,,,,,f,,p2,2022_Mar_10_1321,training+cueing,2021.1.4,59.95006153952082,
Self.png,You,Self ,c,1,11,21,91,,,,,1,0,1,0,,,,,3,0,36,0,,,,,,,,,,,,,,,,,,,,,1.776,1.815,670.2678545999806,None,,,,,,,,,,,,,,,,,,,,670.8145647998899,671.3298915000632,0.5118113900534809,1.012126190122217,671.3130105000455,671.4130716000218,671.3130105000455,671.4130716000218,671.4130716000218,None,c,1,0.6958932999987155,671.4130716000218,None,,,,,f,,p2,2022_Mar_10_1321,training+cueing,2021.1.4,59.95006153952082,
Friend.png,Friend,Friend,c,2,12,22,92,,,,,1,0,1,0,,,,,3,1,37,4,,,,,,,,,,,,,,,,,,,,,1.747,1.424,672.2368950999808,None,,,,,,,,,,,,,,,,,,,,672.78258930007,673.2978087000083,0.5128219900652766,1.0131328899879009,673.2810935999732,673.3979114000686,673.2810935999732,673.3979114000686,673.3811160000041,None,c,1,0.7757838000543416,673.3811160000041,None,,,,,f,,p2,2022_Mar_10_1321,training+cueing,2021.1.4,59.95006153952082,
Stranger.png,You,Stranger,m,1.3,15,25,95,,,,,1,0,1,0,,,,,3,2,38,6,,,,,,,,,,,,,,,,,,,,,1.678,1.539,674.2880104000214,None,,,,,,,,,,,,,,,,,,,,674.8273441998754,675.3325930000283,0.5097744902595878,1.0100888900924474,675.3159358999692,675.4160021999851,675.3159358999692,675.4160021999851,675.4160021999851,None,None,0,,675.4160021999851,None,,,,,f,,p2,2022_Mar_10_1321,training+cueing,2021.1.4,59.95006153952082,
Self.png,You,Self ,c,1,11,21,91,,,,,1,0,1,0,,,,,3,3,39,9,,,,,,,,,,,,,,,,,,,,,1.751,1.491,677.2047613000032,None,,,,,,,,,,,,,,,,,,,,677.7449191999622,678.2513786999043,0.5096838902682066,1.0101749901659787,678.2346695999149,678.334774899995,678.2346695999149,678.334774899995,678.334774899995,None,c,1,0.5262240001466125,678.334774899995,None,,,,,f,,p2,2022_Mar_10_1321,training+cueing,2021.1.4,59.95006153952082,
Stranger.png,Friend,Stranger,m,2.3,17,27,97,,,,,1,0,1,0,,,,,3,4,40,7,,,,,,,,,,,,,,,,,,,,,1.794,2.242,678.9925239998847,None,,,,,,,,,,,,,,,,,,,,679.5383953000419,680.052663099952,0.5122343900147825,1.0125581899192184,680.0360087000299,680.1527318998706,680.0360087000299,680.1527318998706,680.1360333000775,None,m,1,1.412912999978289,680.1360333000775,None,,,,,f,,p2,2022_Mar_10_1321,training+cueing,2021.1.4,59.95006153952082,
Friend.png,You,Friend,m,1.2,14,24,94,,,,,1,0,1,0,,,,,3,5,41,3,,,,,,,,,,,,,,,,,,,,,1.483,1.512,681.6770077000838,None,,,,,,,,,,,,,,,,,,,,682.2178440999705,682.7213780998718,0.5061602899804711,1.0065410898532718,682.7047721000854,682.804821100086,682.7047721000854,682.804821100086,682.804821100086,None,m,1,1.3844209001399577,682.804821100086,None,,,,,f,,p2,2022_Mar_10_1321,training+cueing,2021.1.4,59.95006153952082,
Friend.png,Friend,Friend,c,2,12,22,92,,,,,1,0,1,0,,,,,3,6,42,10,,,,,,,,,,,,,,,,,,,,,1.445,2.077,684.3128428000491,None,,,,,,,,,,,,,,,,,,,,684.8509919999633,685.3564931999426,0.5083389901556075,1.008590690093115,685.3398603999522,685.4565983999055,685.3398603999522,685.4565983999055,685.4398745000362,None,c,1,0.829046200029552,685.4398745000362,None,,,,,f,,p2,2022_Mar_10_1321,training+cueing,2021.1.4,59.95006153952082,
Friend.png,Stranger,Friend,m,3.2,19,29,99,,,,,1,0,1,0,,,,,3,7,43,5,,,,,,,,,,,,,,,,,,,,,1.427,1.389,686.3971476000734,None,,,,,,,,,,,,,,,,,,,,686.9376884999219,687.4413556000218,0.5076365901622921,1.0079208901152015,687.4246884998865,687.5414082999341,687.4246884998865,687.5414082999341,687.5247303000651,None,m,1,1.0001807999797165,687.5247303000651,None,,,,,f,,p2,2022_Mar_10_1321,training+cueing,2021.1.4,59.95006153952082,
Stranger.png,Stranger,Stranger,c,3,13,23,93,,,,,1,0,1,0,,,,,3,8,44,11,,,,,,,,,,,,,,,,,,,,,1.74,1.724,688.6479972000234,None,,,,,,,,,,,,,,,,,,,,689.1849080999382,689.6929683000781,0.513584990054369,1.0138823899906129,689.6762886000797,689.7929865999613,689.6762886000797,689.7929865999613,689.7763580000028,None,c,1,1.2606029999442399,689.7763580000028,None,,,,,f,,p2,2022_Mar_10_1321,training+cueing,2021.1.4,59.95006153952082,
Stranger.png,Stranger,Stranger,c,3,13,23,93,,,,,1,0,1,0,,,,,3,9,45,8,,,,,,,,,,,,,,,,,,,,,1.794,1.956,691.1662431000732,None,,,,,,,,,,,,,,,,,,,,691.7048432000447,692.2114353000652,0.5131667901296169,1.0133421900682151,692.1948259999044,692.3115081000142,692.1948259999044,692.3115081000142,692.2948576998897,None,c,1,0.6300449001137167,692.2948576998897,None,,,,,f,,p2,2022_Mar_10_1321,training+cueing,2021.1.4,59.95006153952082,
Self.png,Stranger,Self ,m,3.1,18,28,98,,,,,1,0,1,0,,,,,3,10,46,2,,,,,,,,,,,,,,,,,,,,,1.56,2.152,693.051829499891,None,,,,,,,,,,,,,,,,,,,,693.5909877000377,694.0962775000371,0.5107364901341498,1.011061490047723,694.0795032999013,694.1962015000172,694.0795032999013,694.1962015000172,694.1795236999169,None,m,1,0.9854085999540985,694.1795236999169,None,,,,,f,,p2,2022_Mar_10_1321,training+cueing,2021.1.4,59.95006153952082,
Self.png,Friend,Self ,m,2.1,16,26,96,,,,,1,0,1,0,,,,,3,11,47,1,,,,,,,,,,,,,,,,,,,,,1.639,2.268,695.3031244000886,None,,,,,,,,,,,,,,,,,,,,695.8430993999355,696.3477678000927,0.5080021901521832,1.0082868901081383,696.3311016000807,696.4478362998925,696.3311016000807,696.4478362998925,696.4311699999962,None,m,1,0.9417459999676794,696.4311699999962,None,,,,,f,,p2,2022_Mar_10_1321,training+cueing,2021.1.4,59.95006153952082,
Stranger.png,Stranger,Stranger,c,3,13,23,93,,,,,1,0,1,0,,,,,4,0,48,8,,,,,,,,,,,,,,,,,,,,,1.728,1.54,697.5047780999448,None,,,,,,,,,,,,,,,,,,,,698.0478191999719,698.5493930000812,0.5028337901458144,1.0031117901671678,698.5327105000615,698.6493877999019,698.5327105000615,698.6493877999019,698.6327287000604,None,c,1,1.108233300037682,698.6327287000604,None,,,,,f,,p2,2022_Mar_10_1321,training+cueing,2021.1.4,59.95006153952082,
Self.png,You,Self ,c,1,11,21,91,,,,,1,0,1,0,,,,,4,1,49,9,,,,,,,,,,,,,,,,,,,,,1.732,2.472,699.8729556000326,None,,,,,,,,,,,,,,,,,,,,700.4143659998663,700.9178152000532,0.5067104902118444,1.0069121902342886,700.9011663000565,701.0011599999852,700.9011663000565,701.0011599999852,701.0011599999852,None,c,1,0.6597497998736799,701.0011599999852,None,,,,,f,,p2,2022_Mar_10_1321,training+cueing,2021.1.4,59.95006153952082,
Stranger.png,You,Stranger,m,1.3,15,25,95,,,,,1,0,1,0,,,,,4,2,50,6,,,,,,,,,,,,,,,,,,,,,1.677,1.693,701.7915373998694,None,,,,,,,,,,,,,,,,,,,,702.3285610000603,702.8358301999979,0.5128723899833858,1.013165389886126,702.8191482999828,702.9191435000394,702.8191482999828,702.9191435000394,702.9191435000394,None,m,1,1.1097037000581622,702.9191435000394,None,,,,,f,,p2,2022_Mar_10_1321,training+cueing,2021.1.4,59.95006153952082,
Friend.png,Friend,Friend,c,2,12,22,92,,,,,1,0,1,0,,,,,4,3,51,10,,,,,,,,,,,,,,,,,,,,,1.776,1.889,704.1598932000343,None,,,,,,,,,,,,,,,,,,,,704.7015422999393,705.2041684000287,0.5047170899342746,1.00504118995741,705.1874829998706,705.3042138998862,705.1874829998706,705.3042138998862,705.2875045998953,None,c,1,0.8373767000157386,705.2875045998953,None,,,,,f,,p2,2022_Mar_10_1321,training+cueing,2021.1.4,59.95006153952082,
Friend.png,You,Friend,m,1.2,14,24,94,,,,,1,0,1,0,,,,,4,4,52,3,,,,,,,,,,,,,,,,,,,,,1.718,1.709,706.2611857000738,None,,,,,,,,,,,,,,,,,,,,706.811361100059,707.322539600078,0.5035222901497036,1.0036365899723023,707.305874099955,707.4057680000551,707.305874099955,707.4057680000551,707.4057680000551,None,m,1,0.8150226001162082,707.4057680000551,None,,,,,f,,p2,2022_Mar_10_1321,training+cueing,2021.1.4,59.95006153952082,
Stranger.png,Stranger,Stranger,c,3,13,23,93,,,,,1,0,1,0,,,,,4,5,53,11,,,,,,,,,,,,,,,,,,,,,1.417,2.261,708.3455507000908,None,,,,,,,,,,,,,,,,,,,,708.8893879998941,709.3905233000405,0.501824390143156,1.002108990214765,709.3738857000135,709.4905789000914,709.3738857000135,709.4905789000914,709.4739266999532,None,c,1,1.0669511000160128,709.4739266999532,None,,,,,f,,p2,2022_Mar_10_1321,training+cueing,2021.1.4,59.95006153952082,
Stranger.png,Friend,Stranger,m,2.3,17,27,97,,,,,1,0,1,0,,,,,4,6,54,7,,,,,,,,,,,,,,,,,,,,,1.458,1.483,710.6644001998939,None,,,,,,,,,,,,,,,,,,,,711.2037440000568,711.7090775000397,0.5094854899216443,1.0096423900686204,711.6922593000345,711.8089437000453,711.6922593000345,711.8089437000453,711.7922195000574,None,m,1,0.8926546999718994,711.7922195000574,None,,,,,f,,p2,2022_Mar_10_1321,training+cueing,2021.1.4,59.95006153952082,
Self.png,Stranger,Self ,m,3.1,18,28,98,,,,,1,0,1,0,,,,,4,7,55,2,,,,,,,,,,,,,,,,,,,,,1.557,2.018,712.8159592000302,None,,,,,,,,,,,,,,,,,,,,713.3674465999939,713.8771156000439,0.4999976900871843,1.0002943901345134,713.8604256000835,713.9771638999227,713.8604256000835,713.9771638999227,713.9771638999227,None,None,0,,713.9771638999227,None,,,,,f,,p2,2022_Mar_10_1321,training+cueing,2021.1.4,59.95006153952082,
Friend.png,Stranger,Friend,m,3.2,19,29,99,,,,,1,0,1,0,,,,,4,8,56,5,,,,,,,,,,,,,,,,,,,,,1.496,2.08,715.6486613999587,None,,,,,,,,,,,,,,,,,,,,716.1911255000159,716.6957884000149,0.509538090089336,1.0098723901901394,716.6791052999906,716.7958933000918,716.6791052999906,716.7958933000918,716.7791768000461,None,m,1,1.1696413999889046,716.7791768000461,None,,,,,f,,p2,2022_Mar_10_1321,training+cueing,2021.1.4,59.95006153952082,
Self.png,Friend,Self ,m,2.1,16,26,96,,,,,1,0,1,0,,,,,4,9,57,1,,,,,,,,,,,,,,,,,,,,,1.47,1.227,718.0862684000749,None,,,,,,,,,,,,,,,,,,,,718.6343739000149,719.1475825000089,0.5102861900813878,1.0105957901105285,719.1308971000835,719.247641999973,719.1308971000835,719.247641999973,719.2309093999211,None,m,1,1.1179023999720812,719.2309093999211,None,,,,,f,,p2,2022_Mar_10_1321,training+cueing,2021.1.4,59.95006153952082,
Self.png,You,Self ,c,1,11,21,91,,,,,1,0,1,0,,,,,4,10,58,0,,,,,,,,,,,,,,,,,,,,,1.712,2.499,720.4715481998865,None,,,,,,,,,,,,,,,,,,,,721.0111050999258,721.5159495999105,0.5077388901263475,1.0080101902130991,721.4992942998651,721.5993488999084,721.4992942998651,721.5993488999084,721.5993488999084,None,c,1,0.49357479996979237,721.5993488999084,None,,,,,f,,p2,2022_Mar_10_1321,training+cueing,2021.1.4,59.95006153952082,
Friend.png,Friend,Friend,c,2,12,22,92,,,,,1,0,1,0,,,,,4,11,59,4,,,,,,,,,,,,,,,,,,,,,1.751,2.388,722.2228069999255,None,,,,,,,,,,,,,,,,,,,,722.8219926999882,723.3341018999927,0.5082104799803346,1.0085287799593061,723.3174068999942,723.4341345999856,723.3174068999942,723.4341345999856,723.417429999914,None,c,1,0.6913699000142515,723.417429999914,None,,,,,f,,p2,2022_Mar_10_1321,training+cueing,2021.1.4,59.95006153952082,
Friend.png,You,Friend,m,1.2,14,24,94,,,,,1,0,1,0,,,,,5,0,60,3,,,,,,,,,,,,,,,,,,,,,1.743,1.981,724.2406041000504,None,,,,,,,,,,,,,,,,,,,,724.7836978998967,725.2853808000218,0.5011251901742071,1.002007790375501,725.2686886000447,725.3687034000177,725.2686886000447,725.3687034000177,725.3687034000177,None,m,1,0.8204117999412119,725.3687034000177,None,,,,,f,,p2,2022_Mar_10_1321,training+cueing,2021.1.4,59.95006153952082,
Stranger.png,Stranger,Stranger,c,3,13,23,93,,,,,1,0,1,0,,,,,5,1,61,8,,,,,,,,,,,,,,,,,,,,,1.73,2.463,726.329162399983,None,,,,,,,,,,,,,,,,,,,,726.8688499000855,727.3702080000658,0.5026126902084798,1.0028809900395572,727.3535436000675,727.4702669999097,727.3535436000675,727.4702669999097,727.4535667998716,None,c,1,1.0872613000683486,727.4535667998716,None,,,,,f,,p2,2022_Mar_10_1321,training+cueing,2021.1.4,59.95006153952082,
Stranger.png,You,Stranger,m,1.3,15,25,95,,,,,1,0,1,0,,,,,5,2,62,6,,,,,,,,,,,,,,,,,,,,,1.556,2.317,728.6768211000599,None,,,,,,,,,,,,,,,,,,,,729.218933600001,729.7219050999265,0.5046437901910394,1.0049120902549475,729.7051884999964,729.8052409000229,729.7051884999964,729.8052409000229,729.8052409000229,None,m,1,1.4075346000026911,729.8052409000229,None,,,,,f,,p2,2022_Mar_10_1321,training+cueing,2021.1.4,59.95006153952082,
Self.png,You,Self ,c,1,11,21,91,,,,,1,0,1,0,,,,,5,3,63,0,,,,,,,,,,,,,,,,,,,,,1.612,1.879,731.3465634000022,None,,,,,,,,,,,,,,,,,,,,731.8835805000272,732.3905205000192,0.5122426899615675,1.0124905901029706,732.3738528999966,732.4740361000877,732.3738528999966,732.4740361000877,732.4740361000877,None,c,1,0.7547882001381367,732.4740361000877,None,,,,,f,,p2,2022_Mar_10_1321,training+cueing,2021.1.4,59.95006153952082,
Stranger.png,Stranger,Stranger,c,3,13,23,93,,,,,1,0,1,0,,,,,5,4,64,11,,,,,,,,,,,,,,,,,,,,,1.651,1.77,733.3642160999589,None,,,,,,,,,,,,,,,,,,,,733.9069403999019,734.4087233000901,0.5047308900393546,1.0050572899635881,734.3919343000744,734.5086814998649,734.3919343000744,734.5086814998649,734.4919765000232,None,c,1,1.2647921000607312,734.4919765000232,None,,,,,f,,p2,2022_Mar_10_1321,training+cueing,2021.1.4,59.95006153952082,
Friend.png,Friend,Friend,c,2,12,22,92,,,,,1,0,1,0,,,,,5,5,65,10,,,,,,,,,,,,,,,,,,,,,1.631,1.445,735.8825368999969,None,,,,,,,,,,,,,,,,,,,,736.4237170999404,736.9271064000204,0.5070685900282115,1.0072680900339037,736.9104416999035,737.0271761999466,736.9104416999035,737.0271761999466,737.0104658000637,None,c,1,0.7303685999941081,737.0104658000637,None,,,,,f,,p2,2022_Mar_10_1321,training+cueing,2021.1.4,59.95006153952082,
Self.png,Friend,Self ,m,2.1,16,26,96,,,,,1,0,1,0,,,,,5,6,66,1,,,,,,,,,,,,,,,,,,,,,1.771,1.645,737.8666978999972,None,,,,,,,,,,,,,,,,,,,,738.4059623999055,738.9118755999953,0.5105267900507897,1.010770490160212,738.8951999000274,739.0118924998678,738.8951999000274,739.0118924998678,738.9952004000079,None,m,1,1.2256658000405878,738.9952004000079,None,,,,,f,,p2,2022_Mar_10_1321,training+cueing,2021.1.4,59.95006153952082,
Self.png,Stranger,Self ,m,3.1,18,28,98,,,,,1,0,1,0,,,,,5,7,67,2,,,,,,,,,,,,,,,,,,,,,1.591,1.363,740.3525437999051,None,,,,,,,,,,,,,,,,,,,,740.8933230999392,741.3970127999783,0.5060601902659982,1.0063782902434468,741.3802938000299,741.4971161000431,741.3802938000299,741.4971161000431,741.4803565000184,None,m,1,0.8365346000064164,741.4803565000184,None,,,,,f,,p2,2022_Mar_10_1321,training+cueing,2021.1.4,59.95006153952082,
Friend.png,Friend,Friend,c,2,12,22,92,,,,,1,0,1,0,,,,,5,8,68,4,,,,,,,,,,,,,,,,,,,,,1.499,1.858,742.4546155000571,None,,,,,,,,,,,,,,,,,,,,742.993466099957,743.4985662000254,0.5070668898988515,1.0074332898948342,743.481794100022,743.5985665000044,743.481794100022,743.5985665000044,743.5818711998872,None,c,1,1.1669355002231896,743.5818711998872,None,,,,,f,,p2,2022_Mar_10_1321,training+cueing,2021.1.4,59.95006153952082,
Self.png,You,Self ,c,1,11,21,91,,,,,1,0,1,0,,,,,5,9,69,9,,,,,,,,,,,,,,,,,,,,,1.551,1.608,744.8717654999346,None,,,,,,,,,,,,,,,,,,,,745.413054100005,745.9169097999111,0.50727408984676,1.0074602898675948,745.9003164998721,746.0002788999118,745.9003164998721,746.0002788999118,746.0002788999118,None,c,1,0.668614299967885,746.0002788999118,None,,,,,f,,p2,2022_Mar_10_1321,training+cueing,2021.1.4,59.95006153952082,
Friend.png,Stranger,Friend,m,3.2,19,29,99,,,,,1,0,1,0,,,,,5,10,70,5,,,,,,,,,,,,,,,,,,,,,1.735,1.311,746.7907002000138,None,,,,,,,,,,,,,,,,,,,,747.3324055999983,747.8349321000278,0.5062762899324298,1.0065758898854256,747.818300700048,747.9350278000347,747.818300700048,747.9350278000347,747.9183326999191,None,m,1,0.8785254000686109,747.9183326999191,None,,,,,f,,p2,2022_Mar_10_1321,training+cueing,2021.1.4,59.95006153952082,
Stranger.png,Friend,Stranger,m,2.3,17,27,97,,,,,1,0,1,0,,,,,5,11,71,7,,,,,,,,,,,,,,,,,,,,,1.626,1.908,748.9247816000134,None,,,,,,,,,,,,,,,,,,,,749.4665443999693,749.9698544999119,0.5046930899843574,1.0050160901155323,749.9531473999377,750.0698941000737,749.9531473999377,750.0698941000737,750.0531955000479,None,m,1,0.9995866999961436,750.0531955000479,None,,,,,f,,p2,2022_Mar_10_1321,training+cueing,2021.1.4,59.95006153952082,
Self.png,You,Self ,c,1,11,21,91,,,,,1,0,1,0,,,,,6,0,72,9,,,,,,,,,,,,,,,,,,,,,1.732,1.251,751.1768960999325,None,,,,,,,,,,,,,,,,,,,,751.7188647000585,752.2214633999392,0.5054045901633799,1.0057674900162965,752.2048162999563,752.3048527000938,752.2048162999563,752.3048527000938,752.3048527000938,None,c,1,0.6519410000182688,752.3048527000938,None,,,,,f,,p2,2022_Mar_10_1321,training+cueing,2021.1.4,59.95006153952082,
Self.png,Friend,Self ,m,2.1,16,26,96,,,,,1,0,1,0,,,,,6,1,73,1,,,,,,,,,,,,,,,,,,,,,1.527,2.044,753.0949762000237,None,,,,,,,,,,,,,,,,,,,,753.6355254999362,754.1395513000898,0.5077568900305778,1.0079993901308626,754.1228404999711,754.239539799979,754.1228404999711,754.239539799979,754.222882400034,None,m,1,0.9739683999214321,754.222882400034,None,,,,,f,,p2,2022_Mar_10_1321,training+cueing,2021.1.4,59.95006153952082,
Friend.png,Friend,Friend,c,2,12,22,92,,,,,1,0,1,0,,,,,6,2,74,10,,,,,,,,,,,,,,,,,,,,,1.776,2.289,755.3299106999766,None,,,,,,,,,,,,,,,,,,,,755.8688658000901,756.3744481999893,0.5097549902275205,1.0100098901893944,756.3578285998665,756.4746574999299,756.3578285998665,756.4746574999299,756.4580059000291,None,c,1,1.2990107999648899,756.4580059000291,None,,,,,f,,p2,2022_Mar_10_1321,training+cueing,2021.1.4,59.95006153952082,
Stranger.png,You,Stranger,m,1.3,15,25,95,,,,,1,0,1,0,,,,,6,3,75,6,,,,,,,,,,,,,,,,,,,,,1.752,2.346,757.8847514998633,None,,,,,,,,,,,,,,,,,,,,758.4282239000313,758.9429842999671,0.5132019899319857,1.013475390151143,758.9263355000876,759.0263870998751,758.9263355000876,759.0263870998751,759.0263870998751,None,m,1,1.2264366999734193,759.0263870998751,None,,,,,f,,p2,2022_Mar_10_1321,training+cueing,2021.1.4,59.95006153952082,
Stranger.png,Friend,Stranger,m,2.3,17,27,97,,,,,1,0,1,0,,,,,6,4,76,7,,,,,,,,,,,,,,,,,,,,,1.694,1.681,760.3838806999847,None,,,,,,,,,,,,,,,,,,,,760.9258016999811,761.4281268999912,0.5038165901787579,1.0043549900874496,761.4114415999502,761.5281869000755,761.4114415999502,761.5281869000755,761.511476600077,None,m,1,1.1254016999155283,761.511476600077,None,,,,,f,,p2,2022_Mar_10_1321,training+cueing,2021.1.4,59.95006153952082,
Friend.png,Stranger,Friend,m,3.2,19,29,99,,,,,1,0,1,0,,,,,6,5,77,5,,,,,,,,,,,,,,,,,,,,,1.716,1.216,762.7701548999175,None,,,,,,,,,,,,,,,,,,,,763.313304600073,763.8131883000024,0.5008481899276376,1.0011269899550825,763.7965116000269,763.9132393000182,763.7965116000269,763.9132393000182,763.9132393000182,None,m,1,0.9155349000357091,763.9132393000182,None,,,,,f,,p2,2022_Mar_10_1321,training+cueing,2021.1.4,59.95006153952082,
Self.png,Stranger,Self ,m,3.1,18,28,98,,,,,1,0,1,0,,,,,6,6,78,2,,,,,,,,,,,,,,,,,,,,,1.685,1.931,764.9532115000766,None,,,,,,,,,,,,,,,,,,,,765.4914895000402,765.9981031999923,0.5126305902376771,1.0129153900779784,765.9814321999438,766.0981676999945,765.9814321999438,766.0981676999945,766.0814465000294,None,m,1,0.8593709000851959,766.0814465000294,None,,,,,f,,p2,2022_Mar_10_1321,training+cueing,2021.1.4,59.95006153952082,
Stranger.png,Stranger,Stranger,c,3,13,23,93,,,,,1,0,1,0,,,,,6,7,79,8,,,,,,,,,,,,,,,,,,,,,1.7,1.992,767.0717698999215,None,,,,,,,,,,,,,,,,,,,,767.6094062000047,768.11629549996,0.5107744901906699,1.011079490184784,768.0995958000422,768.2163539999165,768.0995958000422,768.2163539999165,768.1996287000366,None,c,1,1.317330699879676,768.1996287000366,None,,,,,f,,p2,2022_Mar_10_1321,training+cueing,2021.1.4,59.95006153952082,
Friend.png,Friend,Friend,c,2,12,22,92,,,,,1,0,1,0,,,,,6,8,80,4,,,,,,,,,,,,,,,,,,,,,1.442,1.577,769.6440810000058,None,,,,,,,,,,,,,,,,,,,,770.1803550999612,770.6847991000395,0.5083748900797218,1.0086759901605546,770.668126200093,770.7848390999716,770.668126200093,770.7848390999716,770.7681815999094,None,c,1,0.7325364998541772,770.7681815999094,None,,,,,f,,p2,2022_Mar_10_1321,training+cueing,2021.1.4,59.95006153952082,
Self.png,You,Self ,c,1,11,21,91,,,,,1,0,1,0,,,,,6,9,81,0,,,,,,,,,,,,,,,,,,,,,1.655,1.523,771.6253134000581,None,,,,,,,,,,,,,,,,,,,,772.1658340999857,772.669579199981,0.5082805899437517,1.0085731900762767,772.6528837999795,772.7529341999907,772.6528837999795,772.7529341999907,772.7529341999907,None,c,1,0.6519576001446694,772.7529341999907,None,,,,,f,,p2,2022_Mar_10_1321,training+cueing,2021.1.4,59.95006153952082,
Friend.png,You,Friend,m,1.2,14,24,94,,,,,1,0,1,0,,,,,6,10,82,3,,,,,,,,,,,,,,,,,,,,,1.619,1.374,773.5273070998956,None,,,,,,,,,,,,,,,,,,,,774.066450299928,774.5709786999505,0.5068025898654014,1.0071014899294823,774.5542568999808,774.6543266000226,774.5542568999808,774.6543266000226,774.6543266000226,None,m,1,0.8143813000060618,774.6543266000226,None,,,,,f,,p2,2022_Mar_10_1321,training+cueing,2021.1.4,59.95006153952082,
Stranger.png,Stranger,Stranger,c,3,13,23,93,,,,,1,0,1,0,,,,,6,11,83,11,,,,,,,,,,,,,,,,,,,,,1.52,1.724,775.594441199908,None,,,,,,,,,,,,,,,,,,,,776.1352347000502,776.63911930006,0.506917690159753,1.0072076900396496,776.6224372000434,776.7391800000332,776.6224372000434,776.7391800000332,776.7224737999495,None,c,1,1.0822765999473631,776.7224737999495,None,,,,,f,,p2,2022_Mar_10_1321,training+cueing,2021.1.4,59.95006153952082,
Friend.png,Friend,Friend,c,2,12,22,92,,,,,1,0,1,0,,,,,7,0,84,10,,,,,,,,,,,,,,,,,,,,,1.52,1.406,777.9292826000601,None,,,,,,,,,,,,,,,,,,,,778.4724423999432,778.9741068999283,0.5015931900124997,1.0019574901089072,778.9574746999424,779.0741580000613,778.9574746999424,779.0741580000613,779.0741580000613,None,c,1,0.762587099801749,779.0741580000613,None,,,,,f,,p2,2022_Mar_10_1321,training+cueing,2021.1.4,59.95006153952082,
Stranger.png,Friend,Stranger,m,2.3,17,27,97,,,,,1,0,1,0,,,,,7,1,85,7,,,,,,,,,,,,,,,,,,,,,1.474,2.378,779.9644752000459,None,,,,,,,,,,,,,,,,,,,,780.5080349000636,781.0089344999287,0.501487490022555,1.0017813900485635,780.9922372999135,781.1089902999811,780.9922372999135,781.1089902999811,781.1089902999811,None,m,1,1.0638378001749516,781.1089902999811,None,,,,,f,,p2,2022_Mar_10_1321,training+cueing,2021.1.4,59.95006153952082,
