Image,Name,Face,CorrAns,Match,Face_onset,CResponse_onset,IResponse_onset,Match.thisRepN,Match.thisTrialN,Match.thisN,Match.thisIndex,Blocks.thisRepN,Blocks.thisTrialN,Blocks.thisN,Blocks.thisIndex,trials.thisRepN,trials.thisTrialN,trials.thisN,trials.thisIndex,trials_2.thisRepN,trials_2.thisTrialN,trials_2.thisN,trials_2.thisIndex,text.started,text.stopped,p1.started,p1.stopped,MatchInstructions.started,MatchInstructions.stopped,Name1.started,Name1.stopped,Face_Relevance.started,Face_Relevance.stopped,MismatchInstructions.started,MismatchInstructions.stopped,Rest_trainingInstruct.started,Rest_trainingInstruct.stopped,next8.keys,next8.rt,next8.started,next8.stopped,Ready.started,Ready.stopped,delay_one_picked,delay_two_picked,blank0.started,blank0.stopped,FixationCross1.started,FixationCross1.stopped,Name3.started,Name3.stopped,Face_Relevance3.started,Face_Relevance3.stopped,responseTime.started,responseTime.stopped,resp.keys,resp.corr,resp.started,resp.stopped,Accuracy.started,Accuracy.stopped,resp.rt,questions.started,questions.stopped,p2.started,p2.stopped,FixationCross3.started,FixationCross3.stopped,port_Face_onset.started,port_Face_onset.stopped,Name4.started,Name4.stopped,Face_Relevance4.started,Face_Relevance4.stopped,responseTime2.started,responseTime2.stopped,Response.keys,Response.corr,Response.rt,Response.started,Response.stopped,p3.started,p3.stopped,Finish.started,Finish.stopped,gender,age,participant,date,expName,psychopyVersion,frameRate,
Self.png,You,,,,,,,0,0,0,0,,,,,,,,,,,,,36.083662399993045,None,0.006414479663362727,0.5024875796516426,43.742150800011586,None,62.155889300018316,None,62.155889300018316,None,,,,,,,,,,,,,,,,,,,,,,,,,,,,,,,,,,,,,,,,,,,,,,,,,,,,,,,P30B,2022-09-16_11h48.34.663,training+cueing,2022.1.3,60.04549046044891,
Friend.png,Friend,,,,,,,0,1,1,1,,,,,,,,,,,,,,,,,,,82.04534949999652,None,82.04534949999652,None,,,,,,,,,,,,,,,,,,,,,,,,,,,,,,,,,,,,,,,,,,,,,,,,,,,,,,,P30B,2022-09-16_11h48.34.663,training+cueing,2022.1.3,60.04549046044891,
Stranger.png,Stranger,,,,,,,0,2,2,2,,,,,,,,,,,,,,,,,,,102.04613980001886,None,102.04613980001886,None,,,,,,,,,,,,,,,,,,,,,,,,,,,,,,,,,,,,,,,,,,,,,,,,,,,,,,,P30B,2022-09-16_11h48.34.663,training+cueing,2022.1.3,60.04549046044891,
Stranger.png,Stranger,Stranger,c,3,13,23,93,,,,,0,0,0,0,0,0,0,8,,,,,,,,,,,,,,,122.00197219999973,None,147.30339559999993,None,space,19.800260399992112,2.0001071199949365,None,169.1026367000013,None,1.525,1.481,172.10769370000344,None,172.72769319999497,173.238797900005,173.20547079999233,173.30554729999858,173.20547079999233,173.30554729999858,173.30554729999858,None,None,0,173.30554729999858,None,174.84004700000514,None,,,,,,,,,,,,,,,,,,,,,,,,,,,P30B,2022-09-16_11h48.34.663,training+cueing,2022.1.3,60.04549046044891,
Self.png,Friend,Self ,m,2.1,16,26,96,,,,,0,0,0,0,0,1,1,1,,,,,,,,,,,,,,,,,,,,,,,,,1.636,1.506,175.24054930001148,None,175.78170369999134,176.29132210000535,176.27463600001647,176.3913845999923,176.27463600001647,176.3913845999923,176.3913845999923,None,m,1,176.3913845999923,None,177.3751723000023,None,0.9520114999904763,,,,,,,,,,,,,,,,,,,,,,,,,,P30B,2022-09-16_11h48.34.663,training+cueing,2022.1.3,60.04549046044891,
Self.png,You,Self ,c,1,11,21,91,,,,,0,0,0,0,0,2,2,0,,,,,,,,,,,,,,,,,,,,,,,,,1.697,1.863,177.7754133999988,None,178.30569609999657,178.80954650000785,178.79283150000265,178.89285570001812,178.79283150000265,178.89285570001812,178.89285570001812,None,c,1,178.89285570001812,None,179.59362520001014,None,0.6748746999946889,,,,,,,,,,,,,,,,,,,,,,,,,,P30B,2022-09-16_11h48.34.663,training+cueing,2022.1.3,60.04549046044891,
Self.png,Stranger,Self ,m,3.1,18,28,98,,,,,0,0,0,0,0,3,3,2,,,,,,,,,,,,,,,,,,,,,,,,,1.517,1.835,179.99389780001366,None,180.524424800009,181.0278876000084,181.0112294999999,181.12796750001144,181.0112294999999,181.12796750001144,181.11125889999676,None,m,1,181.11125889999676,None,181.6449966999935,None,0.5041809999966063,,,,,,,,,,,,,,,,,,,,,,,,,,P30B,2022-09-16_11h48.34.663,training+cueing,2022.1.3,60.04549046044891,
Stranger.png,You,Stranger,m,1.3,15,25,95,,,,,0,0,0,0,0,4,4,6,,,,,,,,,,,,,,,,,,,,,,,,,1.668,2.427,182.04525080000167,None,182.57599010001286,183.07945180000388,183.06281480001053,183.16276589999325,183.06281480001053,183.16276589999325,183.16276589999325,None,m,1,183.16276589999325,None,184.18021570000565,None,0.9971014000184368,,,,,,,,,,,,,,,,,,,,,,,,,,P30B,2022-09-16_11h48.34.663,training+cueing,2022.1.3,60.04549046044891,
Friend.png,You,Friend,m,1.2,14,24,94,,,,,0,0,0,0,0,5,5,3,,,,,,,,,,,,,,,,,,,,,,,,,1.478,2.13,184.58046190001187,None,185.10861779999686,185.6145891000051,185.5978917000175,185.69790020000073,185.5978917000175,185.69790020000073,185.69790020000073,None,m,1,185.69790020000073,None,186.49860560000525,None,0.7822760999843013,,,,,,,,,,,,,,,,,,,,,,,,,,P30B,2022-09-16_11h48.34.663,training+cueing,2022.1.3,60.04549046044891,
Friend.png,Stranger,Friend,m,3.2,19,29,99,,,,,0,0,0,0,0,6,6,5,,,,,,,,,,,,,,,,,,,,,,,,,1.606,1.99,186.89877550001256,None,187.4352513999911,187.94953030001489,187.93293460001587,188.04964770001243,187.93293460001587,188.04964770001243,188.03292349999538,None,m,1,188.03292349999538,None,188.8169329999946,None,0.7670885999978054,,,,,,,,,,,,,,,,,,,,,,,,,,P30B,2022-09-16_11h48.34.663,training+cueing,2022.1.3,60.04549046044891,
Friend.png,Friend,Friend,c,2,12,22,92,,,,,0,0,0,0,0,7,7,10,,,,,,,,,,,,,,,,,,,,,,,,,1.599,1.719,189.21716279999237,None,189.74947640000028,190.25124129999313,190.234558199998,190.35128550001536,190.234558199998,190.35128550001536,190.35128550001536,None,m,0,190.35128550001536,None,190.784919800004,None,0.41587490000529215,,,,,,,,,,,,,,,,,,,,,,,,,,P30B,2022-09-16_11h48.34.663,training+cueing,2022.1.3,60.04549046044891,
Self.png,You,Self ,c,1,11,21,91,,,,,0,0,0,0,0,8,8,9,,,,,,,,,,,,,,,,,,,,,,,,,1.593,2.096,191.1853368000011,None,191.7236688999983,192.23617740001646,192.21943990001455,192.31947509999736,192.21943990001455,192.31947509999736,192.31947509999736,None,c,1,192.31947509999736,None,192.90306240000064,None,0.5608811999845784,,,,,,,,,,,,,,,,,,,,,,,,,,P30B,2022-09-16_11h48.34.663,training+cueing,2022.1.3,60.04549046044891,
Stranger.png,Stranger,Stranger,c,3,13,23,93,,,,,0,0,0,0,0,9,9,11,,,,,,,,,,,,,,,,,,,,,,,,,1.416,1.673,193.30328240001108,None,193.83670879999408,194.33754430001136,194.33754430001136,194.43758170001092,194.33754430001136,194.43758170001092,194.43758170001092,None,m,0,194.43758170001092,None,195.10464930001763,None,0.6342749999894295,,,,,,,,,,,,,,,,,,,,,,,,,,P30B,2022-09-16_11h48.34.663,training+cueing,2022.1.3,60.04549046044891,
Friend.png,Friend,Friend,c,2,12,22,92,,,,,0,0,0,0,0,10,10,4,,,,,,,,,,,,,,,,,,,,,,,,,1.776,2.232,195.50501059999806,None,196.03603160000057,196.5392567999952,196.52262530001462,196.6394755000074,196.52262530001462,196.6394755000074,196.62273309999728,None,c,1,196.62273309999728,None,197.58977610000875,None,0.9447371000132989,,,,,,,,,,,,,,,,,,,,,,,,,,P30B,2022-09-16_11h48.34.663,training+cueing,2022.1.3,60.04549046044891,
Stranger.png,Friend,Stranger,m,2.3,17,27,97,,,,,0,0,0,0,0,11,11,7,,,,,,,,,,,,,,,,,,,,,,,,,1.568,1.873,197.9901591000089,None,198.52263970000786,199.02426629999536,199.00759759999346,199.12432200001786,199.00759759999346,199.12432200001786,199.12432200001786,None,m,1,199.12432200001786,None,200.2585082000005,None,1.1155135000008158,,,,,,,,,,,,,,,,,,,,,,,,,,P30B,2022-09-16_11h48.34.663,training+cueing,2022.1.3,60.04549046044891,
Friend.png,Friend,Friend,c,2,12,22,92,,,,,0,0,0,0,,,,,0,0,0,4,,,,,,,,,,,,,,,,,,,244.9574465000187,None,1.759,1.702,248.47123160000774,None,,,,,,,,,,,,,,,,200.65879600000335,None,0.016198619996430352,None,249.08238150001853,249.59419780000462,0.5019231599580962,1.0021321599779185,249.5774786999973,249.69419900001958,249.5774786999973,249.69419900001958,249.67747680001776,None,c,1,0.7386006999877281,249.67747680001776,None,,,,,,,P30B,2022-09-16_11h48.34.663,training+cueing,2022.1.3,60.04549046044891,
Stranger.png,Stranger,Stranger,c,3,13,23,93,,,,,0,0,0,0,,,,,0,1,1,11,,,,,,,,,,,,,,,,,,,,,1.585,2.104,250.54787130001932,None,,,,,,,,,,,,,,,,,,,,251.0928203999938,251.596269200003,0.5034814599785022,1.0036393599875737,251.57896060001804,251.69573279999895,251.57896060001804,251.69573279999895,251.67902290000347,None,c,1,1.0727971000014804,251.67902290000347,None,,,,,,,P30B,2022-09-16_11h48.34.663,training+cueing,2022.1.3,60.04549046044891,
Self.png,Stranger,Self ,m,3.1,18,28,98,,,,,0,0,0,0,,,,,0,2,2,2,,,,,,,,,,,,,,,,,,,,,1.635,1.841,252.88176150000072,None,,,,,,,,,,,,,,,,,,,,253.42389830001048,253.9306843999948,0.510778260009829,1.0110205600212794,253.91395119999652,254.0306411999918,253.91395119999652,254.0306411999918,254.01391569999396,None,m,1,0.6893563999910839,254.01391569999396,None,,,,,,,P30B,2022-09-16_11h48.34.663,training+cueing,2022.1.3,60.04549046044891,
Friend.png,Friend,Friend,c,2,12,22,92,,,,,0,0,0,0,,,,,0,3,3,10,,,,,,,,,,,,,,,,,,,,,1.712,1.923,254.8331618999946,None,,,,,,,,,,,,,,,,,,,,255.37758170001325,255.8820291000011,0.5045949600171298,None,255.8653067999985,255.98207790000015,255.8653067999985,255.98207790000015,255.9653809000156,None,c,1,0.32278849999420345,255.9653809000156,None,,,,,,,P30B,2022-09-16_11h48.34.663,training+cueing,2022.1.3,60.04549046044891,
Stranger.png,You,Stranger,m,1.3,15,25,95,,,,,0,0,0,0,,,,,0,4,4,6,,,,,,,,,,,,,,,,,,,,,1.425,2.026,256.4171758000157,None,,,,,,,,,,,,,,,,,,,,256.9466594000114,257.44986310001696,0.504146760009462,1.00441256002523,257.433211399999,257.53347590001067,257.433211399999,257.53347590001067,257.53347590001067,None,m,1,0.8502174000022933,257.53347590001067,None,,,,,,,P30B,2022-09-16_11h48.34.663,training+cueing,2022.1.3,60.04549046044891,
Friend.png,You,Friend,m,1.2,14,24,94,,,,,0,0,0,0,,,,,0,5,5,3,,,,,,,,,,,,,,,,,,,,,1.468,2.103,258.50311910000164,None,,,,,,,,,,,,,,,,,,,,259.0446323000069,259.551349699992,0.5108134599868208,1.0111757600097917,259.5346681000083,259.6347229999956,259.5346681000083,259.6347229999956,259.6347229999956,None,m,1,0.669008800003212,259.6347229999956,None,,,,,,,P30B,2022-09-16_11h48.34.663,training+cueing,2022.1.3,60.04549046044891,
Stranger.png,Friend,Stranger,m,2.3,17,27,97,,,,,0,0,0,0,,,,,0,6,6,7,,,,,,,,,,,,,,,,,,,,,1.634,2.014,260.4366948000097,None,,,,,,,,,,,,,,,,,,,,260.96610019999207,261.46946320001734,0.5028572600276675,1.0031368600321002,261.4527417999925,261.569435900019,261.4527417999925,261.569435900019,261.5527238000068,None,m,1,0.7664155999955256,261.5527238000068,None,,,,,,,P30B,2022-09-16_11h48.34.663,training+cueing,2022.1.3,60.04549046044891,
Stranger.png,Stranger,Stranger,c,3,13,23,93,,,,,0,0,0,0,,,,,0,7,7,8,,,,,,,,,,,,,,,,,,,,,1.787,1.23,262.43836090000696,None,,,,,,,,,,,,,,,,,,,,262.9883067999908,263.48752950000926,0.512747760018101,1.0130539600213524,263.48752950000926,263.5882028999913,263.48752950000926,263.5882028999913,263.5882028999913,None,m,0,0.3954774000158068,263.5882028999913,None,,,,,,,P30B,2022-09-16_11h48.34.663,training+cueing,2022.1.3,60.04549046044891,
Self.png,You,Self ,c,1,11,21,91,,,,,0,0,0,0,,,,,0,8,8,0,,,,,,,,,,,,,,,,,,,,,1.454,2.009,264.1061958000064,None,,,,,,,,,,,,,,,,,,,,264.6507233000011,265.1554950000136,0.5049558600003365,1.0052476600103546,265.1387681000051,265.238817800011,265.1387681000051,265.238817800011,265.238817800011,None,c,1,0.6649379000009503,265.238817800011,None,,,,,,,P30B,2022-09-16_11h48.34.663,training+cueing,2022.1.3,60.04549046044891,
Friend.png,Stranger,Friend,m,3.2,19,29,99,,,,,0,0,0,0,,,,,0,9,9,5,,,,,,,,,,,,,,,,,,,,,1.452,1.269,266.0245947999938,None,,,,,,,,,,,,,,,,,,,,266.57105800000136,267.0736750999931,0.5031509599939454,1.00338265998289,267.05691970000044,267.1736256000004,267.05691970000044,267.1736256000004,267.1569113000005,None,None,0,,267.1569113000005,None,,,,,,,P30B,2022-09-16_11h48.34.663,training+cueing,2022.1.3,60.04549046044891,
Self.png,Friend,Self ,m,2.1,16,26,96,,,,,0,0,0,0,,,,,0,10,10,1,,,,,,,,,,,,,,,,,,,,,1.606,1.626,268.70904169999994,None,,,,,,,,,,,,,,,,,,,,269.23914479999803,269.7421169000154,0.5036973599926569,1.0041094599873759,269.725368799991,269.8420623000129,269.725368799991,269.8420623000129,269.82542740000645,None,m,1,0.9257247000059579,269.82542740000645,None,,,,,,,P30B,2022-09-16_11h48.34.663,training+cueing,2022.1.3,60.04549046044891,
Self.png,You,Self ,c,1,11,21,91,,,,,0,0,0,0,,,,,0,11,11,9,,,,,,,,,,,,,,,,,,,,,1.736,1.438,270.87873640001635,None,,,,,,,,,,,,,,,,,,,,271.4221700000053,271.9270080999995,0.505196860030992,1.0054586600454058,271.9103327000048,272.0104085000057,271.9103327000048,272.0104085000057,272.0104085000057,None,c,1,0.7097337000013795,272.0104085000057,None,,,,,,,P30B,2022-09-16_11h48.34.663,training+cueing,2022.1.3,60.04549046044891,
Stranger.png,Friend,Stranger,m,2.3,17,27,97,,,,,0,0,0,0,,,,,1,0,12,7,,,,,,,,,,,,,,,,,,,,,1.761,2.062,272.8463010000123,None,,,,,,,,,,,,,,,,,,,,273.3947783000185,273.89506820001407,0.5151937600167003,1.0155398600327317,273.89506820001407,273.99515619999147,273.89506820001407,273.99515619999147,273.99515619999147,None,m,1,0.7247193999937735,273.99515619999147,None,,,,,,,P30B,2022-09-16_11h48.34.663,training+cueing,2022.1.3,60.04549046044891,
Stranger.png,Stranger,Stranger,c,3,13,23,93,,,,,0,0,0,0,,,,,1,1,13,8,,,,,,,,,,,,,,,,,,,,,1.426,2.08,274.8477111000102,None,,,,,,,,,,,,,,,,,,,,275.3933948999911,275.8965519000194,0.5039559600118082,1.0042044600122608,275.87989860001835,275.99660179999773,275.87989860001835,275.99660179999773,275.979962900019,None,m,0,0.6116902999929152,275.979962900019,None,,,,,,,P30B,2022-09-16_11h48.34.663,training+cueing,2022.1.3,60.04549046044891,
Self.png,Friend,Self ,m,2.1,16,26,96,,,,,0,0,0,0,,,,,1,2,14,1,,,,,,,,,,,,,,,,,,,,,1.589,2.471,276.71583510001074,None,,,,,,,,,,,,,,,,,,,,277.2601886000193,277.7645865000086,0.5045792600139976,1.0048308600089513,277.747855900001,277.8645991999947,277.747855900001,277.8645991999947,277.84788069999195,None,c,0,0.6638087999890558,277.84788069999195,None,,,,,,,P30B,2022-09-16_11h48.34.663,training+cueing,2022.1.3,60.04549046044891,
Stranger.png,Stranger,Stranger,c,3,13,23,93,,,,,0,0,0,0,,,,,1,3,15,11,,,,,,,,,,,,,,,,,,,,,1.591,1.604,278.63344309999957,None,,,,,,,,,,,,,,,,,,,,279.179249000008,279.6826388000045,0.5041216599929612,1.0045089600025676,279.66588800001773,279.78280410001753,279.66588800001773,279.78280410001753,279.76606680001714,None,c,1,1.1139388000010513,279.76606680001714,None,,,,,,,P30B,2022-09-16_11h48.34.663,training+cueing,2022.1.3,60.04549046044891,
Friend.png,Friend,Friend,c,2,12,22,92,,,,,0,0,0,0,,,,,1,4,16,4,,,,,,,,,,,,,,,,,,,,,1.636,2.138,281.00163290000637,None,,,,,,,,,,,,,,,,,,,,281.5493609000114,282.0509923000063,0.499609460006468,0.9998225600284059,282.0343971000111,282.15100260000327,282.0343971000111,282.15100260000327,282.15100260000327,None,c,1,0.5532202000031248,282.15100260000327,None,,,,,,,P30B,2022-09-16_11h48.34.663,training+cueing,2022.1.3,60.04549046044891,
Stranger.png,You,Stranger,m,1.3,15,25,95,,,,,0,0,0,0,,,,,1,5,17,6,,,,,,,,,,,,,,,,,,,,,1.425,1.918,282.8366631999961,None,,,,,,,,,,,,,,,,,,,,283.38159770000493,283.8856541000132,0.5055933599942364,1.0057848599972203,283.86899849999463,283.9689972999913,283.86899849999463,283.9689972999913,283.9689972999913,None,m,1,0.8149964999756776,283.9689972999913,None,,,,,,,P30B,2022-09-16_11h48.34.663,training+cueing,2022.1.3,60.04549046044891,
Friend.png,Friend,Friend,c,2,12,22,92,,,,,0,0,0,0,,,,,1,6,18,10,,,,,,,,,,,,,,,,,,,,,1.499,2.106,284.90465840001707,None,,,,,,,,,,,,,,,,,,,,285.45003229999566,285.9538300000131,0.5050743599713314,1.0052988599636592,285.93718060001265,286.05386620000354,285.93718060001265,286.05386620000354,286.03713489999063,None,c,1,0.5709142999839969,286.03713489999063,None,,,,,,,P30B,2022-09-16_11h48.34.663,training+cueing,2022.1.3,60.04549046044891,
Self.png,You,Self ,c,1,11,21,91,,,,,0,0,0,0,,,,,1,7,19,0,,,,,,,,,,,,,,,,,,,,,1.466,2.187,286.7433527999965,None,,,,,,,,,,,,,,,,,,,,287.29037360000075,287.8051628000103,0.5087720600131433,1.0089418600255158,287.78854880001745,287.88850430000457,287.78854880001745,287.88850430000457,287.88850430000457,None,c,1,0.6551880999759305,287.88850430000457,None,,,,,,,P30B,2022-09-16_11h48.34.663,training+cueing,2022.1.3,60.04549046044891,
Self.png,You,Self ,c,1,11,21,91,,,,,0,0,0,0,,,,,1,8,20,9,,,,,,,,,,,,,,,,,,,,,1.682,1.383,288.67374389999895,None,,,,,,,,,,,,,,,,,,,,289.2003543000028,289.70653049999964,0.5099385599896777,1.0102298599958885,289.68987239999115,289.78998060000595,289.68987239999115,289.78998060000595,289.78998060000595,None,c,1,0.6578454000118654,289.78998060000595,None,,,,,,,P30B,2022-09-16_11h48.34.663,training+cueing,2022.1.3,60.04549046044891,
Self.png,Stranger,Self ,m,3.1,18,28,98,,,,,0,0,0,0,,,,,1,9,21,2,,,,,,,,,,,,,,,,,,,,,1.405,1.787,290.57516760000726,None,,,,,,,,,,,,,,,,,,,,291.1054688000004,291.60793709999416,0.5031802600133233,1.0034261599939782,291.59132300000056,291.7079903999984,291.59132300000056,291.7079903999984,291.6913622000138,None,c,0,0.38869680001516826,291.6913622000138,None,,,,,,,P30B,2022-09-16_11h48.34.663,training+cueing,2022.1.3,60.04549046044891,
Friend.png,Stranger,Friend,m,3.2,19,29,99,,,,,0,0,0,0,,,,,1,10,22,5,,,,,,,,,,,,,,,,,,,,,1.672,1.818,292.20982409999124,None,,,,,,,,,,,,,,,,,,,,292.7517836000188,293.2592108999961,0.5106949600449298,1.0108737600385211,293.2426100000157,293.35921860000235,293.2426100000157,293.35921860000235,293.3426030999981,None,m,1,0.784754399996018,293.3426030999981,None,,,,,,,P30B,2022-09-16_11h48.34.663,training+cueing,2022.1.3,60.04549046044891,
Friend.png,You,Friend,m,1.2,14,24,94,,,,,0,0,0,0,,,,,1,11,23,3,,,,,,,,,,,,,,,,,,,,,1.42,2.157,294.2609943000134,None,,,,,,,,,,,,,,,,,,,,294.7916627000086,295.2941618000041,0.5031704600551166,1.0035977600491606,295.27734309999505,295.37743580000824,295.27734309999505,295.37743580000824,295.37743580000824,None,m,1,1.1987353000149596,295.37743580000824,None,,,,,,,P30B,2022-09-16_11h48.34.663,training+cueing,2022.1.3,60.04549046044891,
Self.png,You,Self ,c,1,11,21,91,,,,,0,0,0,0,,,,,2,0,24,0,,,,,,,,,,,,,,,,,,,,,1.51,1.607,296.69611829999485,None,,,,,,,,,,,,,,,,,,,,297.2218767000013,297.72880810001516,0.5090967599826399,1.0095063599874265,297.7121670000197,297.8122122999921,297.7121670000197,297.8122122999921,297.8122122999921,None,c,1,0.5563411000184715,297.8122122999921,None,,,,,,,P30B,2022-09-16_11h48.34.663,training+cueing,2022.1.3,60.04549046044891,
Self.png,Stranger,Self ,m,3.1,18,28,98,,,,,0,0,0,0,,,,,2,1,25,2,,,,,,,,,,,,,,,,,,,,,1.454,1.447,298.4976707000169,None,,,,,,,,,,,,,,,,,,,,299.03979380000965,299.5470183000143,0.5124977799714543,1.012685479974607,299.5303421000135,299.6470030999917,299.5303421000135,299.6470030999917,299.6302544999926,None,m,1,1.1527994999778457,299.6302544999926,None,,,,,,,P30B,2022-09-16_11h48.34.663,training+cueing,2022.1.3,60.04549046044891,
Friend.png,You,Friend,m,1.2,14,24,94,,,,,0,0,0,0,,,,,2,2,26,3,,,,,,,,,,,,,,,,,,,,,1.451,2.251,300.91639610001585,None,,,,,,,,,,,,,,,,,,,,301.4614231000014,301.965380300011,0.505445860006148,1.0056294600071851,301.948759699997,302.0486974999949,301.948759699997,302.0486974999949,302.0486974999949,None,m,1,0.6864330999960657,302.0486974999949,None,,,,,,,P30B,2022-09-16_11h48.34.663,training+cueing,2022.1.3,60.04549046044891,
Stranger.png,Stranger,Stranger,c,3,13,23,93,,,,,0,0,0,0,,,,,2,3,27,8,,,,,,,,,,,,,,,,,,,,,1.53,1.634,302.86833090000437,None,,,,,,,,,,,,,,,,,,,,303.4257518000086,303.933526000008,0.5114313800004311,1.0116978799924254,303.9167875999992,304.0335601000115,303.9167875999992,304.0335601000115,304.0167877000058,None,m,0,0.703238699992653,304.0167877000058,None,,,,,,,P30B,2022-09-16_11h48.34.663,training+cueing,2022.1.3,60.04549046044891,
Friend.png,Stranger,Friend,m,3.2,19,29,99,,,,,0,0,0,0,,,,,2,4,28,5,,,,,,,,,,,,,,,,,,,,,1.641,1.357,304.85269349999726,None,,,,,,,,,,,,,,,,,,,,305.3947330999945,305.90155579999555,0.5110132599947974,1.0114096599863842,305.88486360001843,306.0016411000106,305.88486360001843,306.0016411000106,305.98487909999676,None,m,1,0.6549005999986548,305.98487909999676,None,,,,,,,P30B,2022-09-16_11h48.34.663,training+cueing,2022.1.3,60.04549046044891,
Friend.png,Friend,Friend,c,2,12,22,92,,,,,0,0,0,0,,,,,2,5,29,10,,,,,,,,,,,,,,,,,,,,,1.541,1.914,306.7749246000021,None,,,,,,,,,,,,,,,,,,,,307.316061599995,307.8196558000054,0.5047428599791601,1.0049835599784274,307.80295549999573,307.91967699999805,307.80295549999573,307.91967699999805,307.9029467999935,None,c,1,1.2321391999721527,307.9029467999935,None,,,,,,,P30B,2022-09-16_11h48.34.663,training+cueing,2022.1.3,60.04549046044891,
Stranger.png,Friend,Stranger,m,2.3,17,27,97,,,,,0,0,0,0,,,,,2,6,30,7,,,,,,,,,,,,,,,,,,,,,1.632,2.122,309.2553230000194,None,,,,,,,,,,,,,,,,,,,,309.7887285000179,310.2881745000195,0.5119728600257076,1.0123618600191548,310.2881745000195,310.3883351999975,310.2881745000195,310.3883351999975,310.3883351999975,None,m,1,0.6989140000077896,310.3883351999975,None,,,,,,,P30B,2022-09-16_11h48.34.663,training+cueing,2022.1.3,60.04549046044891,
Stranger.png,Stranger,Stranger,c,3,13,23,93,,,,,0,0,0,0,,,,,2,7,31,11,,,,,,,,,,,,,,,,,,,,,1.488,1.762,311.2067357999913,None,,,,,,,,,,,,,,,,,,,,311.74427480000304,312.2561832999927,0.5041347600053996,1.0042400599922985,312.2396354000084,312.35626259999117,312.2396354000084,312.35626259999117,312.3394852000056,None,None,0,,312.3394852000056,None,,,,,,,P30B,2022-09-16_11h48.34.663,training+cueing,2022.1.3,60.04549046044891,
Self.png,You,Self ,c,1,11,21,91,,,,,0,0,0,0,,,,,2,8,32,9,,,,,,,,,,,,,,,,,,,,,1.724,2.472,313.94162860000506,None,,,,,,,,,,,,,,,,,,,,314.470513200009,314.974809700012,0.5041556600481272,1.004449360043509,314.95810530000017,315.05816570000025,314.95810530000017,315.05816570000025,315.05816570000025,None,None,0,,315.05816570000025,None,,,,,,,P30B,2022-09-16_11h48.34.663,training+cueing,2022.1.3,60.04549046044891,
Self.png,Friend,Self ,m,2.1,16,26,96,,,,,0,0,0,0,,,,,2,9,33,1,,,,,,,,,,,,,,,,,,,,,1.792,1.245,316.8943338000099,None,,,,,,,,,,,,,,,,,,,,317.43986149999546,317.94362030000775,0.5047972599859349,1.0051675599825103,317.92693839999265,318.04370750000817,317.92693839999265,318.04370750000817,318.02695289999247,None,m,1,0.8529568999947514,318.02695289999247,None,,,,,,,P30B,2022-09-16_11h48.34.663,training+cueing,2022.1.3,60.04549046044891,
Stranger.png,You,Stranger,m,1.3,15,25,95,,,,,0,0,0,0,,,,,2,10,34,6,,,,,,,,,,,,,,,,,,,,,1.714,2.129,319.01643079999485,None,,,,,,,,,,,,,,,,,,,,319.56135890001315,320.0617865000095,0.51554605999263,1.0159535599814262,320.0617865000095,320.16185540001607,320.0617865000095,320.16185540001607,320.16185540001607,None,m,1,0.7501105999981519,320.16185540001607,None,,,,,,,P30B,2022-09-16_11h48.34.663,training+cueing,2022.1.3,60.04549046044891,
Friend.png,Friend,Friend,c,2,12,22,92,,,,,0,0,0,0,,,,,2,11,35,4,,,,,,,,,,,,,,,,,,,,,1.563,2.316,321.03059370000847,None,,,,,,,,,,,,,,,,,,,,321.5703702000028,322.07995949999895,0.5151768799987622,1.0155072800116614,322.06327760001295,322.1800101000117,322.06327760001295,322.1800101000117,322.16333380001015,None,c,1,0.4921567999990657,322.16333380001015,None,,,,,,,P30B,2022-09-16_11h48.34.663,training+cueing,2022.1.3,60.04549046044891,
Self.png,You,Self ,c,1,11,21,91,,,,,0,0,0,0,,,,,3,0,36,0,,,,,,,,,,,,,,,,,,,,,1.656,2.428,322.7821837000083,None,,,,,,,,,,,,,,,,,,,,323.32726690001437,323.83121200001915,0.5053124600090086,1.005654759996105,323.8145352000138,323.91461090001394,323.8145352000138,323.91461090001394,323.91461090001394,None,c,1,0.5649506000045221,323.91461090001394,None,,,,,,,P30B,2022-09-16_11h48.34.663,training+cueing,2022.1.3,60.04549046044891,
Stranger.png,You,Stranger,m,1.3,15,25,95,,,,,0,0,0,0,,,,,3,1,37,6,,,,,,,,,,,,,,,,,,,,,1.647,1.428,324.604032800009,None,,,,,,,,,,,,,,,,,,,,325.1425249000022,325.650080899999,0.5108971599838696,1.0109543599828612,325.6326423000137,325.7326995000185,325.6326423000137,325.7326995000185,325.7326995000185,None,m,1,0.6186273999919649,325.7326995000185,None,,,,,,,P30B,2022-09-16_11h48.34.663,training+cueing,2022.1.3,60.04549046044891,
Stranger.png,Stranger,Stranger,c,3,13,23,93,,,,,0,0,0,0,,,,,3,2,38,11,,,,,,,,,,,,,,,,,,,,,1.755,1.799,326.48491560001276,None,,,,,,,,,,,,,,,,,,,,327.030213799997,327.53387980000116,0.5031761599821039,1.0033798599906731,327.5172482999915,327.6339097000018,327.5172482999915,327.6339097000018,327.6172060999961,None,c,1,0.6866969999973662,327.6172060999961,None,,,,,,,P30B,2022-09-16_11h48.34.663,training+cueing,2022.1.3,60.04549046044891,
Stranger.png,Friend,Stranger,m,2.3,17,27,97,,,,,0,0,0,0,,,,,3,3,39,7,,,,,,,,,,,,,,,,,,,,,1.618,2.431,328.4358208999911,None,,,,,,,,,,,,,,,,,,,,328.9651534000004,329.4685940000054,0.5042065600282513,1.0044948600407224,329.4519683000108,329.5686730000016,329.4519683000108,329.5686730000016,329.5519522000104,None,m,1,0.719618500006618,329.5519522000104,None,,,,,,,P30B,2022-09-16_11h48.34.663,training+cueing,2022.1.3,60.04549046044891,
Friend.png,Friend,Friend,c,2,12,22,92,,,,,0,0,0,0,,,,,3,4,40,10,,,,,,,,,,,,,,,,,,,,,1.562,1.856,330.40407740001683,None,,,,,,,,,,,,,,,,,,,,330.9458822000015,331.4534067999921,0.510704660002375,1.0109518599929288,331.4367486000119,331.55345770000713,331.4367486000119,331.55345770000713,331.53672940001707,None,c,1,0.734424800000852,331.53672940001707,None,,,,,,,P30B,2022-09-16_11h48.34.663,training+cueing,2022.1.3,60.04549046044891,
Self.png,Stranger,Self ,m,3.1,18,28,98,,,,,0,0,0,0,,,,,3,5,41,2,,,,,,,,,,,,,,,,,,,,,1.738,2.05,332.40526440000394,None,,,,,,,,,,,,,,,,,,,,332.9357366000186,333.4381546000077,0.5031861600000411,1.0034225599956699,333.42149659999995,333.53822509999736,333.42149659999995,333.53822509999736,333.5214702000085,None,m,1,0.942696000012802,333.5214702000085,None,,,,,,,P30B,2022-09-16_11h48.34.663,training+cueing,2022.1.3,60.04549046044891,
Friend.png,Friend,Friend,c,2,12,22,92,,,,,0,0,0,0,,,,,3,6,42,4,,,,,,,,,,,,,,,,,,,,,1.575,2.36,334.5903793000034,None,,,,,,,,,,,,,,,,,,,,335.13597790000495,335.6397402000148,0.5049286600551568,1.0051910600450356,335.6230918999936,335.7398393000185,335.6230918999936,335.7398393000185,335.7231020000181,None,c,1,0.5328220999799669,335.7231020000181,None,,,,,,,P30B,2022-09-16_11h48.34.663,training+cueing,2022.1.3,60.04549046044891,
Friend.png,You,Friend,m,1.2,14,24,94,,,,,0,0,0,0,,,,,3,7,43,3,,,,,,,,,,,,,,,,,,,,,1.514,1.783,336.37500950001413,None,,,,,,,,,,,,,,,,,,,,336.91024379999726,337.4251761000196,0.5066747600212693,1.0076924600289203,337.4068990999949,337.50778290000744,337.4068990999949,337.50778290000744,337.50778290000744,None,m,1,0.6841771999897901,337.50778290000744,None,,,,,,,P30B,2022-09-16_11h48.34.663,training+cueing,2022.1.3,60.04549046044891,
Friend.png,Stranger,Friend,m,3.2,19,29,99,,,,,0,0,0,0,,,,,3,8,44,5,,,,,,,,,,,,,,,,,,,,,1.493,1.558,338.32641420001164,None,,,,,,,,,,,,,,,,,,,,338.87285970000084,339.3759010999929,0.5039783600077499,1.0039996599953156,339.35933320000186,339.47596760001034,339.35933320000186,339.47596760001034,339.45927759999176,None,m,1,0.8125055999844335,339.45927759999176,None,,,,,,,P30B,2022-09-16_11h48.34.663,training+cueing,2022.1.3,60.04549046044891,
Self.png,Friend,Self ,m,2.1,16,26,96,,,,,0,0,0,0,,,,,3,9,45,1,,,,,,,,,,,,,,,,,,,,,1.675,1.264,340.39466720001656,None,,,,,,,,,,,,,,,,,,,,340.94357810000656,341.44400660000974,0.5147974599967711,1.0147818599944003,341.44400660000974,341.5440152999945,341.44400660000974,341.5440152999945,341.5440152999945,None,m,1,0.631124000006821,341.5440152999945,None,,,,,,,P30B,2022-09-16_11h48.34.663,training+cueing,2022.1.3,60.04549046044891,
Self.png,You,Self ,c,1,11,21,91,,,,,0,0,0,0,,,,,3,10,46,9,,,,,,,,,,,,,,,,,,,,,1.583,2.081,342.30040229999577,None,,,,,,,,,,,,,,,,,,,,342.841104799998,343.34533040001406,0.504365860047983,1.0045765600225423,343.32869349999237,343.4286529000092,343.32869349999237,343.4286529000092,343.4286529000092,None,c,1,0.4433151999837719,343.4286529000092,None,,,,,,,P30B,2022-09-16_11h48.34.663,training+cueing,2022.1.3,60.04549046044891,
Stranger.png,Stranger,Stranger,c,3,13,23,93,,,,,0,0,0,0,,,,,3,11,47,8,,,,,,,,,,,,,,,,,,,,,1.511,1.653,343.997048899997,None,,,,,,,,,,,,,,,,,,,,344.52791979999165,345.02989979999256,0.5024933599925134,1.0027842599956784,345.01320529999794,345.12998480000533,345.01320529999794,345.12998480000533,345.1132548000023,None,m,0,0.46992519998457283,345.1132548000023,None,,,,,,,P30B,2022-09-16_11h48.34.663,training+cueing,2022.1.3,60.04549046044891,
Stranger.png,Stranger,Stranger,c,3,13,23,93,,,,,0,0,0,0,,,,,4,0,48,8,,,,,,,,,,,,,,,,,,,,,1.672,1.829,345.71510960001615,None,,,,,,,,,,,,,,,,,,,,346.2571496000164,346.76501659999485,0.5105207599990536,1.010692759999074,346.7478523000027,346.86452220001956,346.7478523000027,346.86452220001956,346.84779580001486,None,c,1,0.5756714000017382,346.84779580001486,None,,,,,,,P30B,2022-09-16_11h48.34.663,training+cueing,2022.1.3,60.04549046044891,
Friend.png,You,Friend,m,1.2,14,24,94,,,,,0,0,0,0,,,,,4,1,49,3,,,,,,,,,,,,,,,,,,,,,1.75,1.444,347.54957810000633,None,,,,,,,,,,,,,,,,,,,,348.07901310001034,348.58256280000205,0.5040466600330546,1.0045814600307494,348.5656300999981,348.6658632000035,348.5656300999981,348.6658632000035,348.6658632000035,None,m,1,0.6297694999957457,348.6658632000035,None,,,,,,,P30B,2022-09-16_11h48.34.663,training+cueing,2022.1.3,60.04549046044891,
Self.png,You,Self ,c,1,11,21,91,,,,,0,0,0,0,,,,,4,2,50,9,,,,,,,,,,,,,,,,,,,,,1.726,1.876,349.4179832999944,None,,,,,,,,,,,,,,,,,,,,349.9604914000083,350.4673088999989,0.5107913600222673,1.0111318600247614,350.45047320000594,350.55053169999155,350.45047320000594,350.55053169999155,350.55053169999155,None,c,1,0.6648891000077128,350.55053169999155,None,,,,,,,P30B,2022-09-16_11h48.34.663,training+cueing,2022.1.3,60.04549046044891,
Stranger.png,Stranger,Stranger,c,3,13,23,93,,,,,0,0,0,0,,,,,4,3,51,11,,,,,,,,,,,,,,,,,,,,,1.488,1.779,351.33605330000864,None,,,,,,,,,,,,,,,,,,,,351.88519319999614,352.38523040001746,0.5129399600264151,1.0131819600064773,352.38523040001746,352.48524159999215,352.38523040001746,352.48524159999215,352.48524159999215,None,c,1,0.6340283999743406,352.48524159999215,None,,,,,,,P30B,2022-09-16_11h48.34.663,training+cueing,2022.1.3,60.04549046044891,
Friend.png,Friend,Friend,c,2,12,22,92,,,,,0,0,0,0,,,,,4,4,52,10,,,,,,,,,,,,,,,,,,,,,1.61,2.148,353.2377863000147,None,,,,,,,,,,,,,,,,,,,,353.7846804000146,354.28677830001106,0.5026322600024287,1.0031058599997777,354.2700509999995,354.3867218999949,354.2700509999995,354.3867218999949,354.37003489999915,None,c,1,0.8945131000073161,354.37003489999915,None,,,,,,,P30B,2022-09-16_11h48.34.663,training+cueing,2022.1.3,60.04549046044891,
Friend.png,Friend,Friend,c,2,12,22,92,,,,,0,0,0,0,,,,,4,5,53,4,,,,,,,,,,,,,,,,,,,,,1.502,2.464,355.38870979999774,None,,,,,,,,,,,,,,,,,,,,355.93104699999094,356.4381554000138,0.5109196600096766,1.011200760025531,356.4214869000134,356.5382304000086,356.4214869000134,356.5382304000086,356.5215053000138,None,c,1,0.5823796000040602,356.5215053000138,None,,,,,,,P30B,2022-09-16_11h48.34.663,training+cueing,2022.1.3,60.04549046044891,
Friend.png,Stranger,Friend,m,3.2,19,29,99,,,,,0,0,0,0,,,,,4,6,54,5,,,,,,,,,,,,,,,,,,,,,1.439,1.506,357.2235357000027,None,,,,,,,,,,,,,,,,,,,,357.7543580000056,358.25612730000285,0.5003682599926833,1.0006359599647112,358.23946219999925,358.3561800000025,358.23946219999925,358.3561800000025,358.3561800000025,None,m,1,0.5713195000134874,358.3561800000025,None,,,,,,,P30B,2022-09-16_11h48.34.663,training+cueing,2022.1.3,60.04549046044891,
Stranger.png,You,Stranger,m,1.3,15,25,95,,,,,0,0,0,0,,,,,4,7,55,6,,,,,,,,,,,,,,,,,,,,,1.564,2.244,359.0580382000189,None,,,,,,,,,,,,,,,,,,,,359.58742510000593,360.0907715999929,0.5043635600013658,1.004616360005457,360.0741296999913,360.17413820000365,360.0741296999913,360.17413820000365,360.17413820000365,None,c,0,0.4174126999860164,360.17413820000365,None,,,,,,,P30B,2022-09-16_11h48.34.663,training+cueing,2022.1.3,60.04549046044891,
Stranger.png,Friend,Stranger,m,2.3,17,27,97,,,,,0,0,0,0,,,,,4,8,56,7,,,,,,,,,,,,,,,,,,,,,1.795,1.678,360.72577640000964,None,,,,,,,,,,,,,,,,,,,,361.2582953000092,361.7586682999972,0.5134363600227516,1.0136825600347947,361.7586682999972,361.8587244999944,361.7586682999972,361.8587244999944,361.8587244999944,None,c,0,0.9245983999862801,361.8587244999944,None,,,,,,,P30B,2022-09-16_11h48.34.663,training+cueing,2022.1.3,60.04549046044891,
Self.png,Friend,Self ,m,2.1,16,26,96,,,,,0,0,0,0,,,,,4,9,57,1,,,,,,,,,,,,,,,,,,,,,1.433,2.479,362.9111523000174,None,,,,,,,,,,,,,,,,,,,,363.4534983999911,363.9602808000054,0.5109557599935215,1.0113118599692825,363.9435901000106,364.0603156000143,363.9435901000106,364.0603156000143,364.04366379999556,None,m,1,0.8835722999938298,364.04366379999556,None,,,,,,,P30B,2022-09-16_11h48.34.663,training+cueing,2022.1.3,60.04549046044891,
Self.png,You,Self ,c,1,11,21,91,,,,,0,0,0,0,,,,,4,10,58,0,,,,,,,,,,,,,,,,,,,,,1.554,1.659,365.0459170000104,None,,,,,,,,,,,,,,,,,,,,365.59145470001386,366.09526990001905,0.5030474600207526,1.0052687600255013,366.07662989999517,366.17851329999394,366.07662989999517,366.17851329999394,366.17851329999394,None,c,1,0.5415045999980066,366.17851329999394,None,,,,,,,P30B,2022-09-16_11h48.34.663,training+cueing,2022.1.3,60.04549046044891,
Self.png,Stranger,Self ,m,3.1,18,28,98,,,,,0,0,0,0,,,,,4,11,59,2,,,,,,,,,,,,,,,,,,,,,1.535,1.617,366.8478937000036,None,,,,,,,,,,,,,,,,,,,,367.4072618999926,367.913177600014,0.5080950800329447,1.0082946800102945,367.89651789999334,368.01313520001713,367.89651789999334,368.01313520001713,367.9964280000131,None,m,1,0.6266704000008758,367.9964280000131,None,,,,,,,P30B,2022-09-16_11h48.34.663,training+cueing,2022.1.3,60.04549046044891,
Friend.png,Friend,Friend,c,2,12,22,92,,,,,0,0,0,0,,,,,5,0,60,4,,,,,,,,,,,,,,,,,,,,,1.519,1.749,368.74845350001124,None,,,,,,,,,,,,,,,,,,,,369.29459450001013,369.79790380000486,0.504077560006408,1.0044496600166894,369.7811226999911,369.8978874000022,369.7811226999911,369.8978874000022,369.88118759999634,None,c,1,0.5662731000047643,369.88118759999634,None,,,,,,,P30B,2022-09-16_11h48.34.663,training+cueing,2022.1.3,60.04549046044891,
Friend.png,You,Friend,m,1.2,14,24,94,,,,,0,0,0,0,,,,,5,1,61,3,,,,,,,,,,,,,,,,,,,,,1.76,1.245,370.56652490000124,None,,,,,,,,,,,,,,,,,,,,371.1118802000128,371.6158230000001,0.5054926600132603,1.0057919600221794,371.5991651999939,371.69915520001086,371.5991651999939,371.69915520001086,371.69915520001086,None,m,1,0.5568460999929812,371.69915520001086,None,,,,,,,P30B,2022-09-16_11h48.34.663,training+cueing,2022.1.3,60.04549046044891,
Stranger.png,Stranger,Stranger,c,3,13,23,93,,,,,0,0,0,0,,,,,5,2,62,8,,,,,,,,,,,,,,,,,,,,,1.41,1.414,372.3881118000136,None,,,,,,,,,,,,,,,,,,,,372.9299098000047,373.433800800005,0.5034957600291818,1.003791060007643,373.4171076999919,373.5338144999987,373.4171076999919,373.5338144999987,373.5171220000193,None,c,1,0.5147756999940611,373.5171220000193,None,,,,,,,P30B,2022-09-16_11h48.34.663,training+cueing,2022.1.3,60.04549046044891,
Friend.png,Friend,Friend,c,2,12,22,92,,,,,0,0,0,0,,,,,5,3,63,10,,,,,,,,,,,,,,,,,,,,,1.44,2.22,374.15254260000074,None,,,,,,,,,,,,,,,,,,,,374.69831130001694,375.20172149999416,0.5041928600112442,1.0047466600080952,375.1850369000167,375.30177720001666,375.1850369000167,375.30177720001666,375.28506560000824,None,c,1,0.7784969999920577,375.28506560000824,None,,,,,,,P30B,2022-09-16_11h48.34.663,training+cueing,2022.1.3,60.04549046044891,
Self.png,You,Self ,c,1,11,21,91,,,,,0,0,0,0,,,,,5,4,64,0,,,,,,,,,,,,,,,,,,,,,1.583,1.405,376.18716770000174,None,,,,,,,,,,,,,,,,,,,,376.71560940000927,377.2198493000178,0.5040883600013331,1.0045776600018144,377.20317560000694,377.3032029000169,377.20317560000694,377.3032029000169,377.3032029000169,None,c,1,0.6003323999757413,377.3032029000169,None,,,,,,,P30B,2022-09-16_11h48.34.663,training+cueing,2022.1.3,60.04549046044891,
Stranger.png,You,Stranger,m,1.3,15,25,95,,,,,0,0,0,0,,,,,5,5,65,6,,,,,,,,,,,,,,,,,,,,,1.652,1.744,378.0218970999995,None,,,,,,,,,,,,,,,,,,,,378.5647975000029,379.0712557999941,0.5105411600088701,1.0108089600107633,379.0545304999978,379.15457410001545,379.0545304999978,379.15457410001545,379.15457410001545,None,m,1,1.5014568000042345,379.15457410001545,None,,,,,,,P30B,2022-09-16_11h48.34.663,training+cueing,2022.1.3,60.04549046044891,
Stranger.png,Friend,Stranger,m,2.3,17,27,97,,,,,0,0,0,0,,,,,5,6,66,7,,,,,,,,,,,,,,,,,,,,,1.624,1.612,380.7911929000111,None,,,,,,,,,,,,,,,,,,,,381.33615780001855,381.83989980001934,0.5050185599830002,1.0052301599935163,381.8232043000171,381.9399470000062,381.8232043000171,381.9399470000062,381.9231953000126,None,m,1,0.8924870000046212,381.9231953000126,None,,,,,,,P30B,2022-09-16_11h48.34.663,training+cueing,2022.1.3,60.04549046044891,
Self.png,You,Self ,c,1,11,21,91,,,,,0,0,0,0,,,,,5,7,67,9,,,,,,,,,,,,,,,,,,,,,1.571,1.214,382.94215720001375,None,,,,,,,,,,,,,,,,,,,,383.48998640000354,383.99141459999373,0.5154541600495577,1.0158403600507881,383.99141459999373,384.0915285999945,383.99141459999373,384.0915285999945,384.0915285999945,None,c,1,0.6124043999880087,384.0915285999945,None,,,,,,,P30B,2022-09-16_11h48.34.663,training+cueing,2022.1.3,60.04549046044891,
Friend.png,Stranger,Friend,m,3.2,19,29,99,,,,,0,0,0,0,,,,,5,8,68,5,,,,,,,,,,,,,,,,,,,,,1.759,1.562,384.827638799994,None,,,,,,,,,,,,,,,,,,,,385.37318210001104,385.8761441000097,0.5035714599944185,1.0040009600052144,385.8594653000182,385.9762433000142,385.8594653000182,385.9762433000142,385.9594619999989,None,m,1,0.9517660999845248,385.9594619999989,None,,,,,,,P30B,2022-09-16_11h48.34.663,training+cueing,2022.1.3,60.04549046044891,
Stranger.png,Stranger,Stranger,c,3,13,23,93,,,,,0,0,0,0,,,,,5,9,69,11,,,,,,,,,,,,,,,,,,,,,1.526,1.349,387.04511710000224,None,,,,,,,,,,,,,,,,,,,,387.5879644000088,388.0943704000092,0.51048225996783,1.0107565599610098,388.07773439999437,388.19441490000463,388.07773439999437,388.19441490000463,388.17773550000857,None,m,0,1.3896667000080924,388.17773550000857,None,,,,,,,P30B,2022-09-16_11h48.34.663,training+cueing,2022.1.3,60.04549046044891,
Self.png,Stranger,Self ,m,3.1,18,28,98,,,,,0,0,0,0,,,,,5,10,70,2,,,,,,,,,,,,,,,,,,,,,1.66,1.419,389.6968598999956,None,,,,,,,,,,,,,,,,,,,,390.22282840000116,390.72962850000476,0.5096601600234862,1.0099224600126036,390.71297640001285,390.82964700000593,390.71297640001285,390.82964700000593,390.81306469999254,None,m,1,0.8988209000090137,390.81306469999254,None,,,,,,,P30B,2022-09-16_11h48.34.663,training+cueing,2022.1.3,60.04549046044891,
Self.png,Friend,Self ,m,2.1,16,26,96,,,,,0,0,0,0,,,,,5,11,71,1,,,,,,,,,,,,,,,,,,,,,1.411,1.713,391.8325240999984,None,,,,,,,,,,,,,,,,,,,,392.3775258999958,392.8811615000013,0.504728959989734,1.004980859986972,392.8645298000192,392.98127399999066,392.8645298000192,392.98127399999066,392.96452900001896,None,m,1,0.8116963999927975,392.96452900001896,None,,,,,,,P30B,2022-09-16_11h48.34.663,training+cueing,2022.1.3,60.04549046044891,
Friend.png,Friend,Friend,c,2,12,22,92,,,,,0,0,0,0,,,,,6,0,72,4,,,,,,,,,,,,,,,,,,,,,1.794,1.51,393.9007003000006,None,,,,,,,,,,,,,,,,,,,,394.4418787000177,394.94983100000536,0.5106371600122657,1.0109079600078985,394.9328755000024,395.0494547999988,394.9328755000024,395.0494547999988,395.03276420000475,None,c,1,0.47064109999337234,395.03276420000475,None,,,,,,,P30B,2022-09-16_11h48.34.663,training+cueing,2022.1.3,60.04549046044891,
Self.png,You,Self ,c,1,11,21,91,,,,,0,0,0,0,,,,,6,1,73,9,,,,,,,,,,,,,,,,,,,,,1.752,1.548,395.635721300001,None,,,,,,,,,,,,,,,,,,,,396.17987799999537,396.6840668999939,0.5058054599794559,1.005897159979213,396.6674539000087,396.767419300013,396.6674539000087,396.767419300013,396.767419300013,None,c,1,0.5606279000057839,396.767419300013,None,,,,,,,P30B,2022-09-16_11h48.34.663,training+cueing,2022.1.3,60.04549046044891,
Friend.png,You,Friend,m,1.2,14,24,94,,,,,0,0,0,0,,,,,6,2,74,3,,,,,,,,,,,,,,,,,,,,,1.566,1.525,397.45228630001657,None,,,,,,,,,,,,,,,,,,,,397.97876570001245,398.48528870000155,0.5104658599884715,1.0106388599961065,398.46864559999085,398.5686160000041,398.46864559999085,398.5686160000041,398.5686160000041,None,m,1,0.5831231999909505,398.5686160000041,None,,,,,,,P30B,2022-09-16_11h48.34.663,training+cueing,2022.1.3,60.04549046044891,
Friend.png,Friend,Friend,c,2,12,22,92,,,,,0,0,0,0,,,,,6,3,75,10,,,,,,,,,,,,,,,,,,,,,1.572,1.642,399.27469890000066,None,,,,,,,,,,,,,,,,,,,,399.8165481000033,400.3198910999927,0.5022902600176167,1.0027229599945713,400.30324549999204,400.4199981999991,400.30324549999204,400.4199981999991,400.4032588000118,None,c,1,0.5565246999904048,400.4032588000118,None,,,,,,,P30B,2022-09-16_11h48.34.663,training+cueing,2022.1.3,60.04549046044891,
Self.png,Stranger,Self ,m,3.1,18,28,98,,,,,0,0,0,0,,,,,6,4,76,2,,,,,,,,,,,,,,,,,,,,,1.557,1.323,401.08864370000083,None,,,,,,,,,,,,,,,,,,,,401.63486429999466,402.13793799999985,0.5037163600209169,1.0039894600049593,402.1212311999989,402.23793420000584,402.1212311999989,402.23793420000584,402.2212831999932,None,c,0,0.6261494999926072,402.2212831999932,None,,,,,,,P30B,2022-09-16_11h48.34.663,training+cueing,2022.1.3,60.04549046044891,
Stranger.png,Friend,Stranger,m,2.3,17,27,97,,,,,0,0,0,0,,,,,6,5,77,7,,,,,,,,,,,,,,,,,,,,,1.635,1.315,402.973358999996,None,,,,,,,,,,,,,,,,,,,,403.5188388999959,404.02260580001166,0.5049916599818971,1.0052388600015547,404.0059023000067,404.1226841000025,404.0059023000067,404.1226841000025,404.1059528000187,None,m,1,0.8375515999796335,404.1059528000187,None,,,,,,,P30B,2022-09-16_11h48.34.663,training+cueing,2022.1.3,60.04549046044891,
Self.png,You,Self ,c,1,11,21,91,,,,,0,0,0,0,,,,,6,6,78,0,,,,,,,,,,,,,,,,,,,,,1.433,2.229,405.07480200001737,None,,,,,,,,,,,,,,,,,,,,405.6194694000005,406.1241684000124,0.5051952600188088,1.0055002600129228,406.1074837000051,406.2074863000016,406.1074837000051,406.2074863000016,406.2074863000016,None,c,1,0.46511540000210516,406.2074863000016,None,,,,,,,P30B,2022-09-16_11h48.34.663,training+cueing,2022.1.3,60.04549046044891,
Stranger.png,You,Stranger,m,1.3,15,25,95,,,,,0,0,0,0,,,,,6,7,79,6,,,,,,,,,,,,,,,,,,,,,1.449,1.244,406.7941128000093,None,,,,,,,,,,,,,,,,,,,,407.33529780001845,407.84205160001875,0.510944859997835,1.0113304599944968,407.8253418999957,407.9253983999952,407.8253418999957,407.9253983999952,407.9253983999952,None,m,1,0.8099116999947,407.9253983999952,None,,,,,,,P30B,2022-09-16_11h48.34.663,training+cueing,2022.1.3,60.04549046044891,
Stranger.png,Stranger,Stranger,c,3,13,23,93,,,,,0,0,0,0,,,,,6,8,80,8,,,,,,,,,,,,,,,,,,,,,1.727,1.592,408.86136840001564,None,,,,,,,,,,,,,,,,,,,,409.409381400008,409.91021200001705,0.5143211600079667,1.0146153600071557,409.91021200001705,410.01025789999403,409.91021200001705,410.01025789999403,410.01025789999403,None,c,1,0.8061318999971263,410.01025789999403,None,,,,,,,P30B,2022-09-16_11h48.34.663,training+cueing,2022.1.3,60.04549046044891,
Friend.png,Stranger,Friend,m,3.2,19,29,99,,,,,0,0,0,0,,,,,6,9,81,5,,,,,,,,,,,,,,,,,,,,,1.693,2.262,410.9460301999934,None,,,,,,,,,,,,,,,,,,,,411.4885006000113,411.9950425999996,0.510431860020617,1.0106302600179333,411.9783982000081,412.095038200001,411.9783982000081,412.095038200001,412.0783572999935,None,m,1,0.6256754999922123,412.0783572999935,None,,,,,,,P30B,2022-09-16_11h48.34.663,training+cueing,2022.1.3,60.04549046044891,
Self.png,Friend,Self ,m,2.1,16,26,96,,,,,0,0,0,0,,,,,6,10,82,1,,,,,,,,,,,,,,,,,,,,,1.523,1.602,412.8307461999939,None,,,,,,,,,,,,,,,,,,,,413.37594009999884,413.8797380000178,0.5050432599964552,1.0053523599926848,413.8630739999935,413.97981089999666,413.8630739999935,413.97981089999666,413.9630650000181,None,c,0,0.5657581999839749,413.9630650000181,None,,,,,,,P30B,2022-09-16_11h48.34.663,training+cueing,2022.1.3,60.04549046044891,
Stranger.png,Stranger,Stranger,c,3,13,23,93,,,,,0,0,0,0,,,,,6,11,83,11,,,,,,,,,,,,,,,,,,,,,1.781,1.761,414.64943300001323,None,,,,,,,,,,,,,,,,,,,,415.1937600999954,415.69776149999234,0.5037078600144014,1.003960760019254,415.6810655000154,415.7979376000003,415.6810655000154,415.7979376000003,415.78107240001555,None,m,0,0.9396865000016987,415.78107240001555,None,,,,,,,P30B,2022-09-16_11h48.34.663,training+cueing,2022.1.3,60.04549046044891,
Stranger.png,Stranger,Stranger,c,3,13,23,93,,,,,0,0,0,0,,,,,7,0,84,11,,,,,,,,,,,,,,,,,,,,,1.743,1.774,416.85055520001333,None,,,,,,,,,,,,,,,,,,,,417.3978207000182,417.89932870000484,0.5010880599729717,1.0012737599899992,417.8826761000091,417.9994062000187,417.8826761000091,417.9994062000187,417.9994062000187,None,c,1,0.528590300003998,417.9994062000187,None,,,,,,,P30B,2022-09-16_11h48.34.663,training+cueing,2022.1.3,60.04549046044891,
Friend.png,You,Friend,m,1.2,14,24,94,,,,,0,0,0,0,,,,,7,1,85,3,,,,,,,,,,,,,,,,,,,,,1.758,2.432,418.6510449000052,None,,,,,,,,,,,,,,,,,,,,419.1803293999983,419.68394449999323,0.5045561599836219,1.0048203599872068,419.66727140001603,419.7673075000057,419.66727140001603,419.7673075000057,419.7673075000057,None,m,1,0.6324029999959748,419.7673075000057,None,,,,,,,P30B,2022-09-16_11h48.34.663,training+cueing,2022.1.3,60.04549046044891,
Friend.png,Friend,Friend,c,2,12,22,92,,,,,0,0,0,0,,,,,7,2,86,10,,,,,,,,,,,,,,,,,,,,,1.687,1.423,420.5194321000017,None,,,,,,,,,,,,,,,,,,,,421.06847180001205,421.5686859000125,0.5134211600234266,1.0136474600294605,421.5686859000125,421.6687235000136,421.5686859000125,421.6687235000136,421.6687235000136,None,c,1,0.6349839999747928,421.6687235000136,None,,,,,,,P30B,2022-09-16_11h48.34.663,training+cueing,2022.1.3,60.04549046044891,
Friend.png,Stranger,Friend,m,3.2,19,29,99,,,,,0,0,0,0,,,,,7,3,87,5,,,,,,,,,,,,,,,,,,,,,1.57,2.438,422.43746050001937,None,,,,,,,,,,,,,,,,,,,,422.98392359999707,423.48667929999647,0.5034888599766418,1.003753359982511,423.47001039999304,423.58673400001135,423.47001039999304,423.58673400001135,423.5700343000062,None,m,1,0.558163899986539,423.5700343000062,None,,,,,,,P30B,2022-09-16_11h48.34.663,training+cueing,2022.1.3,60.04549046044891,
Self.png,You,Self ,c,1,11,21,91,,,,,0,0,0,0,,,,,7,4,88,0,,,,,,,,,,,,,,,,,,,,,1.627,2.2,424.2554463999986,None,,,,,,,,,,,,,,,,,,,,424.80090299999574,425.30470549999154,0.5032467599958181,1.0035791599948425,425.28800190001493,425.3880743999907,425.28800190001493,425.3880743999907,425.3880743999907,None,c,1,0.4351709999900777,425.3880743999907,None,,,,,,,P30B,2022-09-16_11h48.34.663,training+cueing,2022.1.3,60.04549046044891,
Self.png,You,Self ,c,1,11,21,91,,,,,0,0,0,0,,,,,7,5,89,9,,,,,,,,,,,,,,,,,,,,,1.604,1.346,425.9565298999951,None,,,,,,,,,,,,,,,,,,,,426.48328149999725,426.9892439999967,0.5094032600172795,1.0096635600202717,426.97255550001864,427.07260600000154,426.97255550001864,427.07260600000154,427.07260600000154,None,c,1,0.6868892000056803,427.07260600000154,None,,,,,,,P30B,2022-09-16_11h48.34.663,training+cueing,2022.1.3,60.04549046044891,
Stranger.png,Friend,Stranger,m,2.3,17,27,97,,,,,0,0,0,0,,,,,7,6,90,7,,,,,,,,,,,,,,,,,,,,,1.503,1.365,427.89152629999444,None,,,,,,,,,,,,,,,,,,,,428.4368872999912,428.9406990999996,0.5050394600548316,1.005259260040475,428.9239987000183,429.0406748999958,428.9239987000183,429.0406748999958,429.0240213999932,None,m,1,0.6075872000074014,429.0240213999932,None,,,,,,,P30B,2022-09-16_11h48.34.663,training+cueing,2022.1.3,60.04549046044891,
Self.png,Stranger,Self ,m,3.1,18,28,98,,,,,0,0,0,0,,,,,7,7,91,2,,,,,,,,,,,,,,,,,,,,,1.731,2.342,429.75947620000807,None,,,,,,,,,,,,,,,,,,,,430.30844819999766,430.80865489999996,0.5132675599888898,1.0135451600071974,430.80865489999996,430.90867080001044,430.80865489999996,430.90867080001044,430.90867080001044,None,c,0,0.46691550000105053,430.90867080001044,None,,,,,,,P30B,2022-09-16_11h48.34.663,training+cueing,2022.1.3,60.04549046044891,
Self.png,Friend,Self ,m,2.1,16,26,96,,,,,0,0,0,0,,,,,7,8,92,1,,,,,,,,,,,,,,,,,,,,,1.685,2.411,431.4940639999986,None,,,,,,,,,,,,,,,,,,,,432.03981370001566,432.5471002999984,0.5043919600138906,1.0213442600215785,432.526568900008,432.6432519000082,432.526568900008,432.6432519000082,432.62657140000374,None,m,1,0.9413428000116255,432.62657140000374,None,,,,,,,P30B,2022-09-16_11h48.34.663,training+cueing,2022.1.3,60.04549046044891,
Friend.png,Friend,Friend,c,2,12,22,92,,,,,0,0,0,0,,,,,7,9,93,4,,,,,,,,,,,,,,,,,,,,,1.599,1.614,433.69648260000395,None,,,,,,,,,,,,,,,,,,,,434.2380927000195,434.74484010000015,0.5109038599766791,1.0111600599775556,434.7281870000006,434.8449145000195,434.7281870000006,434.8449145000195,434.82821930001955,None,c,1,0.7230361000110861,434.82821930001955,None,,,,,,,P30B,2022-09-16_11h48.34.663,training+cueing,2022.1.3,60.04549046044891,
Stranger.png,Stranger,Stranger,c,3,13,23,93,,,,,0,0,0,0,,,,,7,10,94,8,,,,,,,,,,,,,,,,,,,,,1.493,1.716,435.68022629999905,None,,,,,,,,,,,,,,,,,,,,436.2102601999941,436.7129832000064,0.5018393600184936,1.0019439600291662,436.6963814999908,436.8130681000184,436.6963814999908,436.8130681000184,436.79637060000096,None,m,0,0.4993069999909494,436.79637060000096,None,,,,,,,P30B,2022-09-16_11h48.34.663,training+cueing,2022.1.3,60.04549046044891,
Stranger.png,You,Stranger,m,1.3,15,25,95,,,,,0,0,0,0,,,,,7,11,95,6,,,,,,,,,,,,,,,,,,,,,1.431,2.366,437.41513890001806,None,,,,,,,,,,,,,,,,,,,,437.9600798000174,438.46434639999643,0.5057764599914663,1.0058252599847037,438.4476852999942,438.54785730000003,438.4476852999942,438.54785730000003,438.54785730000003,None,c,0,0.5886014999996405,438.54785730000003,None,,,,,,,P30B,2022-09-16_11h48.34.663,training+cueing,2022.1.3,60.04549046044891,
Friend.png,You,Friend,m,1.2,14,24,94,,,,,0,0,0,0,,,,,8,0,96,3,,,,,,,,,,,,,,,,,,,,,1.485,2.375,439.2666469000105,None,,,,,,,,,,,,,,,,,,,,439.8081419999944,440.3156194000039,0.5104693599860184,1.0106549600022845,440.2989559000125,440.39894889999414,440.2989559000125,440.39894889999414,440.39894889999414,None,m,1,0.800750499998685,440.39894889999414,None,,,,,,,P30B,2022-09-16_11h48.34.663,training+cueing,2022.1.3,60.04549046044891,
Stranger.png,Friend,Stranger,m,2.3,17,27,97,,,,,0,0,0,0,,,,,8,1,97,7,,,,,,,,,,,,,,,,,,,,,1.646,2.036,441.3178334000113,None,,,,,,,,,,,,,,,,,,,,441.8676075999974,442.3670255000179,0.5131543600000441,1.0134558599966113,442.3670255000179,442.4670849000104,442.3670255000179,442.4670849000104,442.4670849000104,None,m,1,1.244633900001645,442.4670849000104,None,,,,,,,P30B,2022-09-16_11h48.34.663,training+cueing,2022.1.3,60.04549046044891,
Friend.png,Stranger,Friend,m,3.2,19,29,99,,,,,0,0,0,0,,,,,8,2,98,5,,,,,,,,,,,,,,,,,,,,,1.414,2.05,443.83677640001406,None,,,,,,,,,,,,,,,,,,,,444.38231770001585,444.8856331999996,0.504109560046345,1.0042485600279178,444.8689955000009,444.98558239999693,444.8689955000009,444.98558239999693,444.9688351000077,None,m,1,0.6793644000135828,444.9688351000077,None,,,,,,,P30B,2022-09-16_11h48.34.663,training+cueing,2022.1.3,60.04549046044891,
Self.png,Friend,Self ,m,2.1,16,26,96,,,,,0,0,0,0,,,,,8,3,99,1,,,,,,,,,,,,,,,,,,,,,1.46,1.575,445.77072880000924,None,,,,,,,,,,,,,,,,,,,,446.30056560001685,446.8035659000161,0.5021072600502521,1.0023587600444444,446.78689419999137,446.90360230000806,446.78689419999137,446.90360230000806,446.8868986000016,None,c,0,0.5048072999925353,446.8868986000016,None,,,,,,,P30B,2022-09-16_11h48.34.663,training+cueing,2022.1.3,60.04549046044891,
Self.png,Stranger,Self ,m,3.1,18,28,98,,,,,0,0,0,0,,,,,8,4,100,2,,,,,,,,,,,,,,,,,,,,,1.545,1.295,447.52219109999714,None,,,,,,,,,,,,,,,,,,,,448.06872690000455,448.5715504999971,0.5035779599566013,1.0037942599738017,448.55485889999545,448.671577000001,448.55485889999545,448.671577000001,448.6550368000171,None,m,1,1.0881457999930717,448.6550368000171,None,,,,,,,P30B,2022-09-16_11h48.34.663,training+cueing,2022.1.3,60.04549046044891,
Friend.png,Friend,Friend,c,2,12,22,92,,,,,0,0,0,0,,,,,8,5,101,4,,,,,,,,,,,,,,,,,,,,,1.641,1.946,449.8743431000039,None,,,,,,,,,,,,,,,,,,,,450.4194925999909,450.92321969999466,0.5049426600162406,1.0051579599967226,450.90657849999843,451.0233070999966,450.90657849999843,451.0233070999966,451.006581499998,None,c,1,0.7849861000140663,451.006581499998,None,,,,,,,P30B,2022-09-16_11h48.34.663,training+cueing,2022.1.3,60.04549046044891,
Stranger.png,Stranger,Stranger,c,3,13,23,93,,,,,0,0,0,0,,,,,8,6,102,11,,,,,,,,,,,,,,,,,,,,,1.727,2.206,451.92572830000427,None,,,,,,,,,,,,,,,,,,,,452.47114340000553,452.9746648000146,0.503210160008166,1.0034949599939864,452.95804319999297,453.0747386000003,452.95804319999297,453.0747386000003,453.0580578999943,None,c,1,0.653778300009435,453.0580578999943,None,,,,,,,P30B,2022-09-16_11h48.34.663,training+cueing,2022.1.3,60.04549046044891,
Self.png,You,Self ,c,1,11,21,91,,,,,0,0,0,0,,,,,8,7,103,9,,,,,,,,,,,,,,,,,,,,,1.471,2.136,453.8438592000166,None,,,,,,,,,,,,,,,,,,,,454.3886388000101,454.8927801999962,0.5057281600311399,None,454.8761293000134,454.9761912999966,454.8761293000134,454.9761912999966,454.9761912999966,None,c,1,0.3832637000014074,454.9761912999966,None,,,,,,,P30B,2022-09-16_11h48.34.663,training+cueing,2022.1.3,60.04549046044891,
Stranger.png,You,Stranger,m,1.3,15,25,95,,,,,0,0,0,0,,,,,8,8,104,6,,,,,,,,,,,,,,,,,,,,,1.464,2.227,455.4788302000088,None,,,,,,,,,,,,,,,,,,,,456.01989520000643,456.5273864000046,0.5105573600449134,1.0107310600287747,456.5107214000018,456.6106604000088,456.5107214000018,456.6106604000088,456.6106604000088,None,m,1,0.6046372000128031,456.6106604000088,None,,,,,,,P30B,2022-09-16_11h48.34.663,training+cueing,2022.1.3,60.04549046044891,
Stranger.png,Stranger,Stranger,c,3,13,23,93,,,,,0,0,0,0,,,,,8,9,105,8,,,,,,,,,,,,,,,,,,,,,1.597,1.407,457.3459267000144,None,,,,,,,,,,,,,,,,,,,,457.8792156999989,458.37863270001253,0.5133297600259539,1.013621760008391,458.37863270001253,458.4786784000171,458.37863270001253,458.4786784000171,458.4786784000171,None,c,1,0.6887551999825519,458.4786784000171,None,,,,,,,P30B,2022-09-16_11h48.34.663,training+cueing,2022.1.3,60.04549046044891,
Self.png,You,Self ,c,1,11,21,91,,,,,0,0,0,0,,,,,8,10,106,0,,,,,,,,,,,,,,,,,,,,,1.695,1.334,459.2973016000178,None,,,,,,,,,,,,,,,,,,,,459.8265657000011,460.3300390999939,0.5045582600287162,1.0048183600301854,460.31340210000053,460.4133873000101,460.31340210000053,460.4133873000101,460.4133873000101,None,c,1,0.5307891999837011,460.4133873000101,None,,,,,,,P30B,2022-09-16_11h48.34.663,training+cueing,2022.1.3,60.04549046044891,
Friend.png,Friend,Friend,c,2,12,22,92,,,,,0,0,0,0,,,,,8,11,107,10,,,,,,,,,,,,,,,,,,,,,1.65,1.522,461.0654538999952,None,,,,,,,,,,,,,,,,,,,,461.6141864999954,462.11469020001823,0.5139306600030977,1.0141851600201335,462.11469020001823,462.214702199999,462.11469020001823,462.214702199999,462.214702199999,None,c,1,0.5524828999768943,462.214702199999,None,,,,,,,P30B,2022-09-16_11h48.34.663,training+cueing,2022.1.3,60.04549046044891,
Self.png,Friend,Self ,m,2.1,16,26,96,,,,,0,0,0,0,,,,,9,0,108,1,,,,,,,,,,,,,,,,,,,,,1.618,1.612,462.9004235000175,None,,,,,,,,,,,,,,,,,,,,463.44249539999873,463.9499521999969,0.5111690599878784,1.0113110599922948,463.93279859999893,464.0494493000151,463.93279859999893,464.0494493000151,464.03275410001515,None,c,0,0.5426030000089668,464.03275410001515,None,,,,,,,P30B,2022-09-16_11h48.34.663,training+cueing,2022.1.3,60.04549046044891,
Self.png,You,Self ,c,1,11,21,91,,,,,0,0,0,0,,,,,9,1,109,9,,,,,,,,,,,,,,,,,,,,,1.624,2.056,464.70205449999776,None,,,,,,,,,,,,,,,,,,,,465.2465890000167,465.7506212000153,0.5055098599987105,1.005760759988334,465.73395940000773,465.8340289000189,465.73395940000773,465.8340289000189,465.8340289000189,None,c,1,0.7092629999970086,465.8340289000189,None,,,,,,,P30B,2022-09-16_11h48.34.663,training+cueing,2022.1.3,60.04549046044891,
Stranger.png,Stranger,Stranger,c,3,13,23,93,,,,,0,0,0,0,,,,,9,2,110,11,,,,,,,,,,,,,,,,,,,,,1.791,1.722,466.669301899994,None,,,,,,,,,,,,,,,,,,,,467.1984602000157,467.7020179000101,0.5028970600105822,1.0032172600040212,467.68533979999484,467.80213369999547,467.68533979999484,467.80213369999547,467.7854284000059,None,c,1,0.58215519998339,467.7854284000059,None,,,,,,,P30B,2022-09-16_11h48.34.663,training+cueing,2022.1.3,60.04549046044891,
Friend.png,Friend,Friend,c,2,12,22,92,,,,,0,0,0,0,,,,,9,3,111,4,,,,,,,,,,,,,,,,,,,,,1.493,2.3,468.4871257999912,None,,,,,,,,,,,,,,,,,,,,469.01773059999687,469.520052900014,0.5031209600274451,1.0033874600194395,469.50335270000505,469.6200455999933,469.50335270000505,469.6200455999933,469.60336750000715,None,c,1,0.636403300013626,469.60336750000715,None,,,,,,,P30B,2022-09-16_11h48.34.663,training+cueing,2022.1.3,60.04549046044891,
Self.png,Stranger,Self ,m,3.1,18,28,98,,,,,0,0,0,0,,,,,9,4,112,2,,,,,,,,,,,,,,,,,,,,,1.488,1.2,470.37195470000734,None,,,,,,,,,,,,,,,,,,,,470.90494800001034,471.40474800000084,0.5119035599636845,1.012117659964133,471.40474800000084,471.50485150000895,471.40474800000084,471.50485150000895,471.50485150000895,None,m,1,0.7341411999950651,471.50485150000895,None,,,,,,,P30B,2022-09-16_11h48.34.663,training+cueing,2022.1.3,60.04549046044891,
Stranger.png,Stranger,Stranger,c,3,13,23,93,,,,,0,0,0,0,,,,,9,5,113,8,,,,,,,,,,,,,,,,,,,,,1.486,1.451,472.3735116000171,None,,,,,,,,,,,,,,,,,,,,472.9163841000118,473.422854000004,0.5104936600255314,1.0109922600386199,473.4061617999978,473.5228782000195,473.4061617999978,473.5228782000195,473.506164099992,None,c,1,0.4930776999972295,473.506164099992,None,,,,,,,P30B,2022-09-16_11h48.34.663,training+cueing,2022.1.3,60.04549046044891,
Self.png,You,Self ,c,1,11,21,91,,,,,0,0,0,0,,,,,9,6,114,0,,,,,,,,,,,,,,,,,,,,,1.758,1.796,474.1246017999947,None,,,,,,,,,,,,,,,,,,,,474.6539126000134,475.1574137000134,0.5045840599923395,None,475.14075240000966,475.2407799999928,475.14075240000966,475.2407799999928,475.2407799999928,None,c,1,0.3590892999782227,475.2407799999928,None,,,,,,,P30B,2022-09-16_11h48.34.663,training+cueing,2022.1.3,60.04549046044891,
Stranger.png,Friend,Stranger,m,2.3,17,27,97,,,,,0,0,0,0,,,,,9,7,115,7,,,,,,,,,,,,,,,,,,,,,1.568,1.683,475.7260931000055,None,,,,,,,,,,,,,,,,,,,,476.27352280000923,476.7752754999965,0.49999286004458554,1.0003043600299861,476.7586242000107,476.87532200000715,476.7586242000107,476.87532200000715,476.87532200000715,None,m,1,0.6763610999914818,476.87532200000715,None,,,,,,,P30B,2022-09-16_11h48.34.663,training+cueing,2022.1.3,60.04549046044891,
Friend.png,You,Friend,m,1.2,14,24,94,,,,,0,0,0,0,,,,,9,8,116,3,,,,,,,,,,,,,,,,,,,,,1.778,1.947,477.67732310001156,None,,,,,,,,,,,,,,,,,,,,478.222743499995,478.726654099999,0.5056322599994019,1.0058922600001097,478.7100107000151,478.81008670001756,478.7100107000151,478.81008670001756,478.81008670001756,None,c,0,0.5333290999988094,478.81008670001756,None,,,,,,,P30B,2022-09-16_11h48.34.663,training+cueing,2022.1.3,60.04549046044891,
Friend.png,Stranger,Friend,m,3.2,19,29,99,,,,,0,0,0,0,,,,,9,9,117,5,,,,,,,,,,,,,,,,,,,,,1.458,1.996,479.462001900014,None,,,,,,,,,,,,,,,,,,,,480.0083775999956,480.51133179999306,0.5040086600347422,1.0043019600270782,480.4946481999941,480.6113411000115,480.4946481999941,480.6113411000115,480.5946918000118,None,m,1,0.8287538999866229,480.5946918000118,None,,,,,,,P30B,2022-09-16_11h48.34.663,training+cueing,2022.1.3,60.04549046044891,
Stranger.png,You,Stranger,m,1.3,15,25,95,,,,,0,0,0,0,,,,,9,10,118,6,,,,,,,,,,,,,,,,,,,,,1.613,1.718,481.5508683999942,None,,,,,,,,,,,,,,,,,,,,482.0914478999912,482.59617930001696,0.5053481599898078,1.005664459982654,482.57946090001496,482.67956320001394,482.57946090001496,482.67956320001394,482.67956320001394,None,c,0,1.0643737000063993,482.67956320001394,None,,,,,,,P30B,2022-09-16_11h48.34.663,training+cueing,2022.1.3,60.04549046044891,
Friend.png,Friend,Friend,c,2,12,22,92,,,,,0,0,0,0,,,,,9,11,119,10,,,,,,,,,,,,,,,,,,,,,1.492,2.163,483.8652589000121,None,,,,,,,,,,,,,,,,,,,,484.4110072000185,484.9145041000156,0.5046636600163765,1.0050208600296173,484.89788140001474,485.0145976000058,484.89788140001474,485.0145976000058,484.9978112000099,None,c,1,0.7773693000199273,484.9978112000099,None,,,,,,,P30B,2022-09-16_11h48.34.663,training+cueing,2022.1.3,60.04549046044891,
,,,,,,,,,,,,0,0,0,0,,,,,,,,,,,,,,,,,,,,,,,,,,,,,,,,,,,,,,,,,,,,,,,,,,,,,,,,,,,,,,,,,,,0.0030812399927526712,0.4900724400067702,,,,,P30B,2022-09-16_11h48.34.663,training+cueing,2022.1.3,60.04549046044891,
Stranger.png,Stranger,Stranger,c,3,13,23,93,,,,,1,0,1,0,0,0,0,8,,,,,,,,,,,,,,,,,486.39935839999816,None,space,0.49581739999121055,2.0121133200009353,None,488.90066810001736,None,1.53,1.693,491.90682609999203,None,492.43310460000066,492.9369799999986,492.9203947999922,493.03700420001405,492.9203947999922,493.03700420001405,493.0202896000119,None,c,1,493.0202896000119,None,493.7709262999997,None,0.7236866000166629,,,,,,,,,,,,,,,,,,,,,,,,,,P30B,2022-09-16_11h48.34.663,training+cueing,2022.1.3,60.04549046044891,
Stranger.png,You,Stranger,m,1.3,15,25,95,,,,,1,0,1,0,0,1,1,6,,,,,,,,,,,,,,,,,,,,,,,,,1.622,1.222,494.1712447000027,None,494.7017349000089,495.20531650001067,495.1886470000027,495.2886478000146,495.1886470000027,495.2886478000146,495.2886478000146,None,c,0,495.2886478000146,None,495.8055954000156,None,0.4864694999996573,,,,,,,,,,,,,,,,,,,,,,,,,,P30B,2022-09-16_11h48.34.663,training+cueing,2022.1.3,60.04549046044891,
Self.png,You,Self ,c,1,11,21,91,,,,,1,0,1,0,0,2,2,9,,,,,,,,,,,,,,,,,,,,,,,,,1.757,2.05,496.20597519999137,None,496.7340148999938,497.24011519999476,497.2234404000046,497.32345019999775,497.2234404000046,497.32345019999775,497.32345019999775,None,c,1,497.32345019999775,None,497.77375690001645,None,0.4200423000147566,,,,,,,,,,,,,,,,,,,,,,,,,,P30B,2022-09-16_11h48.34.663,training+cueing,2022.1.3,60.04549046044891,
Friend.png,Stranger,Friend,m,3.2,19,29,99,,,,,1,0,1,0,0,3,3,5,,,,,,,,,,,,,,,,,,,,,,,,,1.644,1.767,498.17408650001744,None,498.7067151000083,499.2082040999958,499.2082040999958,499.3082633000158,499.2082040999958,499.3082633000158,499.3082633000158,None,m,1,499.3082633000158,None,499.95801740000024,None,0.6280407999875024,,,,,,,,,,,,,,,,,,,,,,,,,,P30B,2022-09-16_11h48.34.663,training+cueing,2022.1.3,60.04549046044891,
Self.png,You,Self ,c,1,11,21,91,,,,,1,0,1,0,0,4,4,0,,,,,,,,,,,,,,,,,,,,,,,,,1.587,1.863,500.35919429999194,None,500.889502200007,501.3930823999981,501.3764259000018,501.47653390001506,501.3764259000018,501.47653390001506,501.47653390001506,None,c,1,501.47653390001506,None,501.91011060000164,None,0.41072889999486506,,,,,,,,,,,,,,,,,,,,,,,,,,P30B,2022-09-16_11h48.34.663,training+cueing,2022.1.3,60.04549046044891,
Self.png,Friend,Self ,m,2.1,16,26,96,,,,,1,0,1,0,0,5,5,1,,,,,,,,,,,,,,,,,,,,,,,,,1.757,1.987,502.31041659999755,None,502.8420582000108,503.3445573000063,503.3279765000043,503.4446020000032,503.3279765000043,503.4446020000032,503.42783279999276,None,m,1,503.42783279999276,None,504.078393600008,None,0.6193478999775834,,,,,,,,,,,,,,,,,,,,,,,,,,P30B,2022-09-16_11h48.34.663,training+cueing,2022.1.3,60.04549046044891,
Stranger.png,Stranger,Stranger,c,3,13,23,93,,,,,1,0,1,0,0,6,6,11,,,,,,,,,,,,,,,,,,,,,,,,,1.796,1.447,504.47862130001886,None,505.00927110001794,505.51274470001226,505.496115499991,505.6127710000146,505.496115499991,505.6127710000146,505.59607430000324,None,c,1,505.59607430000324,None,506.2299391000124,None,0.6119454000145197,,,,,,,,,,,,,,,,,,,,,,,,,,P30B,2022-09-16_11h48.34.663,training+cueing,2022.1.3,60.04549046044891,
Friend.png,Friend,Friend,c,2,12,22,92,,,,,1,0,1,0,0,7,7,4,,,,,,,,,,,,,,,,,,,,,,,,,1.687,1.571,506.6302006000187,None,507.1623555000115,507.6643266000028,507.64761949999956,507.7643461000116,507.64761949999956,507.7643461000116,507.74765010000556,None,c,1,507.74765010000556,None,508.74845469999127,None,0.971843200008152,,,,,,,,,,,,,,,,,,,,,,,,,,P30B,2022-09-16_11h48.34.663,training+cueing,2022.1.3,60.04549046044891,
Friend.png,Friend,Friend,c,2,12,22,92,,,,,1,0,1,0,0,8,8,10,,,,,,,,,,,,,,,,,,,,,,,,,1.726,2.098,509.1486939000024,None,509.67555549999815,510.1827518999926,510.16613480000524,510.2828693999909,510.16613480000524,510.2828693999909,510.26619329999085,None,c,1,510.26619329999085,None,511.1000383000064,None,0.8053185999742709,,,,,,,,,,,,,,,,,,,,,,,,,,P30B,2022-09-16_11h48.34.663,training+cueing,2022.1.3,60.04549046044891,
Self.png,Stranger,Self ,m,3.1,18,28,98,,,,,1,0,1,0,0,9,9,2,,,,,,,,,,,,,,,,,,,,,,,,,1.624,2.5,511.5004838000168,None,512.0321535000112,512.5345587000193,512.5178024999914,512.6345462000172,512.5178024999914,512.6345462000172,512.6178380000056,None,m,1,512.6178380000056,None,513.2683926000027,None,0.629452900000615,,,,,,,,,,,,,,,,,,,,,,,,,,P30B,2022-09-16_11h48.34.663,training+cueing,2022.1.3,60.04549046044891,
Friend.png,You,Friend,m,1.2,14,24,94,,,,,1,0,1,0,0,10,10,3,,,,,,,,,,,,,,,,,,,,,,,,,1.79,2.001,513.6686858000176,None,514.1991752000176,514.7027519000112,514.6860447000072,514.7860992999922,514.6860447000072,514.7860992999922,514.7860992999922,None,m,1,514.7860992999922,None,515.5201690999966,None,0.702011199988192,,,,,,,,,,,,,,,,,,,,,,,,,,P30B,2022-09-16_11h48.34.663,training+cueing,2022.1.3,60.04549046044891,
Stranger.png,Friend,Stranger,m,2.3,17,27,97,,,,,1,0,1,0,0,11,11,7,,,,,,,,,,,,,,,,,,,,,,,,,1.516,1.625,515.9203187999956,None,516.4504171000153,516.9544352999947,516.9377646000066,517.0544776000024,516.9377646000066,517.0544776000024,517.0377190000145,None,c,0,517.0377190000145,None,517.7548989999923,None,0.6899830999900587,,,,,,,,,,,,,,,,,,,,,,,,,,P30B,2022-09-16_11h48.34.663,training+cueing,2022.1.3,60.04549046044891,
Friend.png,Friend,Friend,c,2,12,22,92,,,,,1,0,1,0,,,,,0,0,0,4,,,,,,,,,,,,,,,,,,,522.6084676000173,None,1.483,2.393,526.114834500011,None,,,,,,,,,,,,,,,,518.1552291999978,None,0.016283920005662367,None,526.6390553000092,527.1453522999946,0.5095290599856526,1.009840759972576,527.128392100014,527.2451188999985,527.128392100014,527.2451188999985,527.2284989000182,None,c,1,0.6590040999872144,527.2284989000182,None,,,,,,,P30B,2022-09-16_11h48.34.663,training+cueing,2022.1.3,60.04549046044891,
Stranger.png,Stranger,Stranger,c,3,13,23,93,,,,,1,0,1,0,,,,,0,1,1,8,,,,,,,,,,,,,,,,,,,,,1.425,2.445,528.015638300014,None,,,,,,,,,,,,,,,,,,,,528.5659046999936,529.0798417000042,0.5085687600076199,1.0087865600071382,529.0631961000036,529.1798322999966,529.0631961000036,529.1798322999966,529.1631425000087,None,m,0,0.45218439999734983,529.1631425000087,None,,,,,,,P30B,2022-09-16_11h48.34.663,training+cueing,2022.1.3,60.04549046044891,
Self.png,Friend,Self ,m,2.1,16,26,96,,,,,1,0,1,0,,,,,0,2,2,1,,,,,,,,,,,,,,,,,,,,,1.746,1.519,529.7487620000029,None,,,,,,,,,,,,,,,,,,,,530.297390599997,530.7977035999938,0.5136139599781018,1.0139248599880375,530.7977035999938,530.8979867000016,530.7977035999938,530.8979867000016,530.8979867000016,None,m,1,0.7171424000116531,530.8979867000016,None,,,,,,,P30B,2022-09-16_11h48.34.663,training+cueing,2022.1.3,60.04549046044891,
Friend.png,Friend,Friend,c,2,12,22,92,,,,,1,0,1,0,,,,,0,3,3,10,,,,,,,,,,,,,,,,,,,,,1.441,2.186,531.7338156000187,None,,,,,,,,,,,,,,,,,,,,532.2758580000082,532.7825252000184,0.5106986599857919,1.0109779599879403,532.7658233999973,532.8825448999996,532.7658233999973,532.8825448999996,532.8658730000025,None,c,1,0.5746533000201453,532.8658730000025,None,,,,,,,P30B,2022-09-16_11h48.34.663,training+cueing,2022.1.3,60.04549046044891,
Friend.png,Stranger,Friend,m,3.2,19,29,99,,,,,1,0,1,0,,,,,0,4,4,5,,,,,,,,,,,,,,,,,,,,,1.534,2.237,533.5677580000192,None,,,,,,,,,,,,,,,,,,,,534.1134819000144,534.6172238000145,0.5031461600156035,1.0034181600203738,534.6004906000162,534.7171922000125,534.6004906000162,534.7171922000125,534.7005188000039,None,m,1,0.7236652999999933,534.7005188000039,None,,,,,,,P30B,2022-09-16_11h48.34.663,training+cueing,2022.1.3,60.04549046044891,
Self.png,You,Self ,c,1,11,21,91,,,,,1,0,1,0,,,,,0,5,5,0,,,,,,,,,,,,,,,,,,,,,1.627,2.303,535.5530080000171,None,,,,,,,,,,,,,,,,,,,,536.0979100000113,536.6019706999941,0.505620159994578,1.0057725599908736,536.5853595999943,536.6853405000002,536.5853595999943,536.6853405000002,536.6853405000002,None,c,1,0.5150317000225186,536.6853405000002,None,,,,,,,P30B,2022-09-16_11h48.34.663,training+cueing,2022.1.3,60.04549046044891,
Stranger.png,You,Stranger,m,1.3,15,25,95,,,,,1,0,1,0,,,,,0,6,6,6,,,,,,,,,,,,,,,,,,,,,1.409,2.265,537.3204469000048,None,,,,,,,,,,,,,,,,,,,,537.8468624000088,538.3531939999957,0.510138960002223,1.0104130599938799,538.3365434000152,538.4365988000063,538.3365434000152,538.4365988000063,538.4365988000063,None,m,1,0.6356571999785956,538.4365988000063,None,,,,,,,P30B,2022-09-16_11h48.34.663,training+cueing,2022.1.3,60.04549046044891,
Self.png,You,Self ,c,1,11,21,91,,,,,1,0,1,0,,,,,0,7,7,9,,,,,,,,,,,,,,,,,,,,,1.549,2.446,539.2051296000136,None,,,,,,,,,,,,,,,,,,,,539.7309702000057,540.2379233000102,0.5096473600133322,1.010157459997572,540.2212291000178,540.3212706999911,540.2212291000178,540.3212706999911,540.3212706999911,None,c,1,0.4464245999988634,540.3212706999911,None,,,,,,,P30B,2022-09-16_11h48.34.663,training+cueing,2022.1.3,60.04549046044891,
Stranger.png,Stranger,Stranger,c,3,13,23,93,,,,,1,0,1,0,,,,,0,8,8,11,,,,,,,,,,,,,,,,,,,,,1.518,1.735,540.8915422999999,None,,,,,,,,,,,,,,,,,,,,541.4360765000165,541.9392112999922,0.5038592599739786,1.0040700599784032,541.922508299991,542.0391969000048,541.922508299991,542.0391969000048,542.0224688000162,None,m,0,0.6006813999847509,542.0224688000162,None,,,,,,,P30B,2022-09-16_11h48.34.663,training+cueing,2022.1.3,60.04549046044891,
Self.png,Stranger,Self ,m,3.1,18,28,98,,,,,1,0,1,0,,,,,0,9,9,2,,,,,,,,,,,,,,,,,,,,,1.516,1.637,542.7456886,None,,,,,,,,,,,,,,,,,,,,543.2839121000143,543.7905518000189,0.5108260600245558,1.0110198600159492,543.7738555000105,543.8906882000156,543.7738555000105,543.8906882000156,543.8739757000003,None,m,1,0.7335442999901716,543.8739757000003,None,,,,,,,P30B,2022-09-16_11h48.34.663,training+cueing,2022.1.3,60.04549046044891,
Friend.png,You,Friend,m,1.2,14,24,94,,,,,1,0,1,0,,,,,0,10,10,3,,,,,,,,,,,,,,,,,,,,,1.473,2.428,544.7258920000168,None,,,,,,,,,,,,,,,,,,,,545.2609350999992,545.7752383000043,0.5080589600256644,1.0082919600245077,545.7586353000079,545.858605699992,545.7586353000079,545.858605699992,545.858605699992,None,m,1,0.8765848999901209,545.858605699992,None,,,,,,,P30B,2022-09-16_11h48.34.663,training+cueing,2022.1.3,60.04549046044891,
Stranger.png,Friend,Stranger,m,2.3,17,27,97,,,,,1,0,1,0,,,,,0,11,11,7,,,,,,,,,,,,,,,,,,,,,1.726,1.268,546.861043700017,None,,,,,,,,,,,,,,,,,,,,547.4063880000031,547.9100680999982,0.5050885600212496,1.0052882600284647,547.8936272000137,548.0102147000143,547.8936272000137,548.0102147000143,547.9935191000113,None,m,1,1.3653695000102744,547.9935191000113,None,,,,,,,P30B,2022-09-16_11h48.34.663,training+cueing,2022.1.3,60.04549046044891,
Stranger.png,Stranger,Stranger,c,3,13,23,93,,,,,1,0,1,0,,,,,1,0,12,11,,,,,,,,,,,,,,,,,,,,,1.608,2.067,549.4794701999926,None,,,,,,,,,,,,,,,,,,,,550.024554100004,550.5287580000004,0.5040132599824574,1.0043017599964514,550.5121062000107,550.6288101999962,550.5121062000107,550.6288101999962,550.6122010000108,None,c,1,0.7794651000003796,550.6122010000108,None,,,,,,,P30B,2022-09-16_11h48.34.663,training+cueing,2022.1.3,60.04549046044891,
Stranger.png,Friend,Stranger,m,2.3,17,27,97,,,,,1,0,1,0,,,,,1,1,13,7,,,,,,,,,,,,,,,,,,,,,1.498,1.505,551.514553999994,None,,,,,,,,,,,,,,,,,,,,552.0598159999936,552.563530000014,0.505141059984453,1.0053067599947099,552.5469198999926,552.6635454999923,552.5469198999926,552.6635454999923,552.6468318999978,None,m,1,0.6965261999866925,552.6468318999978,None,,,,,,,P30B,2022-09-16_11h48.34.663,training+cueing,2022.1.3,60.04549046044891,
Friend.png,You,Friend,m,1.2,14,24,94,,,,,1,0,1,0,,,,,1,2,14,3,,,,,,,,,,,,,,,,,,,,,1.619,2.488,553.4661292000092,None,,,,,,,,,,,,,,,,,,,,554.0154656000086,554.5150520000025,0.51346596001531,1.0136097600043286,554.5150520000025,554.6150706000044,554.5150520000025,554.6150706000044,554.6150706000044,None,m,1,0.7289979000051972,554.6150706000044,None,,,,,,,P30B,2022-09-16_11h48.34.663,training+cueing,2022.1.3,60.04549046044891,
Self.png,Stranger,Self ,m,3.1,18,28,98,,,,,1,0,1,0,,,,,1,3,15,2,,,,,,,,,,,,,,,,,,,,,1.741,2.19,555.467183300003,None,,,,,,,,,,,,,,,,,,,,556.012389200012,556.5163770999934,0.5035424600064289,1.0038760600145906,556.4997278999945,556.6164589000109,556.4997278999945,556.6164589000109,556.5997245000035,None,m,1,0.7608237999957055,556.5997245000035,None,,,,,,,P30B,2022-09-16_11h48.34.663,training+cueing,2022.1.3,60.04549046044891,
Friend.png,Stranger,Friend,m,3.2,19,29,99,,,,,1,0,1,0,,,,,1,4,16,5,,,,,,,,,,,,,,,,,,,,,1.769,1.553,557.485095800017,None,,,,,,,,,,,,,,,,,,,,558.0113338000083,558.5178138999909,0.5103926600131672,1.0107778600067832,558.5011288000096,558.6178562999994,558.5011288000096,558.6178562999994,558.601192400005,None,m,1,0.5981096000177786,558.601192400005,None,,,,,,,P30B,2022-09-16_11h48.34.663,training+cueing,2022.1.3,60.04549046044891,
Self.png,You,Self ,c,1,11,21,91,,,,,1,0,1,0,,,,,1,5,17,9,,,,,,,,,,,,,,,,,,,,,1.578,1.461,559.319751300005,None,,,,,,,,,,,,,,,,,,,,559.8488585000159,560.3524699000118,0.5046138600155246,1.0049272600153927,560.3357989999931,560.4358456000045,560.3357989999931,560.4358456000045,560.4358456000045,None,c,1,0.49111650002305396,560.4358456000045,None,,,,,,,P30B,2022-09-16_11h48.34.663,training+cueing,2022.1.3,60.04549046044891,
Friend.png,Friend,Friend,c,2,12,22,92,,,,,1,0,1,0,,,,,1,6,18,4,,,,,,,,,,,,,,,,,,,,,1.43,1.359,561.0548148000089,None,,,,,,,,,,,,,,,,,,,,561.5993706000154,562.1037675999978,0.5046879599976819,1.0048886599834077,562.0870981000189,562.2037947000063,562.0870981000189,562.2037947000063,562.187082599994,None,m,0,0.4842441999935545,562.187082599994,None,,,,,,,P30B,2022-09-16_11h48.34.663,training+cueing,2022.1.3,60.04549046044891,
Self.png,Friend,Self ,m,2.1,16,26,96,,,,,1,0,1,0,,,,,1,7,19,1,,,,,,,,,,,,,,,,,,,,,1.525,1.825,562.8056142000132,None,,,,,,,,,,,,,,,,,,,,563.3318948000087,563.8383726000029,0.5103867599973455,1.0105452599818818,563.8216805999982,563.938596299995,563.8216805999982,563.938596299995,563.921772200003,None,m,1,0.6854349999921396,563.921772200003,None,,,,,,,P30B,2022-09-16_11h48.34.663,training+cueing,2022.1.3,60.04549046044891,
Self.png,You,Self ,c,1,11,21,91,,,,,1,0,1,0,,,,,1,8,20,0,,,,,,,,,,,,,,,,,,,,,1.637,1.858,564.7403829999967,None,,,,,,,,,,,,,,,,,,,,565.2851153000083,565.7898176000162,0.5049672599707264,1.0052540599717759,565.7730734999932,565.873116600007,565.7730734999932,565.873116600007,565.873116600007,None,c,1,0.49409200000809506,565.873116600007,None,,,,,,,P30B,2022-09-16_11h48.34.663,training+cueing,2022.1.3,60.04549046044891,
Stranger.png,Stranger,Stranger,c,3,13,23,93,,,,,1,0,1,0,,,,,1,9,21,8,,,,,,,,,,,,,,,,,,,,,1.543,1.331,566.4917436999967,None,,,,,,,,,,,,,,,,,,,,567.0412820999918,567.5411290999909,0.513658360025147,1.0138261600222904,567.5411290999909,567.6412685000105,567.5411290999909,567.6412685000105,567.6412685000105,None,m,0,0.7262066999974195,567.6412685000105,None,,,,,,,P30B,2022-09-16_11h48.34.663,training+cueing,2022.1.3,60.04549046044891,
Stranger.png,You,Stranger,m,1.3,15,25,95,,,,,1,0,1,0,,,,,1,10,22,6,,,,,,,,,,,,,,,,,,,,,1.663,1.345,568.4933331999928,None,,,,,,,,,,,,,,,,,,,,569.0384571000177,569.5424904999963,0.5054631600214634,1.0058185600209981,569.525804200006,569.6259068000072,569.525804200006,569.6259068000072,569.6259068000072,None,None,0,,569.6259068000072,None,,,,,,,P30B,2022-09-16_11h48.34.663,training+cueing,2022.1.3,60.04549046044891,
Friend.png,Friend,Friend,c,2,12,22,92,,,,,1,0,1,0,,,,,1,11,23,10,,,,,,,,,,,,,,,,,,,,,1.712,1.727,571.3949802000134,None,,,,,,,,,,,,,,,,,,,,571.9319011000043,572.4447384999949,0.5048970599891618,1.0051898599776905,572.4279882000119,572.5447669000132,572.4279882000119,572.5447669000132,572.528026999993,None,m,0,0.5438340999826323,572.528026999993,None,,,,,,,P30B,2022-09-16_11h48.34.663,training+cueing,2022.1.3,60.04549046044891,
Stranger.png,Friend,Stranger,m,2.3,17,27,97,,,,,1,0,1,0,,,,,2,0,24,7,,,,,,,,,,,,,,,,,,,,,1.631,2.136,573.196391800011,None,,,,,,,,,,,,,,,,,,,,573.7391514000192,574.2457872999948,0.5102245599846356,1.0105846599908546,574.2290504999983,574.3457210000197,574.2290504999983,574.3457210000197,574.3291136000189,None,m,1,0.982263799989596,574.3291136000189,None,,,,,,,P30B,2022-09-16_11h48.34.663,training+cueing,2022.1.3,60.04549046044891,
Stranger.png,You,Stranger,m,1.3,15,25,95,,,,,1,0,1,0,,,,,2,1,25,6,,,,,,,,,,,,,,,,,,,,,1.594,1.321,575.4314078000025,None,,,,,,,,,,,,,,,,,,,,575.9613241000043,576.4649342000193,0.5024940600269474,1.003830960020423,576.4464064000058,576.551128799998,576.4464064000058,576.551128799998,576.551128799998,None,m,1,0.7453105999738909,576.551128799998,None,,,,,,,P30B,2022-09-16_11h48.34.663,training+cueing,2022.1.3,60.04549046044891,
Self.png,You,Self ,c,1,11,21,91,,,,,1,0,1,0,,,,,2,2,26,9,,,,,,,,,,,,,,,,,,,,,1.758,1.299,577.4164592000016,None,,,,,,,,,,,,,,,,,,,,577.9594737000007,578.4656512000074,0.5084726600034628,1.0088698600011412,578.4489317999978,578.5489950999909,578.4489317999978,578.5489950999909,578.5489950999909,None,c,1,0.5542274999897927,578.5489950999909,None,,,,,,,P30B,2022-09-16_11h48.34.663,training+cueing,2022.1.3,60.04549046044891,
Friend.png,Friend,Friend,c,2,12,22,92,,,,,1,0,1,0,,,,,2,3,27,4,,,,,,,,,,,,,,,,,,,,,1.438,2.267,579.234226200002,None,,,,,,,,,,,,,,,,,,,,579.767476500012,580.2669667000009,0.5133514600165654,1.0135679600352887,580.2669667000009,580.3669602000155,580.2669667000009,580.3669602000155,580.3669602000155,None,c,1,0.8652207999839447,580.3669602000155,None,,,,,,,P30B,2022-09-16_11h48.34.663,training+cueing,2022.1.3,60.04549046044891,
Stranger.png,Stranger,Stranger,c,3,13,23,93,,,,,1,0,1,0,,,,,2,4,28,8,,,,,,,,,,,,,,,,,,,,,1.463,1.501,581.3546188000182,None,,,,,,,,,,,,,,,,,,,,581.8980509999965,582.4018137000094,0.503021960001206,1.0032331600086764,582.3851561000047,582.5018379999965,582.3851561000047,582.5018379999965,582.4851015000022,None,c,1,0.6342391000071075,582.4851015000022,None,,,,,,,P30B,2022-09-16_11h48.34.663,training+cueing,2022.1.3,60.04549046044891,
Stranger.png,Stranger,Stranger,c,3,13,23,93,,,,,1,0,1,0,,,,,2,5,29,11,,,,,,,,,,,,,,,,,,,,,1.569,1.537,583.2535913000174,None,,,,,,,,,,,,,,,,,,,,583.7804565000115,584.2864858999965,0.5093850600242149,None,584.2698110000056,584.3865244000044,584.2698110000056,584.3865244000044,584.3698167999974,None,c,1,0.35007499999483116,584.3698167999974,None,,,,,,,P30B,2022-09-16_11h48.34.663,training+cueing,2022.1.3,60.04549046044891,
Friend.png,Friend,Friend,c,2,12,22,92,,,,,1,0,1,0,,,,,2,6,30,10,,,,,,,,,,,,,,,,,,,,,1.496,1.43,584.838313300017,None,,,,,,,,,,,,,,,,,,,,585.3843618000101,585.8876768999908,0.5041498599748593,1.0044415599841159,585.8709818999923,585.987647300004,585.8709818999923,585.987647300004,585.9710029000125,None,m,0,0.42845930001931265,585.9710029000125,None,,,,,,,P30B,2022-09-16_11h48.34.663,training+cueing,2022.1.3,60.04549046044891,
Self.png,Stranger,Self ,m,3.1,18,28,98,,,,,1,0,1,0,,,,,2,7,31,2,,,,,,,,,,,,,,,,,,,,,1.682,2.351,586.5235251999984,None,,,,,,,,,,,,,,,,,,,,587.0682649000082,587.5722188999935,0.5036146600032225,1.003912259999197,587.5555374000105,587.6722905999923,587.5555374000105,587.6722905999923,587.6555387999979,None,m,1,0.6318703999859281,587.6555387999979,None,,,,,,,P30B,2022-09-16_11h48.34.663,training+cueing,2022.1.3,60.04549046044891,
Self.png,You,Self ,c,1,11,21,91,,,,,1,0,1,0,,,,,2,8,32,0,,,,,,,,,,,,,,,,,,,,,1.582,1.93,588.4083222000045,None,,,,,,,,,,,,,,,,,,,,588.9572344000044,589.4569040999922,0.5138877599965781,1.0142661599966232,589.4569040999922,589.5569337999914,589.4569040999922,589.5569337999914,589.5569337999914,None,c,1,0.5225314999988768,589.5569337999914,None,,,,,,,P30B,2022-09-16_11h48.34.663,training+cueing,2022.1.3,60.04549046044891,
Friend.png,Stranger,Friend,m,3.2,19,29,99,,,,,1,0,1,0,,,,,2,9,33,5,,,,,,,,,,,,,,,,,,,,,1.768,2.188,590.2088583000004,None,,,,,,,,,,,,,,,,,,,,590.755066999991,591.2582776999916,0.5038887599948794,1.0041831599955913,591.2415668000176,591.3590721999935,591.2415668000176,591.3590721999935,591.3421992000076,None,m,1,0.609356500004651,591.3421992000076,None,,,,,,,P30B,2022-09-16_11h48.34.663,training+cueing,2022.1.3,60.04549046044891,
Self.png,Friend,Self ,m,2.1,16,26,96,,,,,1,0,1,0,,,,,2,10,34,1,,,,,,,,,,,,,,,,,,,,,1.503,1.823,592.0769067000074,None,,,,,,,,,,,,,,,,,,,,592.622437300015,593.1263106999977,0.5035514600458555,1.0038099600351416,593.1095422999933,593.2262836000009,593.1095422999933,593.2262836000009,593.2095541000017,None,c,0,0.7099327000032645,593.2095541000017,None,,,,,,,P30B,2022-09-16_11h48.34.663,training+cueing,2022.1.3,60.04549046044891,
Friend.png,You,Friend,m,1.2,14,24,94,,,,,1,0,1,0,,,,,2,11,35,3,,,,,,,,,,,,,,,,,,,,,1.569,1.509,594.0458537999948,None,,,,,,,,,,,,,,,,,,,,594.5905610999907,595.0943406000151,0.5049684600089677,1.0053602600237355,595.0776345000195,595.1777667000133,595.0776345000195,595.1777667000133,595.1777667000133,None,m,1,0.8218481999938376,595.1777667000133,None,,,,,,,P30B,2022-09-16_11h48.34.663,training+cueing,2022.1.3,60.04549046044891,
Friend.png,Stranger,Friend,m,3.2,19,29,99,,,,,1,0,1,0,,,,,3,0,36,5,,,,,,,,,,,,,,,,,,,,,1.446,2.305,596.1299896000128,None,,,,,,,,,,,,,,,,,,,,596.6751384999952,597.1791183000023,0.5037085600197315,1.0039524600433651,597.1624946999946,597.2792425999942,597.1624946999946,597.2792425999942,597.2625155000133,None,m,1,0.7370187999913469,597.2625155000133,None,,,,,,,P30B,2022-09-16_11h48.34.663,training+cueing,2022.1.3,60.04549046044891,
Friend.png,Friend,Friend,c,2,12,22,92,,,,,1,0,1,0,,,,,3,1,37,10,,,,,,,,,,,,,,,,,,,,,1.7,1.735,598.1345898,None,,,,,,,,,,,,,,,,,,,,598.6771379999991,599.1806739000021,0.5045502599678002,1.0050076599873137,599.1639876000118,599.2806718999927,599.1639876000118,599.2806718999927,599.2640103000158,None,c,1,0.9754340999934357,599.2640103000158,None,,,,,,,P30B,2022-09-16_11h48.34.663,training+cueing,2022.1.3,60.04549046044891,
Stranger.png,Stranger,Stranger,c,3,13,23,93,,,,,1,0,1,0,,,,,3,2,38,11,,,,,,,,,,,,,,,,,,,,,1.634,1.615,600.3661590999982,None,,,,,,,,,,,,,,,,,,,,600.8960015000193,601.3989325000148,0.503583459998481,1.0039298600167967,601.382236400008,601.4989992000046,601.382236400008,601.4989992000046,601.4829322000151,None,c,1,0.5165839999972377,601.4829322000151,None,,,,,,,P30B,2022-09-16_11h48.34.663,training+cueing,2022.1.3,60.04549046044891,
Friend.png,You,Friend,m,1.2,14,24,94,,,,,1,0,1,0,,,,,3,3,39,3,,,,,,,,,,,,,,,,,,,,,1.474,2.252,602.1175715000136,None,,,,,,,,,,,,,,,,,,,,602.6620493000082,603.1668331999972,0.5051615600241348,1.0054647600045428,603.1501677999913,603.2501984999981,603.1501677999913,603.2501984999981,603.2501984999981,None,m,1,0.7824504000018351,603.2501984999981,None,,,,,,,P30B,2022-09-16_11h48.34.663,training+cueing,2022.1.3,60.04549046044891,
Self.png,You,Self ,c,1,11,21,91,,,,,1,0,1,0,,,,,3,4,40,0,,,,,,,,,,,,,,,,,,,,,1.584,1.892,604.1525046000024,None,,,,,,,,,,,,,,,,,,,,604.6951085000183,605.2017983999976,0.5106377600168344,1.0109361600189004,605.1850163000054,605.2850546000118,605.1850163000054,605.2850546000118,605.2850546000118,None,c,1,0.5542438999982551,605.2850546000118,None,,,,,,,P30B,2022-09-16_11h48.34.663,training+cueing,2022.1.3,60.04549046044891,
Self.png,You,Self ,c,1,11,21,91,,,,,1,0,1,0,,,,,3,5,41,9,,,,,,,,,,,,,,,,,,,,,1.593,2.227,605.9711321000068,None,,,,,,,,,,,,,,,,,,,,606.5129633000179,607.0196953999985,0.5109182600281201,1.0111837600125,607.0030023000145,607.1036994000024,607.0030023000145,607.1036994000024,607.1036994000024,None,c,1,0.431732800003374,607.1036994000024,None,,,,,,,P30B,2022-09-16_11h48.34.663,training+cueing,2022.1.3,60.04549046044891,
Friend.png,Friend,Friend,c,2,12,22,92,,,,,1,0,1,0,,,,,3,6,42,4,,,,,,,,,,,,,,,,,,,,,1.8,1.389,607.6552720000036,None,,,,,,,,,,,,,,,,,,,,608.2002439000062,608.7041477000166,0.5037237599899527,1.0040439600124955,608.6875081000035,608.8042876000109,608.6875081000035,608.8042876000109,608.7875195000088,None,c,1,0.6842812999966554,608.7875195000088,None,,,,,,,P30B,2022-09-16_11h48.34.663,training+cueing,2022.1.3,60.04549046044891,
Stranger.png,Friend,Stranger,m,2.3,17,27,97,,,,,1,0,1,0,,,,,3,7,43,7,,,,,,,,,,,,,,,,,,,,,1.645,2.362,609.5908686000039,None,,,,,,,,,,,,,,,,,,,,610.1322865000111,610.6389788000088,0.5109058599919081,1.0111657599918544,610.6222433999937,610.7389295000175,610.6222433999937,610.7389295000175,610.7222526000114,None,m,1,0.7491925999929663,610.7222526000114,None,,,,,,,P30B,2022-09-16_11h48.34.663,training+cueing,2022.1.3,60.04549046044891,
Self.png,Stranger,Self ,m,3.1,18,28,98,,,,,1,0,1,0,,,,,3,8,44,2,,,,,,,,,,,,,,,,,,,,,1.65,1.692,611.5955102000153,None,,,,,,,,,,,,,,,,,,,,612.1365140000125,612.6403890000074,0.5033863599819597,1.003651759994682,612.6237091000075,612.7404798000061,612.6237091000075,612.7404798000061,612.7237313000078,None,c,0,0.5562871999864001,612.7237313000078,None,,,,,,,P30B,2022-09-16_11h48.34.663,training+cueing,2022.1.3,60.04549046044891,
Stranger.png,You,Stranger,m,1.3,15,25,95,,,,,1,0,1,0,,,,,3,9,45,6,,,,,,,,,,,,,,,,,,,,,1.753,2.174,613.4093453999958,None,,,,,,,,,,,,,,,,,,,,613.9561290999991,614.4583731000021,0.5028635599883273,1.004143659985857,614.4416820000042,614.5417148999986,614.4416820000042,614.5417148999986,614.5417148999986,None,m,1,1.3781083000067156,614.5417148999986,None,,,,,,,P30B,2022-09-16_11h48.34.663,training+cueing,2022.1.3,60.04549046044891,
Self.png,Friend,Self ,m,2.1,16,26,96,,,,,1,0,1,0,,,,,3,10,46,1,,,,,,,,,,,,,,,,,,,,,1.653,2.052,616.0460861000174,None,,,,,,,,,,,,,,,,,,,,616.5959337000095,617.1103372999933,0.5094356599729508,1.0097057599923573,617.0936105000146,617.2103445999965,617.0936105000146,617.2103445999965,617.1936773000052,None,m,1,0.7265063000086229,617.1936773000052,None,,,,,,,P30B,2022-09-16_11h48.34.663,training+cueing,2022.1.3,60.04549046044891,
Stranger.png,Stranger,Stranger,c,3,13,23,93,,,,,1,0,1,0,,,,,3,11,47,8,,,,,,,,,,,,,,,,,,,,,1.405,2.261,618.0463500000187,None,,,,,,,,,,,,,,,,,,,,618.591213000007,619.09504320001,0.5034394600079395,1.0037491600087378,619.0784259999928,619.1950774000143,619.0784259999928,619.1950774000143,619.1784527999989,None,c,1,0.7886266999994405,619.1784527999989,None,,,,,,,P30B,2022-09-16_11h48.34.663,training+cueing,2022.1.3,60.04549046044891,
Self.png,You,Self ,c,1,11,21,91,,,,,1,0,1,0,,,,,4,0,48,0,,,,,,,,,,,,,,,,,,,,,1.561,2.269,620.0972560000082,None,,,,,,,,,,,,,,,,,,,,620.6453866999946,621.1465347000048,0.49981946000480093,1.0000599600025453,621.1298809,621.2299174999935,621.1298809,621.2299174999935,621.2299174999935,None,c,1,0.4814808999944944,621.2299174999935,None,,,,,,,P30B,2022-09-16_11h48.34.663,training+cueing,2022.1.3,60.04549046044891,
Friend.png,You,Friend,m,1.2,14,24,94,,,,,1,0,1,0,,,,,4,1,49,3,,,,,,,,,,,,,,,,,,,,,1.517,2.471,621.8318428999919,None,,,,,,,,,,,,,,,,,,,,622.3777325999981,622.8811000999995,0.5042755599715747,1.0047758599976078,622.8644497999921,622.9646281000169,622.8644497999921,622.9646281000169,622.9646281000169,None,m,1,0.4911361999984365,622.9646281000169,None,,,,,,,P30B,2022-09-16_11h48.34.663,training+cueing,2022.1.3,60.04549046044891,
Stranger.png,You,Stranger,m,1.3,15,25,95,,,,,1,0,1,0,,,,,4,2,50,6,,,,,,,,,,,,,,,,,,,,,1.556,1.315,623.5828011000121,None,,,,,,,,,,,,,,,,,,,,624.1091664000123,624.6157257000159,0.508981560007669,1.0093461599899456,624.599037100008,624.6990839999926,624.599037100008,624.6990839999926,624.6990839999926,None,m,1,0.7888518999970984,624.6990839999926,None,,,,,,,P30B,2022-09-16_11h48.34.663,training+cueing,2022.1.3,60.04549046044891,
Self.png,Stranger,Self ,m,3.1,18,28,98,,,,,1,0,1,0,,,,,4,3,51,2,,,,,,,,,,,,,,,,,,,,,1.542,1.78,625.6178273000114,None,,,,,,,,,,,,,,,,,,,,626.1652991000155,626.6673084000067,0.5029317599837668,1.0028292599599808,626.6507032999943,626.7673743000196,626.6507032999943,626.7673743000196,626.7506392000068,None,c,0,0.4648029000090901,626.7506392000068,None,,,,,,,P30B,2022-09-16_11h48.34.663,training+cueing,2022.1.3,60.04549046044891,
Stranger.png,Stranger,Stranger,c,3,13,23,93,,,,,1,0,1,0,,,,,4,4,52,11,,,,,,,,,,,,,,,,,,,,,1.78,1.848,627.3355578000192,None,,,,,,,,,,,,,,,,,,,,627.8611686000077,628.3684297,0.5093588599993382,1.0096374599961564,628.3517480000155,628.4685105000099,628.3517480000155,628.4685105000099,628.4517903999949,None,c,1,0.5082838999805972,628.4517903999949,None,,,,,,,P30B,2022-09-16_11h48.34.663,training+cueing,2022.1.3,60.04549046044891,
Stranger.png,Stranger,Stranger,c,3,13,23,93,,,,,1,0,1,0,,,,,4,5,53,8,,,,,,,,,,,,,,,,,,,,,1.411,2.078,629.0872161000152,None,,,,,,,,,,,,,,,,,,,,629.6297043999948,630.1363943000033,0.5107164600049146,1.011084360012319,630.1197190000094,630.2364053000056,630.1197190000094,630.2364053000056,630.219723999995,None,c,1,0.5481424999888986,630.219723999995,None,,,,,,,P30B,2022-09-16_11h48.34.663,training+cueing,2022.1.3,60.04549046044891,
Friend.png,Stranger,Friend,m,3.2,19,29,99,,,,,1,0,1,0,,,,,4,6,54,5,,,,,,,,,,,,,,,,,,,,,1.691,1.271,630.8884274000011,None,,,,,,,,,,,,,,,,,,,,631.4226540999953,631.937769000011,0.5110134600254241,None,631.9210078000033,632.0377335000085,631.9210078000033,632.0377335000085,632.0210231000092,None,c,0,0.29885819999617524,632.0210231000092,None,,,,,,,P30B,2022-09-16_11h48.34.663,training+cueing,2022.1.3,60.04549046044891,
Stranger.png,Friend,Stranger,m,2.3,17,27,97,,,,,1,0,1,0,,,,,4,7,55,7,,,,,,,,,,,,,,,,,,,,,1.701,1.529,632.4395588000189,None,,,,,,,,,,,,,,,,,,,,632.9847719999962,633.4888194999949,0.5040056600118987,None,633.4721239999926,633.588850900007,633.4721239999926,633.588850900007,633.57212170001,None,c,0,0.2677531999943312,633.57212170001,None,,,,,,,P30B,2022-09-16_11h48.34.663,training+cueing,2022.1.3,60.04549046044891,
Friend.png,Friend,Friend,c,2,12,22,92,,,,,1,0,1,0,,,,,4,8,56,10,,,,,,,,,,,,,,,,,,,,,1.788,1.616,633.9745534000103,None,,,,,,,,,,,,,,,,,,,,634.5166270000045,635.0232456999947,0.5107455599936657,1.0110513599938713,635.0066552000062,635.1233438999916,635.0066552000062,635.1233438999916,635.1066263999965,None,m,0,0.5408781000005547,635.1066263999965,None,,,,,,,P30B,2022-09-16_11h48.34.663,training+cueing,2022.1.3,60.04549046044891,
Friend.png,Friend,Friend,c,2,12,22,92,,,,,1,0,1,0,,,,,4,9,57,4,,,,,,,,,,,,,,,,,,,,,1.435,1.933,635.7751949999947,None,,,,,,,,,,,,,,,,,,,,636.3183386000164,636.8247642999922,0.5107645600219257,1.0109526599990204,636.808062600001,636.9247775000113,636.808062600001,636.9247775000113,636.9080468000029,None,c,1,0.6127541000023484,636.9080468000029,None,,,,,,,P30B,2022-09-16_11h48.34.663,training+cueing,2022.1.3,60.04549046044891,
Self.png,You,Self ,c,1,11,21,91,,,,,1,0,1,0,,,,,4,10,58,9,,,,,,,,,,,,,,,,,,,,,1.443,2.232,637.6500742000062,None,,,,,,,,,,,,,,,,,,,,638.1901314000133,638.6926295000012,0.5022289599874057,1.0025339600106236,638.6759267000016,638.7759606000036,638.6759267000016,638.7759606000036,638.7759606000036,None,c,1,0.47148219999508,638.7759606000036,None,,,,,,,P30B,2022-09-16_11h48.34.663,training+cueing,2022.1.3,60.04549046044891,
Self.png,Friend,Self ,m,2.1,16,26,96,,,,,1,0,1,0,,,,,4,11,59,1,,,,,,,,,,,,,,,,,,,,,1.7,2.359,639.3783004000143,None,,,,,,,,,,,,,,,,,,,,639.9236490000039,640.4273927000177,0.5047885600070003,1.0049787600000855,640.4106407999934,640.5273370000068,640.4106407999934,640.5273370000068,640.5106251999969,None,m,1,0.6739745000086259,640.5106251999969,None,,,,,,,P30B,2022-09-16_11h48.34.663,training+cueing,2022.1.3,60.04549046044891,
Stranger.png,Stranger,Stranger,c,3,13,23,93,,,,,1,0,1,0,,,,,5,0,60,8,,,,,,,,,,,,,,,,,,,,,1.466,1.896,641.312803400011,None,,,,,,,,,,,,,,,,,,,,641.8572942000173,642.3617779999913,0.5038495600165334,1.004175860027317,642.3451353000128,642.4623768000165,642.3451353000128,642.4623768000165,642.445647799992,None,c,1,0.5941427999932785,642.445647799992,None,,,,,,,P30B,2022-09-16_11h48.34.663,training+cueing,2022.1.3,60.04549046044891,
Friend.png,Stranger,Friend,m,3.2,19,29,99,,,,,1,0,1,0,,,,,5,1,61,5,,,,,,,,,,,,,,,,,,,,,1.651,2.051,643.1644817000197,None,,,,,,,,,,,,,,,,,,,,643.7066901999933,644.213247800013,0.5106315599987283,1.01078136000433,644.196717999992,644.3132981999952,644.196717999992,644.3132981999952,644.29659730001,None,m,1,0.6313291999977082,644.29659730001,None,,,,,,,P30B,2022-09-16_11h48.34.663,training+cueing,2022.1.3,60.04549046044891,
Stranger.png,Friend,Stranger,m,2.3,17,27,97,,,,,1,0,1,0,,,,,5,2,62,7,,,,,,,,,,,,,,,,,,,,,1.732,1.203,645.0489787000115,None,,,,,,,,,,,,,,,,,,,,645.6115320000099,646.1145990999939,0.5037533800059464,1.00404488001368,646.0979695999995,646.2146678999998,646.0979695999995,646.2146678999998,646.1979673000169,None,c,0,0.4266967999865301,646.1979673000169,None,,,,,,,P30B,2022-09-16_11h48.34.663,training+cueing,2022.1.3,60.04549046044891,
Friend.png,You,Friend,m,1.2,14,24,94,,,,,1,0,1,0,,,,,5,3,63,3,,,,,,,,,,,,,,,,,,,,,1.769,2.429,646.753116900014,None,,,,,,,,,,,,,,,,,,,,647.2977377999923,647.7992008000147,0.5154619600216392,1.0157162600080483,647.7992008000147,647.8992005000182,647.7992008000147,647.8992005000182,647.8992005000182,None,m,1,0.6768579999916255,647.8992005000182,None,,,,,,,P30B,2022-09-16_11h48.34.663,training+cueing,2022.1.3,60.04549046044891,
Self.png,You,Self ,c,1,11,21,91,,,,,1,0,1,0,,,,,5,4,64,9,,,,,,,,,,,,,,,,,,,,,1.507,2.192,648.7011033000017,None,,,,,,,,,,,,,,,,,,,,649.2281434000179,649.7339027000125,0.5089146599639207,1.009314959985204,649.7172419000126,649.8173458999954,649.7172419000126,649.8173458999954,649.8173458999954,None,c,1,0.4700093999854289,649.8173458999954,None,,,,,,,P30B,2022-09-16_11h48.34.663,training+cueing,2022.1.3,60.04549046044891,
Friend.png,Friend,Friend,c,2,12,22,92,,,,,1,0,1,0,,,,,5,5,65,4,,,,,,,,,,,,,,,,,,,,,1.458,1.343,650.41896000001,None,,,,,,,,,,,,,,,,,,,,650.9491342999972,651.4518551999936,0.503591660031816,1.0037149600393604,651.4352560999978,651.5518737999955,651.4352560999978,651.5518737999955,651.5351400999934,None,c,1,0.5765557999839075,651.5351400999934,None,,,,,,,P30B,2022-09-16_11h48.34.663,training+cueing,2022.1.3,60.04549046044891,
Self.png,You,Self ,c,1,11,21,91,,,,,1,0,1,0,,,,,5,6,66,0,,,,,,,,,,,,,,,,,,,,,1.588,2.186,652.2371349000023,None,,,,,,,,,,,,,,,,,,,,652.7823242000013,653.2864692000148,0.5044042599911336,1.004749460000312,653.2698383000097,653.3699856000021,653.2698383000097,653.3699856000021,653.3699856000021,None,c,1,0.8055011000251397,653.3699856000021,None,,,,,,,P30B,2022-09-16_11h48.34.663,training+cueing,2022.1.3,60.04549046044891,
Stranger.png,Stranger,Stranger,c,3,13,23,93,,,,,1,0,1,0,,,,,5,7,67,11,,,,,,,,,,,,,,,,,,,,,1.558,2.278,654.3053044000117,None,,,,,,,,,,,,,,,,,,,,654.8360696000163,655.338012799999,0.5024066599726211,1.0026056599745061,655.3213445000001,655.4379764000187,655.3213445000001,655.4379764000187,655.4213057000015,None,c,1,0.6262507000064943,655.4213057000015,None,,,,,,,P30B,2022-09-16_11h48.34.663,training+cueing,2022.1.3,60.04549046044891,
Friend.png,Friend,Friend,c,2,12,22,92,,,,,1,0,1,0,,,,,5,8,68,10,,,,,,,,,,,,,,,,,,,,,1.57,1.958,656.1734120000037,None,,,,,,,,,,,,,,,,,,,,656.7185609000153,657.222689599992,0.5037826600018889,1.0040395600080956,657.2060667000187,657.3227387999941,657.2060667000187,657.3227387999941,657.3060858999961,None,m,0,0.6147978000226431,657.3060858999961,None,,,,,,,P30B,2022-09-16_11h48.34.663,training+cueing,2022.1.3,60.04549046044891,
Self.png,Stranger,Self ,m,3.1,18,28,98,,,,,1,0,1,0,,,,,5,9,69,2,,,,,,,,,,,,,,,,,,,,,1.406,1.453,658.0419755000039,None,,,,,,,,,,,,,,,,,,,,658.5940543000179,659.1073821000173,0.5073675599996932,1.0076827600132674,659.0906650999968,659.207410300005,659.0906650999968,659.207410300005,659.1906942999922,None,c,0,0.4885822999931406,659.1906942999922,None,,,,,,,P30B,2022-09-16_11h48.34.663,training+cueing,2022.1.3,60.04549046044891,
Stranger.png,You,Stranger,m,1.3,15,25,95,,,,,1,0,1,0,,,,,5,10,70,6,,,,,,,,,,,,,,,,,,,,,1.505,1.889,659.8092223000131,None,,,,,,,,,,,,,,,,,,,,660.3386013999989,660.8420256999962,0.5042897600214928,1.0044746600324288,660.8253536999982,660.9259827999922,660.8253536999982,660.9259827999922,660.9259827999922,None,c,0,0.4813261999806855,660.9259827999922,None,,,,,,,P30B,2022-09-16_11h48.34.663,training+cueing,2022.1.3,60.04549046044891,
Self.png,Friend,Self ,m,2.1,16,26,96,,,,,1,0,1,0,,,,,5,11,71,1,,,,,,,,,,,,,,,,,,,,,1.512,1.715,661.527379600011,None,,,,,,,,,,,,,,,,,,,,662.072182200005,662.576569900004,0.5044166599982418,1.0047296599950641,662.559863500006,662.6766437000188,662.559863500006,662.6766437000188,662.659882900014,None,m,1,0.779627799987793,662.659882900014,None,,,,,,,P30B,2022-09-16_11h48.34.663,training+cueing,2022.1.3,60.04549046044891,
Stranger.png,Friend,Stranger,m,2.3,17,27,97,,,,,1,0,1,0,,,,,6,0,72,7,,,,,,,,,,,,,,,,,,,,,1.682,2.331,663.5622807000182,None,,,,,,,,,,,,,,,,,,,,664.104728700011,664.6113910000131,0.5106859600055031,1.010989559988957,664.5946828000015,664.71143570001,664.5946828000015,664.71143570001,664.6947570000193,None,m,1,0.648936399986269,664.6947570000193,None,,,,,,,P30B,2022-09-16_11h48.34.663,training+cueing,2022.1.3,60.04549046044891,
Stranger.png,You,Stranger,m,1.3,15,25,95,,,,,1,0,1,0,,,,,6,1,73,6,,,,,,,,,,,,,,,,,,,,,1.458,1.888,665.4633475000155,None,,,,,,,,,,,,,,,,,,,,665.9938491999928,666.4960861,0.5026923600235023,1.0030940599972382,666.4793867999979,666.5794169000001,666.4793867999979,666.5794169000001,666.5794169000001,None,c,0,0.5725121999857947,666.5794169000001,None,,,,,,,P30B,2022-09-16_11h48.34.663,training+cueing,2022.1.3,60.04549046044891,
Friend.png,Friend,Friend,c,2,12,22,92,,,,,1,0,1,0,,,,,6,2,74,10,,,,,,,,,,,,,,,,,,,,,1.737,2.114,667.281329999998,None,,,,,,,,,,,,,,,,,,,,667.8142306999944,668.3140381000121,0.5126239599776454,1.012897159991553,668.3140381000121,668.4141136000108,668.3140381000121,668.4141136000108,668.4141136000108,None,c,1,0.7853660999971908,668.4141136000108,None,,,,,,,P30B,2022-09-16_11h48.34.663,training+cueing,2022.1.3,60.04549046044891,
Self.png,Friend,Self ,m,2.1,16,26,96,,,,,1,0,1,0,,,,,6,3,75,1,,,,,,,,,,,,,,,,,,,,,1.779,1.835,669.333856000012,None,,,,,,,,,,,,,,,,,,,,669.8756128000095,670.3822239000001,0.5106050600006711,1.010827860009158,670.3655504999915,670.482273600006,670.3655504999915,670.482273600006,670.4655742000032,None,m,1,0.7662549999949988,670.4655742000032,None,,,,,,,P30B,2022-09-16_11h48.34.663,training+cueing,2022.1.3,60.04549046044891,
Stranger.png,Stranger,Stranger,c,3,13,23,93,,,,,1,0,1,0,,,,,6,4,76,11,,,,,,,,,,,,,,,,,,,,,1.761,1.494,671.3510457999946,None,,,,,,,,,,,,,,,,,,,,671.8963419999927,672.4003277000156,0.5036024599976372,1.0039425599970855,672.3836750999908,672.5004374000127,672.3836750999908,672.5004374000127,672.4837109000073,None,c,1,0.6193119999952614,672.4837109000073,None,,,,,,,P30B,2022-09-16_11h48.34.663,training+cueing,2022.1.3,60.04549046044891,
Stranger.png,Stranger,Stranger,c,3,13,23,93,,,,,1,0,1,0,,,,,6,5,77,8,,,,,,,,,,,,,,,,,,,,,1.506,2.367,673.2357549000008,None,,,,,,,,,,,,,,,,,,,,673.7788798999973,674.2850977999915,0.5099867600365542,None,674.2684183999954,674.3853109000192,674.2684183999954,674.3853109000192,674.3685227000096,None,c,1,0.27103740000166,674.3685227000096,None,,,,,,,P30B,2022-09-16_11h48.34.663,training+cueing,2022.1.3,60.04549046044891,
Self.png,Stranger,Self ,m,3.1,18,28,98,,,,,1,0,1,0,,,,,6,6,78,2,,,,,,,,,,,,,,,,,,,,,1.514,2.488,674.7712753000087,None,,,,,,,,,,,,,,,,,,,,675.3127845000126,675.819561900018,0.5108121600351296,1.01109696002095,675.8028301000013,675.9195404000056,675.8028301000013,675.9195404000056,675.9028090999927,None,m,1,0.4655254999815952,675.9028090999927,None,,,,,,,P30B,2022-09-16_11h48.34.663,training+cueing,2022.1.3,60.04549046044891,
Friend.png,Friend,Friend,c,2,12,22,92,,,,,1,0,1,0,,,,,6,7,79,4,,,,,,,,,,,,,,,,,,,,,1.77,2.153,676.4883360000094,None,,,,,,,,,,,,,,,,,,,,677.0342136000108,677.5374479000166,0.5024456600076519,1.002774060005322,677.520714400016,677.6374546000152,677.520714400016,677.6374546000152,677.6207227999985,None,m,0,0.490283500024816,677.6207227999985,None,,,,,,,P30B,2022-09-16_11h48.34.663,training+cueing,2022.1.3,60.04549046044891,
Self.png,You,Self ,c,1,11,21,91,,,,,1,0,1,0,,,,,6,8,80,9,,,,,,,,,,,,,,,,,,,,,1.8,2.326,678.2394177000097,None,,,,,,,,,,,,,,,,,,,,678.7849034999963,679.2886453999963,0.5050969599978998,1.0053554600162897,679.2720069999923,679.3720503000077,679.2720069999923,679.3720503000077,679.3720503000077,None,c,1,0.452213100012159,679.3720503000077,None,,,,,,,P30B,2022-09-16_11h48.34.663,training+cueing,2022.1.3,60.04549046044891,
