Image,Name,Face,CorrAns,Match,Face_onset,CResponse_onset,IResponse_onset,Match.thisRepN,Match.thisTrialN,Match.thisN,Match.thisIndex,Blocks.thisRepN,Blocks.thisTrialN,Blocks.thisN,Blocks.thisIndex,trials.thisRepN,trials.thisTrialN,trials.thisN,trials.thisIndex,trials_2.thisRepN,trials_2.thisTrialN,trials_2.thisN,trials_2.thisIndex,text.started,text.stopped,p1.started,p1.stopped,MatchInstructions.started,MatchInstructions.stopped,Name1.started,Name1.stopped,Face_Relevance.started,Face_Relevance.stopped,MismatchInstructions.started,MismatchInstructions.stopped,Rest_trainingInstruct.started,Rest_trainingInstruct.stopped,next8.keys,next8.rt,next8.started,next8.stopped,Ready.started,Ready.stopped,delay_one_picked,delay_two_picked,blank0.started,blank0.stopped,FixationCross1.started,FixationCross1.stopped,Name3.started,Name3.stopped,Face_Relevance3.started,Face_Relevance3.stopped,responseTime.started,responseTime.stopped,resp.keys,resp.corr,resp.rt,resp.started,resp.stopped,Accuracy.started,Accuracy.stopped,questions.started,questions.stopped,p2.started,p2.stopped,FixationCross3.started,FixationCross3.stopped,port_Face_onset.started,port_Face_onset.stopped,Name4.started,Name4.stopped,Face_Relevance4.started,Face_Relevance4.stopped,responseTime2.started,responseTime2.stopped,Response.keys,Response.corr,Response.rt,Response.started,Response.stopped,p3.started,p3.stopped,Finish.started,Finish.stopped,gender,age,participant,date,expName,psychopyVersion,frameRate,
Stranger.png,Stranger,,,,,,,0,0,0,2,,,,,,,,,,,,,17.050280299969018,None,0.013658920070156455,0.5431921200361103,21.815520900068805,None,48.215056300046854,None,48.215056300046854,None,,,,,,,,,,,,,,,,,,,,,,,,,,,,,,,,,,,,,,,,,,,,,,,,,,,,,f,,p3,2022_Mar_01_1416,training+cueing,2021.1.4,59.98023051910389,
Self.png,You,,,,,,,0,1,1,0,,,,,,,,,,,,,,,,,,,68.1165345000336,None,68.1165345000336,None,,,,,,,,,,,,,,,,,,,,,,,,,,,,,,,,,,,,,,,,,,,,,,,,,,,,,f,,p3,2022_Mar_01_1416,training+cueing,2021.1.4,59.98023051910389,
Friend.png,Friend,,,,,,,0,2,2,1,,,,,,,,,,,,,,,,,,,88.11689760000445,None,88.11689760000445,None,,,,,,,,,,,,,,,,,,,,,,,,,,,,,,,,,,,,,,,,,,,,,,,,,,,,,f,,p3,2022_Mar_01_1416,training+cueing,2021.1.4,59.98023051910389,
Self.png,Stranger,Self ,m,3.1,18,28,98,,,,,0,0,0,0,0,0,0,2,,,,,,,,,,,,,,,108.08134969999082,None,137.5027549000224,None,space,9.892589500057511,2.00654127006419,None,149.409799200017,None,1.681,1.308,152.4207193000475,None,153.04993199999444,153.56435600004625,153.54774369997904,153.66441029997077,153.54774369997904,153.66441029997077,153.64773229998536,None,c,0,0.914148100069724,153.64773229998536,None,154.58231890003663,None,,,,,,,,,,,,,,,,,,,,,,,,f,,p3,2022_Mar_01_1416,training+cueing,2021.1.4,59.98023051910389,
Friend.png,You,Friend,m,1.2,14,24,94,,,,,0,0,0,0,0,1,1,3,,,,,,,,,,,,,,,,,,,,,,,,,1.626,2.203,154.98205230000895,None,155.5129560000496,156.01616180001292,155.99948070000391,156.09952359995805,155.99948070000391,156.09952359995805,156.09952359995805,None,None,0,,156.09952359995805,None,157.7340607000515,None,,,,,,,,,,,,,,,,,,,,,,,,f,,p3,2022_Mar_01_1416,training+cueing,2021.1.4,59.98023051910389,
Friend.png,Stranger,Friend,m,3.2,19,29,99,,,,,0,0,0,0,0,2,2,5,,,,,,,,,,,,,,,,,,,,,,,,,1.7,1.237,158.13434089999646,None,158.66381110006478,159.16842870006803,159.15184690000024,159.26903820002917,159.15184690000024,159.26903820002917,159.2517806000542,None,c,0,0.35034070000983775,159.2517806000542,None,159.61728210002184,None,,,,,,,,,,,,,,,,,,,,,,,,f,,p3,2022_Mar_01_1416,training+cueing,2021.1.4,59.98023051910389,
Self.png,You,Self ,c,1,11,21,91,,,,,0,0,0,0,0,3,3,0,,,,,,,,,,,,,,,,,,,,,,,,,1.713,1.996,160.01904170005582,None,160.54664670000784,161.05307649995666,161.03645440004766,161.13649489998352,161.03645440004766,161.13649489998352,161.13649489998352,None,c,1,1.0100832000607625,161.13649489998352,None,162.1762995000463,None,,,,,,,,,,,,,,,,,,,,,,,,f,,p3,2022_Mar_01_1416,training+cueing,2021.1.4,59.98023051910389,
Friend.png,Friend,Friend,c,2,12,22,92,,,,,0,0,0,0,0,4,4,10,,,,,,,,,,,,,,,,,,,,,,,,,1.775,1.488,162.58799839997664,None,163.12240270001348,163.62166349997278,163.62166349997278,163.72169759997632,163.62166349997278,163.72169759997632,163.72169759997632,None,m,0,1.3521327000344172,163.72169759997632,None,165.09004929999355,None,,,,,,,,,,,,,,,,,,,,,,,,f,,p3,2022_Mar_01_1416,training+cueing,2021.1.4,59.98023051910389,
Stranger.png,Friend,Stranger,m,2.3,17,27,97,,,,,0,0,0,0,0,5,5,7,,,,,,,,,,,,,,,,,,,,,,,,,1.514,2.253,165.48984439997002,None,166.01644629996736,166.52373899996746,166.5070511000231,166.62378310004715,166.5070511000231,166.62378310004715,166.60708680003881,None,None,0,,166.60708680003881,None,168.12494320003316,None,,,,,,,,,,,,,,,,,,,,,,,,f,,p3,2022_Mar_01_1416,training+cueing,2021.1.4,59.98023051910389,
Stranger.png,You,Stranger,m,1.3,15,25,95,,,,,0,0,0,0,0,6,6,6,,,,,,,,,,,,,,,,,,,,,,,,,1.695,2.129,168.52573080000002,None,169.0624591000378,169.57595309999306,169.55942720000166,169.65928829996847,169.55942720000166,169.65928829996847,169.65928829996847,None,c,0,0.3907051000278443,169.65928829996847,None,170.0763077000156,None,,,,,,,,,,,,,,,,,,,,,,,,f,,p3,2022_Mar_01_1416,training+cueing,2021.1.4,59.98023051910389,
Stranger.png,Stranger,Stranger,c,3,13,23,93,,,,,0,0,0,0,0,7,7,8,,,,,,,,,,,,,,,,,,,,,,,,,1.555,1.784,170.47656009998173,None,171.0061092999531,171.51064410002436,171.49396270001307,171.6107148999581,171.49396270001307,171.6107148999581,171.59400549996644,None,None,0,,171.59400549996644,None,173.16185799997766,None,,,,,,,,,,,,,,,,,,,,,,,,f,,p3,2022_Mar_01_1416,training+cueing,2021.1.4,59.98023051910389,
Stranger.png,Stranger,Stranger,c,3,13,23,93,,,,,0,0,0,0,0,8,8,11,,,,,,,,,,,,,,,,,,,,,,,,,1.606,1.826,173.562123300042,None,174.08809299999848,174.59623420005664,174.57954639999662,174.69624009996187,174.57954639999662,174.69624009996187,174.6795574000571,None,m,0,0.634192300029099,174.6795574000571,None,175.33025630004704,None,,,,,,,,,,,,,,,,,,,,,,,,f,,p3,2022_Mar_01_1416,training+cueing,2021.1.4,59.98023051910389,
Friend.png,Friend,Friend,c,2,12,22,92,,,,,0,0,0,0,0,9,9,4,,,,,,,,,,,,,,,,,,,,,,,,,1.683,1.43,175.73053579998668,None,176.26694929995574,176.7811071999604,176.76447669998743,176.88115310005378,176.76447669998743,176.88115310005378,176.86448170000222,None,m,0,0.7533560000592843,176.86448170000222,None,177.64842280000448,None,,,,,,,,,,,,,,,,,,,,,,,,f,,p3,2022_Mar_01_1416,training+cueing,2021.1.4,59.98023051910389,
Self.png,You,Self ,c,1,11,21,91,,,,,0,0,0,0,0,10,10,9,,,,,,,,,,,,,,,,,,,,,,,,,1.632,2.038,178.04869339999277,None,178.5774906000588,179.08277710003313,179.06612289999612,179.16631929995492,179.06612289999612,179.16631929995492,179.16631929995492,None,c,1,0.5154666999587789,179.16631929995492,None,179.6987201999873,None,,,,,,,,,,,,,,,,,,,,,,,,f,,p3,2022_Mar_01_1416,training+cueing,2021.1.4,59.98023051910389,
Self.png,Friend,Self ,m,2.1,16,26,96,,,,,0,0,0,0,0,11,11,1,,,,,,,,,,,,,,,,,,,,,,,,,1.581,1.68,180.10020720004104,None,180.62942949996796,181.13427649997175,181.11759170005098,181.23431400000118,181.11759170005098,181.23431400000118,181.21760890004225,None,m,1,1.0721905999816954,181.21760890004225,None,182.31846520002,None,,,,,,,,,,,,,,,,,,,,,,,,f,,p3,2022_Mar_01_1416,training+cueing,2021.1.4,59.98023051910389,
Stranger.png,You,Stranger,m,1.3,15,25,95,,,,,0,0,0,0,,,,,0,0,0,6,,,,,,,,,,,,,,,,,,,206.4692994999932,None,1.603,2.273,209.98274410003796,None,,,,,,,,,,,,,,,,182.7188534999732,None,0.014479069970548153,None,210.5903325000545,211.08935879997443,0.5124659601133317,None,211.08935879997443,211.18937879998703,211.08935879997443,211.18937879998703,211.18937879998703,None,c,0,0.348413800005801,211.18937879998703,None,,,,,f,,p3,2022_Mar_01_1416,training+cueing,2021.1.4,59.98023051910389,
Self.png,You,Self ,c,1,11,21,91,,,,,0,0,0,0,,,,,0,1,1,9,,,,,,,,,,,,,,,,,,,,,1.407,2.246,211.66349940001965,None,,,,,,,,,,,,,,,,,,,,212.19944340002257,212.70700920000672,0.5153750100871548,None,212.69036350003444,212.7903621000005,212.69036350003444,212.7903621000005,212.7903621000005,None,c,1,0.33134070003870875,212.7903621000005,None,,,,,f,,p3,2022_Mar_01_1416,training+cueing,2021.1.4,59.98023051910389,
Stranger.png,Stranger,Stranger,c,3,13,23,93,,,,,0,0,0,0,,,,,0,2,2,8,,,,,,,,,,,,,,,,,,,,,1.726,1.368,213.24673090002034,None,,,,,,,,,,,,,,,,,,,,213.78585810004734,214.2914755999809,0.511824110057205,1.0121136100497097,214.27483070001472,214.39157540001906,214.27483070001472,214.39157540001906,214.3748347000219,None,c,1,0.4430403000442311,214.3748347000219,None,,,,,f,,p3,2022_Mar_01_1416,training+cueing,2021.1.4,59.98023051910389,
Friend.png,You,Friend,m,1.2,14,24,94,,,,,0,0,0,0,,,,,0,3,3,3,,,,,,,,,,,,,,,,,,,,,1.732,1.662,214.9477958000498,None,,,,,,,,,,,,,,,,,,,,215.48480560001917,215.99268260004465,0.5130636100657284,1.013336310046725,215.97606889996678,216.07606250001118,215.97606889996678,216.07606250001118,216.07606250001118,None,None,0,,216.07606250001118,None,,,,,f,,p3,2022_Mar_01_1416,training+cueing,2021.1.4,59.98023051910389,
Stranger.png,Friend,Stranger,m,2.3,17,27,97,,,,,0,0,0,0,,,,,0,4,4,7,,,,,,,,,,,,,,,,,,,,,1.427,2.235,217.9143506999826,None,,,,,,,,,,,,,,,,,,,,218.46729349996895,218.97819439996965,0.5052967100637034,1.0056085099931806,218.9614883000031,219.07825989997946,218.9614883000031,219.07825989997946,219.06150499999058,None,c,0,1.0043440000154078,219.06150499999058,None,,,,,f,,p3,2022_Mar_01_1416,training+cueing,2021.1.4,59.98023051910389,
Self.png,Stranger,Self ,m,3.1,18,28,98,,,,,0,0,0,0,,,,,0,5,5,2,,,,,,,,,,,,,,,,,,,,,1.679,1.536,220.20235519995913,None,,,,,,,,,,,,,,,,,,,,220.74033599998802,221.24648359999992,0.5120116100879386,1.0123152100713924,221.22984080004971,221.3466902000364,221.22984080004971,221.3466902000364,221.32999160001054,None,m,1,0.9757655001012608,221.32999160001054,None,,,,,f,,p3,2022_Mar_01_1416,training+cueing,2021.1.4,59.98023051910389,
Self.png,Friend,Self ,m,2.1,16,26,96,,,,,0,0,0,0,,,,,0,6,6,1,,,,,,,,,,,,,,,,,,,,,1.537,2.446,222.43714669998735,None,,,,,,,,,,,,,,,,,,,,222.97451239998918,223.481455000001,0.5123960099881515,1.012681909953244,223.46476320002694,223.58150410000235,223.46476320002694,223.58150410000235,223.564774199971,None,m,1,1.3649297000374645,223.564774199971,None,,,,,f,,p3,2022_Mar_01_1416,training+cueing,2021.1.4,59.98023051910389,
Friend.png,Friend,Friend,c,2,12,22,92,,,,,0,0,0,0,,,,,0,7,7,10,,,,,,,,,,,,,,,,,,,,,1.775,2.196,225.05554219998885,None,,,,,,,,,,,,,,,,,,,,225.5914763000328,226.09998990001623,0.500699540018104,1.0010252400534227,226.08333749999292,226.2000626999652,226.08333749999292,226.2000626999652,226.2000626999652,None,m,0,0.37763640005141497,226.2000626999652,None,,,,,f,,p3,2022_Mar_01_1416,training+cueing,2021.1.4,59.98023051910389,
Self.png,You,Self ,c,1,11,21,91,,,,,0,0,0,0,,,,,0,8,8,0,,,,,,,,,,,,,,,,,,,,,1.654,1.348,226.70695110002998,None,,,,,,,,,,,,,,,,,,,,227.2436991999857,227.7511984000448,0.5130172099452466,1.0133083099499345,227.73451950005256,227.83457050006837,227.73451950005256,227.83457050006837,227.83457050006837,None,c,1,0.7432756999041885,227.83457050006837,None,,,,,f,,p3,2022_Mar_01_1416,training+cueing,2021.1.4,59.98023051910389,
Stranger.png,Stranger,Stranger,c,3,13,23,93,,,,,0,0,0,0,,,,,0,9,9,11,,,,,,,,,,,,,,,,,,,,,1.766,2.412,228.70775139995385,None,,,,,,,,,,,,,,,,,,,,229.24657199997455,229.75264970003627,0.5113873099908233,1.0116635099984705,229.73596830002498,229.8526836000383,229.73596830002498,229.8526836000383,229.8359595000511,None,m,0,0.9177742999745533,229.8359595000511,None,,,,,f,,p3,2022_Mar_01_1416,training+cueing,2021.1.4,59.98023051910389,
Friend.png,Friend,Friend,c,2,12,22,92,,,,,0,0,0,0,,,,,0,10,10,4,,,,,,,,,,,,,,,,,,,,,1.495,2.162,230.87600250006653,None,,,,,,,,,,,,,,,,,,,,231.41374099999666,231.9208417000482,0.5134723100345582,1.013777910033241,231.90420600003563,232.02087620005477,231.90420600003563,232.02087620005477,232.00421230006032,None,m,0,0.8456165000097826,232.00421230006032,None,,,,,f,,p3,2022_Mar_01_1416,training+cueing,2021.1.4,59.98023051910389,
Friend.png,Stranger,Friend,m,3.2,19,29,99,,,,,0,0,0,0,,,,,0,11,11,5,,,,,,,,,,,,,,,,,,,,,1.436,2.108,232.97778980003204,None,,,,,,,,,,,,,,,,,,,,233.51577110006474,234.02236259996425,0.5115699099842459,1.0118385100504383,234.00575300003402,234.12241930002347,234.00575300003402,234.12241930002347,234.10572210000828,None,m,1,1.063992999959737,234.10572210000828,None,,,,,f,,p3,2022_Mar_01_1416,training+cueing,2021.1.4,59.98023051910389,
Friend.png,Friend,Friend,c,2,12,22,92,,,,,0,0,0,0,,,,,1,0,12,10,,,,,,,,,,,,,,,,,,,,,1.598,2.154,235.29552849999163,None,,,,,,,,,,,,,,,,,,,,235.8335117000388,236.34071590006351,0.5127703099278733,1.013063609949313,236.32402449997608,236.4408831000328,236.32402449997608,236.4408831000328,236.42428649996873,None,m,0,1.0653934999136254,236.42428649996873,None,,,,,f,,p3,2022_Mar_01_1416,training+cueing,2021.1.4,59.98023051910389,
Self.png,You,Self ,c,1,11,21,91,,,,,0,0,0,0,,,,,1,1,13,0,,,,,,,,,,,,,,,,,,,,,1.681,2.389,237.6140475999564,None,,,,,,,,,,,,,,,,,,,,238.1522562999744,238.65906239999458,0.5139848099788651,1.0142336100107059,238.6423999000108,238.7423988999799,238.6423999000108,238.7423988999799,238.7423988999799,None,c,1,0.7312745000235736,238.7423988999799,None,,,,,f,,p3,2022_Mar_01_1416,training+cueing,2021.1.4,59.98023051910389,
Self.png,Stranger,Self ,m,3.1,18,28,98,,,,,0,0,0,0,,,,,1,2,14,2,,,,,,,,,,,,,,,,,,,,,1.675,1.973,239.60379850002937,None,,,,,,,,,,,,,,,,,,,,240.13874890003353,240.6438110000454,0.50829290994443,1.0085629099048674,240.6271517999703,240.7440110000316,240.6271517999703,240.7440110000316,240.7271409999812,None,m,1,0.9545831000432372,240.7271409999812,None,,,,,f,,p3,2022_Mar_01_1416,training+cueing,2021.1.4,59.98023051910389,
Friend.png,Stranger,Friend,m,3.2,19,29,99,,,,,0,0,0,0,,,,,1,3,15,5,,,,,,,,,,,,,,,,,,,,,1.475,1.238,241.8170161000453,None,,,,,,,,,,,,,,,,,,,,242.35305110004265,242.86212299996987,0.5015183399664238,1.0019612399628386,242.8454127999721,242.9621222000569,242.8454127999721,242.9621222000569,242.9621222000569,None,m,1,1.023518699919805,242.9621222000569,None,,,,,f,,p3,2022_Mar_01_1416,training+cueing,2021.1.4,59.98023051910389,
Self.png,Friend,Self ,m,2.1,16,26,96,,,,,0,0,0,0,,,,,1,4,16,1,,,,,,,,,,,,,,,,,,,,,1.749,1.241,244.11937770002987,None,,,,,,,,,,,,,,,,,,,,244.65576069999952,245.16372790001333,0.5124423099914566,1.013226310024038,245.14710249996278,245.26376700005494,245.14710249996278,245.26376700005494,245.24714310001582,None,m,1,1.1865903000580147,245.24714310001582,None,,,,,f,,p3,2022_Mar_01_1416,training+cueing,2021.1.4,59.98023051910389,
Stranger.png,Friend,Stranger,m,2.3,17,27,97,,,,,0,0,0,0,,,,,1,5,17,7,,,,,,,,,,,,,,,,,,,,,1.706,1.871,246.57087639998645,None,,,,,,,,,,,,,,,,,,,,247.10619690001477,247.61548220005352,0.5007498399354517,1.0011225398629904,247.59884310001507,247.71553000004496,247.59884310001507,247.71553000004496,247.71553000004496,None,c,0,1.3102493999758735,247.71553000004496,None,,,,,f,,p3,2022_Mar_01_1416,training+cueing,2021.1.4,59.98023051910389,
Friend.png,You,Friend,m,1.2,14,24,94,,,,,0,0,0,0,,,,,1,6,18,3,,,,,,,,,,,,,,,,,,,,,1.41,2.08,249.15608089999296,None,,,,,,,,,,,,,,,,,,,,249.69350459997077,250.20070140005555,0.5133793100249022,1.0136457099579275,250.1840297000017,250.28406540001743,250.1840297000017,250.28406540001743,250.28406540001743,None,m,1,1.0616996999597177,250.28406540001743,None,,,,,f,,p3,2022_Mar_01_1416,training+cueing,2021.1.4,59.98023051910389,
Friend.png,Friend,Friend,c,2,12,22,92,,,,,0,0,0,0,,,,,1,7,19,4,,,,,,,,,,,,,,,,,,,,,1.761,2.325,251.47444260003977,None,,,,,,,,,,,,,,,,,,,,252.01208340004086,252.51902710006107,0.5123919099569321,1.0126651100581512,252.50239130004775,252.6190607000608,252.50239130004775,252.6190607000608,252.60239030001685,None,m,0,0.9193620999576524,252.60239030001685,None,,,,,f,,p3,2022_Mar_01_1416,training+cueing,2021.1.4,59.98023051910389,
Stranger.png,Stranger,Stranger,c,3,13,23,93,,,,,0,0,0,0,,,,,1,8,20,11,,,,,,,,,,,,,,,,,,,,,1.417,1.811,253.65895019995514,None,,,,,,,,,,,,,,,,,,,,254.19793450005818,254.70395070000086,0.5117648100713268,1.0120635100174695,254.68727110000327,254.8040011000121,254.68727110000327,254.8040011000121,254.78728030005004,None,m,0,1.0864719999954104,254.78728030005004,None,,,,,f,,p3,2022_Mar_01_1416,training+cueing,2021.1.4,59.98023051910389,
Stranger.png,Stranger,Stranger,c,3,13,23,93,,,,,0,0,0,0,,,,,1,9,21,8,,,,,,,,,,,,,,,,,,,,,1.546,1.284,256.01116680004634,None,,,,,,,,,,,,,,,,,,,,256.5460602999665,257.0556407000404,0.5012062399182469,1.001491739996709,257.0389795000665,257.15569719998166,257.0389795000665,257.15569719998166,257.15569719998166,None,m,0,0.9899836999829859,257.15569719998166,None,,,,,f,,p3,2022_Mar_01_1416,training+cueing,2021.1.4,59.98023051910389,
Stranger.png,You,Stranger,m,1.3,15,25,95,,,,,0,0,0,0,,,,,1,10,22,6,,,,,,,,,,,,,,,,,,,,,1.617,1.412,258.27885020000394,None,,,,,,,,,,,,,,,,,,,,258.81671190005727,259.32393890002277,0.5126142099034041,1.0132362099830061,259.3073024000041,259.4073655999964,259.3073024000041,259.4073655999964,259.4073655999964,None,c,0,0.6423562999116257,259.4073655999964,None,,,,,f,,p3,2022_Mar_01_1416,training+cueing,2021.1.4,59.98023051910389,
Self.png,You,Self ,c,1,11,21,91,,,,,0,0,0,0,,,,,1,11,23,9,,,,,,,,,,,,,,,,,,,,,1.752,1.738,260.18065660004504,None,,,,,,,,,,,,,,,,,,,,260.72846070001833,261.24198499997146,0.5096962100360543,1.009968510014005,261.22534040000755,261.3253792000469,261.22534040000755,261.3253792000469,261.3253792000469,None,c,1,1.1242953999899328,261.3253792000469,None,,,,,f,,p3,2022_Mar_01_1416,training+cueing,2021.1.4,59.98023051910389,
Stranger.png,Friend,Stranger,m,2.3,17,27,97,,,,,0,0,0,0,,,,,2,0,24,7,,,,,,,,,,,,,,,,,,,,,1.484,1.246,262.5827675999608,None,,,,,,,,,,,,,,,,,,,,263.11960149998777,263.62703269999474,0.5116462099831551,1.0119470099452883,263.6103537000017,263.72707230004016,263.6103537000017,263.72707230004016,263.7103952000616,None,None,0,,263.7103952000616,None,,,,,f,,p3,2022_Mar_01_1416,training+cueing,2021.1.4,59.98023051910389,
Self.png,Friend,Self ,m,2.1,16,26,96,,,,,0,0,0,0,,,,,2,1,25,1,,,,,,,,,,,,,,,,,,,,,1.716,2.068,265.29889340000227,None,,,,,,,,,,,,,,,,,,,,265.8371049000416,266.3456493000267,0.500966339954175,1.001244339859113,266.32901570003014,266.44569429999683,266.32901570003014,266.44569429999683,266.44569429999683,None,c,0,1.2359481999883428,266.44569429999683,None,,,,,f,,p3,2022_Mar_01_1416,training+cueing,2021.1.4,59.98023051910389,
Stranger.png,Stranger,Stranger,c,3,13,23,93,,,,,0,0,0,0,,,,,2,2,26,11,,,,,,,,,,,,,,,,,,,,,1.412,1.817,267.8195297999773,None,,,,,,,,,,,,,,,,,,,,268.36098420002963,268.86413490003906,0.5052806100575253,1.0056768100475892,268.8474932999816,268.96418410004117,268.8474932999816,268.96418410004117,268.947499300004,None,m,0,0.878271900000982,268.947499300004,None,,,,,f,,p3,2022_Mar_01_1416,training+cueing,2021.1.4,59.98023051910389,
Friend.png,Friend,Friend,c,2,12,22,92,,,,,0,0,0,0,,,,,2,3,27,4,,,,,,,,,,,,,,,,,,,,,1.456,1.366,269.954422699986,None,,,,,,,,,,,,,,,,,,,,270.4918985000113,270.99914109997917,0.5126627100398764,1.0168031100183725,270.9824766999809,271.0990680999821,270.9824766999809,271.0990680999821,271.08236230001785,None,c,1,1.0953430000226945,271.08236230001785,None,,,,,f,,p3,2022_Mar_01_1416,training+cueing,2021.1.4,59.98023051910389,
Friend.png,You,Friend,m,1.2,14,24,94,,,,,0,0,0,0,,,,,2,4,28,3,,,,,,,,,,,,,,,,,,,,,1.787,1.369,272.30605060001835,None,,,,,,,,,,,,,,,,,,,,272.84408720000647,273.35078650002833,0.5136898099444807,1.013746009906754,273.33421090000775,273.4341120000463,273.33421090000775,273.4341120000463,273.4341120000463,None,m,1,0.9356673998991027,273.4341120000463,None,,,,,f,,p3,2022_Mar_01_1416,training+cueing,2021.1.4,59.98023051910389,
Stranger.png,Stranger,Stranger,c,3,13,23,93,,,,,0,0,0,0,,,,,2,5,29,8,,,,,,,,,,,,,,,,,,,,,1.628,1.638,274.4911966000218,None,,,,,,,,,,,,,,,,,,,,275.0292880999623,275.5356208999874,0.511463509988971,1.011721309972927,275.51896370004397,275.6357129999669,275.51896370004397,275.6357129999669,275.6189631000161,None,c,1,0.9267086000181735,275.6189631000161,None,,,,,f,,p3,2022_Mar_01_1416,training+cueing,2021.1.4,59.98023051910389,
Self.png,You,Self ,c,1,11,21,91,,,,,0,0,0,0,,,,,2,6,30,0,,,,,,,,,,,,,,,,,,,,,1.506,1.879,276.67633319995366,None,,,,,,,,,,,,,,,,,,,,277.21276170003694,277.72063520003576,0.5136285099433735,1.0139349099481478,277.7038490000414,277.80391510005575,277.7038490000414,277.80391510005575,277.80391510005575,None,m,0,0.9978308000136167,277.80391510005575,None,,,,,f,,p3,2022_Mar_01_1416,training+cueing,2021.1.4,59.98023051910389,
Self.png,You,Self ,c,1,11,21,91,,,,,0,0,0,0,,,,,2,7,31,9,,,,,,,,,,,,,,,,,,,,,1.737,1.483,278.9272843999788,None,,,,,,,,,,,,,,,,,,,,279.4631518999813,279.9721445000032,0.5007008399115875,1.0009610399138182,279.95548710005824,280.055512299994,279.95548710005824,280.055512299994,280.055512299994,None,c,1,0.7941349999746308,280.055512299994,None,,,,,f,,p3,2022_Mar_01_1416,training+cueing,2021.1.4,59.98023051910389,
Friend.png,Friend,Friend,c,2,12,22,92,,,,,0,0,0,0,,,,,2,8,32,10,,,,,,,,,,,,,,,,,,,,,1.437,1.331,280.97860679996666,None,,,,,,,,,,,,,,,,,,,,281.5353650000179,282.04030660004355,0.5070714801549911,1.007335780072026,282.02368390001357,282.1403588000685,282.02368390001357,282.1403588000685,282.12366399995517,None,m,0,0.7740903999656439,282.12366399995517,None,,,,,f,,p3,2022_Mar_01_1416,training+cueing,2021.1.4,59.98023051910389,
Friend.png,Stranger,Friend,m,3.2,19,29,99,,,,,0,0,0,0,,,,,2,9,33,5,,,,,,,,,,,,,,,,,,,,,1.763,2.172,283.030647699954,None,,,,,,,,,,,,,,,,,,,,283.5689387000166,284.075140299974,0.5118955100188032,1.0121983099961653,284.05841950001195,284.17512140003964,284.05841950001195,284.17512140003964,284.1584531000117,None,m,1,1.2512722000246868,284.1584531000117,None,,,,,f,,p3,2022_Mar_01_1416,training+cueing,2021.1.4,59.98023051910389,
Stranger.png,You,Stranger,m,1.3,15,25,95,,,,,0,0,0,0,,,,,2,10,34,6,,,,,,,,,,,,,,,,,,,,,1.457,1.65,285.5328397999983,None,,,,,,,,,,,,,,,,,,,,286.070802000002,286.57692030002363,0.5123635099735111,1.0126469100359827,286.56024400005117,286.66026689996943,286.56024400005117,286.66026689996943,286.66026689996943,None,c,0,0.7333541000261903,286.66026689996943,None,,,,,f,,p3,2022_Mar_01_1416,training+cueing,2021.1.4,59.98023051910389,
Self.png,Stranger,Self ,m,3.1,18,28,98,,,,,0,0,0,0,,,,,2,11,35,2,,,,,,,,,,,,,,,,,,,,,1.589,1.887,287.5172157000052,None,,,,,,,,,,,,,,,,,,,,288.05462089995854,288.56167630001437,0.5110661099897698,1.0112824100069702,288.5450392999919,288.6617249000119,288.5450392999919,288.6617249000119,288.6449982000049,None,m,1,1.164676500018686,288.6449982000049,None,,,,,f,,p3,2022_Mar_01_1416,training+cueing,2021.1.4,59.98023051910389,
Friend.png,You,Friend,m,1.2,14,24,94,,,,,0,0,0,0,,,,,3,0,36,3,,,,,,,,,,,,,,,,,,,,,1.524,1.204,289.9347621999914,None,,,,,,,,,,,,,,,,,,,,290.4731088000117,290.98006370000076,0.5134171099634841,1.0137200099416077,290.96340919996146,291.0634575999575,290.96340919996146,291.0634575999575,291.0634575999575,None,c,0,0.842219200101681,291.0634575999575,None,,,,,f,,p3,2022_Mar_01_1416,training+cueing,2021.1.4,59.98023051910389,
Stranger.png,Friend,Stranger,m,2.3,17,27,97,,,,,0,0,0,0,,,,,3,1,37,7,,,,,,,,,,,,,,,,,,,,,1.411,1.742,292.03664379997645,None,,,,,,,,,,,,,,,,,,,,292.5750665999949,293.08162960002664,0.5130823100917041,1.0133800100302324,293.0649194000289,293.18167570000514,293.0649194000289,293.18167570000514,293.1649412000552,None,c,0,1.1247282000258565,293.1649412000552,None,,,,,f,,p3,2022_Mar_01_1416,training+cueing,2021.1.4,59.98023051910389,
Stranger.png,You,Stranger,m,1.3,15,25,95,,,,,0,0,0,0,,,,,3,2,38,6,,,,,,,,,,,,,,,,,,,,,1.744,1.803,294.42237040004693,None,,,,,,,,,,,,,,,,,,,,294.9586522000609,295.466681699967,0.5130664099706337,1.0133384099463,295.4500008999603,295.5501683000475,295.4500008999603,295.5501683000475,295.5501683000475,None,c,0,0.6754815999884158,295.5501683000475,None,,,,,f,,p3,2022_Mar_01_1416,training+cueing,2021.1.4,59.98023051910389,
Friend.png,Friend,Friend,c,2,12,22,92,,,,,0,0,0,0,,,,,3,3,39,4,,,,,,,,,,,,,,,,,,,,,1.606,2.236,296.3569199000485,None,,,,,,,,,,,,,,,,,,,,296.9238151999889,297.4347360000247,0.5064259800128639,1.006693479954265,297.41807939996943,297.53477220004424,297.41807939996943,297.53477220004424,297.5180928000482,None,m,0,0.8515979000367224,297.5180928000482,None,,,,,f,,p3,2022_Mar_01_1416,training+cueing,2021.1.4,59.98023051910389,
Stranger.png,Stranger,Stranger,c,3,13,23,93,,,,,0,0,0,0,,,,,3,4,40,8,,,,,,,,,,,,,,,,,,,,,1.691,1.957,298.49187200004235,None,,,,,,,,,,,,,,,,,,,,299.0310891000554,299.53624659997877,0.5078210099600255,1.008125409949571,299.5195951999631,299.6368625999894,299.5195951999631,299.6368625999894,299.61965750006493,None,m,0,0.9740703999996185,299.61965750006493,None,,,,,f,,p3,2022_Mar_01_1416,training+cueing,2021.1.4,59.98023051910389,
Self.png,Friend,Self ,m,2.1,16,26,96,,,,,0,0,0,0,,,,,3,5,41,1,,,,,,,,,,,,,,,,,,,,,1.54,1.9,300.7266477000667,None,,,,,,,,,,,,,,,,,,,,301.2642374000279,301.77118829998653,0.5133433101000264,1.0136480100918561,301.75454230001196,301.87124909996055,301.75454230001196,301.87124909996055,301.8545343000442,None,None,0,,301.8545343000442,None,,,,,f,,p3,2022_Mar_01_1416,training+cueing,2021.1.4,59.98023051910389,
Friend.png,Stranger,Friend,m,3.2,19,29,99,,,,,0,0,0,0,,,,,3,6,42,5,,,,,,,,,,,,,,,,,,,,,1.684,2.009,303.5102508000564,None,,,,,,,,,,,,,,,,,,,,304.0503495000303,304.5565431000432,0.5119541099993512,1.0122138099977747,304.5398904000176,304.65657920006197,304.5398904000176,304.65657920006197,304.63988390006125,None,None,0,,304.63988390006125,None,,,,,f,,p3,2022_Mar_01_1416,training+cueing,2021.1.4,59.98023051910389,
Self.png,You,Self ,c,1,11,21,91,,,,,0,0,0,0,,,,,3,7,43,9,,,,,,,,,,,,,,,,,,,,,1.515,2.457,306.428800099995,None,,,,,,,,,,,,,,,,,,,,306.9677324000513,307.4753279000288,0.513081909972243,1.013349310029298,307.458667500061,307.5587167000631,307.458667500061,307.5587167000631,307.5587167000631,None,c,1,0.7309903999557719,307.5587167000631,None,,,,,f,,p3,2022_Mar_01_1416,training+cueing,2021.1.4,59.98023051910389,
Self.png,You,Self ,c,1,11,21,91,,,,,0,0,0,0,,,,,3,8,44,0,,,,,,,,,,,,,,,,,,,,,1.522,1.638,308.4152189999586,None,,,,,,,,,,,,,,,,,,,,308.9518143000314,309.4601150000235,0.5004560401430354,1.000728740124032,309.4434115999611,309.54344849998597,309.4434115999611,309.54344849998597,309.54344849998597,None,c,1,1.2422382000368088,309.54344849998597,None,,,,,f,,p3,2022_Mar_01_1416,training+cueing,2021.1.4,59.98023051910389,
Self.png,Stranger,Self ,m,3.1,18,28,98,,,,,0,0,0,0,,,,,3,9,45,2,,,,,,,,,,,,,,,,,,,,,1.542,1.621,310.916828299989,None,,,,,,,,,,,,,,,,,,,,311.4560894999886,311.96188249997795,0.5117259098915383,1.0120143099920824,311.9452135000611,312.06192560005,311.9452135000611,312.06192560005,312.0452145000454,None,m,1,0.8044248999794945,312.0452145000454,None,,,,,f,,p3,2022_Mar_01_1416,training+cueing,2021.1.4,59.98023051910389,
Friend.png,Friend,Friend,c,2,12,22,92,,,,,0,0,0,0,,,,,3,10,46,10,,,,,,,,,,,,,,,,,,,,,1.726,1.884,312.98548330005724,None,,,,,,,,,,,,,,,,,,,,313.5237474000314,314.0300430000061,0.5100388100836426,1.0103371100267395,314.01338020002004,314.13008440006524,314.01338020002004,314.13008440006524,314.1134023000486,None,c,1,1.0722204999765381,314.1134023000486,None,,,,,f,,p3,2022_Mar_01_1416,training+cueing,2021.1.4,59.98023051910389,
Stranger.png,Stranger,Stranger,c,3,13,23,93,,,,,0,0,0,0,,,,,3,11,47,11,,,,,,,,,,,,,,,,,,,,,1.688,1.522,315.3199258999666,None,,,,,,,,,,,,,,,,,,,,315.8721773000434,316.38170729996637,0.5024400100810453,1.0029340101173148,316.36511420004535,316.48175889998674,316.36511420004535,316.48175889998674,316.46508320001885,None,c,1,1.1205055000027642,316.46508320001885,None,,,,,f,,p3,2022_Mar_01_1416,training+cueing,2021.1.4,59.98023051910389,
Self.png,You,Self ,c,1,11,21,91,,,,,0,0,0,0,,,,,4,0,48,9,,,,,,,,,,,,,,,,,,,,,1.645,2.168,317.7222028999822,None,,,,,,,,,,,,,,,,,,,,318.25883750000503,318.76677720004227,0.5131388099398464,1.0134299099445343,318.7500866999617,318.8501305000391,318.7500866999617,318.8501305000391,318.8501305000391,None,m,0,1.3115703000221401,318.8501305000391,None,,,,,f,,p3,2022_Mar_01_1416,training+cueing,2021.1.4,59.98023051910389,
Friend.png,Friend,Friend,c,2,12,22,92,,,,,0,0,0,0,,,,,4,1,49,4,,,,,,,,,,,,,,,,,,,,,1.663,1.883,320.2904586000368,None,,,,,,,,,,,,,,,,,,,,320.8291824000189,321.3443169000093,0.5288491100072861,1.028768409974873,321.3356490000151,321.43536410003435,321.3356490000151,321.43536410003435,321.41863219998777,None,c,1,1.5110245000105351,321.41863219998777,None,,,,,f,,p3,2022_Mar_01_1416,training+cueing,2021.1.4,59.98023051910389,
Self.png,You,Self ,c,1,11,21,91,,,,,0,0,0,0,,,,,4,2,50,0,,,,,,,,,,,,,,,,,,,,,1.599,1.871,323.05916800000705,None,,,,,,,,,,,,,,,,,,,,323.5973127000034,324.1039550000569,0.5124403099762276,1.012735510012135,324.0873089999659,324.18748850002885,324.0873089999659,324.18748850002885,324.18748850002885,None,c,1,0.7900986999738961,324.18748850002885,None,,,,,f,,p3,2022_Mar_01_1416,training+cueing,2021.1.4,59.98023051910389,
Self.png,Friend,Self ,m,2.1,16,26,96,,,,,0,0,0,0,,,,,4,3,51,1,,,,,,,,,,,,,,,,,,,,,1.609,1.964,325.1105645999778,None,,,,,,,,,,,,,,,,,,,,325.6483498000307,326.1554220999824,0.5121626099571586,1.0123979098862037,326.1388106000377,326.25549190002494,326.1388106000377,326.25549190002494,326.2388119000243,None,c,0,1.0748728000326082,326.2388119000243,None,,,,,f,,p3,2022_Mar_01_1416,training+cueing,2021.1.4,59.98023051910389,
Friend.png,Friend,Friend,c,2,12,22,92,,,,,0,0,0,0,,,,,4,4,52,10,,,,,,,,,,,,,,,,,,,,,1.598,2.148,327.44568080001045,None,,,,,,,,,,,,,,,,,,,,327.98147740005516,328.4904662000481,0.5005724398652092,1.000869539915584,328.4738027000567,328.59048610005993,328.4738027000567,328.59048610005993,328.59048610005993,None,c,1,0.8511000999715179,328.59048610005993,None,,,,,f,,p3,2022_Mar_01_1416,training+cueing,2021.1.4,59.98023051910389,
Stranger.png,Stranger,Stranger,c,3,13,23,93,,,,,0,0,0,0,,,,,4,5,53,11,,,,,,,,,,,,,,,,,,,,,1.679,2.217,329.56374020001385,None,,,,,,,,,,,,,,,,,,,,330.1034407999832,330.6086441000225,0.5114148099673912,1.0116884099552408,330.5920090000145,330.7086827000603,330.5920090000145,330.7086827000603,330.69202289998066,None,c,1,0.6055389000102878,330.69202289998066,None,,,,,f,,p3,2022_Mar_01_1416,training+cueing,2021.1.4,59.98023051910389,
Friend.png,You,Friend,m,1.2,14,24,94,,,,,0,0,0,0,,,,,4,6,54,3,,,,,,,,,,,,,,,,,,,,,1.519,2.258,331.43200090003666,None,,,,,,,,,,,,,,,,,,,,331.98164560005534,332.4933512000134,0.5056048100814223,1.0058818099787459,332.4766709000105,332.576704600011,332.4766709000105,332.576704600011,332.576704600011,None,m,1,1.2168948999606073,332.576704600011,None,,,,,f,,p3,2022_Mar_01_1416,training+cueing,2021.1.4,59.98023051910389,
Friend.png,Stranger,Friend,m,3.2,19,29,99,,,,,0,0,0,0,,,,,4,7,55,5,,,,,,,,,,,,,,,,,,,,,1.402,2.268,333.9169505999889,None,,,,,,,,,,,,,,,,,,,,334.4557184999576,334.9617888999637,0.5119436100358143,1.0122745099943131,334.9451095999684,335.0618314000312,334.9451095999684,335.0618314000312,335.0451142999809,None,None,0,,335.0451142999809,None,,,,,f,,p3,2022_Mar_01_1416,training+cueing,2021.1.4,59.98023051910389,
Self.png,Stranger,Self ,m,3.1,18,28,98,,,,,0,0,0,0,,,,,4,8,56,2,,,,,,,,,,,,,,,,,,,,,1.403,1.276,336.5505065000616,None,,,,,,,,,,,,,,,,,,,,337.08725920005236,337.59705300000496,0.5009830398485065,1.0012863399460912,337.5803509000689,337.6970719000092,337.5803509000689,337.6970719000092,337.6970719000092,None,m,1,1.2485673000337556,337.6970719000092,None,,,,,f,,p3,2022_Mar_01_1416,training+cueing,2021.1.4,59.98023051910389,
Stranger.png,Stranger,Stranger,c,3,13,23,93,,,,,0,0,0,0,,,,,4,9,57,8,,,,,,,,,,,,,,,,,,,,,1.734,1.579,339.0724744000472,None,,,,,,,,,,,,,,,,,,,,339.6084106999915,340.1155097000301,0.5142346100183204,1.0145392100093886,340.098821499967,340.21555459999945,340.098821499967,340.21555459999945,340.1988599000033,None,c,1,0.9229518000502139,340.1988599000033,None,,,,,f,,p3,2022_Mar_01_1416,training+cueing,2021.1.4,59.98023051910389,
Stranger.png,You,Stranger,m,1.3,15,25,95,,,,,0,0,0,0,,,,,4,10,58,6,,,,,,,,,,,,,,,,,,,,,1.432,1.824,341.2562031999696,None,,,,,,,,,,,,,,,,,,,,341.7934058000101,342.30045570002403,0.512754809926264,1.01307480991818,342.28369690000545,342.3837775000138,342.28369690000545,342.3837775000138,342.3837775000138,None,c,0,0.705964699969627,342.3837775000138,None,,,,,f,,p3,2022_Mar_01_1416,training+cueing,2021.1.4,59.98023051910389,
Stranger.png,Friend,Stranger,m,2.3,17,27,97,,,,,0,0,0,0,,,,,4,11,59,7,,,,,,,,,,,,,,,,,,,,,1.45,1.769,343.2239227000391,None,,,,,,,,,,,,,,,,,,,,343.7625496999826,344.2685133999912,0.5097981099970639,1.0100869099842384,344.25183940003626,344.368559799972,344.25183940003626,344.368559799972,344.35185860004276,None,c,0,1.20176550000906,344.35185860004276,None,,,,,f,,p3,2022_Mar_01_1416,training+cueing,2021.1.4,59.98023051910389,
Friend.png,Friend,Friend,c,2,12,22,92,,,,,0,0,0,0,,,,,5,0,60,4,,,,,,,,,,,,,,,,,,,,,1.489,1.825,345.6759079999756,None,,,,,,,,,,,,,,,,,,,,346.2112138000084,346.72023780003656,0.5001561101526022,1.000509410048835,346.6869513000129,346.7869496999774,346.6869513000129,346.7869496999774,346.7869496999774,None,c,1,0.9746518000029027,346.7869496999774,None,,,,,f,,p3,2022_Mar_01_1416,training+cueing,2021.1.4,59.98023051910389,
Self.png,You,Self ,c,1,11,21,91,,,,,0,0,0,0,,,,,5,1,61,0,,,,,,,,,,,,,,,,,,,,,1.76,2.025,347.8935025000246,None,,,,,,,,,,,,,,,,,,,,348.43117690004874,348.938534899964,0.5136506099952385,1.0139641099376604,348.921903999988,349.0219221999869,348.921903999988,349.0219221999869,349.0219221999869,None,c,1,0.67572579998523,349.0219221999869,None,,,,,f,,p3,2022_Mar_01_1416,training+cueing,2021.1.4,59.98023051910389,
Friend.png,Friend,Friend,c,2,12,22,92,,,,,0,0,0,0,,,,,5,2,62,10,,,,,,,,,,,,,,,,,,,,,1.744,1.241,349.82838850002736,None,,,,,,,,,,,,,,,,,,,,350.36632400006056,350.8733036000049,0.5123374100076035,1.0125619100872427,350.8566571000265,350.9733045999892,350.8566571000265,350.9733045999892,350.9566181000555,None,c,1,0.9010103999171406,350.9566181000555,None,,,,,f,,p3,2022_Mar_01_1416,training+cueing,2021.1.4,59.98023051910389,
Stranger.png,You,Stranger,m,1.3,15,25,95,,,,,0,0,0,0,,,,,5,3,63,6,,,,,,,,,,,,,,,,,,,,,1.6,1.656,351.98033509997185,None,,,,,,,,,,,,,,,,,,,,352.5175381000154,353.02480140002444,0.5135184100363404,1.0137838100781664,353.0081596999662,353.10819589998573,353.0081596999662,353.10819589998573,353.10819589998573,None,c,0,0.6373940999619663,353.10819589998573,None,,,,,f,,p3,2022_Mar_01_1416,training+cueing,2021.1.4,59.98023051910389,
Friend.png,Stranger,Friend,m,3.2,19,29,99,,,,,0,0,0,0,,,,,5,4,64,5,,,,,,,,,,,,,,,,,,,,,1.721,1.348,353.8818866000511,None,,,,,,,,,,,,,,,,,,,,354.41954579995945,354.92618029995356,0.5102385099744424,1.0106363099766895,354.90954659995623,355.02683440002147,354.90954659995623,355.02683440002147,355.0097060999833,None,m,1,0.8958872000221163,355.0097060999833,None,,,,,f,,p3,2022_Mar_01_1416,training+cueing,2021.1.4,59.98023051910389,
Stranger.png,Friend,Stranger,m,2.3,17,27,97,,,,,0,0,0,0,,,,,5,5,65,7,,,,,,,,,,,,,,,,,,,,,1.615,2.003,356.0344896999886,None,,,,,,,,,,,,,,,,,,,,356.5825797000434,357.0944322999567,0.5073590099345893,1.0076037099352106,357.077773099998,357.19447180000134,357.077773099998,357.19447180000134,357.1777570999693,None,c,0,0.8237955000950024,357.1777570999693,None,,,,,f,,p3,2022_Mar_01_1416,training+cueing,2021.1.4,59.98023051910389,
Self.png,You,Self ,c,1,11,21,91,,,,,0,0,0,0,,,,,5,6,66,9,,,,,,,,,,,,,,,,,,,,,1.766,2.317,358.1347237000009,None,,,,,,,,,,,,,,,,,,,,358.6716310000047,359.1792543999618,0.5142186100129038,1.0145149099407718,359.1625811000122,359.26261750003323,359.1625811000122,359.26261750003323,359.26261750003323,None,c,1,0.6589616999262944,359.26261750003323,None,,,,,f,,p3,2022_Mar_01_1416,training+cueing,2021.1.4,59.98023051910389,
Stranger.png,Stranger,Stranger,c,3,13,23,93,,,,,0,0,0,0,,,,,5,7,67,11,,,,,,,,,,,,,,,,,,,,,1.626,1.506,360.05273790005594,None,,,,,,,,,,,,,,,,,,,,360.5902517000213,361.0973280000035,0.5113672099541873,1.0117386099882424,361.08065859996714,361.1973750999896,361.08065859996714,361.1973750999896,361.1806602999568,None,m,0,1.0928810999030247,361.1806602999568,None,,,,,f,,p3,2022_Mar_01_1416,training+cueing,2021.1.4,59.98023051910389,
Stranger.png,Stranger,Stranger,c,3,13,23,93,,,,,0,0,0,0,,,,,5,8,68,8,,,,,,,,,,,,,,,,,,,,,1.708,2.386,362.40241760003846,None,,,,,,,,,,,,,,,,,,,,362.93996840005275,363.44902870000806,0.5006747399456799,1.0009298399090767,363.4323730999604,363.5490661000367,363.4323730999604,363.5490661000367,363.5490661000367,None,m,0,0.7884231000207365,363.5490661000367,None,,,,,f,,p3,2022_Mar_01_1416,training+cueing,2021.1.4,59.98023051910389,
Self.png,Friend,Self ,m,2.1,16,26,96,,,,,0,0,0,0,,,,,5,9,69,1,,,,,,,,,,,,,,,,,,,,,1.605,1.569,364.4728801000165,None,,,,,,,,,,,,,,,,,,,,365.01054270006716,365.51716769998893,0.5124471099115908,1.0127335098804906,365.5005237000296,365.61716609995347,365.5005237000296,365.61716609995347,365.6005182999652,None,m,1,0.9450375000014901,365.6005182999652,None,,,,,f,,p3,2022_Mar_01_1416,training+cueing,2021.1.4,59.98023051910389,
Self.png,Stranger,Self ,m,3.1,18,28,98,,,,,0,0,0,0,,,,,5,10,70,2,,,,,,,,,,,,,,,,,,,,,1.415,1.807,366.6742957000388,None,,,,,,,,,,,,,,,,,,,,367.2123418999836,367.7187531000236,0.5103216099087149,1.010578109882772,367.70211139996536,367.81879080005456,367.70211139996536,367.81879080005456,367.8021106000524,None,m,1,0.887430000002496,367.8021106000524,None,,,,,f,,p3,2022_Mar_01_1416,training+cueing,2021.1.4,59.98023051910389,
Friend.png,You,Friend,m,1.2,14,24,94,,,,,0,0,0,0,,,,,5,11,71,3,,,,,,,,,,,,,,,,,,,,,1.783,2.13,368.8258421999635,None,,,,,,,,,,,,,,,,,,,,369.3646041000029,369.87029110000003,0.512366609997116,1.0126327100442722,369.85365129995625,369.9537045999896,369.85365129995625,369.9537045999896,369.9537045999896,None,c,0,1.3118756000185385,369.9537045999896,None,,,,,f,,p3,2022_Mar_01_1416,training+cueing,2021.1.4,59.98023051910389,
Self.png,Friend,Self ,m,2.1,16,26,96,,,,,0,0,0,0,,,,,6,0,72,1,,,,,,,,,,,,,,,,,,,,,1.754,1.78,371.3945081999991,None,,,,,,,,,,,,,,,,,,,,371.9318129000021,372.43879709998146,0.5119645100785419,1.0122582099866122,372.42213770002127,372.5388560000574,372.42213770002127,372.5388560000574,372.5221821999876,None,m,1,1.03128110000398,372.5221821999876,None,,,,,f,,p3,2022_Mar_01_1416,training+cueing,2021.1.4,59.98023051910389,
Friend.png,Friend,Friend,c,2,12,22,92,,,,,0,0,0,0,,,,,6,1,73,4,,,,,,,,,,,,,,,,,,,,,1.639,2.012,373.6793347999919,None,,,,,,,,,,,,,,,,,,,,374.21534820005763,374.72375030000694,0.5002610099036247,1.0005125099560246,374.6904752999544,374.7904962999746,374.6904752999544,374.7904962999746,374.7904962999746,None,m,0,0.7470322999870405,374.7904962999746,None,,,,,f,,p3,2022_Mar_01_1416,training+cueing,2021.1.4,59.98023051910389,
Stranger.png,Stranger,Stranger,c,3,13,23,93,,,,,0,0,0,0,,,,,6,2,74,11,,,,,,,,,,,,,,,,,,,,,1.691,1.409,375.6639056999702,None,,,,,,,,,,,,,,,,,,,,376.2030047000153,376.7085820999928,0.5115118100075051,1.0118270099628717,376.6918738000095,376.8091995000141,376.6918738000095,376.8091995000141,376.79237999999896,None,m,0,0.9371600999729708,376.79237999999896,None,,,,,f,,p3,2022_Mar_01_1416,training+cueing,2021.1.4,59.98023051910389,
Self.png,Stranger,Self ,m,3.1,18,28,98,,,,,0,0,0,0,,,,,6,3,75,2,,,,,,,,,,,,,,,,,,,,,1.436,1.282,377.8652430999791,None,,,,,,,,,,,,,,,,,,,,378.40005469997413,378.9101568000624,0.5005690399557352,1.0014760398771614,378.89348590001464,379.0102106999839,378.89348590001464,379.0102106999839,379.0102106999839,None,m,1,0.9273127000778913,379.0102106999839,None,,,,,f,,p3,2022_Mar_01_1416,training+cueing,2021.1.4,59.98023051910389,
Self.png,You,Self ,c,1,11,21,91,,,,,0,0,0,0,,,,,6,4,76,9,,,,,,,,,,,,,,,,,,,,,1.77,1.633,380.0675293999957,None,,,,,,,,,,,,,,,,,,,,380.60468240000773,381.11186669999734,0.5136542100226507,1.0137961100554094,381.0951840999769,381.1951251999708,381.0951840999769,381.1951251999708,381.1951251999708,None,c,1,0.7903720000758767,381.1951251999708,None,,,,,f,,p3,2022_Mar_01_1416,training+cueing,2021.1.4,59.98023051910389,
Self.png,You,Self ,c,1,11,21,91,,,,,0,0,0,0,,,,,6,5,77,0,,,,,,,,,,,,,,,,,,,,,1.767,1.694,382.11930190003477,None,,,,,,,,,,,,,,,,,,,,382.65411100001074,383.163208700018,0.5014788400148973,1.001807039952837,383.1465328000486,383.2465973000508,383.1465328000486,383.2465973000508,383.2465973000508,None,c,1,0.6269818999571726,383.2465973000508,None,,,,,f,,p3,2022_Mar_01_1416,training+cueing,2021.1.4,59.98023051910389,
Friend.png,Stranger,Friend,m,3.2,19,29,99,,,,,0,0,0,0,,,,,6,6,78,5,,,,,,,,,,,,,,,,,,,,,1.767,1.357,384.00334799999837,None,,,,,,,,,,,,,,,,,,,,384.5579602000071,385.06457539997064,0.5112350799608976,1.0115173800149933,385.047922900063,385.16464810003527,385.047922900063,385.16464810003527,385.1479297999758,None,m,1,0.9815348000265658,385.1479297999758,None,,,,,f,,p3,2022_Mar_01_1416,training+cueing,2021.1.4,59.98023051910389,
Stranger.png,Stranger,Stranger,c,3,13,23,93,,,,,0,0,0,0,,,,,6,7,79,8,,,,,,,,,,,,,,,,,,,,,1.678,2.409,386.25515790004283,None,,,,,,,,,,,,,,,,,,,,386.7907445000019,387.2995152999647,0.5007653400534764,1.0010319401044399,387.28288529999554,387.3996291999938,387.28288529999554,387.3996291999938,387.3996291999938,None,m,0,0.9378838998964056,387.3996291999938,None,,,,,f,,p3,2022_Mar_01_1416,training+cueing,2021.1.4,59.98023051910389,
Friend.png,Friend,Friend,c,2,12,22,92,,,,,0,0,0,0,,,,,6,8,80,10,,,,,,,,,,,,,,,,,,,,,1.552,1.32,388.472948599956,None,,,,,,,,,,,,,,,,,,,,389.0106538999826,389.5179261000594,0.512222409946844,1.0123860100284219,389.5012287000427,389.61782539996784,389.5012287000427,389.61782539996784,389.6011524000205,None,c,1,0.9123498999979347,389.6011524000205,None,,,,,f,,p3,2022_Mar_01_1416,training+cueing,2021.1.4,59.98023051910389,
Stranger.png,Friend,Stranger,m,2.3,17,27,97,,,,,0,0,0,0,,,,,6,9,81,7,,,,,,,,,,,,,,,,,,,,,1.439,2.399,390.64151440002024,None,,,,,,,,,,,,,,,,,,,,391.1775188000174,391.68597830005456,0.5000932100228965,1.000366110005416,391.65270660002716,391.7527226000093,391.65270660002716,391.7527226000093,391.7527226000093,None,m,1,0.7767771000508219,391.7527226000093,None,,,,,f,,p3,2022_Mar_01_1416,training+cueing,2021.1.4,59.98023051910389,
Stranger.png,You,Stranger,m,1.3,15,25,95,,,,,0,0,0,0,,,,,6,10,82,6,,,,,,,,,,,,,,,,,,,,,1.431,2.194,392.65984820004087,None,,,,,,,,,,,,,,,,,,,,393.1976013999665,393.70415360003244,0.5124741100007668,1.0127739100717008,393.68750740005635,393.78754130005836,393.68750740005635,393.78754130005836,393.78754130005836,None,c,0,0.7740655998932198,393.78754130005836,None,,,,,f,,p3,2022_Mar_01_1416,training+cueing,2021.1.4,59.98023051910389,
Friend.png,You,Friend,m,1.2,14,24,94,,,,,0,0,0,0,,,,,6,11,83,3,,,,,,,,,,,,,,,,,,,,,1.605,1.697,394.69445940002333,None,,,,,,,,,,,,,,,,,,,,395.2293153000064,395.73895769997034,0.5008678400190547,1.0011653400724754,395.72230430005584,395.8223291999893,395.72230430005584,395.8223291999893,395.8223291999893,None,m,1,0.8192136000143364,395.8223291999893,None,,,,,f,,p3,2022_Mar_01_1416,training+cueing,2021.1.4,59.98023051910389,
Stranger.png,Stranger,Stranger,c,3,13,23,93,,,,,0,0,0,0,,,,,7,0,84,8,,,,,,,,,,,,,,,,,,,,,1.695,1.667,396.7788606999675,None,,,,,,,,,,,,,,,,,,,,397.31822550005745,397.82380310003646,0.5109093099599704,1.0111468100221828,397.80712430004496,397.92383320000954,397.80712430004496,397.92383320000954,397.9071558000287,None,m,0,0.78235210001003,397.9071558000287,None,,,,,f,,p3,2022_Mar_01_1416,training+cueing,2021.1.4,59.98023051910389,
Self.png,You,Self ,c,1,11,21,91,,,,,0,0,0,0,,,,,7,1,85,9,,,,,,,,,,,,,,,,,,,,,1.451,2.164,398.8143646999961,None,,,,,,,,,,,,,,,,,,,,399.35284980002325,399.8585662000114,0.512114209937863,1.0124059099471197,399.8419545000652,399.9419692000374,399.8419545000652,399.9419692000374,399.9419692000374,None,m,0,1.275504200020805,399.9419692000374,None,,,,,f,,p3,2022_Mar_01_1416,training+cueing,2021.1.4,59.98023051910389,
Self.png,Stranger,Self ,m,3.1,18,28,98,,,,,0,0,0,0,,,,,7,2,86,2,,,,,,,,,,,,,,,,,,,,,1.65,1.757,401.3489656000165,None,,,,,,,,,,,,,,,,,,,,401.88740690005943,402.39377019996755,0.5110437100520357,1.0113272101152688,402.3771187000675,402.493816500064,402.3771187000675,402.493816500064,402.47709850000683,None,c,0,0.5483610000228509,402.47709850000683,None,,,,,f,,p3,2022_Mar_01_1416,training+cueing,2021.1.4,59.98023051910389,
Self.png,Friend,Self ,m,2.1,16,26,96,,,,,0,0,0,0,,,,,7,3,87,1,,,,,,,,,,,,,,,,,,,,,1.496,2.263,403.1508540000068,None,,,,,,,,,,,,,,,,,,,,403.68872990005184,404.19501020002645,0.5124373099533841,1.0127737099537626,404.17835519998334,404.2951400000602,404.17835519998334,404.2951400000602,404.2783680000575,None,c,0,0.8111115000210702,404.2783680000575,None,,,,,f,,p3,2022_Mar_01_1416,training+cueing,2021.1.4,59.98023051910389,
Friend.png,Friend,Friend,c,2,12,22,92,,,,,0,0,0,0,,,,,7,4,88,4,,,,,,,,,,,,,,,,,,,,,1.54,2.134,405.21880450006574,None,,,,,,,,,,,,,,,,,,,,405.7671008000616,406.2798513000598,0.5063897100044414,1.0066834099125117,406.2632276000222,406.37993659998756,406.2632276000222,406.37993659998756,406.36325709999073,None,c,1,1.1582294000545517,406.36325709999073,None,,,,,f,,p3,2022_Mar_01_1416,training+cueing,2021.1.4,59.98023051910389,
Stranger.png,You,Stranger,m,1.3,15,25,95,,,,,0,0,0,0,,,,,7,5,89,6,,,,,,,,,,,,,,,,,,,,,1.635,1.793,407.6539631000487,None,,,,,,,,,,,,,,,,,,,,408.19118229998276,408.6983209999744,0.5132650099694729,1.013499810011126,408.68165290006436,408.78166690003127,408.68165290006436,408.78166690003127,408.78166690003127,None,c,0,0.7076697000302374,408.78166690003127,None,,,,,f,,p3,2022_Mar_01_1416,training+cueing,2021.1.4,59.98023051910389,
Stranger.png,Friend,Stranger,m,2.3,17,27,97,,,,,0,0,0,0,,,,,7,6,90,7,,,,,,,,,,,,,,,,,,,,,1.652,2.141,409.6220618999796,None,,,,,,,,,,,,,,,,,,,,410.15996309998445,410.66670239996165,0.5120023099007085,1.01345380989369,410.64843070006464,410.7667405999964,410.64843070006464,410.7667405999964,410.7500367000466,None,c,0,0.6433000999968499,410.7500367000466,None,,,,,f,,p3,2022_Mar_01_1416,training+cueing,2021.1.4,59.98023051910389,
Friend.png,You,Friend,m,1.2,14,24,94,,,,,0,0,0,0,,,,,7,7,91,3,,,,,,,,,,,,,,,,,,,,,1.707,2.023,411.52315510006156,None,,,,,,,,,,,,,,,,,,,,412.06089810002595,412.5678760999581,0.5109681100584567,1.0112183099845424,412.5511353999609,412.65136570006143,412.5511353999609,412.65136570006143,412.65136570006143,None,m,1,0.9659848000155762,412.65136570006143,None,,,,,f,,p3,2022_Mar_01_1416,training+cueing,2021.1.4,59.98023051910389,
Friend.png,Stranger,Friend,m,3.2,19,29,99,,,,,0,0,0,0,,,,,7,8,92,5,,,,,,,,,,,,,,,,,,,,,1.477,2.032,413.7418951999862,None,,,,,,,,,,,,,,,,,,,,414.28142060001846,414.78606399998534,0.5094478100072592,1.0097555100219324,414.76933599996846,414.8860606000526,414.76933599996846,414.8860606000526,414.86937800003216,None,m,1,0.8120124000124633,414.86937800003216,None,,,,,f,,p3,2022_Mar_01_1416,training+cueing,2021.1.4,59.98023051910389,
Friend.png,Friend,Friend,c,2,12,22,92,,,,,0,0,0,0,,,,,7,9,93,10,,,,,,,,,,,,,,,,,,,,,1.56,2.463,415.8096470000455,None,,,,,,,,,,,,,,,,,,,,416.3474173999857,416.8541770000011,0.5127927099820226,1.013239310006611,416.8375347000547,416.954239099985,416.8375347000547,416.954239099985,416.9375515000429,None,c,1,1.0639588999329135,416.9375515000429,None,,,,,f,,p3,2022_Mar_01_1416,training+cueing,2021.1.4,59.98023051910389,
Stranger.png,Stranger,Stranger,c,3,13,23,93,,,,,0,0,0,0,,,,,7,10,94,11,,,,,,,,,,,,,,,,,,,,,1.683,2.232,418.1279504999984,None,,,,,,,,,,,,,,,,,,,,418.6665690999944,419.172537800041,0.5107696100603789,1.011069710017182,419.1558488999726,419.2725822000066,419.1558488999726,419.2725822000066,419.255861200043,None,m,0,0.8255383999785408,419.255861200043,None,,,,,f,,p3,2022_Mar_01_1416,training+cueing,2021.1.4,59.98023051910389,
Self.png,You,Self ,c,1,11,21,91,,,,,0,0,0,0,,,,,7,11,95,0,,,,,,,,,,,,,,,,,,,,,1.457,1.732,420.2128881000681,None,,,,,,,,,,,,,,,,,,,,420.75023530004546,421.2573543000035,0.5134035100927576,1.0136231100186706,421.2407200000016,421.34096679999493,421.2407200000016,421.34096679999493,421.34096679999493,None,m,0,0.8845587000250816,421.34096679999493,None,,,,,f,,p3,2022_Mar_01_1416,training+cueing,2021.1.4,59.98023051910389,
Stranger.png,Stranger,Stranger,c,3,13,23,93,,,,,0,0,0,0,,,,,8,0,96,11,,,,,,,,,,,,,,,,,,,,,1.574,1.976,422.34718989999965,None,,,,,,,,,,,,,,,,,,,,422.8860562000191,423.3922448999947,0.5106507100863382,1.0108829099917784,423.37561230000574,423.49647320003714,423.37561230000574,423.49647320003714,423.4756166000152,None,m,0,0.893888600054197,423.4756166000152,None,,,,,f,,p3,2022_Mar_01_1416,training+cueing,2021.1.4,59.98023051910389,
Friend.png,Stranger,Friend,m,3.2,19,29,99,,,,,0,0,0,0,,,,,8,1,97,5,,,,,,,,,,,,,,,,,,,,,1.658,1.616,424.4988543000072,None,,,,,,,,,,,,,,,,,,,,425.0355272999732,425.5437587000197,0.5000955099239945,1.000357009936124,425.5104853999801,425.6104832000565,425.5104853999801,425.6104832000565,425.6104832000565,None,m,1,0.8549805999500677,425.6104832000565,None,,,,,f,,p3,2022_Mar_01_1416,training+cueing,2021.1.4,59.98023051910389,
Self.png,Friend,Self ,m,2.1,16,26,96,,,,,0,0,0,0,,,,,8,2,98,1,,,,,,,,,,,,,,,,,,,,,1.773,1.432,426.60048140003346,None,,,,,,,,,,,,,,,,,,,,427.13842410000507,427.645313099958,0.5134590099332854,1.0137227099621668,427.6286470000632,427.7453478999669,427.6286470000632,427.7453478999669,427.72862619999796,None,c,0,1.2808906000573188,427.72862619999796,None,,,,,f,,p3,2022_Mar_01_1416,training+cueing,2021.1.4,59.98023051910389,
Friend.png,You,Friend,m,1.2,14,24,94,,,,,0,0,0,0,,,,,8,3,99,3,,,,,,,,,,,,,,,,,,,,,1.79,1.775,429.1359095000662,None,,,,,,,,,,,,,,,,,,,,429.67239209997933,430.1804486999754,0.5134189100936055,1.0137029100442305,430.163794000051,430.26383710000664,430.163794000051,430.26383710000664,430.26383710000664,None,m,1,1.1936806000303477,430.26383710000664,None,,,,,f,,p3,2022_Mar_01_1416,training+cueing,2021.1.4,59.98023051910389,
Self.png,You,Self ,c,1,11,21,91,,,,,0,0,0,0,,,,,8,4,100,0,,,,,,,,,,,,,,,,,,,,,1.615,1.264,431.5881047999719,None,,,,,,,,,,,,,,,,,,,,432.12324129999615,432.63221209996846,0.5008641399908811,1.0011630399385467,432.61558460001834,432.71561279997695,432.61558460001834,432.71561279997695,432.71561279997695,None,c,1,0.6618465000065044,432.71561279997695,None,,,,,f,,p3,2022_Mar_01_1416,training+cueing,2021.1.4,59.98023051910389,
Stranger.png,Friend,Stranger,m,2.3,17,27,97,,,,,0,0,0,0,,,,,8,5,101,7,,,,,,,,,,,,,,,,,,,,,1.646,1.237,433.50578290002886,None,,,,,,,,,,,,,,,,,,,,434.0437015000498,434.550284500001,0.5123669099994004,1.0126848100917414,434.53363970003556,434.6503581999568,434.53363970003556,434.6503581999568,434.63362810004037,None,m,1,1.1598082999698818,434.63362810004037,None,,,,,f,,p3,2022_Mar_01_1416,training+cueing,2021.1.4,59.98023051910389,
Stranger.png,You,Stranger,m,1.3,15,25,95,,,,,0,0,0,0,,,,,8,6,102,6,,,,,,,,,,,,,,,,,,,,,1.438,2.203,435.9238501000218,None,,,,,,,,,,,,,,,,,,,,436.4613698000321,436.96870279998984,0.5132618100615218,1.0134599100565538,436.95211690000724,437.0520549999783,436.95211690000724,437.0520549999783,437.0520549999783,None,c,0,1.365297200041823,437.0520549999783,None,,,,,f,,p3,2022_Mar_01_1416,training+cueing,2021.1.4,59.98023051910389,
Self.png,Stranger,Self ,m,3.1,18,28,98,,,,,0,0,0,0,,,,,8,7,103,2,,,,,,,,,,,,,,,,,,,,,1.519,2.393,438.5427960000234,None,,,,,,,,,,,,,,,,,,,,439.08116179995704,439.58728660002816,0.5112582100555301,1.0113358100643381,439.5707599000307,439.6873128999723,439.5707599000307,439.6873128999723,439.6706172999693,None,m,1,0.7788056000135839,439.6706172999693,None,,,,,f,,p3,2022_Mar_01_1416,training+cueing,2021.1.4,59.98023051910389,
Self.png,You,Self ,c,1,11,21,91,,,,,0,0,0,0,,,,,8,8,104,9,,,,,,,,,,,,,,,,,,,,,1.653,1.5,440.5778449999634,None,,,,,,,,,,,,,,,,,,,,441.113867499982,441.6220550000435,0.5131254100706428,1.0134435100480914,441.605391100049,441.7054007999832,441.605391100049,441.7054007999832,441.7054007999832,None,c,1,0.9041793000651523,441.7054007999832,None,,,,,f,,p3,2022_Mar_01_1416,training+cueing,2021.1.4,59.98023051910389,
Friend.png,Friend,Friend,c,2,12,22,92,,,,,0,0,0,0,,,,,8,9,105,10,,,,,,,,,,,,,,,,,,,,,1.574,1.388,442.7458006000379,None,,,,,,,,,,,,,,,,,,,,443.28445340006147,443.7902917000465,0.5119672099826857,1.012224409962073,443.77363239997067,443.89036149997264,443.77363239997067,443.89036149997264,443.87362990004476,None,m,0,1.4878879999741912,443.87362990004476,None,,,,,f,,p3,2022_Mar_01_1416,training+cueing,2021.1.4,59.98023051910389,
Stranger.png,Stranger,Stranger,c,3,13,23,93,,,,,0,0,0,0,,,,,8,10,106,8,,,,,,,,,,,,,,,,,,,,,1.757,1.586,445.4977013999596,None,,,,,,,,,,,,,,,,,,,,446.0367156000575,446.5422477000393,0.5115748101379722,1.0118682100437582,446.5256155000534,446.6423072000034,446.5256155000534,446.6423072000034,446.6256247999845,None,c,1,0.7837030000519007,446.6256247999845,None,,,,,f,,p3,2022_Mar_01_1416,training+cueing,2021.1.4,59.98023051910389,
Friend.png,Friend,Friend,c,2,12,22,92,,,,,0,0,0,0,,,,,8,11,107,4,,,,,,,,,,,,,,,,,,,,,1.563,1.481,447.53241049998906,None,,,,,,,,,,,,,,,,,,,,448.0695260000648,448.5770678999834,0.5121273101540282,1.012411910109222,448.56040960003156,448.6771182999946,448.56040960003156,448.6771182999946,448.66042420000304,None,c,1,1.4690541999880224,448.66042420000304,None,,,,,f,,p3,2022_Mar_01_1416,training+cueing,2021.1.4,59.98023051910389,
Friend.png,Friend,Friend,c,2,12,22,92,,,,,0,0,0,0,,,,,9,0,108,10,,,,,,,,,,,,,,,,,,,,,1.527,1.442,450.26790870004334,None,,,,,,,,,,,,,,,,,,,,450.8030531000113,451.3124012000626,0.5008738399483263,1.0011142400326207,451.29574009997305,451.4124178000493,451.29574009997305,451.4124178000493,451.4124178000493,None,m,0,0.7648849999532104,451.4124178000493,None,,,,,f,,p3,2022_Mar_01_1416,training+cueing,2021.1.4,59.98023051910389,
Self.png,Friend,Self ,m,2.1,16,26,96,,,,,0,0,0,0,,,,,9,1,109,1,,,,,,,,,,,,,,,,,,,,,1.702,1.854,452.3026087000035,None,,,,,,,,,,,,,,,,,,,,452.8382648000261,453.347313700011,0.5008184399921447,1.0008235400309786,453.3307144000428,453.44723419996444,453.3307144000428,453.44723419996444,453.44723419996444,None,m,1,1.0021835000952706,453.44723419996444,None,,,,,f,,p3,2022_Mar_01_1416,training+cueing,2021.1.4,59.98023051910389,
Stranger.png,Stranger,Stranger,c,3,13,23,93,,,,,0,0,0,0,,,,,9,2,110,11,,,,,,,,,,,,,,,,,,,,,1.664,2.054,454.58808809996117,None,,,,,,,,,,,,,,,,,,,,455.1259111999534,455.6321547999978,0.5108323100721464,1.0111113101011142,455.61548879998736,455.7321516000666,455.61548879998736,455.7321516000666,455.71550910000224,None,m,0,1.1178878999780864,455.71550910000224,None,,,,,f,,p3,2022_Mar_01_1416,training+cueing,2021.1.4,59.98023051910389,
Stranger.png,You,Stranger,m,1.3,15,25,95,,,,,0,0,0,0,,,,,9,3,111,6,,,,,,,,,,,,,,,,,,,,,1.772,1.51,456.95648940000683,None,,,,,,,,,,,,,,,,,,,,457.49362720001955,458.0005702000344,0.5133443099912256,1.0136412099236622,457.98387660004664,458.0838499000529,457.98387660004664,458.0838499000529,458.0838499000529,None,c,0,0.7975280999671668,458.0838499000529,None,,,,,f,,p3,2022_Mar_01_1416,training+cueing,2021.1.4,59.98023051910389,
Friend.png,You,Friend,m,1.2,14,24,94,,,,,0,0,0,0,,,,,9,4,112,3,,,,,,,,,,,,,,,,,,,,,1.712,2.424,459.0072735999711,None,,,,,,,,,,,,,,,,,,,,459.5418271999806,460.0520446000155,0.5004628399619833,1.0007337399292737,460.0353553000605,460.1353750999551,460.0353553000605,460.1353750999551,460.1353750999551,None,c,0,1.03392580000218,460.1353750999551,None,,,,,f,,p3,2022_Mar_01_1416,training+cueing,2021.1.4,59.98023051910389,
Stranger.png,Stranger,Stranger,c,3,13,23,93,,,,,0,0,0,0,,,,,9,5,113,8,,,,,,,,,,,,,,,,,,,,,1.578,1.934,461.2924324000487,None,,,,,,,,,,,,,,,,,,,,461.831469799974,462.3369822000386,0.5112052100012079,1.0115081099793315,462.32031260000076,462.43705950002186,462.32031260000076,462.43705950002186,462.4203379000537,None,m,0,0.7171467000152916,462.4203379000537,None,,,,,f,,p3,2022_Mar_01_1416,training+cueing,2021.1.4,59.98023051910389,
Self.png,Stranger,Self ,m,3.1,18,28,98,,,,,0,0,0,0,,,,,9,6,114,2,,,,,,,,,,,,,,,,,,,,,1.408,2.312,463.2599566000281,None,,,,,,,,,,,,,,,,,,,,463.79712040000595,464.30503170005977,0.4995579100213945,0.9998642100254074,464.27170879999176,464.37175519997254,464.27170879999176,464.37175519997254,464.37175519997254,None,m,1,0.8456474000122398,464.37175519997254,None,,,,,f,,p3,2022_Mar_01_1416,training+cueing,2021.1.4,59.98023051910389,
Self.png,You,Self ,c,1,11,21,91,,,,,0,0,0,0,,,,,9,7,115,9,,,,,,,,,,,,,,,,,,,,,1.546,1.863,465.34860540006775,None,,,,,,,,,,,,,,,,,,,,465.88489300000947,466.3899167999625,0.50714311003685,1.0080978100886568,466.3732652000617,466.47321810002904,466.3732652000617,466.47321810002904,466.47321810002904,None,m,0,1.1762527999235317,466.47321810002904,None,,,,,f,,p3,2022_Mar_01_1416,training+cueing,2021.1.4,59.98023051910389,
Stranger.png,Friend,Stranger,m,2.3,17,27,97,,,,,0,0,0,0,,,,,9,8,116,7,,,,,,,,,,,,,,,,,,,,,1.484,1.24,467.78040080005303,None,,,,,,,,,,,,,,,,,,,,468.31969679996837,468.8249981000554,0.5114571099402383,1.0116684099193662,468.8083851999836,468.9250541999936,468.8083851999836,468.9250541999936,468.9083583999891,None,m,1,0.9489961999934167,468.9083583999891,None,,,,,f,,p3,2022_Mar_01_1416,training+cueing,2021.1.4,59.98023051910389,
Friend.png,Stranger,Friend,m,3.2,19,29,99,,,,,0,0,0,0,,,,,9,9,117,5,,,,,,,,,,,,,,,,,,,,,1.456,1.954,469.98214830004144,None,,,,,,,,,,,,,,,,,,,,470.52046070003416,471.0265527999727,0.5110082100145519,1.0112691100221127,471.0099688000046,471.126605700003,471.0099688000046,471.126605700003,471.10997330001555,None,m,1,1.211440799990669,471.10997330001555,None,,,,,f,,p3,2022_Mar_01_1416,training+cueing,2021.1.4,59.98023051910389,
Friend.png,Friend,Friend,c,2,12,22,92,,,,,0,0,0,0,,,,,9,10,118,4,,,,,,,,,,,,,,,,,,,,,1.69,1.38,472.4506089000497,None,,,,,,,,,,,,,,,,,,,,472.98776190006174,473.49499499995727,0.5120827099308372,1.0123768099583685,473.4783639999805,473.59509079996496,473.4783639999805,473.59509079996496,473.5783884000266,None,c,1,0.8709857000503689,473.5783884000266,None,,,,,f,,p3,2022_Mar_01_1416,training+cueing,2021.1.4,59.98023051910389,
Self.png,You,Self ,c,1,11,21,91,,,,,0,0,0,0,,,,,9,11,119,0,,,,,,,,,,,,,,,,,,,,,1.618,2.371,474.58519150002394,None,,,,,,,,,,,,,,,,,,,,475.12300999998115,475.6299536000006,0.5132599100470543,1.0134654100984335,475.6133138999576,475.71326310001314,475.6133138999576,475.71326310001314,475.71326310001314,None,c,1,0.5761444000527263,475.71326310001314,None,,,,,f,,p3,2022_Mar_01_1416,training+cueing,2021.1.4,59.98023051910389,
,,,,,,,,,,,,0,0,0,0,,,,,,,,,,,,,,,,,,,,,,,,,,,,,,,,,,,,,,,,,,,,,,,,,,,,,,,,,,,,,,,,,,,0.0007380901370197535,None,,,f,,p3,2022_Mar_01_1416,training+cueing,2021.1.4,59.98023051910389,
Friend.png,Stranger,Friend,m,3.2,19,29,99,,,,,1,0,1,0,0,0,0,5,,,,,,,,,,,,,,,,,476.93088040000293,None,space,1.501563800033182,2.0164585700258613,None,480.4335583000211,None,1.723,1.537,483.44286249997094,None,484.0007340000011,484.5029810999986,484.4863374000415,484.6030249999603,484.4863374000415,484.6030249999603,484.5863514000084,None,c,0,0.5030482000438496,484.5863514000084,None,485.1204149000114,None,,,,,,,,,,,,,,,,,,,,,,,,f,,p3,2022_Mar_01_1416,training+cueing,2021.1.4,59.98023051910389,
Friend.png,Friend,Friend,c,2,12,22,92,,,,,1,0,1,0,0,1,1,4,,,,,,,,,,,,,,,,,,,,,,,,,1.749,1.233,485.52049899997655,None,486.05791370000225,486.57134180003777,486.5545938999858,486.6711891000159,486.5545938999858,486.6711891000159,486.6545101000229,None,None,0,,486.6545101000229,None,488.40581859997474,None,,,,,,,,,,,,,,,,,,,,,,,,f,,p3,2022_Mar_01_1416,training+cueing,2021.1.4,59.98023051910389,
Friend.png,You,Friend,m,1.2,14,24,94,,,,,1,0,1,0,0,2,2,3,,,,,,,,,,,,,,,,,,,,,,,,,1.491,1.727,488.80608740006573,None,489.3354216000298,489.8401773000369,489.82347399997525,489.9235303000314,489.82347399997525,489.9235303000314,489.9235303000314,None,c,0,0.7658221999881789,489.9235303000314,None,490.70749810000416,None,,,,,,,,,,,,,,,,,,,,,,,,f,,p3,2022_Mar_01_1416,training+cueing,2021.1.4,59.98023051910389,
Self.png,You,Self ,c,1,11,21,91,,,,,1,0,1,0,0,3,3,9,,,,,,,,,,,,,,,,,,,,,,,,,1.548,1.501,491.10776090004947,None,491.6331470999867,492.14184070006013,492.12514919997193,492.22518930002116,492.12514919997193,492.22518930002116,492.22518930002116,None,c,1,0.8961806000443175,492.22518930002116,None,493.1592831000453,None,,,,,,,,,,,,,,,,,,,,,,,,f,,p3,2022_Mar_01_1416,training+cueing,2021.1.4,59.98023051910389,
Friend.png,Friend,Friend,c,2,12,22,92,,,,,1,0,1,0,0,4,4,10,,,,,,,,,,,,,,,,,,,,,,,,,1.557,1.309,493.55951259995345,None,494.0869418999646,494.5936092999764,494.57694920001086,494.69367329997476,494.57694920001086,494.69367329997476,494.6769437000621,None,m,0,0.7964463999960572,494.6769437000621,None,495.4975643999642,None,,,,,,,,,,,,,,,,,,,,,,,,f,,p3,2022_Mar_01_1416,training+cueing,2021.1.4,59.98023051910389,
Stranger.png,Friend,Stranger,m,2.3,17,27,97,,,,,1,0,1,0,0,5,5,7,,,,,,,,,,,,,,,,,,,,,,,,,1.508,1.845,495.91120790003333,None,496.447043400025,496.9620359999826,496.94531320000533,497.06203030003235,496.94531320000533,497.06203030003235,497.04532170004677,None,m,1,1.131941600004211,497.04532170004677,None,498.1951096999692,None,,,,,,,,,,,,,,,,,,,,,,,,f,,p3,2022_Mar_01_1416,training+cueing,2021.1.4,59.98023051910389,
Stranger.png,Stranger,Stranger,c,3,13,23,93,,,,,1,0,1,0,0,6,6,8,,,,,,,,,,,,,,,,,,,,,,,,,1.431,1.428,498.59648020006716,None,499.1254218999529,499.6305767999729,499.61395200004335,499.7305996000068,499.61395200004335,499.7305996000068,499.7139329999918,None,m,0,0.9433823999715969,499.7139329999918,None,500.68181850004476,None,,,,,,,,,,,,,,,,,,,,,,,,f,,p3,2022_Mar_01_1416,training+cueing,2021.1.4,59.98023051910389,
Stranger.png,Stranger,Stranger,c,3,13,23,93,,,,,1,0,1,0,0,7,7,11,,,,,,,,,,,,,,,,,,,,,,,,,1.569,1.449,501.0816213999642,None,501.6081317999633,502.1157018999802,502.09900409996044,502.21574610006064,502.09900409996044,502.21574610006064,502.19904169999063,None,m,0,1.1302240000804886,502.19904169999063,None,503.3500124999555,None,,,,,,,,,,,,,,,,,,,,,,,,f,,p3,2022_Mar_01_1416,training+cueing,2021.1.4,59.98023051910389,
Self.png,You,Self ,c,1,11,21,91,,,,,1,0,1,0,0,8,8,0,,,,,,,,,,,,,,,,,,,,,,,,,1.683,2.402,503.7501879000338,None,504.2834381000139,504.7842767999973,504.7676470000297,504.86765470006503,504.7676470000297,504.86765470006503,504.86765470006503,None,c,1,0.7176270999480039,504.86765470006503,None,505.60018589999527,None,,,,,,,,,,,,,,,,,,,,,,,,f,,p3,2022_Mar_01_1416,training+cueing,2021.1.4,59.98023051910389,
Self.png,Stranger,Self ,m,3.1,18,28,98,,,,,1,0,1,0,0,9,9,2,,,,,,,,,,,,,,,,,,,,,,,,,1.626,1.686,506.0018320999807,None,506.53198440000415,507.035890600062,507.0192681000335,507.13590880006086,507.0192681000335,507.13590880006086,507.1192742000567,None,m,1,1.1223631999455392,507.1192742000567,None,508.2684799999697,None,,,,,,,,,,,,,,,,,,,,,,,,f,,p3,2022_Mar_01_1416,training+cueing,2021.1.4,59.98023051910389,
Self.png,Friend,Self ,m,2.1,16,26,96,,,,,1,0,1,0,0,10,10,1,,,,,,,,,,,,,,,,,,,,,,,,,1.554,1.255,508.67056730005424,None,509.19897669996135,509.7045433999738,509.6878337999806,509.8045522000175,509.6878337999806,509.8045522000175,509.7878234999953,None,c,0,1.0135190000291914,509.7878234999953,None,510.8258279999718,None,,,,,,,,,,,,,,,,,,,,,,,,f,,p3,2022_Mar_01_1416,training+cueing,2021.1.4,59.98023051910389,
Stranger.png,You,Stranger,m,1.3,15,25,95,,,,,1,0,1,0,0,11,11,6,,,,,,,,,,,,,,,,,,,,,,,,,1.634,1.24,511.23893130000215,None,511.78369670000393,512.2898302000249,512.2731840000488,512.3733472999884,512.2731840000488,512.3733472999884,512.3733472999884,None,None,0,,512.3733472999884,None,514.0076895999955,None,,,,,,,,,,,,,,,,,,,,,,,,f,,p3,2022_Mar_01_1416,training+cueing,2021.1.4,59.98023051910389,
Stranger.png,Stranger,Stranger,c,3,13,23,93,,,,,1,0,1,0,,,,,0,0,0,8,,,,,,,,,,,,,,,,,,,517.4100768000353,None,1.575,1.419,520.9197625999805,None,,,,,,,,,,,,,,,,514.4080021999544,None,0.014215370174497366,0.5117735700914636,521.4573437999934,521.9633217999944,0.5106662100879475,1.0109537100652233,521.9466916000238,522.0633919000393,521.9466916000238,522.0633919000393,522.0467096000211,None,c,1,0.6266398000298068,522.0467096000211,None,,,,,f,,p3,2022_Mar_01_1416,training+cueing,2021.1.4,59.98023051910389,
Self.png,Friend,Self ,m,2.1,16,26,96,,,,,1,0,1,0,,,,,0,1,1,1,,,,,,,,,,,,,,,,,,,,,1.774,1.293,522.80448349996,None,,,,,,,,,,,,,,,,,,,,523.3442474000622,523.8480729999719,0.5078583100112155,1.0081273099640384,523.8313805999933,523.9480669000186,523.8313805999933,523.9480669000186,523.9313834999921,None,c,0,0.7099391000811011,523.9313834999921,None,,,,,f,,p3,2022_Mar_01_1416,training+cueing,2021.1.4,59.98023051910389,
Self.png,You,Self ,c,1,11,21,91,,,,,1,0,1,0,,,,,0,2,2,0,,,,,,,,,,,,,,,,,,,,,1.446,1.434,524.7717702999944,None,,,,,,,,,,,,,,,,,,,,525.3088984000497,525.8161036999663,0.5131119099678472,1.0136043099919334,525.7994676000671,525.8995100000175,525.7994676000671,525.8995100000175,525.8995100000175,None,c,1,0.5658013999927789,525.8995100000175,None,,,,,f,,p3,2022_Mar_01_1416,training+cueing,2021.1.4,59.98023051910389,
Friend.png,Friend,Friend,c,2,12,22,92,,,,,1,0,1,0,,,,,0,3,3,10,,,,,,,,,,,,,,,,,,,,,1.425,1.952,526.5896071000025,None,,,,,,,,,,,,,,,,,,,,527.1274551000679,527.6341009000316,0.5133051100419834,1.0135899099987,527.6174432999687,527.7341212000465,527.6174432999687,527.7341212000465,527.7176082000369,None,m,0,0.9716525000985712,527.7176082000369,None,,,,,f,,p3,2022_Mar_01_1416,training+cueing,2021.1.4,59.98023051910389,
Self.png,Stranger,Self ,m,3.1,18,28,98,,,,,1,0,1,0,,,,,0,4,4,2,,,,,,,,,,,,,,,,,,,,,1.663,1.748,528.824084199965,None,,,,,,,,,,,,,,,,,,,,529.3621523999609,529.8690525999991,0.5105620101094246,1.0109347100369632,529.8524068000261,529.9690977999708,529.8524068000261,529.9690977999708,529.9524033999769,None,m,1,0.8648440000833943,529.9524033999769,None,,,,,f,,p3,2022_Mar_01_1416,training+cueing,2021.1.4,59.98023051910389,
Friend.png,You,Friend,m,1.2,14,24,94,,,,,1,0,1,0,,,,,0,5,5,3,,,,,,,,,,,,,,,,,,,,,1.693,1.454,530.9430628999835,None,,,,,,,,,,,,,,,,,,,,531.4800328999991,531.9873247999931,0.5134172099642456,1.0135346099268645,531.9707149000606,532.0706107000588,531.9707149000606,532.0706107000588,532.0706107000588,None,c,0,0.5388941999990493,532.0706107000588,None,,,,,f,,p3,2022_Mar_01_1416,training+cueing,2021.1.4,59.98023051910389,
Friend.png,Stranger,Friend,m,3.2,19,29,99,,,,,1,0,1,0,,,,,0,6,6,5,,,,,,,,,,,,,,,,,,,,,1.602,1.95,532.7480888999999,None,,,,,,,,,,,,,,,,,,,,533.3004664999899,533.8052133000456,0.5100491801276803,1.0103317801840603,533.7885526999598,533.9052680999739,533.7885526999598,533.9052680999739,533.888556299964,None,m,1,0.7209822000004351,533.888556299964,None,,,,,f,,p3,2022_Mar_01_1416,training+cueing,2021.1.4,59.98023051910389,
Stranger.png,Stranger,Stranger,c,3,13,23,93,,,,,1,0,1,0,,,,,0,7,7,11,,,,,,,,,,,,,,,,,,,,,1.641,1.339,534.7491586999968,None,,,,,,,,,,,,,,,,,,,,535.2817052999744,535.789963999996,0.5139663100708276,1.014230010099709,535.7733268999727,535.8900657000486,535.7733268999727,535.8900657000486,535.8733434999594,None,c,1,0.7519844000926241,535.8733434999594,None,,,,,f,,p3,2022_Mar_01_1416,training+cueing,2021.1.4,59.98023051910389,
Friend.png,Friend,Friend,c,2,12,22,92,,,,,1,0,1,0,,,,,0,8,8,4,,,,,,,,,,,,,,,,,,,,,1.628,1.63,536.7471080999821,None,,,,,,,,,,,,,,,,,,,,537.2855651000282,537.7913982999744,0.5122385100694373,1.0125033099902794,537.774803700042,537.8914782999782,537.774803700042,537.8914782999782,537.8747975999722,None,c,1,0.6545036000898108,537.8747975999722,None,,,,,f,,p3,2022_Mar_01_1416,training+cueing,2021.1.4,59.98023051910389,
Stranger.png,You,Stranger,m,1.3,15,25,95,,,,,1,0,1,0,,,,,0,9,9,6,,,,,,,,,,,,,,,,,,,,,1.631,2.237,538.6649631999899,None,,,,,,,,,,,,,,,,,,,,539.2025981000625,539.7094887000276,0.5130734099075198,1.0133552099578083,539.6928130000597,539.7928431000328,539.6928130000597,539.7928431000328,539.7928431000328,None,c,0,0.5764455000171438,539.7928431000328,None,,,,,f,,p3,2022_Mar_01_1416,training+cueing,2021.1.4,59.98023051910389,
Stranger.png,Friend,Stranger,m,2.3,17,27,97,,,,,1,0,1,0,,,,,0,10,10,7,,,,,,,,,,,,,,,,,,,,,1.658,1.55,540.4995758000296,None,,,,,,,,,,,,,,,,,,,,541.0373921999708,541.5441422000295,0.5111205099383369,1.0113725098781288,541.5274888999993,541.6441697999835,541.5274888999993,541.6441697999835,541.6275004000636,None,c,0,1.029753700015135,541.6275004000636,None,,,,,f,,p3,2022_Mar_01_1416,training+cueing,2021.1.4,59.98023051910389,
Self.png,You,Self ,c,1,11,21,91,,,,,1,0,1,0,,,,,0,11,11,9,,,,,,,,,,,,,,,,,,,,,1.698,1.786,542.7841641999548,None,,,,,,,,,,,,,,,,,,,,543.3228476999793,543.8291152999736,0.5134003100683913,1.0136817099992186,543.8124674999854,543.9124916000292,543.8124674999854,543.9124916000292,543.9124916000292,None,c,1,1.0968370999908075,543.9124916000292,None,,,,,f,,p3,2022_Mar_01_1416,training+cueing,2021.1.4,59.98023051910389,
Self.png,Stranger,Self ,m,3.1,18,28,98,,,,,1,0,1,0,,,,,1,0,12,2,,,,,,,,,,,,,,,,,,,,,1.585,1.244,545.1361822000472,None,,,,,,,,,,,,,,,,,,,,545.6736897999654,546.1808351000072,0.5123671100009233,1.0126217100769281,546.1641597000416,546.2808702000184,546.1641597000416,546.2808702000184,546.2641682999674,None,c,0,0.6809917000355199,546.2641682999674,None,,,,,f,,p3,2022_Mar_01_1416,training+cueing,2021.1.4,59.98023051910389,
Self.png,Friend,Self ,m,2.1,16,26,96,,,,,1,0,1,0,,,,,1,1,13,1,,,,,,,,,,,,,,,,,,,,,1.543,2.04,547.0711063999915,None,,,,,,,,,,,,,,,,,,,,547.60947939998,548.115548199974,0.5125819098902866,1.0129150098655373,548.0988387999823,548.2155597000383,548.0988387999823,548.2155597000383,548.1988884999882,None,m,1,1.0503218000521883,548.1988884999882,None,,,,,f,,p3,2022_Mar_01_1416,training+cueing,2021.1.4,59.98023051910389,
Self.png,You,Self ,c,1,11,21,91,,,,,1,0,1,0,,,,,1,2,14,0,,,,,,,,,,,,,,,,,,,,,1.543,1.996,549.3732791000511,None,,,,,,,,,,,,,,,,,,,,549.910905500059,550.417238999973,0.5129208100261167,1.0132016099523753,550.4005478000036,550.5005347999977,550.4005478000036,550.5005347999977,550.5005347999977,None,c,1,0.5247399000218138,550.5005347999977,None,,,,,f,,p3,2022_Mar_01_1416,training+cueing,2021.1.4,59.98023051910389,
Friend.png,You,Friend,m,1.2,14,24,94,,,,,1,0,1,0,,,,,1,3,15,3,,,,,,,,,,,,,,,,,,,,,1.689,2.293,551.1572062000632,None,,,,,,,,,,,,,,,,,,,,551.6918722999981,552.201837999979,0.5013861398911104,1.001666439929977,552.1851866999641,552.2852108000079,552.1851866999641,552.2852108000079,552.2852108000079,None,m,1,0.8201099999714643,552.2852108000079,None,,,,,f,,p3,2022_Mar_01_1416,training+cueing,2021.1.4,59.98023051910389,
Friend.png,Stranger,Friend,m,3.2,19,29,99,,,,,1,0,1,0,,,,,1,4,16,5,,,,,,,,,,,,,,,,,,,,,1.5,1.912,553.2419699999737,None,,,,,,,,,,,,,,,,,,,,553.7806494999677,554.2867578000296,0.5109135099919513,1.011136110057123,554.2700043000514,554.3867334000533,554.2700043000514,554.3867334000533,554.3700224000495,None,m,1,0.8472254999214783,554.3700224000495,None,,,,,f,,p3,2022_Mar_01_1416,training+cueing,2021.1.4,59.98023051910389,
Stranger.png,Stranger,Stranger,c,3,13,23,93,,,,,1,0,1,0,,,,,1,5,17,11,,,,,,,,,,,,,,,,,,,,,1.687,2.385,555.3441273999633,None,,,,,,,,,,,,,,,,,,,,555.8784056999721,556.3881905999733,0.5013420400209725,1.0016312400111929,556.3715178000275,556.4882319000317,556.3715178000275,556.4882319000317,556.4882319000317,None,c,1,0.6969662000192329,556.4882319000317,None,,,,,f,,p3,2022_Mar_01_1416,training+cueing,2021.1.4,59.98023051910389,
Stranger.png,Friend,Stranger,m,2.3,17,27,97,,,,,1,0,1,0,,,,,1,6,18,7,,,,,,,,,,,,,,,,,,,,,1.492,2.18,557.3119276000652,None,,,,,,,,,,,,,,,,,,,,557.8493449999951,558.3562589000212,0.5124816099414602,1.0132539100013673,558.3396272000391,558.4563036999898,558.3396272000391,558.4563036999898,558.4396124000195,None,None,0,,558.4396124000195,None,,,,,f,,p3,2022_Mar_01_1416,training+cueing,2021.1.4,59.98023051910389,
Stranger.png,Stranger,Stranger,c,3,13,23,93,,,,,1,0,1,0,,,,,1,7,19,8,,,,,,,,,,,,,,,,,,,,,1.638,1.96,560.045412800042,None,,,,,,,,,,,,,,,,,,,,560.5851279000053,561.0916064999765,0.5119537099963054,1.012221509939991,561.0749162000138,561.1916078999639,561.0749162000138,561.1916078999639,561.1749033000087,None,m,0,0.7304216000484303,561.1749033000087,None,,,,,f,,p3,2022_Mar_01_1416,training+cueing,2021.1.4,59.98023051910389,
Friend.png,Friend,Friend,c,2,12,22,92,,,,,1,0,1,0,,,,,1,8,20,4,,,,,,,,,,,,,,,,,,,,,1.779,1.878,562.0314338000026,None,,,,,,,,,,,,,,,,,,,,562.5688230000669,563.076287999982,0.5130221099825576,1.0133385099470615,563.0596719000023,563.1763886000263,563.0596719000023,563.1763886000263,563.1596757000079,None,c,1,0.6175736000295728,563.1596757000079,None,,,,,f,,p3,2022_Mar_01_1416,training+cueing,2021.1.4,59.98023051910389,
Self.png,You,Self ,c,1,11,21,91,,,,,1,0,1,0,,,,,1,9,21,9,,,,,,,,,,,,,,,,,,,,,1.656,2.179,563.899177400046,None,,,,,,,,,,,,,,,,,,,,564.437189499964,564.9443608999718,0.5134620099561289,1.0137297100154683,564.927710799966,565.0277306999778,564.927710799966,565.0277306999778,565.0277306999778,None,c,1,0.5415597000392154,565.0277306999778,None,,,,,f,,p3,2022_Mar_01_1416,training+cueing,2021.1.4,59.98023051910389,
Friend.png,Friend,Friend,c,2,12,22,92,,,,,1,0,1,0,,,,,1,10,22,10,,,,,,,,,,,,,,,,,,,,,1.702,2.195,565.7011375000002,None,,,,,,,,,,,,,,,,,,,,566.2408501000609,566.7456463000271,0.5101195099996403,1.0104299100348726,566.728975999984,566.8457064999966,566.728975999984,566.8457064999966,566.8289952999912,None,m,0,0.7242174000712112,566.8289952999912,None,,,,,f,,p3,2022_Mar_01_1416,training+cueing,2021.1.4,59.98023051910389,
Stranger.png,You,Stranger,m,1.3,15,25,95,,,,,1,0,1,0,,,,,1,11,23,6,,,,,,,,,,,,,,,,,,,,,1.743,2.201,567.685948700062,None,,,,,,,,,,,,,,,,,,,,568.2230450999923,568.7303951999638,0.5130496099591255,1.0133369099348783,568.7137339999899,568.813905899995,568.7137339999899,568.813905899995,568.813905899995,None,c,0,0.8193723999429494,568.813905899995,None,,,,,f,,p3,2022_Mar_01_1416,training+cueing,2021.1.4,59.98023051910389,
Friend.png,Stranger,Friend,m,3.2,19,29,99,,,,,1,0,1,0,,,,,2,0,24,5,,,,,,,,,,,,,,,,,,,,,1.72,2.365,569.7708455000538,None,,,,,,,,,,,,,,,,,,,,570.3110449999804,570.8152530000079,0.5084392100106925,1.0086659099906683,570.7986466999864,570.9152828999795,570.7986466999864,570.9152828999795,570.8986220000079,None,m,1,1.086698199971579,570.8986220000079,None,,,,,f,,p3,2022_Mar_01_1416,training+cueing,2021.1.4,59.98023051910389,
Stranger.png,Stranger,Stranger,c,3,13,23,93,,,,,1,0,1,0,,,,,2,1,25,8,,,,,,,,,,,,,,,,,,,,,1.507,2.262,572.1225011000643,None,,,,,,,,,,,,,,,,,,,,572.657711799955,573.166955200024,0.5007153400219977,1.0010069400304928,573.1502891000127,573.2670148999896,573.1502891000127,573.2670148999896,573.2670148999896,None,c,1,0.5742412999970838,573.2670148999896,None,,,,,f,,p3,2022_Mar_01_1416,training+cueing,2021.1.4,59.98023051910389,
Self.png,You,Self ,c,1,11,21,91,,,,,1,0,1,0,,,,,2,2,26,0,,,,,,,,,,,,,,,,,,,,,1.426,1.489,573.9738117000088,None,,,,,,,,,,,,,,,,,,,,574.5103436000645,575.0183002999984,0.5133270100923255,1.0135933100245893,575.0016540000215,575.1016379999928,575.0016540000215,575.1016379999928,575.1016379999928,None,c,1,0.6596009000204504,575.1016379999928,None,,,,,f,,p3,2022_Mar_01_1416,training+cueing,2021.1.4,59.98023051910389,
Friend.png,Friend,Friend,c,2,12,22,92,,,,,1,0,1,0,,,,,2,3,27,4,,,,,,,,,,,,,,,,,,,,,1.436,1.875,575.8917878000066,None,,,,,,,,,,,,,,,,,,,,576.4290073000593,576.9363304000581,0.5134974099928513,1.0137863099807873,576.9197003999725,577.0363575000083,576.9197003999725,577.0363575000083,577.0197057999903,None,m,0,1.2697638000827283,577.0197057999903,None,,,,,f,,p3,2022_Mar_01_1416,training+cueing,2021.1.4,59.98023051910389,
Stranger.png,Friend,Stranger,m,2.3,17,27,97,,,,,1,0,1,0,,,,,2,4,28,7,,,,,,,,,,,,,,,,,,,,,1.61,1.311,578.4278332999675,None,,,,,,,,,,,,,,,,,,,,578.9611042999895,579.4714962999569,0.5006107399240136,1.0008681399049237,579.4548509999877,579.5715604999568,579.4548509999877,579.5715604999568,579.5715604999568,None,c,0,1.2135752000613138,579.5715604999568,None,,,,,f,,p3,2022_Mar_01_1416,training+cueing,2021.1.4,59.98023051910389,
Friend.png,You,Friend,m,1.2,14,24,94,,,,,1,0,1,0,,,,,2,5,29,3,,,,,,,,,,,,,,,,,,,,,1.512,2.071,580.9120663000504,None,,,,,,,,,,,,,,,,,,,,581.4494729000144,581.9566281000152,0.5133936100173742,1.0136058100033551,581.9400146000553,582.0400058999658,581.9400146000553,582.0400058999658,582.0400058999658,None,m,1,1.033204899984412,582.0400058999658,None,,,,,f,,p3,2022_Mar_01_1416,training+cueing,2021.1.4,59.98023051910389,
Self.png,Stranger,Self ,m,3.1,18,28,98,,,,,1,0,1,0,,,,,2,6,30,2,,,,,,,,,,,,,,,,,,,,,1.512,1.263,583.1967632999877,None,,,,,,,,,,,,,,,,,,,,583.7353531999979,584.2416052999906,0.5122381100663915,1.012527110055089,584.2249761000276,584.3416346999584,584.2249761000276,584.3416346999584,584.3251727999886,None,m,1,0.9719596999930218,584.3251727999886,None,,,,,f,,p3,2022_Mar_01_1416,training+cueing,2021.1.4,59.98023051910389,
Self.png,You,Self ,c,1,11,21,91,,,,,1,0,1,0,,,,,2,7,31,9,,,,,,,,,,,,,,,,,,,,,1.455,1.551,585.4322360999649,None,,,,,,,,,,,,,,,,,,,,585.9687438000692,586.4765594999772,0.5128198099555448,1.0131033100187778,586.4599079999607,586.5599129999755,586.4599079999607,586.5599129999755,586.5599129999755,None,c,1,0.4652727000648156,586.5599129999755,None,,,,,f,,p3,2022_Mar_01_1416,training+cueing,2021.1.4,59.98023051910389,
Stranger.png,You,Stranger,m,1.3,15,25,95,,,,,1,0,1,0,,,,,2,8,32,6,,,,,,,,,,,,,,,,,,,,,1.53,1.97,587.150218600058,None,,,,,,,,,,,,,,,,,,,,587.685919099953,588.1944899000227,0.5006132399430498,1.0009702399838716,588.177775899996,588.2778324000537,588.177775899996,588.2778324000537,588.2778324000537,None,c,0,0.5552905999356881,588.2778324000537,None,,,,,f,,p3,2022_Mar_01_1416,training+cueing,2021.1.4,59.98023051910389,
Stranger.png,Stranger,Stranger,c,3,13,23,93,,,,,1,0,1,0,,,,,2,9,33,11,,,,,,,,,,,,,,,,,,,,,1.443,1.293,588.9678975000279,None,,,,,,,,,,,,,,,,,,,,589.5062889000401,590.0124471000163,0.5118317101150751,1.0126187100540847,589.99580959999,590.1124859000556,589.99580959999,590.1124859000556,590.0958310000133,None,c,1,0.6734342999989167,590.0958310000133,None,,,,,f,,p3,2022_Mar_01_1416,training+cueing,2021.1.4,59.98023051910389,
Friend.png,Friend,Friend,c,2,12,22,92,,,,,1,0,1,0,,,,,2,10,34,10,,,,,,,,,,,,,,,,,,,,,1.659,2.195,590.9035898000002,None,,,,,,,,,,,,,,,,,,,,591.4476037999848,591.9472792999586,0.5145313099492341,1.014780809986405,591.9472792999586,592.04730440001,591.9472792999586,592.04730440001,592.04730440001,None,m,0,0.8179193999385461,592.04730440001,None,,,,,f,,p3,2022_Mar_01_1416,training+cueing,2021.1.4,59.98023051910389,
Self.png,Friend,Self ,m,2.1,16,26,96,,,,,1,0,1,0,,,,,2,11,35,1,,,,,,,,,,,,,,,,,,,,,1.571,1.999,592.9868881000439,None,,,,,,,,,,,,,,,,,,,,593.5234915000619,594.0320112999761,0.5007495400495827,1.0010270399507135,594.0153385000303,594.1320449999766,594.0153385000303,594.1320449999766,594.1320449999766,None,c,0,0.5571614000946283,594.1320449999766,None,,,,,f,,p3,2022_Mar_01_1416,training+cueing,2021.1.4,59.98023051910389,
Stranger.png,Stranger,Stranger,c,3,13,23,93,,,,,1,0,1,0,,,,,3,0,36,8,,,,,,,,,,,,,,,,,,,,,1.746,1.251,594.8227470000274,None,,,,,,,,,,,,,,,,,,,,595.3605001999531,595.866644200054,0.510249609942548,1.010524409939535,595.85002969997,595.9667102000676,595.85002969997,595.9667102000676,595.9500279000495,None,c,1,0.8192148000234738,595.9500279000495,None,,,,,f,,p3,2022_Mar_01_1416,training+cueing,2021.1.4,59.98023051910389,
Stranger.png,You,Stranger,m,1.3,15,25,95,,,,,1,0,1,0,,,,,3,1,37,6,,,,,,,,,,,,,,,,,,,,,1.495,1.45,596.9070401999634,None,,,,,,,,,,,,,,,,,,,,597.4444122000132,597.9515353000024,0.5131382099352777,1.0134121099254116,597.934835699969,598.034875900019,597.934835699969,598.034875900019,598.034875900019,None,c,0,0.5423515000147745,598.034875900019,None,,,,,f,,p3,2022_Mar_01_1416,training+cueing,2021.1.4,59.98023051910389,
Friend.png,You,Friend,m,1.2,14,24,94,,,,,1,0,1,0,,,,,3,2,38,3,,,,,,,,,,,,,,,,,,,,,1.58,2.239,598.7077699999791,None,,,,,,,,,,,,,,,,,,,,599.2443049000576,599.7527731000446,0.5006724399281666,1.0009632399305701,599.7361393000465,599.8361523000058,599.7361393000465,599.8361523000058,599.8361523000058,None,m,1,1.0930258999578655,599.8361523000058,None,,,,,f,,p3,2022_Mar_01_1416,training+cueing,2021.1.4,59.98023051910389,
Self.png,Friend,Self ,m,2.1,16,26,96,,,,,1,0,1,0,,,,,3,3,39,1,,,,,,,,,,,,,,,,,,,,,1.736,2.41,601.0602226000046,None,,,,,,,,,,,,,,,,,,,,601.5974515000125,602.1044834000058,0.5125078100245446,1.0127803100040182,602.0878500000108,602.2046617000597,602.0878500000108,602.2046617000597,602.1880754999584,None,c,0,0.6930745999561623,602.1880754999584,None,,,,,f,,p3,2022_Mar_01_1416,training+cueing,2021.1.4,59.98023051910389,
Self.png,You,Self ,c,1,11,21,91,,,,,1,0,1,0,,,,,3,4,40,0,,,,,,,,,,,,,,,,,,,,,1.741,1.443,603.0114373000106,None,,,,,,,,,,,,,,,,,,,,603.5490121999756,604.0559030000586,0.5132475099526346,1.0134826099965721,604.0392404999584,604.139250200009,604.0392404999584,604.139250200009,604.139250200009,None,c,1,0.501920499955304,604.139250200009,None,,,,,f,,p3,2022_Mar_01_1416,training+cueing,2021.1.4,59.98023051910389,
Stranger.png,Friend,Stranger,m,2.3,17,27,97,,,,,1,0,1,0,,,,,3,5,41,7,,,,,,,,,,,,,,,,,,,,,1.477,1.612,604.7626880999887,None,,,,,,,,,,,,,,,,,,,,605.3012997000478,605.8071949000005,0.5108056099852547,1.0110524100018665,605.7905258999672,605.9072620000225,605.7905258999672,605.9072620000225,605.890511100064,None,m,1,0.6226463000057265,605.890511100064,None,,,,,f,,p3,2022_Mar_01_1416,training+cueing,2021.1.4,59.98023051910389,
Self.png,Stranger,Self ,m,3.1,18,28,98,,,,,1,0,1,0,,,,,3,6,42,2,,,,,,,,,,,,,,,,,,,,,1.613,2.454,606.6468265999574,None,,,,,,,,,,,,,,,,,,,,607.1845763999736,607.6918631000444,0.5117300100391731,1.0118566100718454,607.6753293999936,607.7919253000291,607.6753293999936,607.7919253000291,607.7752043000655,None,c,0,0.4180267999181524,607.7752043000655,None,,,,,f,,p3,2022_Mar_01_1416,training+cueing,2021.1.4,59.98023051910389,
Stranger.png,Stranger,Stranger,c,3,13,23,93,,,,,1,0,1,0,,,,,3,7,43,11,,,,,,,,,,,,,,,,,,,,,1.669,1.577,608.3151657000417,None,,,,,,,,,,,,,,,,,,,,608.8508758000098,609.359724399983,0.5008500398835167,1.0011739399051294,609.3430883999681,609.459801799967,609.3430883999681,609.459801799967,609.459801799967,None,c,1,0.70136300008744,609.459801799967,None,,,,,f,,p3,2022_Mar_01_1416,training+cueing,2021.1.4,59.98023051910389,
Friend.png,Friend,Friend,c,2,12,22,92,,,,,1,0,1,0,,,,,3,8,44,4,,,,,,,,,,,,,,,,,,,,,1.791,2.001,610.2834757000674,None,,,,,,,,,,,,,,,,,,,,610.8207025000593,611.3278916999698,0.5124637101544067,1.0128285101382062,611.3111288000364,611.4278566000285,611.3111288000364,611.4278566000285,611.4111510000657,None,c,1,0.6063045999035239,611.4111510000657,None,,,,,f,,p3,2022_Mar_01_1416,training+cueing,2021.1.4,59.98023051910389,
Self.png,You,Self ,c,1,11,21,91,,,,,1,0,1,0,,,,,3,9,45,9,,,,,,,,,,,,,,,,,,,,,1.73,2.457,612.1509477000218,None,,,,,,,,,,,,,,,,,,,,612.6893242000369,613.1958245000569,0.5131757099879906,1.0140939098782837,613.1791706000222,613.2791872000089,613.1791706000222,613.2791872000089,613.2791872000089,None,c,1,0.593986300053075,613.2791872000089,None,,,,,f,,p3,2022_Mar_01_1416,training+cueing,2021.1.4,59.98023051910389,
Friend.png,Friend,Friend,c,2,12,22,92,,,,,1,0,1,0,,,,,3,10,46,10,,,,,,,,,,,,,,,,,,,,,1.418,1.905,614.0042485999875,None,,,,,,,,,,,,,,,,,,,,614.5430392000126,615.0471760999644,0.5087871099822223,1.009054709924385,615.0305320000043,615.1472096999642,615.0305320000043,615.1472096999642,615.130517099984,None,c,1,0.8546441000653431,615.130517099984,None,,,,,f,,p3,2022_Mar_01_1416,training+cueing,2021.1.4,59.98023051910389,
Friend.png,Stranger,Friend,m,3.2,19,29,99,,,,,1,0,1,0,,,,,3,11,47,5,,,,,,,,,,,,,,,,,,,,,1.448,1.582,616.1208107999992,None,,,,,,,,,,,,,,,,,,,,616.7144303000532,617.2153884000145,0.49923102010507137,0.9994612201116979,617.1987510999897,617.3154548000311,617.1987510999897,617.3154548000311,617.3154548000311,None,m,1,0.8777260999195278,617.3154548000311,None,,,,,f,,p3,2022_Mar_01_1416,training+cueing,2021.1.4,59.98023051910389,
Friend.png,Friend,Friend,c,2,12,22,92,,,,,1,0,1,0,,,,,4,0,48,4,,,,,,,,,,,,,,,,,,,,,1.613,2.057,618.3221437999746,None,,,,,,,,,,,,,,,,,,,,618.8608023000415,619.3669617000269,0.5126611100276932,1.0131385100539774,619.3503321000608,619.4669999000616,619.3503321000608,619.4669999000616,619.4503004000289,None,c,1,0.9509914999362081,619.4503004000289,None,,,,,f,,p3,2022_Mar_01_1416,training+cueing,2021.1.4,59.98023051910389,
Self.png,Stranger,Self ,m,3.1,18,28,98,,,,,1,0,1,0,,,,,4,1,49,2,,,,,,,,,,,,,,,,,,,,,1.456,2.051,620.5240678000264,None,,,,,,,,,,,,,,,,,,,,621.0623314999975,621.5685503999703,0.511798909981735,1.0120540100615472,621.5518823000602,621.6685963000637,621.5518823000602,621.6685963000637,621.6518766999943,None,m,1,0.7811953000491485,621.6518766999943,None,,,,,f,,p3,2022_Mar_01_1416,training+cueing,2021.1.4,59.98023051910389,
Self.png,Friend,Self ,m,2.1,16,26,96,,,,,1,0,1,0,,,,,4,2,50,1,,,,,,,,,,,,,,,,,,,,,1.473,1.798,622.5586016000016,None,,,,,,,,,,,,,,,,,,,,623.0955204999773,623.6033257000381,0.51293521001935,1.0132296100491658,623.5866990999784,623.7033755000448,623.5866990999784,623.7033755000448,623.6866388999624,None,c,0,0.7144029000774026,623.6866388999624,None,,,,,f,,p3,2022_Mar_01_1416,training+cueing,2021.1.4,59.98023051910389,
Stranger.png,Stranger,Stranger,c,3,13,23,93,,,,,1,0,1,0,,,,,4,3,51,11,,,,,,,,,,,,,,,,,,,,,1.599,2.339,624.5264705000445,None,,,,,,,,,,,,,,,,,,,,625.0655842999695,625.5714149000123,0.511556809884496,1.0118383099325001,625.5547633999959,625.6714692000533,625.5547633999959,625.6714692000533,625.654767,None,m,0,0.922318400000222,625.654767,None,,,,,f,,p3,2022_Mar_01_1416,training+cueing,2021.1.4,59.98023051910389,
Stranger.png,You,Stranger,m,1.3,15,25,95,,,,,1,0,1,0,,,,,4,4,52,6,,,,,,,,,,,,,,,,,,,,,1.747,1.76,626.712102200021,None,,,,,,,,,,,,,,,,,,,,627.248942199978,627.7563064000569,0.5129939100006595,1.0132479100720957,627.7397037000628,627.839715500013,627.7397037000628,627.839715500013,627.839715500013,None,c,0,0.8175099999643862,627.839715500013,None,,,,,f,,p3,2022_Mar_01_1416,training+cueing,2021.1.4,59.98023051910389,
Friend.png,Stranger,Friend,m,3.2,19,29,99,,,,,1,0,1,0,,,,,4,5,53,5,,,,,,,,,,,,,,,,,,,,,1.5,2.266,628.7795799999731,None,,,,,,,,,,,,,,,,,,,,629.3186769000022,629.8244889000198,0.5117723100120202,1.0121571100316942,629.8078251000261,629.9245722000487,629.8078251000261,629.9245722000487,629.907822499983,None,c,0,0.5252979000797495,629.907822499983,None,,,,,f,,p3,2022_Mar_01_1416,training+cueing,2021.1.4,59.98023051910389,
Stranger.png,Stranger,Stranger,c,3,13,23,93,,,,,1,0,1,0,,,,,4,6,54,8,,,,,,,,,,,,,,,,,,,,,1.723,2.27,630.5641443000641,None,,,,,,,,,,,,,,,,,,,,631.0999250999885,631.609101900016,0.5018138398882002,1.002195039880462,631.5924607999623,631.7097394999582,631.5924607999623,631.7097394999582,631.6924712000182,None,c,1,0.5326023000525311,631.6924712000182,None,,,,,f,,p3,2022_Mar_01_1416,training+cueing,2021.1.4,59.98023051910389,
Stranger.png,Friend,Stranger,m,2.3,17,27,97,,,,,1,0,1,0,,,,,4,7,55,7,,,,,,,,,,,,,,,,,,,,,1.423,2.382,632.3487278000684,None,,,,,,,,,,,,,,,,,,,,632.8866692000302,633.3937312000198,0.5127461099764332,1.0129631099989638,633.3771422000136,633.4937439999776,633.3771422000136,633.4937439999776,633.4770911000669,None,c,0,0.49202759994659573,633.4770911000669,None,,,,,f,,p3,2022_Mar_01_1416,training+cueing,2021.1.4,59.98023051910389,
Friend.png,Friend,Friend,c,2,12,22,92,,,,,1,0,1,0,,,,,4,8,56,10,,,,,,,,,,,,,,,,,,,,,1.581,1.601,634.1005082000047,None,,,,,,,,,,,,,,,,,,,,634.6364855000284,635.1449810999911,0.5008708399254829,1.0011343399528414,635.1283420000691,635.2450434999773,635.1283420000691,635.2450434999773,635.2450434999773,None,c,1,0.7081478000618517,635.2450434999773,None,,,,,f,,p3,2022_Mar_01_1416,training+cueing,2021.1.4,59.98023051910389,
Self.png,You,Self ,c,1,11,21,91,,,,,1,0,1,0,,,,,4,9,57,9,,,,,,,,,,,,,,,,,,,,,1.599,1.301,636.08541900001,None,,,,,,,,,,,,,,,,,,,,636.6221406999975,637.1297521999804,0.513892009970732,1.014215309987776,637.1130583999911,637.2131357999751,637.1130583999911,637.2131357999751,637.2131357999751,None,c,1,0.8039838999975473,637.2131357999751,None,,,,,f,,p3,2022_Mar_01_1416,training+cueing,2021.1.4,59.98023051910389,
Friend.png,You,Friend,m,1.2,14,24,94,,,,,1,0,1,0,,,,,4,10,58,3,,,,,,,,,,,,,,,,,,,,,1.615,2.091,638.1533226000611,None,,,,,,,,,,,,,,,,,,,,638.6884814000223,639.1979330000468,0.5008529400220141,1.0012567399535328,639.1813056999817,639.2813024000498,639.1813056999817,639.2813024000498,639.2813024000498,None,c,0,0.6079421999165788,639.2813024000498,None,,,,,f,,p3,2022_Mar_01_1416,training+cueing,2021.1.4,59.98023051910389,
Self.png,You,Self ,c,1,11,21,91,,,,,1,0,1,0,,,,,4,11,59,0,,,,,,,,,,,,,,,,,,,,,1.78,2.226,640.0226489000488,None,,,,,,,,,,,,,,,,,,,,640.5582799999975,641.0659559000051,0.5151523100212216,1.0154275100212544,641.0493085000198,641.1493035999592,641.0493085000198,641.1493035999592,641.1493035999592,None,c,1,0.8038782000076026,641.1493035999592,None,,,,,f,,p3,2022_Mar_01_1416,training+cueing,2021.1.4,59.98023051910389,
Stranger.png,Stranger,Stranger,c,3,13,23,93,,,,,1,0,1,0,,,,,5,0,60,8,,,,,,,,,,,,,,,,,,,,,1.466,1.611,642.0895739999833,None,,,,,,,,,,,,,,,,,,,,642.6270105000585,643.1341073999647,0.511079809977673,1.0113771100295708,643.1174267999595,643.2341626000125,643.1174267999595,643.2341626000125,643.2174473999767,None,m,0,0.6716655000345781,643.2174473999767,None,,,,,f,,p3,2022_Mar_01_1416,training+cueing,2021.1.4,59.98023051910389,
Friend.png,Friend,Friend,c,2,12,22,92,,,,,1,0,1,0,,,,,5,1,61,10,,,,,,,,,,,,,,,,,,,,,1.65,1.395,644.0243041999638,None,,,,,,,,,,,,,,,,,,,,644.5623452999862,645.0688236999558,0.5131045100279152,1.0133885099785402,645.0521989000263,645.1688540000468,645.0521989000263,645.1688540000468,645.1521831999999,None,c,1,0.848901699995622,645.1521831999999,None,,,,,f,,p3,2022_Mar_01_1416,training+cueing,2021.1.4,59.98023051910389,
Friend.png,Friend,Friend,c,2,12,22,92,,,,,1,0,1,0,,,,,5,2,62,4,,,,,,,,,,,,,,,,,,,,,1.413,1.685,646.1261719999602,None,,,,,,,,,,,,,,,,,,,,646.6612290999619,647.1703215000452,0.5005301398923621,1.0008072399068624,647.1536895000609,647.2705662000226,647.1536895000609,647.2705662000226,647.2705662000226,None,c,1,0.8425083999754861,647.2705662000226,None,,,,,f,,p3,2022_Mar_01_1416,training+cueing,2021.1.4,59.98023051910389,
Friend.png,You,Friend,m,1.2,14,24,94,,,,,1,0,1,0,,,,,5,3,63,3,,,,,,,,,,,,,,,,,,,,,1.526,1.638,648.2439841000596,None,,,,,,,,,,,,,,,,,,,,648.7804657999659,649.2885016000364,0.5136402100324631,1.0139125100104138,649.2718806000194,649.3719093999825,649.2718806000194,649.3719093999825,649.3719093999825,None,m,1,0.8851555000292137,649.3719093999825,None,,,,,f,,p3,2022_Mar_01_1416,training+cueing,2021.1.4,59.98023051910389,
Self.png,You,Self ,c,1,11,21,91,,,,,1,0,1,0,,,,,5,4,64,9,,,,,,,,,,,,,,,,,,,,,1.501,1.565,650.37888199999,None,,,,,,,,,,,,,,,,,,,,650.9142400999554,651.423445399967,0.5008316399762407,1.0010588399600238,651.4067839999916,651.506796300062,651.4067839999916,651.506796300062,651.506796300062,None,c,1,0.7182443999918178,651.506796300062,None,,,,,f,,p3,2022_Mar_01_1416,training+cueing,2021.1.4,59.98023051910389,
Stranger.png,Stranger,Stranger,c,3,13,23,93,,,,,1,0,1,0,,,,,5,5,65,11,,,,,,,,,,,,,,,,,,,,,1.611,1.793,652.3469558999641,None,,,,,,,,,,,,,,,,,,,,652.8851660999935,653.3915420999983,0.5120725099695846,None,653.3748673000373,653.4915626000147,653.3748673000373,653.4915626000147,653.4748508000048,None,c,1,0.35030679998453707,653.4748508000048,None,,,,,f,,p3,2022_Mar_01_1416,training+cueing,2021.1.4,59.98023051910389,
Self.png,You,Self ,c,1,11,21,91,,,,,1,0,1,0,,,,,5,6,66,0,,,,,,,,,,,,,,,,,,,,,1.454,1.677,653.9481113000074,None,,,,,,,,,,,,,,,,,,,,654.485679000034,654.9926689000567,0.512797910021618,1.0130458099301904,654.9760109999916,655.0760260999668,654.9760109999916,655.0760260999668,655.0760260999668,None,m,0,0.5250433000037447,655.0760260999668,None,,,,,f,,p3,2022_Mar_01_1416,training+cueing,2021.1.4,59.98023051910389,
Stranger.png,Friend,Stranger,m,2.3,17,27,97,,,,,1,0,1,0,,,,,5,7,67,7,,,,,,,,,,,,,,,,,,,,,1.732,1.439,655.73211490002,None,,,,,,,,,,,,,,,,,,,,656.2705850000493,656.7772851999616,0.5124123101122677,1.0132821100996807,656.7606679999735,656.8773517999798,656.7606679999735,656.8773517999798,656.8606232999591,None,m,1,0.9164910999825224,656.8606232999591,None,,,,,f,,p3,2022_Mar_01_1416,training+cueing,2021.1.4,59.98023051910389,
Stranger.png,You,Stranger,m,1.3,15,25,95,,,,,1,0,1,0,,,,,5,8,68,6,,,,,,,,,,,,,,,,,,,,,1.75,1.315,657.901641500066,None,,,,,,,,,,,,,,,,,,,,658.4373357000295,658.9455977999605,0.513208010001108,1.0133571099722758,658.9289959999733,659.0288856000407,658.9289959999733,659.0288856000407,659.0288856000407,None,c,0,0.5561837999848649,659.0288856000407,None,,,,,f,,p3,2022_Mar_01_1416,training+cueing,2021.1.4,59.98023051910389,
Friend.png,Stranger,Friend,m,3.2,19,29,99,,,,,1,0,1,0,,,,,5,9,69,5,,,,,,,,,,,,,,,,,,,,,1.749,1.487,659.7189981000265,None,,,,,,,,,,,,,,,,,,,,660.2625875000376,660.7637458000099,0.5018248099368066,1.0019827099749818,660.7469005000312,660.8635259000584,660.7469005000312,660.8635259000584,660.8635259000584,None,m,1,0.9136063999030739,660.8635259000584,None,,,,,f,,p3,2022_Mar_01_1416,training+cueing,2021.1.4,59.98023051910389,
Self.png,Stranger,Self ,m,3.1,18,28,98,,,,,1,0,1,0,,,,,5,10,70,2,,,,,,,,,,,,,,,,,,,,,1.589,1.931,661.9038289999589,None,,,,,,,,,,,,,,,,,,,,662.439868299989,662.9484283999773,0.5007001399062574,1.0009773399215192,662.9317449000664,663.048450000002,662.9317449000664,663.048450000002,663.048450000002,None,m,1,0.8405895000323653,663.048450000002,None,,,,,f,,p3,2022_Mar_01_1416,training+cueing,2021.1.4,59.98023051910389,
Self.png,Friend,Self ,m,2.1,16,26,96,,,,,1,0,1,0,,,,,5,11,71,1,,,,,,,,,,,,,,,,,,,,,1.79,1.476,664.0221482999623,None,,,,,,,,,,,,,,,,,,,,664.5591865000315,665.0666040000506,0.5129110099514946,1.0132685099961236,665.0499713000609,665.1666961000301,665.0499713000609,665.1666961000301,665.149958300055,None,c,0,0.8190304000163451,665.149958300055,None,,,,,f,,p3,2022_Mar_01_1416,training+cueing,2021.1.4,59.98023051910389,
Friend.png,Friend,Friend,c,2,12,22,92,,,,,1,0,1,0,,,,,6,0,72,10,,,,,,,,,,,,,,,,,,,,,1.515,1.224,666.107554999995,None,,,,,,,,,,,,,,,,,,,,666.6427008999744,667.151429999969,0.500907139852643,1.0012154398718849,667.1347503999714,667.2514973999932,667.1347503999714,667.2514973999932,667.2514973999932,None,m,0,1.48560700006783,667.2514973999932,None,,,,,f,,p3,2022_Mar_01_1416,training+cueing,2021.1.4,59.98023051910389,
Stranger.png,Stranger,Stranger,c,3,13,23,93,,,,,1,0,1,0,,,,,6,1,73,8,,,,,,,,,,,,,,,,,,,,,1.683,2.422,668.8590719000204,None,,,,,,,,,,,,,,,,,,,,669.3972798000323,669.9034349999856,0.5121773099526763,1.0122985099442303,669.8868573000655,670.0035172000062,669.8868573000655,670.0035172000062,669.986795600038,None,c,1,0.7182462000055239,669.986795600038,None,,,,,f,,p3,2022_Mar_01_1416,training+cueing,2021.1.4,59.98023051910389,
Stranger.png,You,Stranger,m,1.3,15,25,95,,,,,1,0,1,0,,,,,6,2,74,6,,,,,,,,,,,,,,,,,,,,,1.791,1.772,670.827066399972,None,,,,,,,,,,,,,,,,,,,,671.3765164000215,671.8881598999724,0.5060247099027038,1.0062986098928377,671.871522600064,671.9715404000599,671.871522600064,671.9715404000599,671.9715404000599,None,m,1,0.7814624999882653,671.9715404000599,None,,,,,f,,p3,2022_Mar_01_1416,training+cueing,2021.1.4,59.98023051910389,
Self.png,Friend,Self ,m,2.1,16,26,96,,,,,1,0,1,0,,,,,6,3,75,1,,,,,,,,,,,,,,,,,,,,,1.727,1.763,672.878445600043,None,,,,,,,,,,,,,,,,,,,,673.4159468000289,673.9230328999693,0.5132975099841133,1.0135822100564837,673.9063173000468,674.0230264000129,673.9063173000468,674.0230264000129,674.0063365000533,None,c,0,0.970777599955909,674.0063365000533,None,,,,,f,,p3,2022_Mar_01_1416,training+cueing,2021.1.4,59.98023051910389,
Friend.png,You,Friend,m,1.2,14,24,94,,,,,1,0,1,0,,,,,6,4,76,3,,,,,,,,,,,,,,,,,,,,,1.694,1.858,675.1131790999789,None,,,,,,,,,,,,,,,,,,,,675.6503297999734,676.1579321000027,0.5127966100117192,1.0130685099866241,676.1412651999854,676.2412835999858,676.1412651999854,676.2412835999858,676.2412835999858,None,c,0,0.7518251000437886,676.2412835999858,None,,,,,f,,p3,2022_Mar_01_1416,training+cueing,2021.1.4,59.98023051910389,
Self.png,You,Self ,c,1,11,21,91,,,,,1,0,1,0,,,,,6,5,77,0,,,,,,,,,,,,,,,,,,,,,1.697,2.302,677.1143542999635,None,,,,,,,,,,,,,,,,,,,,677.6497233000118,678.159371900023,0.5011114400113001,1.0013483399525285,678.142705300008,678.2427027999656,678.142705300008,678.2427027999656,678.2427027999656,None,c,1,0.6222777999937534,678.2427027999656,None,,,,,f,,p3,2022_Mar_01_1416,training+cueing,2021.1.4,59.98023051910389,
Friend.png,Friend,Friend,c,2,12,22,92,,,,,1,0,1,0,,,,,6,6,78,4,,,,,,,,,,,,,,,,,,,,,1.757,1.795,678.9998572999611,None,,,,,,,,,,,,,,,,,,,,679.5374716999941,680.0441043999745,0.5126426101196557,1.0129147100960836,680.0274266999913,680.144084700034,680.0274266999913,680.144084700034,680.127426299965,None,c,1,0.8815627999138087,680.127426299965,None,,,,,f,,p3,2022_Mar_01_1416,training+cueing,2021.1.4,59.98023051910389,
Self.png,You,Self ,c,1,11,21,91,,,,,1,0,1,0,,,,,6,7,79,9,,,,,,,,,,,,,,,,,,,,,1.651,1.296,681.1346020000055,None,,,,,,,,,,,,,,,,,,,,681.6713070999831,682.178951799986,0.5130086099961773,1.0132935100700706,682.1622832999565,682.2622963000322,682.1622832999565,682.2622963000322,682.2622963000322,None,m,0,0.7467572999885306,682.2622963000322,None,,,,,f,,p3,2022_Mar_01_1416,training+cueing,2021.1.4,59.98023051910389,
Self.png,Stranger,Self ,m,3.1,18,28,98,,,,,1,0,1,0,,,,,6,8,80,2,,,,,,,,,,,,,,,,,,,,,1.412,1.596,683.1362490999745,None,,,,,,,,,,,,,,,,,,,,683.6742672000546,684.1803918000078,0.5115896101342514,1.0118814101442695,684.1636834000237,684.2804344999604,684.1636834000237,684.2804344999604,684.2637333000312,None,m,1,0.8895468999398872,684.2637333000312,None,,,,,f,,p3,2022_Mar_01_1416,training+cueing,2021.1.4,59.98023051910389,
Stranger.png,Friend,Stranger,m,2.3,17,27,97,,,,,1,0,1,0,,,,,6,9,81,7,,,,,,,,,,,,,,,,,,,,,1.462,1.227,685.2874357999535,None,,,,,,,,,,,,,,,,,,,,685.8257602000376,686.3319579999661,0.5127728099469095,1.0130538099911064,686.3152810999891,686.4319645999931,686.3152810999891,686.4319645999931,686.4152867000084,None,m,1,1.1697097000433132,686.4152867000084,None,,,,,f,,p3,2022_Mar_01_1416,training+cueing,2021.1.4,59.98023051910389,
Stranger.png,Stranger,Stranger,c,3,13,23,93,,,,,1,0,1,0,,,,,6,10,82,11,,,,,,,,,,,,,,,,,,,,,1.726,1.971,687.7224674000172,None,,,,,,,,,,,,,,,,,,,,688.260126600042,688.7670194000239,0.5121312100673094,1.0124161100247875,688.7503548000241,688.8670728000579,688.7503548000241,688.8670728000579,688.850366699975,None,m,0,1.0226216000737622,688.850366699975,None,,,,,f,,p3,2022_Mar_01_1416,training+cueing,2021.1.4,59.98023051910389,
Friend.png,Stranger,Friend,m,3.2,19,29,99,,,,,1,0,1,0,,,,,6,11,83,5,,,,,,,,,,,,,,,,,,,,,1.428,1.918,690.0078475000337,None,,,,,,,,,,,,,,,,,,,,690.5427508000284,691.052003400051,0.5008932399796322,1.0011407398851588,691.0353919999907,691.1520192000316,691.0353919999907,691.1520192000316,691.1520192000316,None,c,0,0.5609730000142008,691.1520192000316,None,,,,,f,,p3,2022_Mar_01_1416,training+cueing,2021.1.4,59.98023051910389,
Self.png,You,Self ,c,1,11,21,91,,,,,1,0,1,0,,,,,7,0,84,0,,,,,,,,,,,,,,,,,,,,,1.475,1.718,691.8420105000259,None,,,,,,,,,,,,,,,,,,,,692.3793954000575,692.8866785999853,0.5126166100380942,1.0129429100779817,692.8699632000644,692.9700647999998,692.8699632000644,692.9700647999998,692.9700647999998,None,c,1,0.646938499994576,692.9700647999998,None,,,,,f,,p3,2022_Mar_01_1416,training+cueing,2021.1.4,59.98023051910389,
