Image,Name,Face,CorrAns,Match,Face_onset,CResponse_onset,IResponse_onset,Match.thisRepN,Match.thisTrialN,Match.thisN,Match.thisIndex,Blocks.thisRepN,Blocks.thisTrialN,Blocks.thisN,Blocks.thisIndex,trials.thisRepN,trials.thisTrialN,trials.thisN,trials.thisIndex,trials_2.thisRepN,trials_2.thisTrialN,trials_2.thisN,trials_2.thisIndex,text.started,text.stopped,p1.started,p1.stopped,MatchInstructions.started,MatchInstructions.stopped,Name1.started,Name1.stopped,Face_Relevance.started,Face_Relevance.stopped,MismatchInstructions.started,MismatchInstructions.stopped,Rest_trainingInstruct.started,Rest_trainingInstruct.stopped,next8.keys,next8.rt,next8.started,next8.stopped,Ready.started,Ready.stopped,delay_one_picked,delay_two_picked,blank0.started,blank0.stopped,FixationCross1.started,FixationCross1.stopped,Name3.started,Name3.stopped,Face_Relevance3.started,Face_Relevance3.stopped,responseTime.started,responseTime.stopped,resp.keys,resp.corr,resp.started,resp.stopped,Accuracy.started,Accuracy.stopped,resp.rt,questions.started,questions.stopped,p2.started,p2.stopped,FixationCross3.started,FixationCross3.stopped,port_Face_onset.started,port_Face_onset.stopped,Name4.started,Name4.stopped,Face_Relevance4.started,Face_Relevance4.stopped,responseTime2.started,responseTime2.stopped,Response.keys,Response.corr,Response.rt,Response.started,Response.stopped,p3.started,p3.stopped,Finish.started,Finish.stopped,gender,age,participant,date,expName,psychopyVersion,frameRate,
Friend.png,Friend,,,,,,,0,0,0,1,,,,,,,,,,,,,12.745557500049472,None,0.006736390059813857,0.5299276900477707,16.072963200043887,None,18.22854390006978,None,18.22854390006978,None,,,,,,,,,,,,,,,,,,,,,,,,,,,,,,,,,,,,,,,,,,,,,,,,,,,,,,,p4,2022_Mar_02_1259,training+cueing,2021.1.4,59.97335986807705,
Self.png,You,,,,,,,0,1,1,0,,,,,,,,,,,,,,,,,,,38.1251529000001,None,38.1251529000001,None,,,,,,,,,,,,,,,,,,,,,,,,,,,,,,,,,,,,,,,,,,,,,,,,,,,,,,,p4,2022_Mar_02_1259,training+cueing,2021.1.4,59.97335986807705,
Stranger.png,Stranger,,,,,,,0,2,2,2,,,,,,,,,,,,,,,,,,,58.121690300060436,None,58.121690300060436,None,,,,,,,,,,,,,,,,,,,,,,,,,,,,,,,,,,,,,,,,,,,,,,,,,,,,,,,p4,2022_Mar_02_1259,training+cueing,2021.1.4,59.97335986807705,
Self.png,Friend,Self ,m,2.1,16,26,96,,,,,0,0,0,0,0,0,0,1,,,,,,,,,,,,,,,78.08515629998874,None,122.76752260001376,None,space,0.18701320001855493,2.008312170044519,None,124.96897040004842,None,1.632,1.624,127.97979979997035,None,128.60802719998173,129.12213430006523,129.10541980003472,129.22214560001157,129.10541980003472,129.22214560001157,129.2054622999858,None,None,0,129.2054622999858,None,130.83870419999585,None,,,,,,,,,,,,,,,,,,,,,,,,,,,p4,2022_Mar_02_1259,training+cueing,2021.1.4,59.97335986807705,
Friend.png,Friend,Friend,c,2,12,22,92,,,,,0,0,0,0,0,1,1,10,,,,,,,,,,,,,,,,,,,,,,,,,1.718,2.362,131.24028530006763,None,131.76692439999897,132.2743319000583,132.25772200000938,132.37442750006448,132.25772200000938,132.37442750006448,132.3577351999702,None,m,0,132.3577351999702,None,132.9414989000652,None,0.5655076999682933,,,,,,,,,,,,,,,,,,,,,,,,,,p4,2022_Mar_02_1259,training+cueing,2021.1.4,59.97335986807705,
Friend.png,Stranger,Friend,m,3.2,19,29,99,,,,,0,0,0,0,0,2,2,5,,,,,,,,,,,,,,,,,,,,,,,,,1.538,1.478,133.34176360000856,None,133.87292600004002,134.37590079999063,134.35904210002627,134.4757760000648,134.35904210002627,134.4757760000648,134.45909660006873,None,None,0,134.45909660006873,None,136.01043430005666,None,,,,,,,,,,,,,,,,,,,,,,,,,,,p4,2022_Mar_02_1259,training+cueing,2021.1.4,59.97335986807705,
Friend.png,Friend,Friend,c,2,12,22,92,,,,,0,0,0,0,0,3,3,4,,,,,,,,,,,,,,,,,,,,,,,,,1.703,1.603,136.41052869998384,None,136.93997690000106,137.44470750004984,137.42790680006146,137.54547540005296,137.42790680006146,137.54547540005296,137.5287934000371,None,None,0,137.5287934000371,None,139.2459207000211,None,,,,,,,,,,,,,,,,,,,,,,,,,,,p4,2022_Mar_02_1259,training+cueing,2021.1.4,59.97335986807705,
Stranger.png,Stranger,Stranger,c,3,13,23,93,,,,,0,0,0,0,0,4,4,11,,,,,,,,,,,,,,,,,,,,,,,,,1.676,1.717,139.64624680008274,None,140.17736990004778,140.68018810008653,140.66380310000386,140.78041570005007,140.66380310000386,140.78041570005007,140.76375180005562,None,c,1,140.76375180005562,None,141.12916430004407,None,0.33555929991416633,,,,,,,,,,,,,,,,,,,,,,,,,,p4,2022_Mar_02_1259,training+cueing,2021.1.4,59.97335986807705,
Friend.png,You,Friend,m,1.2,14,24,94,,,,,0,0,0,0,0,5,5,3,,,,,,,,,,,,,,,,,,,,,,,,,1.727,1.99,141.53098190005403,None,142.0611870000139,142.56515410006978,142.54835950001143,142.64843060006388,142.54835950001143,142.64843060006388,142.64843060006388,None,None,0,142.64843060006388,None,144.38181040005293,None,,,,,,,,,,,,,,,,,,,,,,,,,,,p4,2022_Mar_02_1259,training+cueing,2021.1.4,59.97335986807705,
Self.png,Stranger,Self ,m,3.1,18,28,98,,,,,0,0,0,0,0,6,6,2,,,,,,,,,,,,,,,,,,,,,,,,,1.623,1.855,144.78327160002664,None,145.31266990001313,145.81725860002916,145.80059100000653,145.9174159000395,145.80059100000653,145.9174159000395,145.90067640005145,None,None,0,145.90067640005145,None,147.5353776999982,None,,,,,,,,,,,,,,,,,,,,,,,,,,,p4,2022_Mar_02_1259,training+cueing,2021.1.4,59.97335986807705,
Self.png,You,Self ,c,1,11,21,91,,,,,0,0,0,0,0,7,7,9,,,,,,,,,,,,,,,,,,,,,,,,,1.434,2.399,147.93549030006398,None,148.465415499988,148.96973950008396,148.95306440000422,149.05310170003213,148.95306440000422,149.05310170003213,149.05310170003213,None,None,0,149.05310170003213,None,150.48750879999716,None,,,,,,,,,,,,,,,,,,,,,,,,,,,p4,2022_Mar_02_1259,training+cueing,2021.1.4,59.97335986807705,
Stranger.png,Stranger,Stranger,c,3,13,23,93,,,,,0,0,0,0,0,8,8,8,,,,,,,,,,,,,,,,,,,,,,,,,1.793,1.874,150.88760470005218,None,151.417107700021,151.92174939997494,151.90504760004114,152.0216810000129,151.90504760004114,152.0216810000129,152.00505899998825,None,None,0,152.00505899998825,None,153.80648070003372,None,,,,,,,,,,,,,,,,,,,,,,,,,,,p4,2022_Mar_02_1259,training+cueing,2021.1.4,59.97335986807705,
Self.png,You,Self ,c,1,11,21,91,,,,,0,0,0,0,0,9,9,0,,,,,,,,,,,,,,,,,,,,,,,,,1.604,1.791,154.2066921000369,None,154.73627790005412,155.2407499999972,155.22414499998558,155.32413670001552,155.22414499998558,155.32413670001552,155.32413670001552,None,m,0,155.32413670001552,None,155.6911100000143,None,0.35102289996575564,,,,,,,,,,,,,,,,,,,,,,,,,,p4,2022_Mar_02_1259,training+cueing,2021.1.4,59.97335986807705,
Stranger.png,You,Stranger,m,1.3,15,25,95,,,,,0,0,0,0,0,10,10,6,,,,,,,,,,,,,,,,,,,,,,,,,1.508,2.133,156.0913076000288,None,156.6184633000521,157.12556239997502,157.10884090000764,157.20891000004485,157.10884090000764,157.20891000004485,157.20891000004485,None,c,0,157.20891000004485,None,158.1595472000772,None,0.9303811999270692,,,,,,,,,,,,,,,,,,,,,,,,,,p4,2022_Mar_02_1259,training+cueing,2021.1.4,59.97335986807705,
Stranger.png,Friend,Stranger,m,2.3,17,27,97,,,,,0,0,0,0,0,11,11,7,,,,,,,,,,,,,,,,,,,,,,,,,1.779,2.188,158.55978060001507,None,159.09014600003138,159.59405409998726,159.5773499000352,159.69409840006847,159.5773499000352,159.69409840006847,159.67744270002004,None,c,0,159.67744270002004,None,160.81156740000006,None,1.1177578999195248,,,,,,,,,,,,,,,,,,,,,,,,,,p4,2022_Mar_02_1259,training+cueing,2021.1.4,59.97335986807705,
Friend.png,Stranger,Friend,m,3.2,19,29,99,,,,,0,0,0,0,,,,,0,0,0,5,,,,,,,,,,,,,,,,,,,204.6096110000508,None,1.417,2.022,208.12228660006076,None,,,,,,,,,,,,,,,,161.2117993000429,None,0.01495547010563314,0.5136376700829715,208.7548306999961,209.26300240005367,0.5154270300408825,1.0157308300258592,209.24632080004085,209.36304079997353,209.24632080004085,209.36304079997353,209.3463562000543,None,m,1,0.7768543999409303,209.3463562000543,None,,,,,,,p4,2022_Mar_02_1259,training+cueing,2021.1.4,59.97335986807705,
Friend.png,You,Friend,m,1.2,14,24,94,,,,,0,0,0,0,,,,,0,1,1,3,,,,,,,,,,,,,,,,,,,,,1.702,1.236,210.2548674000427,None,,,,,,,,,,,,,,,,,,,,210.79726090002805,211.2978284000419,0.5018682099180296,1.0021792099578306,211.2811147000175,211.38113270001486,211.2811147000175,211.38113270001486,211.38113270001486,None,m,1,0.902041699970141,211.38113270001486,None,,,,,,,p4,2022_Mar_02_1259,training+cueing,2021.1.4,59.97335986807705,
Friend.png,Friend,Friend,c,2,12,22,92,,,,,0,0,0,0,,,,,0,2,2,10,,,,,,,,,,,,,,,,,,,,,1.465,2.138,212.40573860006407,None,,,,,,,,,,,,,,,,,,,,212.95770440006163,213.46621920005418,0.5006805099546909,1.0010053099831566,213.44951409997884,213.56624930002727,213.44951409997884,213.56624930002727,213.56624930002727,None,m,0,1.228976899990812,213.56624930002727,None,,,,,,,p4,2022_Mar_02_1259,training+cueing,2021.1.4,59.97335986807705,
Self.png,Stranger,Self ,m,3.1,18,28,98,,,,,0,0,0,0,,,,,0,3,3,2,,,,,,,,,,,,,,,,,,,,,1.507,2.424,214.92457440006547,None,,,,,,,,,,,,,,,,,,,,215.4630265000742,215.9678582000779,0.5075560100376606,1.0078337100567296,215.95117350004148,216.06790760008153,215.95117350004148,216.06790760008153,216.051171900006,None,c,0,1.0319240000098944,216.051171900006,None,,,,,,,p4,2022_Mar_02_1259,training+cueing,2021.1.4,59.97335986807705,
Friend.png,Friend,Friend,c,2,12,22,92,,,,,0,0,0,0,,,,,0,4,4,4,,,,,,,,,,,,,,,,,,,,,1.646,2.222,217.20809059997555,None,,,,,,,,,,,,,,,,,,,,217.74968920007814,218.2528130999999,0.5050942100351676,1.0053996100323275,218.23615290003363,218.3528670000378,218.23615290003363,218.3528670000378,218.3361924000783,None,m,0,0.9549447000026703,218.3361924000783,None,,,,,,,p4,2022_Mar_02_1259,training+cueing,2021.1.4,59.97335986807705,
Self.png,You,Self ,c,1,11,21,91,,,,,0,0,0,0,,,,,0,5,5,0,,,,,,,,,,,,,,,,,,,,,1.537,1.251,219.42680070002098,None,,,,,,,,,,,,,,,,,,,,219.9680028000148,220.47106050001457,0.5067416100064293,1.0070619100006297,220.45444020000286,220.554458300001,220.45444020000286,220.554458300001,220.554458300001,None,m,0,1.168692099978216,220.554458300001,None,,,,,,,p4,2022_Mar_02_1259,training+cueing,2021.1.4,59.97335986807705,
Stranger.png,Stranger,Stranger,c,3,13,23,93,,,,,0,0,0,0,,,,,0,6,6,8,,,,,,,,,,,,,,,,,,,,,1.696,1.606,221.84514150000177,None,,,,,,,,,,,,,,,,,,,,222.38589390006382,222.88947950000875,0.5062135100597516,1.0065317100379616,222.87284409999847,222.9895391999744,222.87284409999847,222.9895391999744,222.97286059998441,None,c,1,1.2305945999687538,222.97286059998441,None,,,,,,,p4,2022_Mar_02_1259,training+cueing,2021.1.4,59.97335986807705,
Stranger.png,Stranger,Stranger,c,3,13,23,93,,,,,0,0,0,0,,,,,0,7,7,11,,,,,,,,,,,,,,,,,,,,,1.661,2.248,224.33377080003265,None,,,,,,,,,,,,,,,,,,,,224.87082940002438,225.3746315999888,0.5068845099303871,1.0071803099708632,225.35793990001548,225.4746847000206,225.35793990001548,225.4746847000206,225.4579503000714,None,m,0,1.1131910999538377,225.4579503000714,None,,,,,,,p4,2022_Mar_02_1259,training+cueing,2021.1.4,59.97335986807705,
Stranger.png,You,Stranger,m,1.3,15,25,95,,,,,0,0,0,0,,,,,0,8,8,6,,,,,,,,,,,,,,,,,,,,,1.626,1.418,226.6976479999721,None,,,,,,,,,,,,,,,,,,,,227.25030820001848,227.7596526000416,0.5001856801100075,1.0004734800895676,227.72633450001013,227.82638330000918,227.72633450001013,227.82638330000918,227.82638330000918,None,m,1,1.3528194000246003,227.82638330000918,None,,,,,,,p4,2022_Mar_02_1259,training+cueing,2021.1.4,59.97335986807705,
Stranger.png,Friend,Stranger,m,2.3,17,27,97,,,,,0,0,0,0,,,,,0,9,9,7,,,,,,,,,,,,,,,,,,,,,1.611,2.345,229.31686520006042,None,,,,,,,,,,,,,,,,,,,,229.85763059998862,230.3615406000754,0.5065904100192711,1.0067650099517778,230.34495920001063,230.46173330000602,230.34495920001063,230.46173330000602,230.4449257000815,None,m,1,1.566198999993503,230.4449257000815,None,,,,,,,p4,2022_Mar_02_1259,training+cueing,2021.1.4,59.97335986807705,
Self.png,You,Self ,c,1,11,21,91,,,,,0,0,0,0,,,,,0,10,10,9,,,,,,,,,,,,,,,,,,,,,1.69,1.205,232.1354603000218,None,,,,,,,,,,,,,,,,,,,,232.67646540002897,233.18024060002062,0.5068406100617722,1.0070945100160316,233.16361819999292,233.26367520005442,233.16361819999292,233.26367520005442,233.26367520005442,None,c,1,1.4194396999664605,233.26367520005442,None,,,,,,,p4,2022_Mar_02_1259,training+cueing,2021.1.4,59.97335986807705,
Self.png,Friend,Self ,m,2.1,16,26,96,,,,,0,0,0,0,,,,,0,11,11,1,,,,,,,,,,,,,,,,,,,,,1.583,1.929,234.80466670007445,None,,,,,,,,,,,,,,,,,,,,235.3446139000589,235.84884390002117,0.5059013100108132,1.0061998100718483,235.83217000006698,235.94892210001126,235.83217000006698,235.94892210001126,235.9322259000037,None,m,1,1.0069289000239223,235.9322259000037,None,,,,,,,p4,2022_Mar_02_1259,training+cueing,2021.1.4,59.97335986807705,
Stranger.png,Stranger,Stranger,c,3,13,23,93,,,,,0,0,0,0,,,,,1,0,12,11,,,,,,,,,,,,,,,,,,,,,1.584,2.003,237.0724589000456,None,,,,,,,,,,,,,,,,,,,,237.61522180004977,238.11714500002563,0.5051903099520132,1.005506610032171,238.1004747999832,238.2193777000066,238.1004747999832,238.2193777000066,238.2004789999919,None,c,1,0.8187001999467611,238.2004789999919,None,,,,,,,p4,2022_Mar_02_1259,training+cueing,2021.1.4,59.97335986807705,
Stranger.png,You,Stranger,m,1.3,15,25,95,,,,,0,0,0,0,,,,,1,1,13,6,,,,,,,,,,,,,,,,,,,,,1.749,1.855,239.14084330003243,None,,,,,,,,,,,,,,,,,,,,239.68190239998512,240.18540209997445,0.5068656100193039,1.0069717100122944,240.16880800004583,240.26865320000798,240.16880800004583,240.26865320000798,240.26865320000798,None,m,1,0.6384169000666589,240.26865320000798,None,,,,,,,p4,2022_Mar_02_1259,training+cueing,2021.1.4,59.97335986807705,
Self.png,Stranger,Self ,m,3.1,18,28,98,,,,,0,0,0,0,,,,,1,2,14,2,,,,,,,,,,,,,,,,,,,,,1.756,1.963,241.04199559998233,None,,,,,,,,,,,,,,,,,,,,241.58296510006767,242.08670850005,0.5048005098942667,1.0050855099689215,242.07001809997018,242.1867262000451,242.07001809997018,242.1867262000451,242.16998980008066,None,m,1,0.9451681999489665,242.16998980008066,None,,,,,,,p4,2022_Mar_02_1259,training+cueing,2021.1.4,59.97335986807705,
Self.png,You,Self ,c,1,11,21,91,,,,,0,0,0,0,,,,,1,3,15,0,,,,,,,,,,,,,,,,,,,,,1.606,1.448,243.24400730000343,None,,,,,,,,,,,,,,,,,,,,243.78487079998013,244.28834369999822,0.5061209100531414,1.006423810031265,244.27171110000927,244.37176420004107,244.27171110000927,244.37176420004107,244.37176420004107,None,c,1,1.0153239999199286,244.37176420004107,None,,,,,,,p4,2022_Mar_02_1259,training+cueing,2021.1.4,59.97335986807705,
Stranger.png,Stranger,Stranger,c,3,13,23,93,,,,,0,0,0,0,,,,,1,4,16,8,,,,,,,,,,,,,,,,,,,,,1.653,1.459,245.51385230000596,None,,,,,,,,,,,,,,,,,,,,246.05451899999753,246.55654020002112,0.5020801100181416,1.0023879100335762,246.53989050001837,246.65659919998143,246.53989050001837,246.65659919998143,246.6399285000516,None,m,0,0.9551306000212207,246.6399285000516,None,,,,,,,p4,2022_Mar_02_1259,training+cueing,2021.1.4,59.97335986807705,
Friend.png,Stranger,Friend,m,3.2,19,29,99,,,,,0,0,0,0,,,,,1,5,17,5,,,,,,,,,,,,,,,,,,,,,1.596,1.316,247.73008550005034,None,,,,,,,,,,,,,,,,,,,,248.2683318000054,248.77476689999457,0.5126523099606857,1.013845509965904,248.75814509997144,248.87485470005777,248.75814509997144,248.87485470005777,248.85816920001525,None,m,1,1.0573433000827208,248.85816920001525,None,,,,,,,p4,2022_Mar_02_1259,training+cueing,2021.1.4,59.97335986807705,
Stranger.png,Friend,Stranger,m,2.3,17,27,97,,,,,0,0,0,0,,,,,1,6,18,7,,,,,,,,,,,,,,,,,,,,,1.635,1.288,250.05026370007545,None,,,,,,,,,,,,,,,,,,,,250.59195040003397,251.09314360003918,0.503511410090141,1.0045475100632757,251.07648140005767,251.19320029998198,251.07648140005767,251.19320029998198,251.17651380004827,None,m,1,1.5387258999980986,251.17651380004827,None,,,,,,,p4,2022_Mar_02_1259,training+cueing,2021.1.4,59.97335986807705,
Self.png,Friend,Self ,m,2.1,16,26,96,,,,,0,0,0,0,,,,,1,7,19,1,,,,,,,,,,,,,,,,,,,,,1.432,1.695,252.85135310003534,None,,,,,,,,,,,,,,,,,,,,253.38838330004364,253.89520879997872,0.5107990100514144,1.01111691002734,253.87850120000076,253.9951977999881,253.87850120000076,253.9951977999881,253.97853339998983,None,m,1,0.6725541000487283,253.97853339998983,None,,,,,,,p4,2022_Mar_02_1259,training+cueing,2021.1.4,59.97335986807705,
Self.png,You,Self ,c,1,11,21,91,,,,,0,0,0,0,,,,,1,8,20,9,,,,,,,,,,,,,,,,,,,,,1.699,1.217,254.78548369999044,None,,,,,,,,,,,,,,,,,,,,255.32670089998282,255.82990680006333,0.5069536101073027,1.0072418100899085,255.81323830003385,255.91325870004948,255.81323830003385,255.91325870004948,255.91325870004948,None,c,1,1.1698420000029728,255.91325870004948,None,,,,,,,p4,2022_Mar_02_1259,training+cueing,2021.1.4,59.97335986807705,
Friend.png,Friend,Friend,c,2,12,22,92,,,,,0,0,0,0,,,,,1,9,21,4,,,,,,,,,,,,,,,,,,,,,1.406,1.985,257.2206855000695,None,,,,,,,,,,,,,,,,,,,,257.76196500007063,258.2649619000731,0.5060449100565165,1.0063094099750742,258.2483685000334,258.36503370001446,258.2483685000334,258.36503370001446,258.34837100002915,None,m,0,1.2147959000431001,258.34837100002915,None,,,,,,,p4,2022_Mar_02_1259,training+cueing,2021.1.4,59.97335986807705,
Friend.png,Friend,Friend,c,2,12,22,92,,,,,0,0,0,0,,,,,1,10,22,10,,,,,,,,,,,,,,,,,,,,,1.423,2.049,259.6884532000404,None,,,,,,,,,,,,,,,,,,,,260.22629770007916,260.7334146000212,0.5132483100751415,1.0136546100256965,260.71674940001685,260.833486800082,260.71674940001685,260.833486800082,260.81680120003875,None,m,0,1.3542944999644533,260.81680120003875,None,,,,,,,p4,2022_Mar_02_1259,training+cueing,2021.1.4,59.97335986807705,
Friend.png,You,Friend,m,1.2,14,24,94,,,,,0,0,0,0,,,,,1,11,23,3,,,,,,,,,,,,,,,,,,,,,1.674,1.597,262.30772659997456,None,,,,,,,,,,,,,,,,,,,,262.86639380001,263.36866799998097,0.5061901800800115,1.0064779800595716,263.3520129000535,263.4520409000106,263.3520129000535,263.4520409000106,263.4520409000106,None,c,0,0.6711151000345126,263.4520409000106,None,,,,,,,p4,2022_Mar_02_1259,training+cueing,2021.1.4,59.97335986807705,
Friend.png,You,Friend,m,1.2,14,24,94,,,,,0,0,0,0,,,,,2,0,24,3,,,,,,,,,,,,,,,,,,,,,1.518,1.764,264.25959989998955,None,,,,,,,,,,,,,,,,,,,,264.7975268000737,265.30337460001465,0.5103299099719152,1.0106419100193307,265.2867311000591,265.3868025999982,265.2867311000591,265.3868025999982,265.3868025999982,None,m,1,0.9123549000360072,265.3868025999982,None,,,,,,,p4,2022_Mar_02_1259,training+cueing,2021.1.4,59.97335986807705,
Friend.png,Stranger,Friend,m,3.2,19,29,99,,,,,0,0,0,0,,,,,2,1,25,5,,,,,,,,,,,,,,,,,,,,,1.516,2.294,266.4282565000467,None,,,,,,,,,,,,,,,,,,,,266.96716700005345,267.4718319000676,0.508065509959124,1.008470009895973,267.45496100001037,267.5716572999954,267.45496100001037,267.5716572999954,267.55500609998126,None,m,1,0.8881189998937771,267.55500609998126,None,,,,,,,p4,2022_Mar_02_1259,training+cueing,2021.1.4,59.97335986807705,
Self.png,You,Self ,c,1,11,21,91,,,,,0,0,0,0,,,,,2,2,26,0,,,,,,,,,,,,,,,,,,,,,1.8,1.394,268.57849800004624,None,,,,,,,,,,,,,,,,,,,,269.1194944999879,269.62318470003083,0.5066824099048972,1.0069884099066257,269.60653350001667,269.70658820006065,269.60653350001667,269.70658820006065,269.70658820006065,None,c,1,0.9445016999961808,269.70658820006065,None,,,,,,,p4,2022_Mar_02_1259,training+cueing,2021.1.4,59.97335986807705,
Self.png,Stranger,Self ,m,3.1,18,28,98,,,,,0,0,0,0,,,,,2,3,27,2,,,,,,,,,,,,,,,,,,,,,1.595,1.862,270.780215100036,None,,,,,,,,,,,,,,,,,,,,271.3210133999819,271.8247733999742,0.5051262100460008,1.0053984101396054,271.8081361000659,271.92500390007626,271.8081361000659,271.92500390007626,271.90815260005184,None,m,1,1.2868949000257999,271.90815260005184,None,,,,,,,p4,2022_Mar_02_1259,training+cueing,2021.1.4,59.97335986807705,
Friend.png,Friend,Friend,c,2,12,22,92,,,,,0,0,0,0,,,,,2,4,28,4,,,,,,,,,,,,,,,,,,,,,1.461,2.264,273.3320679999888,None,,,,,,,,,,,,,,,,,,,,273.87330470001325,274.3766200999962,0.5065577100031078,1.006863410002552,274.3599400999956,274.47667180001736,274.3599400999956,274.47667180001736,274.4599649000447,None,m,0,0.815075800055638,274.4599649000447,None,,,,,,,p4,2022_Mar_02_1259,training+cueing,2021.1.4,59.97335986807705,
Stranger.png,Friend,Stranger,m,2.3,17,27,97,,,,,0,0,0,0,,,,,2,5,29,7,,,,,,,,,,,,,,,,,,,,,1.652,1.555,275.40020779997576,None,,,,,,,,,,,,,,,,,,,,275.9427741999971,276.4449197000358,0.5044614099897444,1.0047751100501046,276.4280780000845,276.544859000016,276.4280780000845,276.544859000016,276.5281215000432,None,c,0,0.9550261000404134,276.5281215000432,None,,,,,,,p4,2022_Mar_02_1259,training+cueing,2021.1.4,59.97335986807705,
Self.png,You,Self ,c,1,11,21,91,,,,,0,0,0,0,,,,,2,6,30,9,,,,,,,,,,,,,,,,,,,,,1.417,1.536,277.61831930000335,None,,,,,,,,,,,,,,,,,,,,278.1583146000048,278.6630312000634,0.5063991099596024,1.007424209965393,278.64638799999375,278.7464265000308,278.64638799999375,278.7464265000308,278.7464265000308,None,m,0,0.6406414000084624,278.7464265000308,None,,,,,,,p4,2022_Mar_02_1259,training+cueing,2021.1.4,59.97335986807705,
Friend.png,Friend,Friend,c,2,12,22,92,,,,,0,0,0,0,,,,,2,7,31,10,,,,,,,,,,,,,,,,,,,,,1.785,2.478,279.5213112999918,None,,,,,,,,,,,,,,,,,,,,280.063085300033,280.5645419000648,0.5033088099444285,1.0035588099854067,280.54785289999563,280.6646156000206,280.54785289999563,280.6646156000206,280.6478976000799,None,m,0,0.8352166000986472,280.6478976000799,None,,,,,,,p4,2022_Mar_02_1259,training+cueing,2021.1.4,59.97335986807705,
Stranger.png,Stranger,Stranger,c,3,13,23,93,,,,,0,0,0,0,,,,,2,8,32,11,,,,,,,,,,,,,,,,,,,,,1.463,1.227,281.60615140001755,None,,,,,,,,,,,,,,,,,,,,282.1453672000207,282.6492324999999,0.5051519100088626,1.006159509997815,282.63258289999794,282.749295799993,282.63258289999794,282.749295799993,282.7325908000348,None,c,1,0.7346553000388667,282.7325908000348,None,,,,,,,p4,2022_Mar_02_1259,training+cueing,2021.1.4,59.97335986807705,
Stranger.png,You,Stranger,m,1.3,15,25,95,,,,,0,0,0,0,,,,,2,9,33,6,,,,,,,,,,,,,,,,,,,,,1.489,2.159,283.5903133000247,None,,,,,,,,,,,,,,,,,,,,284.1327370000072,284.63402580004185,0.5037476100260392,1.0040161100914702,284.6173545999918,284.71737209998537,284.6173545999918,284.71737209998537,284.71737209998537,None,None,0,,284.71737209998537,None,,,,,,,p4,2022_Mar_02_1259,training+cueing,2021.1.4,59.97335986807705,
Stranger.png,Stranger,Stranger,c,3,13,23,93,,,,,0,0,0,0,,,,,2,10,34,8,,,,,,,,,,,,,,,,,,,,,1.407,2.081,286.3235379999969,None,,,,,,,,,,,,,,,,,,,,286.8665622000117,287.36931380000897,0.5050577099900693,1.0053112100576982,287.35270290006883,287.4693715000758,287.35270290006883,287.4693715000758,287.4526839000173,None,m,0,0.8143639999907464,287.4526839000173,None,,,,,,,p4,2022_Mar_02_1259,training+cueing,2021.1.4,59.97335986807705,
Self.png,Friend,Self ,m,2.1,16,26,96,,,,,0,0,0,0,,,,,2,11,35,1,,,,,,,,,,,,,,,,,,,,,1.708,2.107,288.39297260006424,None,,,,,,,,,,,,,,,,,,,,288.93341739999596,289.43745069997385,0.5052305100252852,1.0061777100199834,289.42081310006324,289.53827070002444,289.42081310006324,289.53827070002444,289.52148009999655,None,c,0,1.0656423999462277,289.52148009999655,None,,,,,,,p4,2022_Mar_02_1259,training+cueing,2021.1.4,59.97335986807705,
Self.png,Stranger,Self ,m,3.1,18,28,98,,,,,0,0,0,0,,,,,3,0,36,2,,,,,,,,,,,,,,,,,,,,,1.633,2.111,290.71275190007873,None,,,,,,,,,,,,,,,,,,,,291.2549148000544,291.75580490007997,0.5008938099490479,1.0011587099870667,291.7391435999889,291.85585130006075,291.7391435999889,291.85585130006075,291.85585130006075,None,m,1,0.8432363999309018,291.85585130006075,None,,,,,,,p4,2022_Mar_02_1259,training+cueing,2021.1.4,59.97335986807705,
Stranger.png,You,Stranger,m,1.3,15,25,95,,,,,0,0,0,0,,,,,3,1,37,6,,,,,,,,,,,,,,,,,,,,,1.426,1.944,292.82951349997893,None,,,,,,,,,,,,,,,,,,,,293.3701869000215,293.88263780006673,0.5239364099688828,1.0239121100166813,293.87432250007987,293.97408690000884,293.87432250007987,293.97408690000884,293.95738919998985,None,c,0,1.0936241000890732,293.95738919998985,None,,,,,,,p4,2022_Mar_02_1259,training+cueing,2021.1.4,59.97335986807705,
Friend.png,Friend,Friend,c,2,12,22,92,,,,,0,0,0,0,,,,,3,2,38,10,,,,,,,,,,,,,,,,,,,,,1.489,1.482,295.18136270006653,None,,,,,,,,,,,,,,,,,,,,295.7331491999794,296.2423680999782,0.5017445100238547,1.0020221100421622,296.2257242000196,296.34239850007,296.2257242000196,296.34239850007,296.3257223999826,None,m,0,0.5332753999391571,296.3257223999826,None,,,,,,,p4,2022_Mar_02_1259,training+cueing,2021.1.4,59.97335986807705,
Self.png,You,Self ,c,1,11,21,91,,,,,0,0,0,0,,,,,3,3,39,0,,,,,,,,,,,,,,,,,,,,,1.693,2.357,296.98296150006354,None,,,,,,,,,,,,,,,,,,,,297.52349900000263,298.0270172000164,0.5064157099695876,1.0066980100236833,298.0103472999763,298.1103623000672,298.0103472999763,298.1103623000672,298.1103623000672,None,c,1,0.7485753999790177,298.1103623000672,None,,,,,,,p4,2022_Mar_02_1259,training+cueing,2021.1.4,59.97335986807705,
Self.png,Friend,Self ,m,2.1,16,26,96,,,,,0,0,0,0,,,,,3,4,40,1,,,,,,,,,,,,,,,,,,,,,1.675,1.981,298.98409500007983,None,,,,,,,,,,,,,,,,,,,,299.52376810007263,300.02845169999637,0.505972409970127,1.0062674100045115,300.0117702999851,300.1285122000845,300.0117702999851,300.1285122000845,300.1117936000228,None,m,1,0.6352427999954671,300.1117936000228,None,,,,,,,p4,2022_Mar_02_1259,training+cueing,2021.1.4,59.97335986807705,
Stranger.png,Stranger,Stranger,c,3,13,23,93,,,,,0,0,0,0,,,,,3,5,41,11,,,,,,,,,,,,,,,,,,,,,1.57,2.231,300.8688788000727,None,,,,,,,,,,,,,,,,,,,,301.4132131000515,301.9132360999938,0.4993447099113837,0.9996416099602357,301.8964960000012,302.01319229998626,301.8964960000012,302.01319229998626,302.01319229998626,None,m,0,0.9259228000883013,302.01319229998626,None,,,,,,,p4,2022_Mar_02_1259,training+cueing,2021.1.4,59.97335986807705,
Stranger.png,Friend,Stranger,m,2.3,17,27,97,,,,,0,0,0,0,,,,,3,6,42,7,,,,,,,,,,,,,,,,,,,,,1.614,1.646,303.07044360006694,None,,,,,,,,,,,,,,,,,,,,303.6122652000049,304.11473670008127,0.5062941100914031,1.0065855100983754,304.09806280001067,304.2147898999974,304.09806280001067,304.2147898999974,304.19806680001784,None,c,0,0.6449607000686228,304.19806680001784,None,,,,,,,p4,2022_Mar_02_1259,training+cueing,2021.1.4,59.97335986807705,
Stranger.png,Stranger,Stranger,c,3,13,23,93,,,,,0,0,0,0,,,,,3,7,43,8,,,,,,,,,,,,,,,,,,,,,1.603,2.26,304.97180230007507,None,,,,,,,,,,,,,,,,,,,,305.5137761000078,306.01602560002357,0.5039660099428147,1.0042386099230498,305.99943580001127,306.1161350000184,305.99943580001127,306.1161350000184,306.0994575000368,None,m,0,0.6635671999538317,306.0994575000368,None,,,,,,,p4,2022_Mar_02_1259,training+cueing,2021.1.4,59.97335986807705,
Self.png,You,Self ,c,1,11,21,91,,,,,0,0,0,0,,,,,3,8,44,9,,,,,,,,,,,,,,,,,,,,,1.617,2.249,306.8894346000161,None,,,,,,,,,,,,,,,,,,,,307.43057020008564,307.9343383000232,0.5065149100264534,1.006805510027334,307.9174674000824,308.01750140008517,307.9174674000824,308.01750140008517,308.01750140008517,None,c,1,0.7454878999851644,308.01750140008517,None,,,,,,,p4,2022_Mar_02_1259,training+cueing,2021.1.4,59.97335986807705,
Friend.png,Stranger,Friend,m,3.2,19,29,99,,,,,0,0,0,0,,,,,3,9,45,5,,,,,,,,,,,,,,,,,,,,,1.494,1.842,308.89135579997674,None,,,,,,,,,,,,,,,,,,,,309.43391370004974,309.9355979000684,0.5048248099628836,1.0049266099231318,309.91909280000255,310.03562700003386,309.91909280000255,310.03562700003386,310.01892160007264,None,m,1,0.712103100027889,310.01892160007264,None,,,,,,,p4,2022_Mar_02_1259,training+cueing,2021.1.4,59.97335986807705,
Friend.png,Friend,Friend,c,2,12,22,92,,,,,0,0,0,0,,,,,3,10,46,4,,,,,,,,,,,,,,,,,,,,,1.416,2.312,310.8596819000086,None,,,,,,,,,,,,,,,,,,,,311.3999942999799,311.90369810000993,0.5057446099817753,1.0060396100161597,311.88699989998713,312.0037383000599,311.88699989998713,312.0037383000599,311.98702270002104,None,m,0,0.8561843000352383,311.98702270002104,None,,,,,,,p4,2022_Mar_02_1259,training+cueing,2021.1.4,59.97335986807705,
Friend.png,You,Friend,m,1.2,14,24,94,,,,,0,0,0,0,,,,,3,11,47,3,,,,,,,,,,,,,,,,,,,,,1.677,1.35,312.97763300000224,None,,,,,,,,,,,,,,,,,,,,313.5182919000508,314.02187080006115,0.506551010068506,1.0068349100183696,314.0052364000585,314.10526320000645,314.0052364000585,314.10526320000645,314.10526320000645,None,m,1,1.2656812000786886,314.10526320000645,None,,,,,,,p4,2022_Mar_02_1259,training+cueing,2021.1.4,59.97335986807705,
Stranger.png,You,Stranger,m,1.3,15,25,95,,,,,0,0,0,0,,,,,4,0,48,6,,,,,,,,,,,,,,,,,,,,,1.788,1.313,315.4958556999918,None,,,,,,,,,,,,,,,,,,,,316.0335912000155,316.5404162000632,0.5106552101206034,1.0108587100403383,316.52385990007315,316.62386589997914,316.52385990007315,316.62386589997914,316.62386589997914,None,c,0,0.39507420000154525,316.62386589997914,None,,,,,,,p4,2022_Mar_02_1259,training+cueing,2021.1.4,59.97335986807705,
Friend.png,You,Friend,m,1.2,14,24,94,,,,,0,0,0,0,,,,,4,1,49,3,,,,,,,,,,,,,,,,,,,,,1.703,1.328,317.14674440003,None,,,,,,,,,,,,,,,,,,,,317.6875900999876,318.19164540001657,0.5084568099118769,1.0087366099469364,318.1750213999767,318.27506350004114,318.1750213999767,318.27506350004114,318.27506350004114,None,m,1,0.5038423000369221,318.27506350004114,None,,,,,,,p4,2022_Mar_02_1259,training+cueing,2021.1.4,59.97335986807705,
Self.png,Stranger,Self ,m,3.1,18,28,98,,,,,0,0,0,0,,,,,4,2,50,2,,,,,,,,,,,,,,,,,,,,,1.599,1.692,318.9150694999844,None,,,,,,,,,,,,,,,,,,,,319.45807250007056,319.959540400072,0.5026138100074604,1.0030771100427955,319.9428659999976,320.059661300038,319.9428659999976,320.059661300038,320.04302400001325,None,c,0,0.6400522999465466,320.04302400001325,None,,,,,,,p4,2022_Mar_02_1259,training+cueing,2021.1.4,59.97335986807705,
Self.png,You,Self ,c,1,11,21,91,,,,,0,0,0,0,,,,,4,3,51,9,,,,,,,,,,,,,,,,,,,,,1.44,1.915,320.8172776000574,None,,,,,,,,,,,,,,,,,,,,321.35953060002066,321.8609316999791,0.5019245099974796,None,321.84429759997874,321.94441410002764,321.84429759997874,321.94441410002764,321.94441410002764,None,m,0,0.3385642000939697,321.94441410002764,None,,,,,,,p4,2022_Mar_02_1259,training+cueing,2021.1.4,59.97335986807705,
Stranger.png,Stranger,Stranger,c,3,13,23,93,,,,,0,0,0,0,,,,,4,4,52,11,,,,,,,,,,,,,,,,,,,,,1.425,1.399,322.4181832000613,None,,,,,,,,,,,,,,,,,,,,322.95966110005975,323.4620089000091,0.5053417099406943,1.0056485099485144,323.44534109998494,323.5620620000409,323.44534109998494,323.5620620000409,323.54536910005845,None,c,1,0.4656203000340611,323.54536910005845,None,,,,,,,p4,2022_Mar_02_1259,training+cueing,2021.1.4,59.97335986807705,
Self.png,You,Self ,c,1,11,21,91,,,,,0,0,0,0,,,,,4,5,53,0,,,,,,,,,,,,,,,,,,,,,1.675,2.043,324.1356287000235,None,,,,,,,,,,,,,,,,,,,,324.677099200082,325.17992200003937,0.5058571100234985,None,325.1632887000451,325.2632892000256,325.1632887000451,325.2632892000256,325.2632892000256,None,m,0,0.36368089995812625,325.2632892000256,None,,,,,,,p4,2022_Mar_02_1259,training+cueing,2021.1.4,59.97335986807705,
Stranger.png,Friend,Stranger,m,2.3,17,27,97,,,,,0,0,0,0,,,,,4,6,54,7,,,,,,,,,,,,,,,,,,,,,1.678,1.783,325.7536661999766,None,,,,,,,,,,,,,,,,,,,,326.2941200999776,326.7977511000354,0.5057302099885419,1.0060262100305408,326.7810917000752,326.8978235999821,326.7810917000752,326.8978235999821,326.8812650999753,None,m,1,0.6339745000004768,326.8812650999753,None,,,,,,,p4,2022_Mar_02_1259,training+cueing,2021.1.4,59.97335986807705,
Stranger.png,Stranger,Stranger,c,3,13,23,93,,,,,0,0,0,0,,,,,4,7,55,8,,,,,,,,,,,,,,,,,,,,,1.549,2.313,327.6377431000583,None,,,,,,,,,,,,,,,,,,,,328.1798135000281,328.6824398000026,0.506762310047634,1.0069503099657595,328.6658734000521,328.7824767000275,328.6658734000521,328.7824767000275,328.7657873000717,None,c,1,0.4132609999505803,328.7657873000717,None,,,,,,,p4,2022_Mar_02_1259,training+cueing,2021.1.4,59.97335986807705,
Self.png,Friend,Self ,m,2.1,16,26,96,,,,,0,0,0,0,,,,,4,8,56,1,,,,,,,,,,,,,,,,,,,,,1.694,2.131,329.30571320001036,None,,,,,,,,,,,,,,,,,,,,329.8464538999833,330.35032670001965,0.5058123100316152,1.0060829101130366,330.3336422999855,330.45037850004155,330.3336422999855,330.45037850004155,330.43365650007036,None,c,0,0.7296472999732941,330.43365650007036,None,,,,,,,p4,2022_Mar_02_1259,training+cueing,2021.1.4,59.97335986807705,
Friend.png,Friend,Friend,c,2,12,22,92,,,,,0,0,0,0,,,,,4,9,57,4,,,,,,,,,,,,,,,,,,,,,1.782,2.371,331.29390420007985,None,,,,,,,,,,,,,,,,,,,,331.8311832000036,332.33506800001487,0.5069647099589929,None,332.31842080003116,332.4350958999712,332.31842080003116,332.4350958999712,332.41844260005746,None,m,0,0.21653189999051392,332.41844260005746,None,,,,,,,p4,2022_Mar_02_1259,training+cueing,2021.1.4,59.97335986807705,
Friend.png,Stranger,Friend,m,3.2,19,29,99,,,,,0,0,0,0,,,,,4,10,58,5,,,,,,,,,,,,,,,,,,,,,1.666,1.735,332.7586532999994,None,,,,,,,,,,,,,,,,,,,,333.299884499982,333.8029501000419,0.5053192100021988,1.005607709987089,333.7862937999889,333.9029976000311,333.7862937999889,333.9029976000311,333.88630550005473,None,c,0,0.396717399940826,333.88630550005473,None,,,,,,,p4,2022_Mar_02_1259,training+cueing,2021.1.4,59.97335986807705,
Friend.png,Friend,Friend,c,2,12,22,92,,,,,0,0,0,0,,,,,4,11,59,10,,,,,,,,,,,,,,,,,,,,,1.623,1.462,334.41066679998767,None,,,,,,,,,,,,,,,,,,,,334.9502932999749,335.45398750004824,0.5044044099049643,None,335.4373275000835,335.55401620001066,335.4373275000835,335.55401620001066,335.53734080004506,None,m,0,0.313682800042443,335.53734080004506,None,,,,,,,p4,2022_Mar_02_1259,training+cueing,2021.1.4,59.97335986807705,
Friend.png,Friend,Friend,c,2,12,22,92,,,,,0,0,0,0,,,,,5,0,60,10,,,,,,,,,,,,,,,,,,,,,1.596,2.497,335.97726559999865,None,,,,,,,,,,,,,,,,,,,,336.51479340007063,337.0217974000843,0.5131530100479722,None,337.0051104000304,337.1218563000439,337.0051104000304,337.1218563000439,337.1051358000841,None,c,1,0.37784600001759827,337.1051358000841,None,,,,,,,p4,2022_Mar_02_1259,training+cueing,2021.1.4,59.97335986807705,
Self.png,Stranger,Self ,m,3.1,18,28,98,,,,,0,0,0,0,,,,,5,1,61,2,,,,,,,,,,,,,,,,,,,,,1.726,1.755,337.6118809999898,None,,,,,,,,,,,,,,,,,,,,338.15381709998474,338.65628970006946,0.5045630099484697,1.0048759100027382,338.6396433999762,338.75634510000236,338.6396433999762,338.75634510000236,338.73967000003904,None,c,0,0.5033263999503106,338.73967000003904,None,,,,,,,p4,2022_Mar_02_1259,training+cueing,2021.1.4,59.97335986807705,
Friend.png,Stranger,Friend,m,3.2,19,29,99,,,,,0,0,0,0,,,,,5,2,62,5,,,,,,,,,,,,,,,,,,,,,1.722,2.228,339.3800459000049,None,,,,,,,,,,,,,,,,,,,,339.9369689000305,340.4412405000767,0.506976280012168,None,340.4245769000845,340.5412120000692,340.4245769000845,340.5412120000692,340.5245652999729,None,m,1,0.2704700999893248,340.5245652999729,None,,,,,,,p4,2022_Mar_02_1259,training+cueing,2021.1.4,59.97335986807705,
Self.png,You,Self ,c,1,11,21,91,,,,,0,0,0,0,,,,,5,3,63,9,,,,,,,,,,,,,,,,,,,,,1.514,2.413,340.9326958999736,None,,,,,,,,,,,,,,,,,,,,341.47386080003344,341.9754000999965,0.502813909901306,1.0030787099385634,341.95871550007723,342.05869059998076,341.95871550007723,342.05869059998076,342.05869059998076,None,m,0,0.448208500049077,342.05869059998076,None,,,,,,,p4,2022_Mar_02_1259,training+cueing,2021.1.4,59.97335986807705,
Stranger.png,You,Stranger,m,1.3,15,25,95,,,,,0,0,0,0,,,,,5,4,64,6,,,,,,,,,,,,,,,,,,,,,1.744,2.451,342.63263070001267,None,,,,,,,,,,,,,,,,,,,,343.16828580002766,343.67660780006554,0.5137661100598052,1.0139784100465477,343.65998720005155,343.7599573000334,343.65998720005155,343.7599573000334,343.7599573000334,None,c,0,0.41102769994176924,343.7599573000334,None,,,,,,,p4,2022_Mar_02_1259,training+cueing,2021.1.4,59.97335986807705,
Stranger.png,Stranger,Stranger,c,3,13,23,93,,,,,0,0,0,0,,,,,5,5,65,8,,,,,,,,,,,,,,,,,,,,,1.426,2.452,344.3002713000169,None,,,,,,,,,,,,,,,,,,,,344.8414567,345.3444643000839,0.5051271099364385,None,345.3277852999745,345.4445195000153,345.3277852999745,345.4445195000153,345.4278749000514,None,m,0,0.23100459994748235,345.4278749000514,None,,,,,,,p4,2022_Mar_02_1259,training+cueing,2021.1.4,59.97335986807705,
Self.png,You,Self ,c,1,11,21,91,,,,,0,0,0,0,,,,,5,6,66,0,,,,,,,,,,,,,,,,,,,,,1.69,2.434,345.78470620000735,None,,,,,,,,,,,,,,,,,,,,346.3413650000002,346.84564120008145,0.5079168800730258,None,346.82900350005366,346.9290549000725,346.82900350005366,346.9290549000725,346.9290549000725,None,m,0,0.33004260004963726,346.9290549000725,None,,,,,,,p4,2022_Mar_02_1259,training+cueing,2021.1.4,59.97335986807705,
Friend.png,Friend,Friend,c,2,12,22,92,,,,,0,0,0,0,,,,,5,7,67,4,,,,,,,,,,,,,,,,,,,,,1.58,2.088,347.3866305000847,None,,,,,,,,,,,,,,,,,,,,347.9293337999843,348.4301017000107,0.49948101001791656,1.0004223099676892,348.4133373000659,348.53083509998396,348.4133373000659,348.53083509998396,348.53083509998396,None,c,1,0.44072389998473227,348.53083509998396,None,,,,,,,p4,2022_Mar_02_1259,training+cueing,2021.1.4,59.97335986807705,
Stranger.png,Stranger,Stranger,c,3,13,23,93,,,,,0,0,0,0,,,,,5,8,68,11,,,,,,,,,,,,,,,,,,,,,1.401,1.585,349.10691460000817,None,,,,,,,,,,,,,,,,,,,,349.6465196000645,350.14794060005806,0.5019587100250646,None,350.13127090001944,350.24799449997954,350.13127090001944,350.24799449997954,350.2312869000016,None,c,1,0.35592570004519075,350.2312869000016,None,,,,,,,p4,2022_Mar_02_1259,training+cueing,2021.1.4,59.97335986807705,
Friend.png,You,Friend,m,1.2,14,24,94,,,,,0,0,0,0,,,,,5,9,69,3,,,,,,,,,,,,,,,,,,,,,1.407,1.314,350.7216235999949,None,,,,,,,,,,,,,,,,,,,,351.2616012999788,351.76575190003496,0.509328409912996,1.0096206099260598,351.7490766000701,351.84914230008144,351.7490766000701,351.84914230008144,351.84914230008144,None,m,1,0.4177752999821678,351.84914230008144,None,,,,,,,p4,2022_Mar_02_1259,training+cueing,2021.1.4,59.97335986807705,
Stranger.png,Friend,Stranger,m,2.3,17,27,97,,,,,0,0,0,0,,,,,5,10,70,7,,,,,,,,,,,,,,,,,,,,,1.703,1.674,352.38944790000096,None,,,,,,,,,,,,,,,,,,,,352.9322224999778,353.433617600007,0.5012522101169452,None,353.4169755000621,353.5336813000031,353.4169755000621,353.5336813000031,353.5336813000031,None,m,1,0.2051901000086218,353.5336813000031,None,,,,,,,p4,2022_Mar_02_1259,training+cueing,2021.1.4,59.97335986807705,
Self.png,Friend,Self ,m,2.1,16,26,96,,,,,0,0,0,0,,,,,5,11,71,1,,,,,,,,,,,,,,,,,,,,,1.788,1.317,353.8730698999716,None,,,,,,,,,,,,,,,,,,,,354.41301530005876,354.9180378000019,0.5107353099156171,None,354.9013619000325,355.01809859997593,354.9013619000325,355.01809859997593,355.0013748999918,None,c,0,0.1935704000061378,355.0013748999918,None,,,,,,,p4,2022_Mar_02_1259,training+cueing,2021.1.4,59.97335986807705,
Friend.png,You,Friend,m,1.2,14,24,94,,,,,0,0,0,0,,,,,6,0,72,3,,,,,,,,,,,,,,,,,,,,,1.544,1.958,355.3250174999703,None,,,,,,,,,,,,,,,,,,,,355.86458539997693,356.36907480005175,0.5066271100658923,1.0069299100432545,356.35240299999714,356.45244030002505,356.35240299999714,356.45244030002505,356.45244030002505,None,m,1,0.6144244000315666,356.45244030002505,None,,,,,,,p4,2022_Mar_02_1259,training+cueing,2021.1.4,59.97335986807705,
Stranger.png,You,Stranger,m,1.3,15,25,95,,,,,0,0,0,0,,,,,6,1,73,6,,,,,,,,,,,,,,,,,,,,,1.554,1.719,357.19214659999125,None,,,,,,,,,,,,,,,,,,,,357.73120699997526,358.2370630999794,0.5090276099508628,1.0111662099370733,358.21862240007613,358.32047590008005,358.21862240007613,358.32047590008005,358.32047590008005,None,c,0,0.4424682999961078,358.32047590008005,None,,,,,,,p4,2022_Mar_02_1259,training+cueing,2021.1.4,59.97335986807705,
Stranger.png,Stranger,Stranger,c,3,13,23,93,,,,,0,0,0,0,,,,,6,2,74,11,,,,,,,,,,,,,,,,,,,,,1.478,2.086,358.89434590004385,None,,,,,,,,,,,,,,,,,,,,359.4346462000394,359.9383905000286,0.507322010002099,1.0072765100048855,359.9219862000318,360.03837030008435,359.9219862000318,360.03837030008435,360.02170699997805,None,m,0,0.5012916999403387,360.02170699997805,None,,,,,,,p4,2022_Mar_02_1259,training+cueing,2021.1.4,59.97335986807705,
Friend.png,Friend,Friend,c,2,12,22,92,,,,,0,0,0,0,,,,,6,3,75,10,,,,,,,,,,,,,,,,,,,,,1.533,2.223,360.6456417000154,None,,,,,,,,,,,,,,,,,,,,361.18590659997426,361.68954440008383,0.5058195099700242,1.0061384099535644,361.67293590004556,361.78976529999636,361.67293590004556,361.78976529999636,361.773116700002,None,m,0,0.5580469999695197,361.773116700002,None,,,,,,,p4,2022_Mar_02_1259,training+cueing,2021.1.4,59.97335986807705,
Friend.png,Stranger,Friend,m,3.2,19,29,99,,,,,0,0,0,0,,,,,6,4,76,5,,,,,,,,,,,,,,,,,,,,,1.695,1.777,362.46639930002857,None,,,,,,,,,,,,,,,,,,,,363.0065552999731,363.507577600074,0.5016192100010812,1.0019089099951088,363.4909187000012,363.60761220008135,363.4909187000012,363.60761220008135,363.60761220008135,None,c,0,0.6433699999470264,363.60761220008135,None,,,,,,,p4,2022_Mar_02_1259,training+cueing,2021.1.4,59.97335986807705,
Self.png,You,Self ,c,1,11,21,91,,,,,0,0,0,0,,,,,6,5,77,9,,,,,,,,,,,,,,,,,,,,,1.637,1.588,364.38068539998494,None,,,,,,,,,,,,,,,,,,,,364.9357138000196,365.44227940007113,0.5138308800524101,1.0142489799764007,365.4256281000562,365.52568439999595,365.4256281000562,365.52568439999595,365.52568439999595,None,m,0,0.421246699988842,365.52568439999595,None,,,,,,,p4,2022_Mar_02_1259,training+cueing,2021.1.4,59.97335986807705,
Self.png,You,Self ,c,1,11,21,91,,,,,0,0,0,0,,,,,6,6,78,0,,,,,,,,,,,,,,,,,,,,,1.644,1.489,366.0822803999763,None,,,,,,,,,,,,,,,,,,,,366.6201804999728,367.1268337999936,0.5106661100871861,None,367.110187400016,367.2102222000249,367.110187400016,367.2102222000249,367.2102222000249,None,m,0,0.38478680001571774,367.2102222000249,None,,,,,,,p4,2022_Mar_02_1259,training+cueing,2021.1.4,59.97335986807705,
Self.png,Stranger,Self ,m,3.1,18,28,98,,,,,0,0,0,0,,,,,6,7,79,2,,,,,,,,,,,,,,,,,,,,,1.669,1.789,367.7169022000162,None,,,,,,,,,,,,,,,,,,,,368.25961619999725,368.76134169998113,0.5049661101074889,1.0052567101083696,368.74468720005825,368.8613882000791,368.74468720005825,368.8613882000791,368.8447581999935,None,c,0,0.4461805000901222,368.8447581999935,None,,,,,,,p4,2022_Mar_02_1259,training+cueing,2021.1.4,59.97335986807705,
Stranger.png,Friend,Stranger,m,2.3,17,27,97,,,,,0,0,0,0,,,,,6,8,80,7,,,,,,,,,,,,,,,,,,,,,1.649,2.161,369.41823279997334,None,,,,,,,,,,,,,,,,,,,,369.9588238999713,370.46257930004504,0.5043525099754333,1.0046271099708974,370.4459146000445,370.5626339999726,370.4459146000445,370.5626339999726,370.54592950001825,None,m,1,0.5689817999955267,370.54592950001825,None,,,,,,,p4,2022_Mar_02_1259,training+cueing,2021.1.4,59.97335986807705,
Stranger.png,Stranger,Stranger,c,3,13,23,93,,,,,0,0,0,0,,,,,6,9,81,8,,,,,,,,,,,,,,,,,,,,,1.481,1.513,371.25297650007997,None,,,,,,,,,,,,,,,,,,,,371.7933028000407,372.2971950999927,0.5064512100070715,None,372.2805833000457,372.39726040000096,372.2805833000457,372.39726040000096,372.38061110000126,None,m,0,0.3023707000538707,372.38061110000126,None,,,,,,,p4,2022_Mar_02_1259,training+cueing,2021.1.4,59.97335986807705,
Friend.png,Friend,Friend,c,2,12,22,92,,,,,0,0,0,0,,,,,6,10,82,4,,,,,,,,,,,,,,,,,,,,,1.584,1.901,372.8202556000324,None,,,,,,,,,,,,,,,,,,,,373.36102499999106,373.8649793000659,0.5076210099505261,1.00793740991503,373.84835240000393,373.9650546000339,373.84835240000393,373.9650546000339,373.94838940002955,None,m,0,0.6064754000399262,373.94838940002955,None,,,,,,,p4,2022_Mar_02_1259,training+cueing,2021.1.4,59.97335986807705,
Self.png,Friend,Self ,m,2.1,16,26,96,,,,,0,0,0,0,,,,,6,11,83,1,,,,,,,,,,,,,,,,,,,,,1.72,2.342,374.68856839998625,None,,,,,,,,,,,,,,,,,,,,375.22720219998155,375.73299589997623,0.5093781099421903,None,375.7163368000183,375.8330798000097,375.7163368000183,375.8330798000097,375.81639709998854,None,c,0,0.25853349990211427,375.81639709998854,None,,,,,,,p4,2022_Mar_02_1259,training+cueing,2021.1.4,59.97335986807705,
Self.png,You,Self ,c,1,11,21,91,,,,,0,0,0,0,,,,,7,0,84,0,,,,,,,,,,,,,,,,,,,,,1.794,1.409,376.20694910001475,None,,,,,,,,,,,,,,,,,,,,376.74854499998037,377.2508031000616,0.5054201099555939,None,377.23410680005327,377.3341433000751,377.23410680005327,377.3341433000751,377.3341433000751,None,m,0,0.2607628999976441,377.3341433000751,None,,,,,,,p4,2022_Mar_02_1259,training+cueing,2021.1.4,59.97335986807705,
Self.png,Friend,Self ,m,2.1,16,26,96,,,,,0,0,0,0,,,,,7,1,85,1,,,,,,,,,,,,,,,,,,,,,1.797,1.236,377.7243564000819,None,,,,,,,,,,,,,,,,,,,,378.2809312000172,378.78523759997915,0.5088342799572274,None,378.7685939000221,378.88532100000884,378.7685939000221,378.88532100000884,378.86864400003105,None,c,0,0.2622873999644071,378.86864400003105,None,,,,,,,p4,2022_Mar_02_1259,training+cueing,2021.1.4,59.97335986807705,
Stranger.png,Friend,Stranger,m,2.3,17,27,97,,,,,0,0,0,0,,,,,7,2,86,7,,,,,,,,,,,,,,,,,,,,,1.537,1.833,379.2578319000313,None,,,,,,,,,,,,,,,,,,,,379.7961198000703,380.3030031999806,0.5108741100411862,None,380.2863601000281,380.4031629000092,380.2863601000281,380.4031629000092,380.3863738999935,None,m,1,0.20059790008235723,380.3863738999935,None,,,,,,,p4,2022_Mar_02_1259,training+cueing,2021.1.4,59.97335986807705,
Stranger.png,Stranger,Stranger,c,3,13,23,93,,,,,0,0,0,0,,,,,7,3,87,8,,,,,,,,,,,,,,,,,,,,,1.738,1.297,380.7101738000056,None,,,,,,,,,,,,,,,,,,,,381.25253880000673,381.75405880005565,0.5042338098865002,None,381.7374238000484,381.8540989999892,381.7374238000484,381.8540989999892,381.83743559999857,None,c,1,0.17344180005602539,381.83743559999857,None,,,,,,,p4,2022_Mar_02_1259,training+cueing,2021.1.4,59.97335986807705,
Stranger.png,Stranger,Stranger,c,3,13,23,93,,,,,0,0,0,0,,,,,7,4,88,11,,,,,,,,,,,,,,,,,,,,,1.472,1.36,382.1441269000061,None,,,,,,,,,,,,,,,,,,,,382.6826139000477,383.1883924000431,0.5085319099016488,None,383.1717046999838,383.28920240001753,383.1717046999838,383.28920240001753,383.2717878000112,None,m,0,0.13114120007958263,383.2717878000112,None,,,,,,,p4,2022_Mar_02_1259,training+cueing,2021.1.4,59.97335986807705,
Stranger.png,You,Stranger,m,1.3,15,25,95,,,,,0,0,0,0,,,,,7,5,89,6,,,,,,,,,,,,,,,,,,,,,1.453,1.975,383.529084000038,None,,,,,,,,,,,,,,,,,,,,384.0710051000351,384.5727450000122,0.5041304100304842,None,384.5561131000286,384.65617770003155,384.5561131000286,384.65617770003155,384.65617770003155,None,m,1,0.20268929994199425,384.65617770003155,None,,,,,,,p4,2022_Mar_02_1259,training+cueing,2021.1.4,59.97335986807705,
Friend.png,You,Friend,m,1.2,14,24,94,,,,,0,0,0,0,,,,,7,6,90,3,,,,,,,,,,,,,,,,,,,,,1.778,2.474,384.9957272000611,None,,,,,,,,,,,,,,,,,,,,385.53564000001643,386.0404736000346,0.5101538099115714,1.0103993099182844,386.0238364000106,386.1238440000452,386.0238364000106,386.1238440000452,386.1238440000452,None,c,0,0.6550236999755725,386.1238440000452,None,,,,,,,p4,2022_Mar_02_1259,training+cueing,2021.1.4,59.97335986807705,
Self.png,You,Self ,c,1,11,21,91,,,,,0,0,0,0,,,,,7,7,91,9,,,,,,,,,,,,,,,,,,,,,1.684,1.592,386.91436070005875,None,,,,,,,,,,,,,,,,,,,,387.45156920002773,387.9585608000634,0.5110000100685284,1.0112599100684747,387.9418903000187,388.0418853000738,387.9418903000187,388.0418853000738,388.0418853000738,None,m,0,0.6571259999182075,388.0418853000738,None,,,,,,,p4,2022_Mar_02_1259,training+cueing,2021.1.4,59.97335986807705,
Friend.png,Friend,Friend,c,2,12,22,92,,,,,0,0,0,0,,,,,7,8,92,4,,,,,,,,,,,,,,,,,,,,,1.702,1.351,388.8325547000859,None,,,,,,,,,,,,,,,,,,,,389.38005460007116,389.89327710005455,0.5101230099098757,1.0104038099525496,389.87662550003733,389.99331390007865,389.87662550003733,389.99331390007865,389.97663090005517,None,c,1,0.41825310001149774,389.97663090005517,None,,,,,,,p4,2022_Mar_02_1259,training+cueing,2021.1.4,59.97335986807705,
Friend.png,Friend,Friend,c,2,12,22,92,,,,,0,0,0,0,,,,,7,9,93,10,,,,,,,,,,,,,,,,,,,,,1.6,1.879,390.53313780005556,None,,,,,,,,,,,,,,,,,,,,391.0719968000194,391.5778288000729,0.5107794100185856,1.0110634099692106,391.56114670005627,391.6778749000514,391.56114670005627,391.6778749000514,391.66116800007876,None,m,0,0.7657187000149861,391.66116800007876,None,,,,,,,p4,2022_Mar_02_1259,training+cueing,2021.1.4,59.97335986807705,
Friend.png,Stranger,Friend,m,3.2,19,29,99,,,,,0,0,0,0,,,,,7,10,94,5,,,,,,,,,,,,,,,,,,,,,1.798,2.159,392.55178990005516,None,,,,,,,,,,,,,,,,,,,,393.09282959997654,393.5959125000518,0.5043363099684939,1.0046225099358708,393.5792758000316,393.6960036000237,393.5792758000316,393.6960036000237,393.67923540004995,None,c,0,1.3556532999500632,393.67923540004995,None,,,,,,,p4,2022_Mar_02_1259,training+cueing,2021.1.4,59.97335986807705,
Self.png,Stranger,Self ,m,3.1,18,28,98,,,,,0,0,0,0,,,,,7,11,95,2,,,,,,,,,,,,,,,,,,,,,1.402,1.662,395.16992150002625,None,,,,,,,,,,,,,,,,,,,,395.708455300075,396.2144882000284,0.5109847099520266,1.0114339098799974,396.1978415000485,396.31448120006826,396.1978415000485,396.31448120006826,396.2978671999881,None,m,1,0.9290911999996752,396.2978671999881,None,,,,,,,p4,2022_Mar_02_1259,training+cueing,2021.1.4,59.97335986807705,
Friend.png,You,Friend,m,1.2,14,24,94,,,,,0,0,0,0,,,,,8,0,96,3,,,,,,,,,,,,,,,,,,,,,1.584,2.315,397.3557601000648,None,,,,,,,,,,,,,,,,,,,,397.8950643000426,398.3994157999987,0.5061610100092366,1.0064367100130767,398.3827365000034,398.4827570000198,398.3827365000034,398.4827570000198,398.4827570000198,None,m,1,1.096158100059256,398.4827570000198,None,,,,,,,p4,2022_Mar_02_1259,training+cueing,2021.1.4,59.97335986807705,
Stranger.png,Friend,Stranger,m,2.3,17,27,97,,,,,0,0,0,0,,,,,8,1,97,7,,,,,,,,,,,,,,,,,,,,,1.754,2.142,399.7063285000622,None,,,,,,,,,,,,,,,,,,,,400.2482385999756,400.7510774000548,0.5060219099977985,1.0063303100178018,400.7344156000763,400.8511403000448,400.7344156000763,400.8511403000448,400.83445980004035,None,c,0,0.8405253000091761,400.83445980004035,None,,,,,,,p4,2022_Mar_02_1259,training+cueing,2021.1.4,59.97335986807705,
Stranger.png,Stranger,Stranger,c,3,13,23,93,,,,,0,0,0,0,,,,,8,2,98,11,,,,,,,,,,,,,,,,,,,,,1.726,1.386,401.80705270008184,None,,,,,,,,,,,,,,,,,,,,402.34698600007687,402.8526006999891,0.5108170099556446,1.0111036099260673,402.8359482000815,402.952646400081,402.8359482000815,402.952646400081,402.935930000036,None,m,0,0.9469557000556961,402.935930000036,None,,,,,,,p4,2022_Mar_02_1259,training+cueing,2021.1.4,59.97335986807705,
Self.png,Friend,Self ,m,2.1,16,26,96,,,,,0,0,0,0,,,,,8,3,99,1,,,,,,,,,,,,,,,,,,,,,1.77,1.902,404.0102614000207,None,,,,,,,,,,,,,,,,,,,,404.5509642000543,405.0541795999743,0.5052606099052355,1.0055599099723622,405.0375580000691,405.15430990001187,405.0375580000691,405.15430990001187,405.1375817999942,None,m,1,0.4892408000305295,405.1375817999942,None,,,,,,,p4,2022_Mar_02_1259,training+cueing,2021.1.4,59.97335986807705,
Stranger.png,Stranger,Stranger,c,3,13,23,93,,,,,0,0,0,0,,,,,8,4,100,8,,,,,,,,,,,,,,,,,,,,,1.579,1.379,405.76416850008536,None,,,,,,,,,,,,,,,,,,,,406.30511080008,406.80550130002666,0.500358910067007,None,406.78883129998576,406.9055275999708,406.78883129998576,406.9055275999708,406.9055275999708,None,c,1,0.24126870010513812,406.9055275999708,None,,,,,,,p4,2022_Mar_02_1259,training+cueing,2021.1.4,59.97335986807705,
Stranger.png,You,Stranger,m,1.3,15,25,95,,,,,0,0,0,0,,,,,8,5,101,6,,,,,,,,,,,,,,,,,,,,,1.438,1.647,407.2789830000838,None,,,,,,,,,,,,,,,,,,,,407.81958820007276,408.3232274000766,0.5066350100096315,None,408.306606200058,408.40663049998693,408.306606200058,408.40663049998693,408.40663049998693,None,m,1,0.21220370009541512,408.40663049998693,None,,,,,,,p4,2022_Mar_02_1259,training+cueing,2021.1.4,59.97335986807705,
Friend.png,Friend,Friend,c,2,12,22,92,,,,,0,0,0,0,,,,,8,6,102,4,,,,,,,,,,,,,,,,,,,,,1.522,2.212,408.74578290001955,None,,,,,,,,,,,,,,,,,,,,409.2868634000188,409.7909629000351,0.5055966100189835,None,409.7743088999996,409.8909572000848,409.7743088999996,409.8909572000848,409.87430750008207,None,c,1,0.36054129991680384,409.87430750008207,None,,,,,,,p4,2022_Mar_02_1259,training+cueing,2021.1.4,59.97335986807705,
Friend.png,Stranger,Friend,m,3.2,19,29,99,,,,,0,0,0,0,,,,,8,7,103,5,,,,,,,,,,,,,,,,,,,,,1.643,2.212,410.3644993000198,None,,,,,,,,,,,,,,,,,,,,410.9063577000052,411.4087739000097,0.5050290101207793,None,411.39211510005407,411.50882270000875,411.39211510005407,411.50882270000875,411.49212920002174,None,m,1,0.23078530002385378,411.49212920002174,None,,,,,,,p4,2022_Mar_02_1259,training+cueing,2021.1.4,59.97335986807705,
Friend.png,Friend,Friend,c,2,12,22,92,,,,,0,0,0,0,,,,,8,8,104,10,,,,,,,,,,,,,,,,,,,,,1.467,1.536,411.84810040006414,None,,,,,,,,,,,,,,,,,,,,412.3988515000092,412.90996650001034,0.5045429099118337,1.004820209927857,412.8933315000031,413.01001019997057,412.8933315000031,413.01001019997057,412.9933399000438,None,None,0,,412.9933399000438,None,,,,,,,p4,2022_Mar_02_1259,training+cueing,2021.1.4,59.97335986807705,
Self.png,You,Self ,c,1,11,21,91,,,,,0,0,0,0,,,,,8,9,105,0,,,,,,,,,,,,,,,,,,,,,1.492,1.593,414.5649854000658,None,,,,,,,,,,,,,,,,,,,,415.10572840005625,415.61182870005723,0.511487909941934,None,415.59515269997064,415.6952139000641,415.59515269997064,415.6952139000641,415.6952139000641,None,c,1,0.29963459994178265,415.6952139000641,None,,,,,,,p4,2022_Mar_02_1259,training+cueing,2021.1.4,59.97335986807705,
Self.png,Stranger,Self ,m,3.1,18,28,98,,,,,0,0,0,0,,,,,8,10,106,2,,,,,,,,,,,,,,,,,,,,,1.499,2.097,416.1188697000034,None,,,,,,,,,,,,,,,,,,,,416.66120089998003,417.1629457999952,0.5045982099836692,1.0051183099858463,417.1462295000674,417.2629725000588,417.1462295000674,417.2629725000588,417.24626699998043,None,c,0,0.41256430000066757,417.24626699998043,None,,,,,,,p4,2022_Mar_02_1259,training+cueing,2021.1.4,59.97335986807705,
Self.png,You,Self ,c,1,11,21,91,,,,,0,0,0,0,,,,,8,11,107,9,,,,,,,,,,,,,,,,,,,,,1.584,1.647,417.7868690000614,None,,,,,,,,,,,,,,,,,,,,418.325751000084,418.83077860006597,0.507096009911038,1.0073913099477068,418.8141493999865,418.91435289999936,418.8141493999865,418.91435289999936,418.91435289999936,None,c,1,0.6964762000134215,418.91435289999936,None,,,,,,,p4,2022_Mar_02_1259,training+cueing,2021.1.4,59.97335986807705,
Self.png,Friend,Self ,m,2.1,16,26,96,,,,,0,0,0,0,,,,,9,0,108,1,,,,,,,,,,,,,,,,,,,,,1.58,2.123,419.7380000000121,None,,,,,,,,,,,,,,,,,,,,420.27666580001824,420.78219990001526,0.5112688099034131,1.0115430098958313,420.7655671000248,420.8822542000562,420.7655671000248,420.8822542000562,420.8655812999932,None,m,1,0.4093339000828564,420.8655812999932,None,,,,,,,p4,2022_Mar_02_1259,training+cueing,2021.1.4,59.97335986807705,
Friend.png,Friend,Friend,c,2,12,22,92,,,,,0,0,0,0,,,,,9,1,109,10,,,,,,,,,,,,,,,,,,,,,1.426,2.341,421.4059499000432,None,,,,,,,,,,,,,,,,,,,,421.9537261000369,422.4667645000154,0.5093154100468382,1.0096453099977225,422.4500584000489,422.5667561000446,422.4500584000489,422.5667561000446,422.55010950006545,None,m,0,1.0927789999404922,422.55010950006545,None,,,,,,,p4,2022_Mar_02_1259,training+cueing,2021.1.4,59.97335986807705,
Self.png,You,Self ,c,1,11,21,91,,,,,0,0,0,0,,,,,9,2,110,9,,,,,,,,,,,,,,,,,,,,,1.707,1.923,423.7742411000654,None,,,,,,,,,,,,,,,,,,,,424.31462299998384,424.8184647000162,0.5065419101156294,1.0067749100271612,424.8018001000164,424.90185210003983,424.8018001000164,424.90185210003983,424.90185210003983,None,c,1,0.5009112999541685,424.90185210003983,None,,,,,,,p4,2022_Mar_02_1259,training+cueing,2021.1.4,59.97335986807705,
Friend.png,Stranger,Friend,m,3.2,19,29,99,,,,,0,0,0,0,,,,,9,3,111,5,,,,,,,,,,,,,,,,,,,,,1.43,1.691,425.5248413999798,None,,,,,,,,,,,,,,,,,,,,426.0654255000409,426.56969460006803,0.5090747099602595,1.0093713100068271,426.55304959998466,426.66974010004196,426.55304959998466,426.66974010004196,426.65306829998735,None,m,1,0.42981730005703866,426.65306829998735,None,,,,,,,p4,2022_Mar_02_1259,training+cueing,2021.1.4,59.97335986807705,
Stranger.png,Stranger,Stranger,c,3,13,23,93,,,,,0,0,0,0,,,,,9,4,112,11,,,,,,,,,,,,,,,,,,,,,1.416,2.242,427.2102402000455,None,,,,,,,,,,,,,,,,,,,,427.74748350004666,428.2542811000021,0.5111125099938363,1.0113415099913254,428.23766089999117,428.3543132999912,428.23766089999117,428.3543132999912,428.3376500000013,None,m,0,1.1932286000810564,428.3376500000013,None,,,,,,,p4,2022_Mar_02_1259,training+cueing,2021.1.4,59.97335986807705,
Stranger.png,You,Stranger,m,1.3,15,25,95,,,,,0,0,0,0,,,,,9,5,113,6,,,,,,,,,,,,,,,,,,,,,1.577,1.979,429.6621216000058,None,,,,,,,,,,,,,,,,,,,,430.20171170006506,430.70601089997217,0.5079021099954844,1.0081716099521145,430.6894083999796,430.78942050004844,430.6894083999796,430.78942050004844,430.78942050004844,None,m,1,0.7893661999842152,430.78942050004844,None,,,,,,,p4,2022_Mar_02_1259,training+cueing,2021.1.4,59.97335986807705,
Self.png,You,Self ,c,1,11,21,91,,,,,0,0,0,0,,,,,9,6,114,0,,,,,,,,,,,,,,,,,,,,,1.656,1.599,431.71331220003776,None,,,,,,,,,,,,,,,,,,,,432.25202160002664,432.7576855000807,0.5108519099885598,1.01112140994519,432.74088830000255,432.8409062999999,432.74088830000255,432.8409062999999,432.8409062999999,None,c,1,0.6418875000672415,432.8409062999999,None,,,,,,,p4,2022_Mar_02_1259,training+cueing,2021.1.4,59.97335986807705,
Friend.png,Friend,Friend,c,2,12,22,92,,,,,0,0,0,0,,,,,9,7,115,4,,,,,,,,,,,,,,,,,,,,,1.723,1.23,433.6144475999754,None,,,,,,,,,,,,,,,,,,,,434.1526646000566,434.65886950003915,0.5096863100770861,1.0099820100003853,434.64223830006085,434.75890959997196,434.64223830006085,434.75890959997196,434.7422321999911,None,m,0,0.8366163999307901,434.7422321999911,None,,,,,,,p4,2022_Mar_02_1259,training+cueing,2021.1.4,59.97335986807705,
Self.png,Stranger,Self ,m,3.1,18,28,98,,,,,0,0,0,0,,,,,9,8,116,2,,,,,,,,,,,,,,,,,,,,,1.752,1.712,435.7157570000272,None,,,,,,,,,,,,,,,,,,,,436.25799269997515,436.76046410005074,0.5047234100056812,1.0049873100360855,436.74374669999816,436.8604785000207,436.74374669999816,436.8604785000207,436.843760900083,None,m,1,0.7191084999358281,436.843760900083,None,,,,,,,p4,2022_Mar_02_1259,training+cueing,2021.1.4,59.97335986807705,
Stranger.png,Stranger,Stranger,c,3,13,23,93,,,,,0,0,0,0,,,,,9,9,117,8,,,,,,,,,,,,,,,,,,,,,1.798,1.89,437.70102689997293,None,,,,,,,,,,,,,,,,,,,,438.2376300999895,438.7451546000084,0.5146886099828407,None,438.7285115000559,438.84531600004993,438.7285115000559,438.84531600004993,438.82862759998534,None,c,1,0.38224300008732826,438.82862759998534,None,,,,,,,p4,2022_Mar_02_1259,training+cueing,2021.1.4,59.97335986807705,
Stranger.png,Friend,Stranger,m,2.3,17,27,97,,,,,0,0,0,0,,,,,9,10,118,7,,,,,,,,,,,,,,,,,,,,,1.793,1.282,439.3353703999892,None,,,,,,,,,,,,,,,,,,,,439.8760453000432,440.37966860004235,0.5060706100193784,1.0063754100119695,440.3630455000093,440.4797120000003,440.3630455000093,440.4797120000003,440.46304679999594,None,m,1,0.6678226001095027,440.46304679999594,None,,,,,,,p4,2022_Mar_02_1259,training+cueing,2021.1.4,59.97335986807705,
Friend.png,You,Friend,m,1.2,14,24,94,,,,,0,0,0,0,,,,,9,11,119,3,,,,,,,,,,,,,,,,,,,,,1.553,2.201,441.2536524999887,None,,,,,,,,,,,,,,,,,,,,441.79473109997343,442.2977531000506,0.5065919100306928,None,442.28111510002054,442.38111980003305,442.28111510002054,442.38111980003305,442.38111980003305,None,m,1,0.253943599993363,442.38111980003305,None,,,,,,,p4,2022_Mar_02_1259,training+cueing,2021.1.4,59.97335986807705,
,,,,,,,,,,,,0,0,0,0,,,,,,,,,,,,,,,,,,,,,,,,,,,,,,,,,,,,,,,,,,,,,,,,,,,,,,,,,,,,,,,,,,,0.014511759974993765,0.5126490599941462,,,,,p4,2022_Mar_02_1259,training+cueing,2021.1.4,59.97335986807705,
Stranger.png,Friend,Stranger,m,2.3,17,27,97,,,,,1,0,1,0,0,0,0,7,,,,,,,,,,,,,,,,,443.28170549997594,None,space,0.5994902999373153,2.010384870111011,None,445.8838984000031,None,1.644,1.641,448.89732690004166,None,449.44496930006426,449.95327080006246,449.9366240000818,450.0532836000202,449.9366240000818,450.0532836000202,450.03662620007526,None,None,0,450.03662620007526,None,451.68789729999844,None,,,,,,,,,,,,,,,,,,,,,,,,,,,p4,2022_Mar_02_1259,training+cueing,2021.1.4,59.97335986807705,
Self.png,You,Self ,c,1,11,21,91,,,,,1,0,1,0,0,1,1,9,,,,,,,,,,,,,,,,,,,,,,,,,1.787,1.868,452.088150100084,None,452.6195240999805,453.1221849999856,453.1055356999859,453.20556050003506,453.1055356999859,453.20556050003506,453.20556050003506,None,None,0,453.20556050003506,None,455.0068969000131,None,,,,,,,,,,,,,,,,,,,,,,,,,,,p4,2022_Mar_02_1259,training+cueing,2021.1.4,59.97335986807705,
Stranger.png,Stranger,Stranger,c,3,13,23,93,,,,,1,0,1,0,0,2,2,11,,,,,,,,,,,,,,,,,,,,,,,,,1.558,2.415,455.4075927999802,None,455.9464260999812,456.45793130004313,456.4412953000283,456.5579882999882,456.4412953000283,456.5579882999882,456.54130140005145,None,None,0,456.54130140005145,None,458.1092024000827,None,,,,,,,,,,,,,,,,,,,,,,,,,,,p4,2022_Mar_02_1259,training+cueing,2021.1.4,59.97335986807705,
Friend.png,Friend,Friend,c,2,12,22,92,,,,,1,0,1,0,0,3,3,4,,,,,,,,,,,,,,,,,,,,,,,,,1.738,1.681,458.5095383999869,None,459.04178339999635,459.54350650007837,459.526836700039,459.64356300001964,459.526836700039,459.64356300001964,459.62683040008415,None,c,1,459.62683040008415,None,461.31101760000456,None,1.6639500999590382,,,,,,,,,,,,,,,,,,,,,,,,,,p4,2022_Mar_02_1259,training+cueing,2021.1.4,59.97335986807705,
Friend.png,Stranger,Friend,m,3.2,19,29,99,,,,,1,0,1,0,0,4,4,5,,,,,,,,,,,,,,,,,,,,,,,,,1.605,1.577,461.7119065000443,None,462.24379870004486,462.7458006000379,462.7291402000701,462.8459544000216,462.7291402000701,462.8459544000216,462.82919319998473,None,c,0,462.82919319998473,None,463.32982500002254,None,0.4776067000348121,,,,,,,,,,,,,,,,,,,,,,,,,,p4,2022_Mar_02_1259,training+cueing,2021.1.4,59.97335986807705,
Friend.png,You,Friend,m,1.2,14,24,94,,,,,1,0,1,0,0,5,5,3,,,,,,,,,,,,,,,,,,,,,,,,,1.457,1.241,463.72999720007647,None,464.2622835000511,464.7639335000422,464.7473613000475,464.84730760008097,464.7473613000475,464.84730760008097,464.84730760008097,None,None,0,464.84730760008097,None,466.31507580005564,None,,,,,,,,,,,,,,,,,,,,,,,,,,,p4,2022_Mar_02_1259,training+cueing,2021.1.4,59.97335986807705,
Friend.png,Friend,Friend,c,2,12,22,92,,,,,1,0,1,0,0,6,6,10,,,,,,,,,,,,,,,,,,,,,,,,,1.404,2.443,466.7153525999747,None,467.260867999983,467.76613820006605,467.7494796999963,467.8661634000018,467.7494796999963,467.8661634000018,467.8494837000035,None,m,0,467.8494837000035,None,468.7501891000429,None,0.8812662999844179,,,,,,,,,,,,,,,,,,,,,,,,,,p4,2022_Mar_02_1259,training+cueing,2021.1.4,59.97335986807705,
Self.png,Stranger,Self ,m,3.1,18,28,98,,,,,1,0,1,0,0,7,7,2,,,,,,,,,,,,,,,,,,,,,,,,,1.711,1.946,469.15060190006625,None,469.6886743999785,470.20121049997397,470.1845221000258,470.3012461999897,470.1845221000258,470.3012461999897,470.2845421000384,None,None,0,470.2845421000384,None,472.0027267000405,None,,,,,,,,,,,,,,,,,,,,,,,,,,,p4,2022_Mar_02_1259,training+cueing,2021.1.4,59.97335986807705,
Self.png,You,Self ,c,1,11,21,91,,,,,1,0,1,0,0,8,8,0,,,,,,,,,,,,,,,,,,,,,,,,,1.442,1.477,472.4029691000469,None,472.94733690004796,473.4535578000359,473.43688440008555,473.5368931000121,473.43688440008555,473.5368931000121,473.5368931000121,None,m,0,473.5368931000121,None,473.75382460001856,None,0.20187480002641678,,,,,,,,,,,,,,,,,,,,,,,,,,p4,2022_Mar_02_1259,training+cueing,2021.1.4,59.97335986807705,
Stranger.png,Stranger,Stranger,c,3,13,23,93,,,,,1,0,1,0,0,9,9,8,,,,,,,,,,,,,,,,,,,,,,,,,1.602,1.724,474.154098900035,None,474.6836202000268,475.1881150000263,475.1714365000371,475.28831540001556,475.1714365000371,475.28831540001556,475.2716347000096,None,c,1,475.2716347000096,None,475.54035160003696,None,0.24324580002576113,,,,,,,,,,,,,,,,,,,,,,,,,,p4,2022_Mar_02_1259,training+cueing,2021.1.4,59.97335986807705,
Self.png,Friend,Self ,m,2.1,16,26,96,,,,,1,0,1,0,0,10,10,1,,,,,,,,,,,,,,,,,,,,,,,,,1.698,1.685,475.9555474000517,None,476.483733400004,476.9894460000796,476.9727537999861,477.0894847000018,476.9727537999861,477.0894847000018,477.0727706999751,None,m,1,477.0727706999751,None,477.322978500044,None,0.2179986999835819,,,,,,,,,,,,,,,,,,,,,,,,,,p4,2022_Mar_02_1259,training+cueing,2021.1.4,59.97335986807705,
Stranger.png,You,Stranger,m,1.3,15,25,95,,,,,1,0,1,0,0,11,11,6,,,,,,,,,,,,,,,,,,,,,,,,,1.472,1.69,477.72329180000816,None,478.25963230000343,478.7740159999812,478.75736649998,478.85741220007185,478.75736649998,478.85741220007185,478.85741220007185,None,c,0,478.85741220007185,None,479.4249945000047,None,0.5452893999172375,,,,,,,,,,,,,,,,,,,,,,,,,,p4,2022_Mar_02_1259,training+cueing,2021.1.4,59.97335986807705,
Self.png,You,Self ,c,1,11,21,91,,,,,1,0,1,0,,,,,0,0,0,9,,,,,,,,,,,,,,,,,,,546.9901262000203,None,1.493,2.27,550.5077796999831,None,,,,,,,,,,,,,,,,479.8248263000278,None,0.01468826993368566,0.5130636699032038,551.0439075999893,551.5432612000732,0.5142141099786386,1.014430609997362,551.5432612000732,551.6432366999798,551.5432612000732,551.6432366999798,551.6432366999798,None,c,1,0.8474042000016198,551.6432366999798,None,,,,,,,p4,2022_Mar_02_1259,training+cueing,2021.1.4,59.97335986807705,
Friend.png,Stranger,Friend,m,3.2,19,29,99,,,,,1,0,1,0,,,,,0,1,1,5,,,,,,,,,,,,,,,,,,,,,1.49,2.415,552.6176415000809,None,,,,,,,,,,,,,,,,,,,,553.1695191999897,553.6781078000786,0.500468609854579,1.0006914099212736,553.6614749999717,553.7780839999905,553.6614749999717,553.7780839999905,553.7780839999905,None,m,1,0.6325263000326231,553.7780839999905,None,,,,,,,p4,2022_Mar_02_1259,training+cueing,2021.1.4,59.97335986807705,
Self.png,Friend,Self ,m,2.1,16,26,96,,,,,1,0,1,0,,,,,0,2,2,1,,,,,,,,,,,,,,,,,,,,,1.744,1.998,554.5347617000807,None,,,,,,,,,,,,,,,,,,,,555.098179899971,555.6128054000437,0.5106001798994839,1.0108935799216852,555.5961616999703,555.7128846000414,555.5961616999703,555.7128846000414,555.6961780000711,None,m,1,0.8425175999291241,555.6961780000711,None,,,,,,,p4,2022_Mar_02_1259,training+cueing,2021.1.4,59.97335986807705,
Friend.png,You,Friend,m,1.2,14,24,94,,,,,1,0,1,0,,,,,0,3,3,3,,,,,,,,,,,,,,,,,,,,,1.74,2.412,556.6701994000468,None,,,,,,,,,,,,,,,,,,,,557.2085496999789,557.7143300999887,0.5119936099508777,1.0122886099852622,557.6976697000209,557.7977169000078,557.6976697000209,557.7977169000078,557.7977169000078,None,c,0,0.42085140000563115,557.7977169000078,None,,,,,,,p4,2022_Mar_02_1259,training+cueing,2021.1.4,59.97335986807705,
Friend.png,Friend,Friend,c,2,12,22,92,,,,,1,0,1,0,,,,,0,4,4,10,,,,,,,,,,,,,,,,,,,,,1.517,2.461,558.3549132000189,None,,,,,,,,,,,,,,,,,,,,558.894607400056,559.3989087999798,0.5065797100542113,None,559.3822404000675,559.4989282999886,559.3822404000675,559.4989282999886,559.4822598000756,None,m,0,0.19239169999491423,559.4822598000756,None,,,,,,,p4,2022_Mar_02_1259,training+cueing,2021.1.4,59.97335986807705,
Stranger.png,Friend,Stranger,m,2.3,17,27,97,,,,,1,0,1,0,,,,,0,5,5,7,,,,,,,,,,,,,,,,,,,,,1.523,1.398,559.8060337000061,None,,,,,,,,,,,,,,,,,,,,560.3436410999857,560.8499225000851,0.5117904099170119,1.0121032098541036,560.8332968000323,560.9499843000667,560.8332968000323,560.9499843000667,560.9333172000479,None,m,1,1.0293669999809936,560.9333172000479,None,,,,,,,p4,2022_Mar_02_1259,training+cueing,2021.1.4,59.97335986807705,
Self.png,Stranger,Self ,m,3.1,18,28,98,,,,,1,0,1,0,,,,,0,6,6,2,,,,,,,,,,,,,,,,,,,,,1.537,1.565,562.090692400001,None,,,,,,,,,,,,,,,,,,,,562.6298224000493,563.1349332000827,0.5104017100529745,1.0106924100546166,563.1182616000297,563.2349796000635,563.1182616000297,563.2349796000635,563.218271000078,None,c,0,0.968344199936837,563.218271000078,None,,,,,,,p4,2022_Mar_02_1259,training+cueing,2021.1.4,59.97335986807705,
Stranger.png,Stranger,Stranger,c,3,13,23,93,,,,,1,0,1,0,,,,,0,7,7,8,,,,,,,,,,,,,,,,,,,,,1.75,2.072,564.3080377000151,None,,,,,,,,,,,,,,,,,,,,564.8469900999917,565.3532090000808,0.5095558100147173,1.009814010001719,565.3365794999991,565.45324599999,565.3365794999991,565.45324599999,565.4365629000822,None,c,1,0.7342447999399155,565.4365629000822,None,,,,,,,p4,2022_Mar_02_1259,training+cueing,2021.1.4,59.97335986807705,
Friend.png,Friend,Friend,c,2,12,22,92,,,,,1,0,1,0,,,,,0,8,8,4,,,,,,,,,,,,,,,,,,,,,1.635,1.787,566.2929445999907,None,,,,,,,,,,,,,,,,,,,,566.8323375000618,567.3379500000738,0.5102753100218251,1.0113257099874318,567.32127700001,567.4379984000698,567.32127700001,567.4379984000698,567.42132329999,None,m,0,0.877304199966602,567.42132329999,None,,,,,,,p4,2022_Mar_02_1259,training+cueing,2021.1.4,59.97335986807705,
Self.png,You,Self ,c,1,11,21,91,,,,,1,0,1,0,,,,,0,9,9,0,,,,,,,,,,,,,,,,,,,,,1.415,1.305,568.4299183000112,None,,,,,,,,,,,,,,,,,,,,568.9711730000563,569.4728549000574,0.5032341099577025,1.003524909960106,569.4561704000225,569.5562055000337,569.4561704000225,569.5562055000337,569.5562055000337,None,c,1,0.7583839000435546,569.5562055000337,None,,,,,,,p4,2022_Mar_02_1259,training+cueing,2021.1.4,59.97335986807705,
Stranger.png,You,Stranger,m,1.3,15,25,95,,,,,1,0,1,0,,,,,0,10,10,6,,,,,,,,,,,,,,,,,,,,,1.796,1.584,570.4467224000255,None,,,,,,,,,,,,,,,,,,,,570.9837989000371,571.4916751000565,0.5133210100466385,1.013373410096392,571.4744437000481,571.5744623000501,571.4744437000481,571.5744623000501,571.5744623000501,None,c,0,0.5961878999369219,571.5744623000501,None,,,,,,,p4,2022_Mar_02_1259,training+cueing,2021.1.4,59.97335986807705,
Stranger.png,Stranger,Stranger,c,3,13,23,93,,,,,1,0,1,0,,,,,0,11,11,11,,,,,,,,,,,,,,,,,,,,,1.714,1.221,572.2981202000519,None,,,,,,,,,,,,,,,,,,,,572.8391103000613,573.3423110999865,0.5052205099491403,1.0055863099405542,573.3256175999995,573.4423580999719,573.3256175999995,573.4423580999719,573.425642700051,None,m,0,0.5370021000271663,573.425642700051,None,,,,,,,p4,2022_Mar_02_1259,training+cueing,2021.1.4,59.97335986807705,
Self.png,You,Self ,c,1,11,21,91,,,,,1,0,1,0,,,,,1,0,12,0,,,,,,,,,,,,,,,,,,,,,1.439,2.151,574.0994391000131,None,,,,,,,,,,,,,,,,,,,,574.6395273000235,575.1436202999903,0.5055343100102618,1.005791509989649,575.1269446000224,575.2269196000416,575.1269446000224,575.2269196000416,575.2269196000416,None,m,0,0.6077471999451518,575.2269196000416,None,,,,,,,p4,2022_Mar_02_1259,training+cueing,2021.1.4,59.97335986807705,
Friend.png,Friend,Friend,c,2,12,22,92,,,,,1,0,1,0,,,,,1,1,13,10,,,,,,,,,,,,,,,,,,,,,1.71,1.929,575.9675956000574,None,,,,,,,,,,,,,,,,,,,,576.5068323999876,577.0115994000807,0.5103533099172637,1.0106219099834561,576.9949640000705,577.1116161000682,576.9949640000705,577.1116161000682,577.0949510000646,None,m,0,0.8196900000330061,577.0949510000646,None,,,,,,,p4,2022_Mar_02_1259,training+cueing,2021.1.4,59.97335986807705,
Friend.png,You,Friend,m,1.2,14,24,94,,,,,1,0,1,0,,,,,1,2,14,3,,,,,,,,,,,,,,,,,,,,,1.758,1.86,578.0522019000491,None,,,,,,,,,,,,,,,,,,,,578.5928302999819,579.0964629000518,0.5068377099232748,1.0070958100259304,579.0797978000483,579.1797941999976,579.0797978000483,579.1797941999976,579.1797941999976,None,m,1,0.846806799992919,579.1797941999976,None,,,,,,,p4,2022_Mar_02_1259,training+cueing,2021.1.4,59.97335986807705,
Self.png,Friend,Self ,m,2.1,16,26,96,,,,,1,0,1,0,,,,,1,3,15,1,,,,,,,,,,,,,,,,,,,,,1.682,2.436,580.1528750000289,None,,,,,,,,,,,,,,,,,,,,580.6939884000458,581.1979876999976,0.5059061100473627,1.006252310005948,581.1812816000311,581.2980140000582,581.1812816000311,581.2980140000582,581.281300200033,None,c,0,0.9532999000512064,581.281300200033,None,,,,,,,p4,2022_Mar_02_1259,training+cueing,2021.1.4,59.97335986807705,
Friend.png,Stranger,Friend,m,3.2,19,29,99,,,,,1,0,1,0,,,,,1,4,16,5,,,,,,,,,,,,,,,,,,,,,1.486,1.617,582.3713633000152,None,,,,,,,,,,,,,,,,,,,,582.9141384999966,583.4162567000603,0.5038304100744426,1.0040876100538298,583.399572400027,583.5162413000362,583.399572400027,583.5162413000362,583.499587600003,None,m,1,0.8469854000722989,583.499587600003,None,,,,,,,p4,2022_Mar_02_1259,training+cueing,2021.1.4,59.97335986807705,
Self.png,You,Self ,c,1,11,21,91,,,,,1,0,1,0,,,,,1,5,17,9,,,,,,,,,,,,,,,,,,,,,1.703,2.484,584.4739104000619,None,,,,,,,,,,,,,,,,,,,,585.0138893000549,585.5177740000654,0.5071276099188253,1.0074479100294411,585.5010799000738,585.601121100015,585.5010799000738,585.601121100015,585.601121100015,None,c,1,0.6974571000318974,585.601121100015,None,,,,,,,p4,2022_Mar_02_1259,training+cueing,2021.1.4,59.97335986807705,
Self.png,Stranger,Self ,m,3.1,18,28,98,,,,,1,0,1,0,,,,,1,6,18,2,,,,,,,,,,,,,,,,,,,,,1.796,1.588,586.4241340999724,None,,,,,,,,,,,,,,,,,,,,586.9804656000342,587.4858952000504,0.5104422800941393,1.0105313800740987,587.4693078000564,587.5858932000119,587.4693078000564,587.5858932000119,587.5691805999959,None,m,1,0.7294053001096472,587.5691805999959,None,,,,,,,p4,2022_Mar_02_1259,training+cueing,2021.1.4,59.97335986807705,
Stranger.png,Stranger,Stranger,c,3,13,23,93,,,,,1,0,1,0,,,,,1,7,19,8,,,,,,,,,,,,,,,,,,,,,1.664,2.232,588.42615319998,None,,,,,,,,,,,,,,,,,,,,588.9649189000484,589.4705936000682,0.5118157099932432,1.0123148099519312,589.4539245000342,589.5708386000479,589.4539245000342,589.5708386000479,589.5540641000262,None,c,1,0.6965397000312805,589.5540641000262,None,,,,,,,p4,2022_Mar_02_1259,training+cueing,2021.1.4,59.97335986807705,
Stranger.png,You,Stranger,m,1.3,15,25,95,,,,,1,0,1,0,,,,,1,8,20,6,,,,,,,,,,,,,,,,,,,,,1.79,2.424,590.3779794999864,None,,,,,,,,,,,,,,,,,,,,590.9181345000397,591.4219890000531,0.5060452099423856,1.006338009960018,591.4053345000139,591.5053724000463,591.4053345000139,591.5053724000463,591.5053724000463,None,c,0,0.7772219999460503,591.5053724000463,None,,,,,,,p4,2022_Mar_02_1259,training+cueing,2021.1.4,59.97335986807705,
Stranger.png,Friend,Stranger,m,2.3,17,27,97,,,,,1,0,1,0,,,,,1,9,21,7,,,,,,,,,,,,,,,,,,,,,1.748,1.761,592.4122401999775,None,,,,,,,,,,,,,,,,,,,,592.9524811999872,593.4567236000439,0.5074499099282548,1.0078302099136636,593.4400962999789,593.5568328000372,593.4400962999789,593.5568328000372,593.5401942000026,None,m,1,0.6783886000048369,593.5401942000026,None,,,,,,,p4,2022_Mar_02_1259,training+cueing,2021.1.4,59.97335986807705,
Friend.png,Friend,Friend,c,2,12,22,92,,,,,1,0,1,0,,,,,1,10,22,4,,,,,,,,,,,,,,,,,,,,,1.407,2.084,594.3460209000623,None,,,,,,,,,,,,,,,,,,,,594.8976599000162,595.4082345999777,0.5044340101303533,1.0047360101016238,595.3915485000471,595.5082908000331,595.3915485000471,595.5082908000331,595.4916026000865,None,m,0,0.7589429001091048,595.4916026000865,None,,,,,,,p4,2022_Mar_02_1259,training+cueing,2021.1.4,59.97335986807705,
Stranger.png,Stranger,Stranger,c,3,13,23,93,,,,,1,0,1,0,,,,,1,11,23,11,,,,,,,,,,,,,,,,,,,,,1.77,1.718,596.3811401000712,None,,,,,,,,,,,,,,,,,,,,596.9217887000414,597.4263249000069,0.505913809989579,1.006412009941414,597.4096986000659,597.5263944000471,597.4096986000659,597.5263944000471,597.5097106000176,None,m,0,0.8848523000488058,597.5097106000176,None,,,,,,,p4,2022_Mar_02_1259,training+cueing,2021.1.4,59.97335986807705,
Stranger.png,Stranger,Stranger,c,3,13,23,93,,,,,1,0,1,0,,,,,2,0,24,8,,,,,,,,,,,,,,,,,,,,,1.529,1.203,598.5160846000072,None,,,,,,,,,,,,,,,,,,,,599.0558502000058,599.5612083000597,0.5104737099027261,1.0107775098877028,599.544536500005,599.6612428000662,599.544536500005,599.6612428000662,599.6446076000575,None,m,0,0.8139498999807984,599.6446076000575,None,,,,,,,p4,2022_Mar_02_1259,training+cueing,2021.1.4,59.97335986807705,
Stranger.png,You,Stranger,m,1.3,15,25,95,,,,,1,0,1,0,,,,,2,1,25,6,,,,,,,,,,,,,,,,,,,,,1.623,1.43,600.5862968000583,None,,,,,,,,,,,,,,,,,,,,601.1254646000452,601.6293728000019,0.5071144100511447,1.0074336100369692,601.6127263000235,601.7127624000423,601.6127263000235,601.7127624000423,601.7127624000423,None,c,0,0.5858208000427112,601.7127624000423,None,,,,,,,p4,2022_Mar_02_1259,training+cueing,2021.1.4,59.97335986807705,
Friend.png,Friend,Friend,c,2,12,22,92,,,,,1,0,1,0,,,,,2,2,26,4,,,,,,,,,,,,,,,,,,,,,1.441,1.648,602.4361056999769,None,,,,,,,,,,,,,,,,,,,,602.9775836999761,603.4807278000517,0.5043219099752605,1.0047054099850357,603.4640545999864,603.5807747000363,603.4640545999864,603.5807747000363,603.5640534000704,None,m,0,0.6225130999227986,603.5640534000704,None,,,,,,,p4,2022_Mar_02_1259,training+cueing,2021.1.4,59.97335986807705,
Friend.png,You,Friend,m,1.2,14,24,94,,,,,1,0,1,0,,,,,2,3,27,3,,,,,,,,,,,,,,,,,,,,,1.679,1.218,604.3211200999795,None,,,,,,,,,,,,,,,,,,,,604.8591903999913,605.3653856000165,0.5113064099568874,1.011596109950915,605.3487448000815,605.44877430005,605.3487448000815,605.44877430005,605.44877430005,None,m,1,0.8657777999760583,605.44877430005,None,,,,,,,p4,2022_Mar_02_1259,training+cueing,2021.1.4,59.97335986807705,
Self.png,You,Self ,c,1,11,21,91,,,,,1,0,1,0,,,,,2,4,28,0,,,,,,,,,,,,,,,,,,,,,1.567,1.812,606.4389763000654,None,,,,,,,,,,,,,,,,,,,,606.9777012000559,607.4836083999835,0.5102925099199638,1.0105071099242195,607.467025400023,607.5669320999878,607.467025400023,607.5669320999878,607.5669320999878,None,c,1,0.6995586000848562,607.5669320999878,None,,,,,,,p4,2022_Mar_02_1259,training+cueing,2021.1.4,59.97335986807705,
Friend.png,Friend,Friend,c,2,12,22,92,,,,,1,0,1,0,,,,,2,5,29,10,,,,,,,,,,,,,,,,,,,,,1.51,1.746,608.3906477000564,None,,,,,,,,,,,,,,,,,,,,608.9465199999977,609.4516935000429,0.5100033800117671,1.0105288800550625,609.4350066999905,609.5517476000823,609.4350066999905,609.5517476000823,609.5350095999893,None,m,0,0.6515862001106143,609.5350095999893,None,,,,,,,p4,2022_Mar_02_1259,training+cueing,2021.1.4,59.97335986807705,
Self.png,Stranger,Self ,m,3.1,18,28,98,,,,,1,0,1,0,,,,,2,6,30,2,,,,,,,,,,,,,,,,,,,,,1.524,2.114,610.308747000061,None,,,,,,,,,,,,,,,,,,,,610.861646000063,611.3697056000819,0.4997343799332157,1.0000684799160808,611.3363712000428,611.4364188000327,611.3363712000428,611.4364188000327,611.4364188000327,None,c,0,0.6541111000115052,611.4364188000327,None,,,,,,,p4,2022_Mar_02_1259,training+cueing,2021.1.4,59.97335986807705,
Self.png,You,Self ,c,1,11,21,91,,,,,1,0,1,0,,,,,2,7,31,9,,,,,,,,,,,,,,,,,,,,,1.761,1.334,612.227352200076,None,,,,,,,,,,,,,,,,,,,,612.7668875000672,613.2711141000036,0.5062851099064574,1.0065813099499792,613.2544559000526,613.3544320000801,613.2544559000526,613.3544320000801,613.3544320000801,None,c,1,0.7681015999987721,613.3544320000801,None,,,,,,,p4,2022_Mar_02_1259,training+cueing,2021.1.4,59.97335986807705,
Friend.png,Stranger,Friend,m,3.2,19,29,99,,,,,1,0,1,0,,,,,2,8,32,5,,,,,,,,,,,,,,,,,,,,,1.484,2.337,614.2452528000576,None,,,,,,,,,,,,,,,,,,,,614.786351100076,615.2892119999742,0.5057599099818617,1.0060894099297002,615.2725514000049,615.3892909999704,615.2725514000049,615.3892909999704,615.3725925000617,None,m,1,0.4299620999954641,615.3725925000617,None,,,,,,,p4,2022_Mar_02_1259,training+cueing,2021.1.4,59.97335986807705,
Stranger.png,Stranger,Stranger,c,3,13,23,93,,,,,1,0,1,0,,,,,2,9,33,11,,,,,,,,,,,,,,,,,,,,,1.492,1.516,615.9290680000558,None,,,,,,,,,,,,,,,,,,,,616.4680629000068,616.9737614999758,0.510980710037984,1.0112765099620447,616.9570760000497,617.0738156000152,616.9570760000497,617.0738156000152,617.0571130000753,None,m,0,1.209402299951762,617.0571130000753,None,,,,,,,p4,2022_Mar_02_1259,training+cueing,2021.1.4,59.97335986807705,
Stranger.png,Friend,Stranger,m,2.3,17,27,97,,,,,1,0,1,0,,,,,2,10,34,7,,,,,,,,,,,,,,,,,,,,,1.439,2.295,618.3982107000193,None,,,,,,,,,,,,,,,,,,,,618.9365790999727,619.4422480000649,0.508817009977065,1.009226209949702,619.4255769000156,619.5422732000006,619.4255769000156,619.5422732000006,619.5255445999792,None,None,0,,619.5255445999792,None,,,,,,,p4,2022_Mar_02_1259,training+cueing,2021.1.4,59.97335986807705,
Self.png,Friend,Self ,m,2.1,16,26,96,,,,,1,0,1,0,,,,,2,11,35,1,,,,,,,,,,,,,,,,,,,,,1.571,1.474,621.0808711000718,None,,,,,,,,,,,,,,,,,,,,621.6205441000639,622.1274858000688,0.515681009972468,1.0159749099984765,622.1108318000333,622.2275144000305,622.1108318000333,622.2275144000305,622.2090972000733,None,m,1,0.7774573999922723,622.2090972000733,None,,,,,,,p4,2022_Mar_02_1259,training+cueing,2021.1.4,59.97335986807705,
Stranger.png,Stranger,Stranger,c,3,13,23,93,,,,,1,0,1,0,,,,,3,0,36,8,,,,,,,,,,,,,,,,,,,,,1.754,1.547,623.1181078000227,None,,,,,,,,,,,,,,,,,,,,623.6584879000438,624.1622924000258,0.5043364099692553,1.0045929099433124,624.1456816999707,624.2624005000107,624.1456816999707,624.2624005000107,624.245675800019,None,m,0,1.1889105000300333,624.245675800019,None,,,,,,,p4,2022_Mar_02_1259,training+cueing,2021.1.4,59.97335986807705,
Stranger.png,You,Stranger,m,1.3,15,25,95,,,,,1,0,1,0,,,,,3,1,37,6,,,,,,,,,,,,,,,,,,,,,1.655,1.473,625.5698355999775,None,,,,,,,,,,,,,,,,,,,,626.1103899000445,626.6140625000698,0.5069595099193975,1.0072689099470153,626.5974330999888,626.6974589000456,626.5974330999888,626.6974589000456,626.6974589000456,None,c,0,0.881042700028047,626.6974589000456,None,,,,,,,p4,2022_Mar_02_1259,training+cueing,2021.1.4,59.97335986807705,
Self.png,Stranger,Self ,m,3.1,18,28,98,,,,,1,0,1,0,,,,,3,2,38,2,,,,,,,,,,,,,,,,,,,,,1.448,2.089,627.7041819000151,None,,,,,,,,,,,,,,,,,,,,628.2508640000597,628.7656326000579,0.5136893099406734,1.0139731100061908,628.7489604000002,628.8656827000668,628.7489604000002,628.8656827000668,628.8489653000142,None,m,1,0.5857793000759557,628.8489653000142,None,,,,,,,p4,2022_Mar_02_1259,training+cueing,2021.1.4,59.97335986807705,
Stranger.png,Friend,Stranger,m,2.3,17,27,97,,,,,1,0,1,0,,,,,3,3,39,7,,,,,,,,,,,,,,,,,,,,,1.489,1.967,629.5595554000465,None,,,,,,,,,,,,,,,,,,,,630.097714100033,630.6002265000716,0.5024518099380657,1.00289260991849,630.5835974999936,630.7003657000605,630.5835974999936,630.7003657000605,630.683653300046,None,m,1,0.9110871000448242,630.683653300046,None,,,,,,,p4,2022_Mar_02_1259,training+cueing,2021.1.4,59.97335986807705,
Friend.png,You,Friend,m,1.2,14,24,94,,,,,1,0,1,0,,,,,3,4,40,3,,,,,,,,,,,,,,,,,,,,,1.799,1.209,631.7275651000673,None,,,,,,,,,,,,,,,,,,,,632.3208868000656,632.8352378000272,0.5121647199848667,1.0125433199573308,632.8185526999878,632.9186089000432,632.8185526999878,632.9186089000432,632.9186089000432,None,m,1,0.8518985999980941,632.9186089000432,None,,,,,,,p4,2022_Mar_02_1259,training+cueing,2021.1.4,59.97335986807705,
Friend.png,Stranger,Friend,m,3.2,19,29,99,,,,,1,0,1,0,,,,,3,5,41,5,,,,,,,,,,,,,,,,,,,,,1.676,2.113,633.892158200033,None,,,,,,,,,,,,,,,,,,,,634.4345474999864,634.9368869999889,0.5047061101067811,1.005017810035497,634.9202331000706,635.0369755000575,634.9202331000706,635.0369755000575,635.0202718999935,None,c,0,0.8303728000028059,635.0202718999935,None,,,,,,,p4,2022_Mar_02_1259,training+cueing,2021.1.4,59.97335986807705,
Friend.png,Friend,Friend,c,2,12,22,92,,,,,1,0,1,0,,,,,3,6,42,4,,,,,,,,,,,,,,,,,,,,,1.638,2.348,635.9787619999843,None,,,,,,,,,,,,,,,,,,,,636.5168509000214,637.021600499982,0.5069344099611044,1.0072874099714682,637.0048672000412,637.1216468000785,637.0048672000412,637.1216468000785,637.1049277000129,None,m,0,0.8254950999980792,637.1049277000129,None,,,,,,,p4,2022_Mar_02_1259,training+cueing,2021.1.4,59.97335986807705,
Friend.png,Friend,Friend,c,2,12,22,92,,,,,1,0,1,0,,,,,3,7,43,10,,,,,,,,,,,,,,,,,,,,,1.669,2.037,638.0621422000695,None,,,,,,,,,,,,,,,,,,,,638.6009733000537,639.1063826000318,0.51064531004522,1.0110598100582138,639.08973040001,639.2064619000303,639.08973040001,639.2064619000303,639.189766400028,None,m,0,0.7247783000348136,639.189766400028,None,,,,,,,p4,2022_Mar_02_1259,training+cueing,2021.1.4,59.97335986807705,
Self.png,You,Self ,c,1,11,21,91,,,,,1,0,1,0,,,,,3,8,44,0,,,,,,,,,,,,,,,,,,,,,1.785,1.695,640.0469637999777,None,,,,,,,,,,,,,,,,,,,,640.5873024000321,641.0911765000783,0.5059487100224942,1.0063062099507079,641.0745506000239,641.174560500076,641.0745506000239,641.174560500076,641.174560500076,None,c,1,1.0279954000143334,641.174560500076,None,,,,,,,p4,2022_Mar_02_1259,training+cueing,2021.1.4,59.97335986807705,
Self.png,You,Self ,c,1,11,21,91,,,,,1,0,1,0,,,,,3,9,45,9,,,,,,,,,,,,,,,,,,,,,1.531,2.168,642.3344701000024,None,,,,,,,,,,,,,,,,,,,,642.8718833000166,643.3761628000066,0.507338110008277,1.0083522100467235,643.3595092999749,643.45955280005,643.3595092999749,643.45955280005,643.45955280005,None,c,1,0.8231227999785915,643.45955280005,None,,,,,,,p4,2022_Mar_02_1259,training+cueing,2021.1.4,59.97335986807705,
Stranger.png,Stranger,Stranger,c,3,13,23,93,,,,,1,0,1,0,,,,,3,10,46,11,,,,,,,,,,,,,,,,,,,,,1.645,1.453,644.4175357000204,None,,,,,,,,,,,,,,,,,,,,644.9560307000065,645.4609792000847,0.5098142101196572,1.0104218100896105,645.444367500022,645.5617422000505,645.444367500022,645.5617422000505,645.5445434000576,None,m,0,0.6100196000188589,645.5445434000576,None,,,,,,,p4,2022_Mar_02_1259,training+cueing,2021.1.4,59.97335986807705,
Self.png,Friend,Self ,m,2.1,16,26,96,,,,,1,0,1,0,,,,,3,11,47,1,,,,,,,,,,,,,,,,,,,,,1.523,1.649,646.2843332000775,None,,,,,,,,,,,,,,,,,,,,646.8263648999855,647.3290319000371,0.504408809938468,1.004672609968111,647.3123779000016,647.4291493999772,647.3123779000016,647.4291493999772,647.4123573000543,None,m,1,0.9660910000093281,647.4123573000543,None,,,,,,,p4,2022_Mar_02_1259,training+cueing,2021.1.4,59.97335986807705,
Stranger.png,Stranger,Stranger,c,3,13,23,93,,,,,1,0,1,0,,,,,4,0,48,8,,,,,,,,,,,,,,,,,,,,,1.67,1.237,648.5030878999969,None,,,,,,,,,,,,,,,,,,,,649.0423983000219,649.5472907000221,0.5086657099891454,1.0089343100553378,649.5306465000613,649.6473287000554,649.5306465000613,649.6473287000554,649.6306580000091,None,m,0,0.7798953000456095,649.6306580000091,None,,,,,,,p4,2022_Mar_02_1259,training+cueing,2021.1.4,59.97335986807705,
Friend.png,Stranger,Friend,m,3.2,19,29,99,,,,,1,0,1,0,,,,,4,1,49,5,,,,,,,,,,,,,,,,,,,,,1.667,2.306,650.5378824999789,None,,,,,,,,,,,,,,,,,,,,651.0769335000077,651.5820871000178,0.5105464099906385,1.0108688100008294,651.5653982000658,651.6821700000437,651.5653982000658,651.6821700000437,651.665451799985,None,m,1,0.7610037000849843,651.665451799985,None,,,,,,,p4,2022_Mar_02_1259,training+cueing,2021.1.4,59.97335986807705,
Friend.png,Friend,Friend,c,2,12,22,92,,,,,1,0,1,0,,,,,4,2,50,10,,,,,,,,,,,,,,,,,,,,,1.763,1.938,652.5551315000048,None,,,,,,,,,,,,,,,,,,,,653.0930452999892,653.6002040000167,0.5116895099636167,1.0119881100254133,653.5835606000619,653.7002542000264,653.5835606000619,653.7002542000264,653.6836058000335,None,m,0,0.8068659000564367,653.6836058000335,None,,,,,,,p4,2022_Mar_02_1259,training+cueing,2021.1.4,59.97335986807705,
Self.png,You,Self ,c,1,11,21,91,,,,,1,0,1,0,,,,,4,3,51,9,,,,,,,,,,,,,,,,,,,,,1.765,1.697,654.6241049000528,None,,,,,,,,,,,,,,,,,,,,655.1643955999753,655.668407500023,0.5065858099842444,1.0068562099477276,655.6517357000848,655.7517610000214,655.6517357000848,655.7517610000214,655.7517610000214,None,c,1,0.7067102000582963,655.7517610000214,None,,,,,,,p4,2022_Mar_02_1259,training+cueing,2021.1.4,59.97335986807705,
Stranger.png,You,Stranger,m,1.3,15,25,95,,,,,1,0,1,0,,,,,4,4,52,6,,,,,,,,,,,,,,,,,,,,,1.677,2.052,656.5923785000341,None,,,,,,,,,,,,,,,,,,,,657.1277057999978,657.6365165000316,0.49917200999334455,0.9994573099538684,657.6031235000119,657.7031492000679,657.6031235000119,657.7031492000679,657.7031492000679,None,c,0,0.7073254999704659,657.7031492000679,None,,,,,,,p4,2022_Mar_02_1259,training+cueing,2021.1.4,59.97335986807705,
Self.png,Stranger,Self ,m,3.1,18,28,98,,,,,1,0,1,0,,,,,4,5,53,2,,,,,,,,,,,,,,,,,,,,,1.517,2.22,658.5437121000141,None,,,,,,,,,,,,,,,,,,,,659.0854871000629,659.5878400000511,0.505951110040769,1.0062748100608587,659.5711912000552,659.6878778000828,659.5711912000552,659.6878778000828,659.6712467999896,None,m,1,0.7072323000757024,659.6712467999896,None,,,,,,,p4,2022_Mar_02_1259,training+cueing,2021.1.4,59.97335986807705,
Stranger.png,Friend,Stranger,m,2.3,17,27,97,,,,,1,0,1,0,,,,,4,6,54,7,,,,,,,,,,,,,,,,,,,,,1.485,1.208,660.5119397999952,None,,,,,,,,,,,,,,,,,,,,661.0539612000575,661.5559523000848,0.5049099100288004,1.0052233100868762,661.5392982000485,661.6561559999827,661.5392982000485,661.6561559999827,661.6393287000246,None,m,1,0.8830514999572188,661.6393287000246,None,,,,,,,p4,2022_Mar_02_1259,training+cueing,2021.1.4,59.97335986807705,
Friend.png,You,Friend,m,1.2,14,24,94,,,,,1,0,1,0,,,,,4,7,55,3,,,,,,,,,,,,,,,,,,,,,1.525,1.534,662.6469561000122,None,,,,,,,,,,,,,,,,,,,,663.1857376000844,663.6908491000067,0.5083039099117741,1.0085992099484429,663.6741847000085,663.7742142999778,663.6741847000085,663.7742142999778,663.7742142999778,None,m,1,0.7162326000398025,663.7742142999778,None,,,,,,,p4,2022_Mar_02_1259,training+cueing,2021.1.4,59.97335986807705,
Self.png,You,Self ,c,1,11,21,91,,,,,1,0,1,0,,,,,4,8,56,0,,,,,,,,,,,,,,,,,,,,,1.67,2.274,664.6141220000573,None,,,,,,,,,,,,,,,,,,,,665.153301000013,665.658953599981,0.5104009100468829,1.010759310098365,665.6422576999757,665.7422984000295,665.6422576999757,665.7422984000295,665.7422984000295,None,c,1,0.8922231999458745,665.7422984000295,None,,,,,,,p4,2022_Mar_02_1259,training+cueing,2021.1.4,59.97335986807705,
Self.png,Friend,Self ,m,2.1,16,26,96,,,,,1,0,1,0,,,,,4,9,57,1,,,,,,,,,,,,,,,,,,,,,1.69,2.414,666.7657327000052,None,,,,,,,,,,,,,,,,,,,,667.3058401000453,667.8104499999899,0.5093186100712046,1.0096034100279212,667.7938065000344,667.9107000000076,667.7938065000344,667.9107000000076,667.8938087000279,None,m,1,0.5645746999653056,667.8938087000279,None,,,,,,,p4,2022_Mar_02_1259,training+cueing,2021.1.4,59.97335986807705,
Friend.png,Friend,Friend,c,2,12,22,92,,,,,1,0,1,0,,,,,4,10,58,4,,,,,,,,,,,,,,,,,,,,,1.442,1.221,668.5838313000277,None,,,,,,,,,,,,,,,,,,,,669.1218097000383,669.6286923000589,0.5102988099679351,1.0106043099658564,669.6117640000302,669.7286476000445,669.6117640000302,669.7286476000445,669.7119579999708,None,m,0,0.7464936000760645,669.7119579999708,None,,,,,,,p4,2022_Mar_02_1259,training+cueing,2021.1.4,59.97335986807705,
Stranger.png,Stranger,Stranger,c,3,13,23,93,,,,,1,0,1,0,,,,,4,11,59,11,,,,,,,,,,,,,,,,,,,,,1.525,1.575,670.5852625999833,None,,,,,,,,,,,,,,,,,,,,671.1243613000261,671.6298429999733,0.5102449100231752,1.0105378100415692,671.6132098999806,671.7299429000122,671.6132098999806,671.7299429000122,671.7132284999825,None,m,0,1.0012423999141902,671.7132284999825,None,,,,,,,p4,2022_Mar_02_1259,training+cueing,2021.1.4,59.97335986807705,
Self.png,Stranger,Self ,m,3.1,18,28,98,,,,,1,0,1,0,,,,,5,0,60,2,,,,,,,,,,,,,,,,,,,,,1.545,2.146,672.8373461000156,None,,,,,,,,,,,,,,,,,,,,673.3756231999723,673.8815184000414,0.5098412099760026,1.010115209966898,673.8648667000234,673.9816056999844,673.8648667000234,673.9816056999844,673.9648702000268,None,m,1,0.6694971000542864,673.9648702000268,None,,,,,,,p4,2022_Mar_02_1259,training+cueing,2021.1.4,59.97335986807705,
Friend.png,Stranger,Friend,m,3.2,19,29,99,,,,,1,0,1,0,,,,,5,1,61,5,,,,,,,,,,,,,,,,,,,,,1.721,1.229,674.7720375000499,None,,,,,,,,,,,,,,,,,,,,675.3086373000406,675.8162106000818,0.499380309949629,0.999680409906432,675.7828878000146,675.8829509000061,675.7828878000146,675.8829509000061,675.8829509000061,None,c,0,0.6714767999947071,675.8829509000061,None,,,,,,,p4,2022_Mar_02_1259,training+cueing,2021.1.4,59.97335986807705,
Self.png,You,Self ,c,1,11,21,91,,,,,1,0,1,0,,,,,5,2,62,0,,,,,,,,,,,,,,,,,,,,,1.551,1.537,676.6900426000357,None,,,,,,,,,,,,,,,,,,,,677.253619999974,677.7677430000622,0.5128932800143957,1.013078480027616,677.751082999981,677.8510438000085,677.751082999981,677.8510438000085,677.8510438000085,None,c,1,0.6713641000678763,677.8510438000085,None,,,,,,,p4,2022_Mar_02_1259,training+cueing,2021.1.4,59.97335986807705,
Friend.png,You,Friend,m,1.2,14,24,94,,,,,1,0,1,0,,,,,5,3,63,3,,,,,,,,,,,,,,,,,,,,,1.523,2.223,678.6583062000573,None,,,,,,,,,,,,,,,,,,,,679.196129100048,679.7024227000074,0.5101142099592835,1.0104111100081354,679.6857392999809,679.7857617000118,679.6857392999809,679.7857617000118,679.7857617000118,None,m,1,0.5767077000346035,679.7857617000118,None,,,,,,,p4,2022_Mar_02_1259,training+cueing,2021.1.4,59.97335986807705,
Friend.png,Friend,Friend,c,2,12,22,92,,,,,1,0,1,0,,,,,5,4,64,10,,,,,,,,,,,,,,,,,,,,,1.664,1.339,680.4924967000261,None,,,,,,,,,,,,,,,,,,,,681.0338199000107,681.5370354000479,0.5072132099885494,1.0075408099219203,681.5203882000642,681.6370827000355,681.5203882000642,681.6370827000355,681.6203903000569,None,m,0,0.5981824999907985,681.6203903000569,None,,,,,,,p4,2022_Mar_02_1259,training+cueing,2021.1.4,59.97335986807705,
Self.png,You,Self ,c,1,11,21,91,,,,,1,0,1,0,,,,,5,5,65,9,,,,,,,,,,,,,,,,,,,,,1.798,1.477,682.3443255000748,None,,,,,,,,,,,,,,,,,,,,682.8845296000363,683.388404999976,0.5063993099611253,1.0066178099950776,683.3717700000852,683.4717352000298,683.3717700000852,683.4717352000298,683.4717352000298,None,c,1,0.6826581000350416,683.4717352000298,None,,,,,,,p4,2022_Mar_02_1259,training+cueing,2021.1.4,59.97335986807705,
Self.png,Friend,Self ,m,2.1,16,26,96,,,,,1,0,1,0,,,,,5,6,66,1,,,,,,,,,,,,,,,,,,,,,1.517,1.89,684.2780617000535,None,,,,,,,,,,,,,,,,,,,,684.8195228000404,685.3230943999952,0.5042700100457296,1.0045614099362865,685.3064684000565,685.4231690000743,685.3064684000565,685.4231690000743,685.4064788999967,None,m,1,0.5879561000037938,685.4064788999967,None,,,,,,,p4,2022_Mar_02_1259,training+cueing,2021.1.4,59.97335986807705,
Stranger.png,Stranger,Stranger,c,3,13,23,93,,,,,1,0,1,0,,,,,5,7,67,8,,,,,,,,,,,,,,,,,,,,,1.519,1.245,686.1301779000787,None,,,,,,,,,,,,,,,,,,,,686.6701910999836,687.1744251999771,0.507463310030289,1.0077739100670442,687.1577944000019,687.2744834000478,687.1577944000019,687.2744834000478,687.2578100999817,None,m,0,1.2006163999903947,687.2578100999817,None,,,,,,,p4,2022_Mar_02_1259,training+cueing,2021.1.4,59.97335986807705,
Stranger.png,Stranger,Stranger,c,3,13,23,93,,,,,1,0,1,0,,,,,5,8,68,11,,,,,,,,,,,,,,,,,,,,,1.597,2.097,688.5819581000833,None,,,,,,,,,,,,,,,,,,,,689.1174221000401,689.6261415000772,0.49955230997875333,0.9998408099636436,689.5928572000703,689.6928946999833,689.5928572000703,689.6928946999833,689.6928946999833,None,m,0,1.133540500071831,689.6928946999833,None,,,,,,,p4,2022_Mar_02_1259,training+cueing,2021.1.4,59.97335986807705,
Stranger.png,Friend,Stranger,m,2.3,17,27,97,,,,,1,0,1,0,,,,,5,9,69,7,,,,,,,,,,,,,,,,,,,,,1.782,1.802,690.952334200032,None,,,,,,,,,,,,,,,,,,,,691.4935578000732,691.9945943000494,0.502318809973076,1.0026341100456193,691.9779331000755,692.0946396000218,691.9779331000755,692.0946396000218,692.0779742000159,None,m,1,1.4686586000025272,692.0779742000159,None,,,,,,,p4,2022_Mar_02_1259,training+cueing,2021.1.4,59.97335986807705,
Friend.png,Friend,Friend,c,2,12,22,92,,,,,1,0,1,0,,,,,5,10,70,4,,,,,,,,,,,,,,,,,,,,,1.691,1.556,693.6718499000417,None,,,,,,,,,,,,,,,,,,,,694.2089767999714,694.7132213000441,0.5071889099199325,1.0074436099966988,694.6965756000718,694.8132514000172,694.6965756000718,694.8132514000172,694.7965709000127,None,m,0,0.8138422999763861,694.7965709000127,None,,,,,,,p4,2022_Mar_02_1259,training+cueing,2021.1.4,59.97335986807705,
Stranger.png,You,Stranger,m,1.3,15,25,95,,,,,1,0,1,0,,,,,5,11,71,6,,,,,,,,,,,,,,,,,,,,,1.723,1.957,695.7364432000322,None,,,,,,,,,,,,,,,,,,,,696.2755922999931,696.7813949000556,0.5093308100476861,1.0096033100271598,696.7646951000206,696.864731800044,696.7646951000206,696.864731800044,696.864731800044,None,c,0,0.5696507999673486,696.864731800044,None,,,,,,,p4,2022_Mar_02_1259,training+cueing,2021.1.4,59.97335986807705,
Stranger.png,Stranger,Stranger,c,3,13,23,93,,,,,1,0,1,0,,,,,6,0,72,8,,,,,,,,,,,,,,,,,,,,,1.548,1.25,697.5720654000761,None,,,,,,,,,,,,,,,,,,,,698.1136618000455,698.6160294000292,0.5048353099264205,1.0052426100010052,698.5993851000676,698.7167802000185,698.5993851000676,698.7167802000185,698.7001049000537,None,m,0,0.6225253000156954,698.7001049000537,None,,,,,,,p4,2022_Mar_02_1259,training+cueing,2021.1.4,59.97335986807705,
Friend.png,Friend,Friend,c,2,12,22,92,,,,,1,0,1,0,,,,,6,1,73,10,,,,,,,,,,,,,,,,,,,,,1.798,2.043,699.4560582999839,None,,,,,,,,,,,,,,,,,,,,699.997598099988,700.5007213000208,0.5054971099598333,1.0059881099732593,700.4840583000332,700.6007716000313,700.4840583000332,700.6007716000313,700.5840759000275,None,c,1,0.7702885000035167,700.5840759000275,None,,,,,,,p4,2022_Mar_02_1259,training+cueing,2021.1.4,59.97335986807705,
Self.png,You,Self ,c,1,11,21,91,,,,,1,0,1,0,,,,,6,2,74,0,,,,,,,,,,,,,,,,,,,,,1.775,1.421,701.4925557000097,None,,,,,,,,,,,,,,,,,,,,702.0334148000693,702.5354944000719,0.5031095099402592,1.0033850099425763,702.5188520000083,702.618906000047,702.5188520000083,702.618906000047,702.618906000047,None,c,1,0.7675200999947265,702.618906000047,None,,,,,,,p4,2022_Mar_02_1259,training+cueing,2021.1.4,59.97335986807705,
Friend.png,Stranger,Friend,m,3.2,19,29,99,,,,,1,0,1,0,,,,,6,3,75,5,,,,,,,,,,,,,,,,,,,,,1.672,1.556,703.508939600084,None,,,,,,,,,,,,,,,,,,,,704.0482593000634,704.553642300074,0.5102966100675985,1.0105526100378484,704.5370158000151,704.6536993000191,704.5370158000151,704.6536993000191,704.6370122000808,None,m,1,0.5414115999592468,704.6370122000808,None,,,,,,,p4,2022_Mar_02_1259,training+cueing,2021.1.4,59.97335986807705,
Stranger.png,You,Stranger,m,1.3,15,25,95,,,,,1,0,1,0,,,,,6,4,76,6,,,,,,,,,,,,,,,,,,,,,1.5,2.419,705.3107209000736,None,,,,,,,,,,,,,,,,,,,,705.8500574000645,706.3549055000767,0.5078264100011438,1.008184709935449,706.3382708000718,706.4383347000694,706.3382708000718,706.4383347000694,706.4383347000694,None,c,0,0.676032799994573,706.4383347000694,None,,,,,,,p4,2022_Mar_02_1259,training+cueing,2021.1.4,59.97335986807705,
Self.png,Stranger,Self ,m,3.1,18,28,98,,,,,1,0,1,0,,,,,6,5,77,2,,,,,,,,,,,,,,,,,,,,,1.599,1.491,707.2457143000793,None,,,,,,,,,,,,,,,,,,,,707.7879072000505,708.2896808000514,0.5043308100430295,1.0045993099920452,708.2730405000038,708.3897436000407,708.2730405000038,708.3897436000407,708.373056899989,None,m,1,0.8213317000772804,708.373056899989,None,,,,,,,p4,2022_Mar_02_1259,training+cueing,2021.1.4,59.97335986807705,
Stranger.png,Stranger,Stranger,c,3,13,23,93,,,,,1,0,1,0,,,,,6,6,78,11,,,,,,,,,,,,,,,,,,,,,1.437,2.181,709.3300809999928,None,,,,,,,,,,,,,,,,,,,,709.8670233000303,710.3744873000542,0.5151434099534526,1.0155042100232095,710.3578269000864,710.4745311000152,710.3578269000864,710.4745311000152,710.4578899000771,None,m,0,1.008492499939166,710.4578899000771,None,,,,,,,p4,2022_Mar_02_1259,training+cueing,2021.1.4,59.97335986807705,
Self.png,You,Self ,c,1,11,21,91,,,,,1,0,1,0,,,,,6,7,79,9,,,,,,,,,,,,,,,,,,,,,1.615,2.474,711.5987316999817,None,,,,,,,,,,,,,,,,,,,,712.1390845000278,712.6428746000165,0.505361309973523,1.0056667099706829,712.6261497000232,712.726185800042,712.6261497000232,712.726185800042,712.726185800042,None,c,1,1.3161416000220925,712.726185800042,None,,,,,,,p4,2022_Mar_02_1259,training+cueing,2021.1.4,59.97335986807705,
Friend.png,You,Friend,m,1.2,14,24,94,,,,,1,0,1,0,,,,,6,8,80,3,,,,,,,,,,,,,,,,,,,,,1.431,1.88,714.1662448999705,None,,,,,,,,,,,,,,,,,,,,714.7065873000538,715.2113542000297,0.5098316100193188,1.0101917100837454,715.1946527999826,715.2946933000349,715.1946527999826,715.2946933000349,715.2946933000349,None,m,1,0.7797279000515118,715.2946933000349,None,,,,,,,p4,2022_Mar_02_1259,training+cueing,2021.1.4,59.97335986807705,
Self.png,Friend,Self ,m,2.1,16,26,96,,,,,1,0,1,0,,,,,6,9,81,1,,,,,,,,,,,,,,,,,,,,,1.756,1.705,716.2009367999854,None,,,,,,,,,,,,,,,,,,,,716.7412031000713,717.246146999998,0.5101923099718988,1.0104815099621192,717.2294661999913,717.346186800045,717.2294661999913,717.346186800045,717.3294917000458,None,c,0,1.2249659999506548,717.3294917000458,None,,,,,,,p4,2022_Mar_02_1259,training+cueing,2021.1.4,59.97335986807705,
Friend.png,Friend,Friend,c,2,12,22,92,,,,,1,0,1,0,,,,,6,10,82,4,,,,,,,,,,,,,,,,,,,,,1.682,1.847,718.6869470999809,None,,,,,,,,,,,,,,,,,,,,719.2255827999907,719.7312725000083,0.5101525100180879,1.010426010005176,719.7146407000255,719.8314887000015,719.7146407000255,719.8314887000015,719.8147934000008,None,m,0,0.6435694999527186,719.8147934000008,None,,,,,,,p4,2022_Mar_02_1259,training+cueing,2021.1.4,59.97335986807705,
Stranger.png,Friend,Stranger,m,2.3,17,27,97,,,,,1,0,1,0,,,,,6,11,83,7,,,,,,,,,,,,,,,,,,,,,1.77,2.182,720.5882050000364,None,,,,,,,,,,,,,,,,,,,,721.1257346000057,721.632606600062,0.5138679100200534,1.0142798100132495,721.6159695000388,721.7327007000567,721.6159695000388,721.7327007000567,721.7160143000074,None,m,1,1.2223395000910386,721.7160143000074,None,,,,,,,p4,2022_Mar_02_1259,training+cueing,2021.1.4,59.97335986807705,
Self.png,Friend,Self ,m,2.1,16,26,96,,,,,1,0,1,0,,,,,7,0,84,1,,,,,,,,,,,,,,,,,,,,,1.696,1.42,723.0729629000416,None,,,,,,,,,,,,,,,,,,,,723.6079155000625,724.117717300076,0.5002670099493116,1.0005523100262508,724.0844495000783,724.1844883000012,724.0844495000783,724.1844883000012,724.1844883000012,None,c,0,1.1218709000386298,724.1844883000012,None,,,,,,,p4,2022_Mar_02_1259,training+cueing,2021.1.4,59.97335986807705,
Stranger.png,Friend,Stranger,m,2.3,17,27,97,,,,,1,0,1,0,,,,,7,1,85,7,,,,,,,,,,,,,,,,,,,,,1.543,1.683,725.4419626999879,None,,,,,,,,,,,,,,,,,,,,725.9807208999991,726.4862071999814,0.5107032100204378,1.0109623100142926,726.4695172000211,726.5862094999757,726.4695172000211,726.5862094999757,726.5695016999962,None,c,0,0.9448632000712678,726.5695016999962,None,,,,,,,p4,2022_Mar_02_1259,training+cueing,2021.1.4,59.97335986807705,
Friend.png,Friend,Friend,c,2,12,22,92,,,,,1,0,1,0,,,,,7,2,86,10,,,,,,,,,,,,,,,,,,,,,1.779,1.702,727.6430323000532,None,,,,,,,,,,,,,,,,,,,,728.197354300064,728.7045384000521,0.5135995799209923,1.0137612799881026,728.6879500000505,728.8045907000778,728.6879500000505,728.8045907000778,728.7878718000138,None,m,0,0.6306707999901846,728.7878718000138,None,,,,,,,p4,2022_Mar_02_1259,training+cueing,2021.1.4,59.97335986807705,
