Image,Name,Face,CorrAns,Match,Face_onset,CResponse_onset,IResponse_onset,Match.thisRepN,Match.thisTrialN,Match.thisN,Match.thisIndex,Blocks.thisRepN,Blocks.thisTrialN,Blocks.thisN,Blocks.thisIndex,trials.thisRepN,trials.thisTrialN,trials.thisN,trials.thisIndex,trials_2.thisRepN,trials_2.thisTrialN,trials_2.thisN,trials_2.thisIndex,text.started,text.stopped,p1.started,p1.stopped,MatchInstructions.started,MatchInstructions.stopped,Name1.started,Name1.stopped,Face_Relevance.started,Face_Relevance.stopped,MismatchInstructions.started,MismatchInstructions.stopped,Rest_trainingInstruct.started,Rest_trainingInstruct.stopped,next8.keys,next8.rt,next8.started,next8.stopped,Ready.started,Ready.stopped,delay_one_picked,delay_two_picked,blank0.started,blank0.stopped,FixationCross1.started,FixationCross1.stopped,Name3.started,Name3.stopped,Face_Relevance3.started,Face_Relevance3.stopped,responseTime.started,responseTime.stopped,resp.keys,resp.corr,resp.rt,resp.started,resp.stopped,Accuracy.started,Accuracy.stopped,questions.started,questions.stopped,p2.started,p2.stopped,FixationCross3.started,FixationCross3.stopped,port_Face_onset.started,port_Face_onset.stopped,Name4.started,Name4.stopped,Face_Relevance4.started,Face_Relevance4.stopped,responseTime2.started,responseTime2.stopped,Response.keys,Response.corr,Response.rt,Response.started,Response.stopped,p3.started,p3.stopped,Finish.started,Finish.stopped,gender,age,participant,date,expName,psychopyVersion,frameRate,
Self.png,You,,,,,,,0,0,0,0,,,,,,,,,,,,,11.97413680003956,None,0.008167759515345097,0.5328966595698148,26.692566100042313,None,34.79929670016281,None,34.79929670016281,None,,,,,,,,,,,,,,,,,,,,,,,,,,,,,,,,,,,,,,,,,,,,,,,,,,,,,m,,p5,2022_Mar_09_1315,training+cueing,2021.1.4,59.928577149985195,
Stranger.png,Stranger,,,,,,,0,1,1,2,,,,,,,,,,,,,,,,,,,54.702543900115415,None,54.702543900115415,None,,,,,,,,,,,,,,,,,,,,,,,,,,,,,,,,,,,,,,,,,,,,,,,,,,,,,m,,p5,2022_Mar_09_1315,training+cueing,2021.1.4,59.928577149985195,
Friend.png,Friend,,,,,,,0,2,2,1,,,,,,,,,,,,,,,,,,,74.71041960013099,None,74.71041960013099,None,,,,,,,,,,,,,,,,,,,,,,,,,,,,,,,,,,,,,,,,,,,,,,,,,,,,,m,,p5,2022_Mar_09_1315,training+cueing,2021.1.4,59.928577149985195,
Self.png,You,Self ,c,1,11,21,91,,,,,0,0,0,0,0,0,0,0,,,,,,,,,,,,,,,94.66125730006024,None,146.21576449996792,None,space,7.232432999880984,2.008016309933737,None,155.45587960002013,None,1.5,1.697,158.46627780003473,None,159.09735499997623,159.6086397001054,159.5919617000036,159.69199370010756,159.5919617000036,159.69199370010756,159.69199370010756,None,c,1,1.1009550001472235,159.69199370010756,None,160.81260910001583,None,,,,,,,,,,,,,,,,,,,,,,,,m,,p5,2022_Mar_09_1315,training+cueing,2021.1.4,59.928577149985195,
Stranger.png,You,Stranger,m,1.3,15,25,95,,,,,0,0,0,0,0,1,1,6,,,,,,,,,,,,,,,,,,,,,,,,,1.441,1.925,161.22665089997463,None,161.76505309995264,162.27727019996382,162.26056910003535,162.36062119994313,162.26056910003535,162.36062119994313,162.36062119994313,None,None,0,,162.36062119994313,None,163.8112532000523,None,,,,,,,,,,,,,,,,,,,,,,,,m,,p5,2022_Mar_09_1315,training+cueing,2021.1.4,59.928577149985195,
Friend.png,Friend,Friend,c,2,12,22,92,,,,,0,0,0,0,0,2,2,4,,,,,,,,,,,,,,,,,,,,,,,,,1.603,1.808,164.21201939997263,None,164.7603845000267,165.26276780012995,165.2461308001075,165.36362439999357,165.2461308001075,165.36362439999357,165.3462902000174,None,None,0,,165.3462902000174,None,166.9642246000003,None,,,,,,,,,,,,,,,,,,,,,,,,m,,p5,2022_Mar_09_1315,training+cueing,2021.1.4,59.928577149985195,
Stranger.png,Stranger,Stranger,c,3,13,23,93,,,,,0,0,0,0,0,3,3,11,,,,,,,,,,,,,,,,,,,,,,,,,1.684,2.486,167.36443060007878,None,167.89871220011264,168.39850390003994,168.39850390003994,168.49840530008078,168.39850390003994,168.49840530008078,168.49840530008078,None,c,1,0.9024847000837326,168.49840530008078,None,169.4146575999912,None,,,,,,,,,,,,,,,,,,,,,,,,m,,p5,2022_Mar_09_1315,training+cueing,2021.1.4,59.928577149985195,
Self.png,Stranger,Self ,m,3.1,18,28,98,,,,,0,0,0,0,0,4,4,2,,,,,,,,,,,,,,,,,,,,,,,,,1.417,1.744,169.81605820008554,None,170.3471721999813,170.85018620011397,170.83353059994988,170.93355690012686,170.83353059994988,170.93355690012686,170.93355690012686,None,None,0,,170.93355690012686,None,172.3513038000092,None,,,,,,,,,,,,,,,,,,,,,,,,m,,p5,2022_Mar_09_1315,training+cueing,2021.1.4,59.928577149985195,
Friend.png,You,Friend,m,1.2,14,24,94,,,,,0,0,0,0,0,5,5,3,,,,,,,,,,,,,,,,,,,,,,,,,1.431,1.456,172.7517071000766,None,173.2921746999491,173.80234830011614,173.7856755000539,173.88573750015348,173.7856755000539,173.88573750015348,173.88573750015348,None,c,0,0.6990709998644888,173.88573750015348,None,174.6029608999379,None,,,,,,,,,,,,,,,,,,,,,,,,m,,p5,2022_Mar_09_1315,training+cueing,2021.1.4,59.928577149985195,
Friend.png,Stranger,Friend,m,3.2,19,29,99,,,,,0,0,0,0,0,6,6,5,,,,,,,,,,,,,,,,,,,,,,,,,1.724,2.16,175.00324610015377,None,175.54971900000237,176.05396630009636,176.03733130008914,176.1541224999819,176.03733130008914,176.1541224999819,176.13743230002,None,c,0,0.6236864000093192,176.13743230002,None,176.78793610003777,None,,,,,,,,,,,,,,,,,,,,,,,,m,,p5,2022_Mar_09_1315,training+cueing,2021.1.4,59.928577149985195,
Stranger.png,Stranger,Stranger,c,3,13,23,93,,,,,0,0,0,0,0,7,7,8,,,,,,,,,,,,,,,,,,,,,,,,,1.496,1.493,177.1883774001617,None,177.71793780010194,178.22225150000304,178.20557770016603,178.32308929995634,178.20557770016603,178.32308929995634,178.30573599995114,None,c,1,0.7432120000012219,178.30573599995114,None,179.07488910015672,None,,,,,,,,,,,,,,,,,,,,,,,,m,,p5,2022_Mar_09_1315,training+cueing,2021.1.4,59.928577149985195,
Self.png,You,Self ,c,1,11,21,91,,,,,0,0,0,0,0,8,8,9,,,,,,,,,,,,,,,,,,,,,,,,,1.675,2.239,179.48998770001344,None,180.04407860012725,180.55746800010093,180.54077940015122,180.64083350007422,180.54077940015122,180.64083350007422,180.64083350007422,None,m,0,0.8080267000477761,180.64083350007422,None,181.4782688000705,None,,,,,,,,,,,,,,,,,,,,,,,,m,,p5,2022_Mar_09_1315,training+cueing,2021.1.4,59.928577149985195,
Friend.png,Friend,Friend,c,2,12,22,92,,,,,0,0,0,0,0,9,9,10,,,,,,,,,,,,,,,,,,,,,,,,,1.587,1.755,181.89169310010038,None,182.42459039995447,182.92571470001712,182.90904940012842,183.02575070015155,182.90904940012842,183.02575070015155,183.00902240001597,None,c,1,1.1758325998671353,183.00902240001597,None,184.2088447001297,None,,,,,,,,,,,,,,,,,,,,,,,,m,,p5,2022_Mar_09_1315,training+cueing,2021.1.4,59.928577149985195,
Self.png,Friend,Self ,m,2.1,16,26,96,,,,,0,0,0,0,0,10,10,1,,,,,,,,,,,,,,,,,,,,,,,,,1.477,1.938,184.61043730005622,None,185.1458598000463,185.66102500003763,185.64435980003327,185.76108730002306,185.64435980003327,185.76108730002306,185.7443842999637,None,c,0,0.6964775000233203,185.7443842999637,None,186.4650910999626,None,,,,,,,,,,,,,,,,,,,,,,,,m,,p5,2022_Mar_09_1315,training+cueing,2021.1.4,59.928577149985195,
Stranger.png,Friend,Stranger,m,2.3,17,27,97,,,,,0,0,0,0,0,11,11,7,,,,,,,,,,,,,,,,,,,,,,,,,1.729,1.294,186.8785937000066,None,187.4139283001423,187.92936059995554,187.9126971999649,188.0294141001068,187.9126971999649,188.0294141001068,188.01271579996683,None,c,0,0.6841552001424134,188.01271579996683,None,188.71332520013675,None,,,,,,,,,,,,,,,,,,,,,,,,m,,p5,2022_Mar_09_1315,training+cueing,2021.1.4,59.928577149985195,
Friend.png,You,Friend,m,1.2,14,24,94,,,,,0,0,0,0,,,,,0,0,0,3,,,,,,,,,,,,,,,,,,,211.9805195000954,None,1.662,1.559,215.511668600142,None,,,,,,,,,,,,,,,,189.11367780016735,None,0.014289309969171882,0.5130865098908544,216.12387580005452,216.63389290007763,0.5007771800737828,1.0010579801164567,216.61726090009324,216.71729149995372,216.61726090009324,216.71729149995372,216.71729149995372,None,c,0,0.6194915000814945,216.71729149995372,None,,,,,m,,p5,2022_Mar_09_1315,training+cueing,2021.1.4,59.928577149985195,
Self.png,You,Self ,c,1,11,21,91,,,,,0,0,0,0,,,,,0,1,1,0,,,,,,,,,,,,,,,,,,,,,1.781,2.287,217.47499909996986,None,,,,,,,,,,,,,,,,,,,,218.01453149993904,218.51844180002809,0.5072416299954057,1.0074804299511015,218.50182480015792,218.60178690007888,218.50182480015792,218.60178690007888,218.60178690007888,None,c,1,0.7028822000138462,218.60178690007888,None,,,,,m,,p5,2022_Mar_09_1315,training+cueing,2021.1.4,59.928577149985195,
Stranger.png,Stranger,Stranger,c,3,13,23,93,,,,,0,0,0,0,,,,,0,2,2,11,,,,,,,,,,,,,,,,,,,,,1.478,1.956,219.4423275999725,None,,,,,,,,,,,,,,,,,,,,219.98363140015863,220.4867160001304,0.5055099299643189,1.005738329840824,220.47006660001352,220.58704619994387,220.47006660001352,220.58704619994387,220.57006549998187,None,m,0,0.9266365000512451,220.57006549998187,None,,,,,m,,p5,2022_Mar_09_1315,training+cueing,2021.1.4,59.928577149985195,
Friend.png,Stranger,Friend,m,3.2,19,29,99,,,,,0,0,0,0,,,,,0,3,3,5,,,,,,,,,,,,,,,,,,,,,1.576,2.369,221.62833930016495,None,,,,,,,,,,,,,,,,,,,,222.1666731000878,222.671482300153,0.5070594300050288,1.0073753299657255,222.65477260015905,222.7715289001353,222.65477260015905,222.7715289001353,222.75480929994956,None,m,1,0.9978837999515235,222.75480929994956,None,,,,,m,,p5,2022_Mar_09_1315,training+cueing,2021.1.4,59.928577149985195,
Friend.png,Friend,Friend,c,2,12,22,92,,,,,0,0,0,0,,,,,0,4,4,10,,,,,,,,,,,,,,,,,,,,,1.735,2.308,223.8783969001379,None,,,,,,,,,,,,,,,,,,,,224.42029329994693,224.92310130014084,0.5061081300955266,1.0063226299826056,224.9065173000563,225.02317670010962,224.9065173000563,225.02317670010962,225.00680069997907,None,c,1,1.2099993999581784,225.00680069997907,None,,,,,m,,p5,2022_Mar_09_1315,training+cueing,2021.1.4,59.928577149985195,
Self.png,You,Self ,c,1,11,21,91,,,,,0,0,0,0,,,,,0,5,5,9,,,,,,,,,,,,,,,,,,,,,1.582,1.455,226.34763010009192,None,,,,,,,,,,,,,,,,,,,,226.8882587000262,227.39156360016204,0.507322329794988,1.007587029831484,227.3749357999768,227.47497640014626,227.3749357999768,227.47497640014626,227.47497640014626,None,c,1,0.7578491999302059,227.47497640014626,None,,,,,m,,p5,2022_Mar_09_1315,training+cueing,2021.1.4,59.928577149985195,
Self.png,Friend,Self ,m,2.1,16,26,96,,,,,0,0,0,0,,,,,0,6,6,1,,,,,,,,,,,,,,,,,,,,,1.597,1.549,228.36546350014396,None,,,,,,,,,,,,,,,,,,,,228.9058763999492,229.40975009999238,0.5049651297740638,1.0052534297574311,229.39307190012187,229.5097976999823,229.39307190012187,229.5097976999823,229.49308459996246,None,c,0,0.6116950002033263,229.49308459996246,None,,,,,m,,p5,2022_Mar_09_1315,training+cueing,2021.1.4,59.928577149985195,
Stranger.png,You,Stranger,m,1.3,15,25,95,,,,,0,0,0,0,,,,,0,7,7,6,,,,,,,,,,,,,,,,,,,,,1.433,1.761,230.2330418000929,None,,,,,,,,,,,,,,,,,,,,230.77382290014066,231.27781610004604,0.5072448297869414,1.008360929787159,231.26114480011165,231.3611715999432,231.26114480011165,231.3611715999432,231.3611715999432,None,m,1,0.839794100029394,231.3611715999432,None,,,,,m,,p5,2022_Mar_09_1315,training+cueing,2021.1.4,59.928577149985195,
Stranger.png,Stranger,Stranger,c,3,13,23,93,,,,,0,0,0,0,,,,,0,8,8,8,,,,,,,,,,,,,,,,,,,,,1.483,2.394,232.33912639995106,None,,,,,,,,,,,,,,,,,,,,232.8773169000633,233.37932680011727,0.5021512298844755,1.0025414298288524,233.36265729996376,233.479518200038,233.36265729996376,233.479518200038,233.46314659994096,None,c,1,0.9616164001636207,233.46314659994096,None,,,,,m,,p5,2022_Mar_09_1315,training+cueing,2021.1.4,59.928577149985195,
Self.png,Stranger,Self ,m,3.1,18,28,98,,,,,0,0,0,0,,,,,0,9,9,2,,,,,,,,,,,,,,,,,,,,,1.666,1.78,234.55339609994553,None,,,,,,,,,,,,,,,,,,,,235.09174629999325,235.59760810015723,0.5117631298489869,1.0120738300029188,235.58094780007377,235.69767670007423,235.58094780007377,235.69767670007423,235.68099340004846,None,m,1,1.1117678000591695,235.68099340004846,None,,,,,m,,p5,2022_Mar_09_1315,training+cueing,2021.1.4,59.928577149985195,
Friend.png,Friend,Friend,c,2,12,22,92,,,,,0,0,0,0,,,,,0,10,10,4,,,,,,,,,,,,,,,,,,,,,1.598,1.858,236.92188780009747,None,,,,,,,,,,,,,,,,,,,,237.4771259999834,237.98265030002221,0.5113644402008504,1.0118039401713759,237.9660347001627,238.0827192000579,237.9660347001627,238.0827192000579,238.06604130007327,None,c,1,1.2067724000662565,238.06604130007327,None,,,,,m,,p5,2022_Mar_09_1315,training+cueing,2021.1.4,59.928577149985195,
Stranger.png,Friend,Stranger,m,2.3,17,27,97,,,,,0,0,0,0,,,,,0,11,11,7,,,,,,,,,,,,,,,,,,,,,1.785,2.237,239.4060776999686,None,,,,,,,,,,,,,,,,,,,,239.96679730014876,240.4680393000599,0.5014240397140384,1.0017256396822631,240.4513424001634,240.56809850013815,240.4513424001634,240.56809850013815,240.56809850013815,None,m,1,0.9926678000483662,240.56809850013815,None,,,,,m,,p5,2022_Mar_09_1315,training+cueing,2021.1.4,59.928577149985195,
Self.png,You,Self ,c,1,11,21,91,,,,,0,0,0,0,,,,,1,0,12,9,,,,,,,,,,,,,,,,,,,,,1.554,1.38,241.6920145000331,None,,,,,,,,,,,,,,,,,,,,242.23203129996546,242.73616940015927,0.5074134299065918,1.0076799299567938,242.71951960003935,242.8195253999438,242.71951960003935,242.8195253999438,242.8195253999438,None,c,1,0.9171144999563694,242.8195253999438,None,,,,,m,,p5,2022_Mar_09_1315,training+cueing,2021.1.4,59.928577149985195,
Stranger.png,Stranger,Stranger,c,3,13,23,93,,,,,0,0,0,0,,,,,1,1,13,8,,,,,,,,,,,,,,,,,,,,,1.67,1.885,243.86006069998257,None,,,,,,,,,,,,,,,,,,,,244.40350889996625,244.90460669994354,0.5021406300365925,1.002340029925108,244.88780810008757,245.00453280005604,244.88780810008757,245.00453280005604,244.98792280000634,None,m,0,1.0528339999727905,244.98792280000634,None,,,,,m,,p5,2022_Mar_09_1315,training+cueing,2021.1.4,59.928577149985195,
Stranger.png,You,Stranger,m,1.3,15,25,95,,,,,0,0,0,0,,,,,1,2,14,6,,,,,,,,,,,,,,,,,,,,,1.641,1.44,246.17814390012063,None,,,,,,,,,,,,,,,,,,,,246.73779060016386,247.2394608000759,0.502538540167734,1.0027293402235955,247.22289650002494,247.32285000011325,247.22289650002494,247.32285000011325,247.32285000011325,None,c,0,0.701866100076586,247.32285000011325,None,,,,,m,,p5,2022_Mar_09_1315,training+cueing,2021.1.4,59.928577149985195,
Stranger.png,Friend,Stranger,m,2.3,17,27,97,,,,,0,0,0,0,,,,,1,3,15,7,,,,,,,,,,,,,,,,,,,,,1.732,1.471,248.1467347999569,None,,,,,,,,,,,,,,,,,,,,248.68587430007756,249.19111820007674,0.5110573295969516,1.0113578296732157,249.17419119994156,249.29094110010192,249.17419119994156,249.29094110010192,249.27425220003352,None,m,1,1.0066819000057876,249.27425220003352,None,,,,,m,,p5,2022_Mar_09_1315,training+cueing,2021.1.4,59.928577149985195,
Stranger.png,Stranger,Stranger,c,3,13,23,93,,,,,0,0,0,0,,,,,1,4,16,11,,,,,,,,,,,,,,,,,,,,,1.686,2.238,250.41474050004035,None,,,,,,,,,,,,,,,,,,,,250.95601700013503,251.45918860007077,0.5042388299480081,1.0045084299053997,251.44250010000542,251.55924960016273,251.44250010000542,251.55924960016273,251.54250740003772,None,m,0,1.0581378999631852,251.54250740003772,None,,,,,m,,p5,2022_Mar_09_1315,training+cueing,2021.1.4,59.928577149985195,
Friend.png,You,Friend,m,1.2,14,24,94,,,,,0,0,0,0,,,,,1,5,17,3,,,,,,,,,,,,,,,,,,,,,1.495,1.587,252.73326710006222,None,,,,,,,,,,,,,,,,,,,,253.27365060010925,253.77754830010235,0.5078426299151033,1.0081293298862875,253.76089849998243,253.8609406000469,253.76089849998243,253.8609406000469,253.8609406000469,None,m,1,1.1718069000635296,253.8609406000469,None,,,,,m,,p5,2022_Mar_09_1315,training+cueing,2021.1.4,59.928577149985195,
Self.png,Friend,Self ,m,2.1,16,26,96,,,,,0,0,0,0,,,,,1,6,18,1,,,,,,,,,,,,,,,,,,,,,1.529,2.101,255.16885480005294,None,,,,,,,,,,,,,,,,,,,,255.7093909000978,256.2126297999639,0.5061537302099168,1.0064578300807625,256.19600180001,256.31269500008784,256.19600180001,256.31269500008784,256.2959980000742,None,c,0,0.6886207999195904,256.2959980000742,None,,,,,m,,p5,2022_Mar_09_1315,training+cueing,2021.1.4,59.928577149985195,
Friend.png,Friend,Friend,c,2,12,22,92,,,,,0,0,0,0,,,,,1,7,19,10,,,,,,,,,,,,,,,,,,,,,1.677,1.384,257.1200739000924,None,,,,,,,,,,,,,,,,,,,,257.6573559001554,258.1640341000166,0.5113492298405617,1.0117780298460275,258.1474075000733,258.2640742000658,258.1474075000733,258.2640742000658,258.24742890009657,None,m,0,1.1373262000270188,258.24742890009657,None,,,,,m,,p5,2022_Mar_09_1315,training+cueing,2021.1.4,59.928577149985195,
Friend.png,Friend,Friend,c,2,12,22,92,,,,,0,0,0,0,,,,,1,8,20,4,,,,,,,,,,,,,,,,,,,,,1.479,1.466,259.52113140001893,None,,,,,,,,,,,,,,,,,,,,260.0714287001174,260.5825426999945,0.5055538299493492,1.0058402300346643,260.5658313999884,260.6825379000511,260.5658313999884,260.6825379000511,260.66586209996603,None,None,0,,260.66586209996603,None,,,,,m,,p5,2022_Mar_09_1315,training+cueing,2021.1.4,59.928577149985195,
Self.png,Stranger,Self ,m,3.1,18,28,98,,,,,0,0,0,0,,,,,1,9,21,2,,,,,,,,,,,,,,,,,,,,,1.77,1.535,262.2549471000675,None,,,,,,,,,,,,,,,,,,,,262.79831680003554,263.30114570003934,0.5056057297624648,1.0066018297802657,263.2845485000871,263.4011995000765,263.2845485000871,263.4011995000765,263.3844837001525,None,m,1,1.1683247999753803,263.3844837001525,None,,,,,m,,p5,2022_Mar_09_1315,training+cueing,2021.1.4,59.928577149985195,
Self.png,You,Self ,c,1,11,21,91,,,,,0,0,0,0,,,,,1,10,22,0,,,,,,,,,,,,,,,,,,,,,1.646,2.415,264.67592289997265,None,,,,,,,,,,,,,,,,,,,,265.21948780003004,265.7195510000456,0.5142948299180716,1.0154584299307317,265.7195510000456,265.81960349995643,265.7195510000456,265.81960349995643,265.81960349995643,None,c,1,0.8452967999037355,265.81960349995643,None,,,,,m,,p5,2022_Mar_09_1315,training+cueing,2021.1.4,59.928577149985195,
Friend.png,Stranger,Friend,m,3.2,19,29,99,,,,,0,0,0,0,,,,,1,11,23,5,,,,,,,,,,,,,,,,,,,,,1.557,1.964,266.7968111000955,None,,,,,,,,,,,,,,,,,,,,267.33582410006784,267.8377757000271,0.5047265298198909,1.0050052299629897,267.82109870016575,267.93780310009606,267.82109870016575,267.93780310009606,267.92112790001556,None,m,1,0.9355800000485033,267.92112790001556,None,,,,,m,,p5,2022_Mar_09_1315,training+cueing,2021.1.4,59.928577149985195,
Stranger.png,You,Stranger,m,1.3,15,25,95,,,,,0,0,0,0,,,,,2,0,24,6,,,,,,,,,,,,,,,,,,,,,1.751,1.761,268.9785587999504,None,,,,,,,,,,,,,,,,,,,,269.51938339998014,270.02265870012343,0.504996030125767,1.005256530130282,270.0060255001299,270.106078900164,270.0060255001299,270.106078900164,270.106078900164,None,m,1,1.0068779999855906,270.106078900164,None,,,,,m,,p5,2022_Mar_09_1315,training+cueing,2021.1.4,59.928577149985195,
Stranger.png,Friend,Stranger,m,2.3,17,27,97,,,,,0,0,0,0,,,,,2,1,25,7,,,,,,,,,,,,,,,,,,,,,1.435,1.975,271.2503047999926,None,,,,,,,,,,,,,,,,,,,,271.789428899996,272.29093839996494,0.5027414299547672,1.0031791299115866,272.27428100002,272.39193379995413,272.27428100002,272.39193379995413,272.37516409996897,None,m,1,0.8974412002135068,272.37516409996897,None,,,,,m,,p5,2022_Mar_09_1315,training+cueing,2021.1.4,59.928577149985195,
Self.png,Friend,Self ,m,2.1,16,26,96,,,,,0,0,0,0,,,,,2,2,26,1,,,,,,,,,,,,,,,,,,,,,1.621,1.924,273.3976658000611,None,,,,,,,,,,,,,,,,,,,,273.9438978000544,274.4591960001271,0.5142432299908251,1.0145495301112533,274.4425499001518,274.5592352999374,274.4425499001518,274.5592352999374,274.54257380007766,None,m,1,0.9540581000037491,274.54257380007766,None,,,,,m,,p5,2022_Mar_09_1315,training+cueing,2021.1.4,59.928577149985195,
Self.png,You,Self ,c,1,11,21,91,,,,,0,0,0,0,,,,,2,3,27,0,,,,,,,,,,,,,,,,,,,,,1.447,1.287,275.6324428000953,None,,,,,,,,,,,,,,,,,,,,276.1857042000629,276.69419419998303,0.5151561398524791,1.0162462398875505,276.67751509998925,276.77750740014017,276.67751509998925,276.77750740014017,276.77750740014017,None,c,1,0.8151483000256121,276.77750740014017,None,,,,,m,,p5,2022_Mar_09_1315,training+cueing,2021.1.4,59.928577149985195,
Self.png,You,Self ,c,1,11,21,91,,,,,0,0,0,0,,,,,2,4,28,9,,,,,,,,,,,,,,,,,,,,,1.595,2.1,277.71770879998803,None,,,,,,,,,,,,,,,,,,,,278.25543030002154,278.76228710007854,0.5137959299609065,1.0140598299913108,278.745647800155,278.8456854999531,278.745647800155,278.8456854999531,278.8456854999531,None,c,1,0.6670274999924004,278.8456854999531,None,,,,,m,,p5,2022_Mar_09_1315,training+cueing,2021.1.4,59.928577149985195,
Friend.png,Stranger,Friend,m,3.2,19,29,99,,,,,0,0,0,0,,,,,2,5,29,5,,,,,,,,,,,,,,,,,,,,,1.454,1.638,279.6354974000715,None,,,,,,,,,,,,,,,,,,,,280.17786539997905,280.68034640001133,0.5052032298408449,1.0055093299597502,280.6636954001151,280.78041939996183,280.6636954001151,280.78041939996183,280.76373180001974,None,m,1,0.8449035999365151,280.76373180001974,None,,,,,m,,p5,2022_Mar_09_1315,training+cueing,2021.1.4,59.928577149985195,
Stranger.png,Stranger,Stranger,c,3,13,23,93,,,,,0,0,0,0,,,,,2,6,30,11,,,,,,,,,,,,,,,,,,,,,1.467,2.499,281.7373333000578,None,,,,,,,,,,,,,,,,,,,,282.2751197000034,282.7818386000581,0.5103978298138827,1.01077112974599,282.7652300000191,282.8819111001212,282.7652300000191,282.8819111001212,282.86523580015637,None,c,1,0.9033991999458522,282.86523580015637,None,,,,,m,,p5,2022_Mar_09_1315,training+cueing,2021.1.4,59.928577149985195,
Self.png,Stranger,Self ,m,3.1,18,28,98,,,,,0,0,0,0,,,,,2,7,31,2,,,,,,,,,,,,,,,,,,,,,1.596,2.28,283.90606119995937,None,,,,,,,,,,,,,,,,,,,,284.4587560000364,284.96682159998454,0.5158085401635617,1.0159670400898904,284.9502402001526,285.06687600002624,284.9502402001526,285.06687600002624,285.0309830000624,None,m,1,1.025938999839127,285.0309830000624,None,,,,,m,,p5,2022_Mar_09_1315,training+cueing,2021.1.4,59.928577149985195,
Friend.png,Friend,Friend,c,2,12,22,92,,,,,0,0,0,0,,,,,2,8,32,10,,,,,,,,,,,,,,,,,,,,,1.468,2.48,286.1906520000193,None,,,,,,,,,,,,,,,,,,,,286.7297543999739,287.2351077001076,0.5077124298550189,1.0088805300183594,287.21854030014947,287.3351600000169,287.21854030014947,287.3351600000169,287.3184770999942,None,m,0,1.2501839001197368,287.3184770999942,None,,,,,m,,p5,2022_Mar_09_1315,training+cueing,2021.1.4,59.928577149985195,
Friend.png,Friend,Friend,c,2,12,22,92,,,,,0,0,0,0,,,,,2,9,33,4,,,,,,,,,,,,,,,,,,,,,1.543,1.459,288.69370230007917,None,,,,,,,,,,,,,,,,,,,,289.23328640009277,289.7369103000965,0.5070625299122185,1.007376629859209,289.72024510009214,289.83695799997076,289.72024510009214,289.83695799997076,289.82026510010473,None,None,0,,289.82026510010473,None,,,,,m,,p5,2022_Mar_09_1315,training+cueing,2021.1.4,59.928577149985195,
Stranger.png,Stranger,Stranger,c,3,13,23,93,,,,,0,0,0,0,,,,,2,10,34,8,,,,,,,,,,,,,,,,,,,,,1.458,1.334,291.47580430004746,None,,,,,,,,,,,,,,,,,,,,292.03111640014686,292.5389130001422,0.49943713983520865,0.9997210397850722,292.50560780009255,292.6056284001097,292.50560780009255,292.6056284001097,292.6056284001097,None,m,0,0.970982400001958,292.6056284001097,None,,,,,m,,p5,2022_Mar_09_1315,training+cueing,2021.1.4,59.928577149985195,
Friend.png,You,Friend,m,1.2,14,24,94,,,,,0,0,0,0,,,,,2,11,35,3,,,,,,,,,,,,,,,,,,,,,1.446,2.108,293.71327550010756,None,,,,,,,,,,,,,,,,,,,,294.2519370999653,294.7571950000711,0.5073660297784954,1.0076925298199058,294.7405632000882,294.8405864001252,294.7405632000882,294.8405864001252,294.8405864001252,None,None,0,,294.8405864001252,None,,,,,m,,p5,2022_Mar_09_1315,training+cueing,2021.1.4,59.928577149985195,
Friend.png,You,Friend,m,1.2,14,24,94,,,,,0,0,0,0,,,,,3,0,36,3,,,,,,,,,,,,,,,,,,,,,1.422,2.175,296.39588150009513,None,,,,,,,,,,,,,,,,,,,,296.935748500051,297.4424600000493,0.5117784298490733,1.0120512298308313,297.4257932000328,297.52581709995866,297.4257932000328,297.52581709995866,297.52581709995866,None,m,1,0.8828066999558359,297.52581709995866,None,,,,,m,,p5,2022_Mar_09_1315,training+cueing,2021.1.4,59.928577149985195,
Stranger.png,Friend,Stranger,m,2.3,17,27,97,,,,,0,0,0,0,,,,,3,1,37,7,,,,,,,,,,,,,,,,,,,,,1.685,2.114,298.5330743000377,None,,,,,,,,,,,,,,,,,,,,299.074565500021,299.5773225999437,0.5061313298065215,1.0064160299953073,299.5607001001481,299.6774019000586,299.5607001001481,299.6774019000586,299.6606994001195,None,c,0,1.1161346000153571,299.6606994001195,None,,,,,m,,p5,2022_Mar_09_1315,training+cueing,2021.1.4,59.928577149985195,
Stranger.png,You,Stranger,m,1.3,15,25,95,,,,,0,0,0,0,,,,,3,2,38,6,,,,,,,,,,,,,,,,,,,,,1.72,1.693,300.9058260000311,None,,,,,,,,,,,,,,,,,,,,301.4484048001468,301.96236789994873,0.5097477298695594,1.0100853298790753,301.94569039996713,302.0457633000333,301.94569039996713,302.0457633000333,302.0457633000333,None,m,1,0.7147830999456346,302.0457633000333,None,,,,,m,,p5,2022_Mar_09_1315,training+cueing,2021.1.4,59.928577149985195,
Self.png,Friend,Self ,m,2.1,16,26,96,,,,,0,0,0,0,,,,,3,3,39,1,,,,,,,,,,,,,,,,,,,,,1.737,1.888,302.8857529000379,None,,,,,,,,,,,,,,,,,,,,303.44133289996535,303.94718280015513,0.5126023401971906,1.0129040400497615,303.93048169999383,304.0472210999578,303.93048169999383,304.0472210999578,304.03050610003993,None,m,1,1.4022066998295486,304.03050610003993,None,,,,,m,,p5,2022_Mar_09_1315,training+cueing,2021.1.4,59.928577149985195,
Self.png,You,Self ,c,1,11,21,91,,,,,0,0,0,0,,,,,3,4,40,9,,,,,,,,,,,,,,,,,,,,,1.53,2.042,305.55613370006904,None,,,,,,,,,,,,,,,,,,,,306.095229400089,306.5991092999466,0.5044787297956645,1.004781129769981,306.58240519999526,306.6824314999394,306.58240519999526,306.6824314999394,306.6824314999394,None,c,1,0.8941699999850243,306.6824314999394,None,,,,,m,,p5,2022_Mar_09_1315,training+cueing,2021.1.4,59.928577149985195,
Stranger.png,Stranger,Stranger,c,3,13,23,93,,,,,0,0,0,0,,,,,3,5,41,11,,,,,,,,,,,,,,,,,,,,,1.459,2.144,307.7058065000456,None,,,,,,,,,,,,,,,,,,,,308.2467873999849,308.750664900057,0.5072576301172376,1.0074621301610023,308.73399540013634,308.85069360001944,308.73399540013634,308.85069360001944,308.833960799966,None,m,0,0.8545837001875043,308.833960799966,None,,,,,m,,p5,2022_Mar_09_1315,training+cueing,2021.1.4,59.928577149985195,
Self.png,You,Self ,c,1,11,21,91,,,,,0,0,0,0,,,,,3,6,42,0,,,,,,,,,,,,,,,,,,,,,1.759,2.304,309.8245678001549,None,,,,,,,,,,,,,,,,,,,,310.38117119995877,310.88552030012943,0.5084206399042159,1.0084496398922056,310.86907989997417,310.9688822000753,310.86907989997417,310.9688822000753,310.9688822000753,None,c,1,0.9117099000141025,310.9688822000753,None,,,,,m,,p5,2022_Mar_09_1315,training+cueing,2021.1.4,59.928577149985195,
Friend.png,Stranger,Friend,m,3.2,19,29,99,,,,,0,0,0,0,,,,,3,7,43,5,,,,,,,,,,,,,,,,,,,,,1.463,1.331,312.0095145001542,None,,,,,,,,,,,,,,,,,,,,312.5493890000507,313.0537078999914,0.5068995300680399,1.007182430010289,313.03706530015916,313.15374210011214,313.03706530015916,313.15374210011214,313.13709040009417,None,m,1,0.9834541999734938,313.13709040009417,None,,,,,m,,p5,2022_Mar_09_1315,training+cueing,2021.1.4,59.928577149985195,
Friend.png,Friend,Friend,c,2,12,22,92,,,,,0,0,0,0,,,,,3,8,44,10,,,,,,,,,,,,,,,,,,,,,1.618,1.348,314.24453040002845,None,,,,,,,,,,,,,,,,,,,,314.78510730015114,315.28873020014726,0.5080497299786657,1.0083055298309773,315.27204910013825,315.3887845999561,315.27204910013825,315.3887845999561,315.37208450003527,None,m,0,0.956393500091508,315.37208450003527,None,,,,,m,,p5,2022_Mar_09_1315,training+cueing,2021.1.4,59.928577149985195,
Friend.png,Friend,Friend,c,2,12,22,92,,,,,0,0,0,0,,,,,3,9,45,4,,,,,,,,,,,,,,,,,,,,,1.731,2.459,316.46223439997993,None,,,,,,,,,,,,,,,,,,,,317.000142800156,317.5069252999965,0.5130924298427999,1.0134128299541771,317.4902566000819,317.60696869995445,317.4902566000819,317.60696869995445,317.59029199997894,None,c,1,0.9303315000142902,317.59029199997894,None,,,,,m,,p5,2022_Mar_09_1315,training+cueing,2021.1.4,59.928577149985195,
Self.png,Stranger,Self ,m,3.1,18,28,98,,,,,0,0,0,0,,,,,3,10,46,2,,,,,,,,,,,,,,,,,,,,,1.56,2.328,318.64784520003013,None,,,,,,,,,,,,,,,,,,,,319.1847010999918,319.69181700004265,0.51158262998797,1.0118059299420565,319.67522440012544,319.79189210012555,319.67522440012544,319.79189210012555,319.77517660008743,None,m,1,0.8094059999566525,319.77517660008743,None,,,,,m,,p5,2022_Mar_09_1315,training+cueing,2021.1.4,59.928577149985195,
Stranger.png,Stranger,Stranger,c,3,13,23,93,,,,,0,0,0,0,,,,,3,11,47,8,,,,,,,,,,,,,,,,,,,,,1.545,2.23,320.7158707000781,None,,,,,,,,,,,,,,,,,,,,321.25317179993726,321.75998360011727,0.5128443301655352,1.0131566300988197,321.74334030016325,321.8600392001681,321.74334030016325,321.8600392001681,321.8433982001152,None,m,0,1.0291414000093937,321.8433982001152,None,,,,,m,,p5,2022_Mar_09_1315,training+cueing,2021.1.4,59.928577149985195,
Stranger.png,Stranger,Stranger,c,3,13,23,93,,,,,0,0,0,0,,,,,4,0,48,8,,,,,,,,,,,,,,,,,,,,,1.661,2.062,323.0001441000495,None,,,,,,,,,,,,,,,,,,,,323.53569040005095,324.04525710013695,0.49927932978607714,0.9995908299461007,324.0116026001051,324.1116498999763,324.0116026001051,324.1116498999763,324.1116498999763,None,c,1,1.0329346000216901,324.1116498999763,None,,,,,m,,p5,2022_Mar_09_1315,training+cueing,2021.1.4,59.928577149985195,
Friend.png,Friend,Friend,c,2,12,22,92,,,,,0,0,0,0,,,,,4,1,49,4,,,,,,,,,,,,,,,,,,,,,1.699,2.044,325.26887709996663,None,,,,,,,,,,,,,,,,,,,,325.80922519997694,326.31325839995407,0.5075270300731063,1.007895529968664,326.29662060015835,326.4133373000659,326.29662060015835,326.4133373000659,326.39665809995495,None,m,0,0.9719463000074029,326.39665809995495,None,,,,,m,,p5,2022_Mar_09_1315,training+cueing,2021.1.4,59.928577149985195,
Friend.png,Stranger,Friend,m,3.2,19,29,99,,,,,0,0,0,0,,,,,4,2,50,5,,,,,,,,,,,,,,,,,,,,,1.761,1.936,327.50376310013235,None,,,,,,,,,,,,,,,,,,,,328.04475490003824,328.5482491001021,0.5073153299745172,1.0084341301117092,328.5315503999591,328.64854370011017,328.5315503999591,328.64854370011017,328.6316360000055,None,m,1,0.8809172001201659,328.6316360000055,None,,,,,m,,p5,2022_Mar_09_1315,training+cueing,2021.1.4,59.928577149985195,
Stranger.png,You,Stranger,m,1.3,15,25,95,,,,,0,0,0,0,,,,,4,3,51,6,,,,,,,,,,,,,,,,,,,,,1.484,1.277,329.6385580999777,None,,,,,,,,,,,,,,,,,,,,330.1964920000173,330.6997810001485,0.5059662400744855,1.0064159401226789,330.6831237000879,330.78316570003517,330.6831237000879,330.78316570003517,330.78316570003517,None,c,0,0.857415100093931,330.78316570003517,None,,,,,m,,p5,2022_Mar_09_1315,training+cueing,2021.1.4,59.928577149985195,
Friend.png,Friend,Friend,c,2,12,22,92,,,,,0,0,0,0,,,,,4,4,52,10,,,,,,,,,,,,,,,,,,,,,1.639,1.34,331.7730396001134,None,,,,,,,,,,,,,,,,,,,,332.3195617001038,332.83465750003234,0.5133761297911406,1.0136633298825473,332.81799570005387,332.93468890013173,332.81799570005387,332.93468890013173,332.9180130001623,None,m,0,1.1225561001338065,332.9180130001623,None,,,,,m,,p5,2022_Mar_09_1315,training+cueing,2021.1.4,59.928577149985195,
Stranger.png,Stranger,Stranger,c,3,13,23,93,,,,,0,0,0,0,,,,,4,5,53,11,,,,,,,,,,,,,,,,,,,,,1.683,2.296,334.175434099976,None,,,,,,,,,,,,,,,,,,,,334.7303977999836,335.2364340000786,0.5121725401841104,1.0123992401640862,335.219776700018,335.33644420001656,335.219776700018,335.33644420001656,335.31980599998496,None,m,0,1.0726995998993516,335.31980599998496,None,,,,,m,,p5,2022_Mar_09_1315,training+cueing,2021.1.4,59.928577149985195,
Self.png,You,Self ,c,1,11,21,91,,,,,0,0,0,0,,,,,4,6,54,0,,,,,,,,,,,,,,,,,,,,,1.532,2.353,336.5271241001319,None,,,,,,,,,,,,,,,,,,,,337.06679840013385,337.57140780007467,0.5079468300100416,1.0083587300032377,337.5547307000961,337.6547523001209,337.5547307000961,337.6547523001209,337.6547523001209,None,c,1,1.0577773998957127,337.6547523001209,None,,,,,m,,p5,2022_Mar_09_1315,training+cueing,2021.1.4,59.928577149985195,
Self.png,Friend,Self ,m,2.1,16,26,96,,,,,0,0,0,0,,,,,4,7,55,1,,,,,,,,,,,,,,,,,,,,,1.546,1.687,338.84616660000756,None,,,,,,,,,,,,,,,,,,,,339.384064800106,339.8897415001411,0.5102344297338277,1.0105055298190564,339.8730824000668,339.989789100131,339.8730824000668,339.989789100131,339.9731083000079,None,m,1,0.5634995999280363,339.9731083000079,None,,,,,m,,p5,2022_Mar_09_1315,training+cueing,2021.1.4,59.928577149985195,
Stranger.png,Friend,Stranger,m,2.3,17,27,97,,,,,0,0,0,0,,,,,4,8,56,7,,,,,,,,,,,,,,,,,,,,,1.662,1.487,340.6636705000419,None,,,,,,,,,,,,,,,,,,,,341.21456430014223,341.72439630003646,0.5007648298051208,1.001115829916671,341.7077413999941,341.82442920003086,341.7077413999941,341.82442920003086,341.82442920003086,None,c,0,1.2401083998847753,341.82442920003086,None,,,,,m,,p5,2022_Mar_09_1315,training+cueing,2021.1.4,59.928577149985195,
Self.png,You,Self ,c,1,11,21,91,,,,,0,0,0,0,,,,,4,9,57,9,,,,,,,,,,,,,,,,,,,,,1.438,2.235,343.19895810005255,None,,,,,,,,,,,,,,,,,,,,343.7386501999572,344.24287580000237,0.5084283300675452,1.0087283300235868,344.2261902000755,344.32623720006086,344.2261902000755,344.32623720006086,344.32623720006086,None,c,1,1.0583813998382539,344.32623720006086,None,,,,,m,,p5,2022_Mar_09_1315,training+cueing,2021.1.4,59.928577149985195,
Friend.png,You,Friend,m,1.2,14,24,94,,,,,0,0,0,0,,,,,4,10,58,3,,,,,,,,,,,,,,,,,,,,,1.65,1.738,345.5166641001124,None,,,,,,,,,,,,,,,,,,,,346.0687154000625,346.577897900017,0.5019609299488366,1.0022034298162907,346.5612556000706,346.66127769998275,346.5612556000706,346.66127769998275,346.66127769998275,None,m,1,0.9952424999792129,346.66127769998275,None,,,,,m,,p5,2022_Mar_09_1315,training+cueing,2021.1.4,59.928577149985195,
Self.png,Stranger,Self ,m,3.1,18,28,98,,,,,0,0,0,0,,,,,4,11,59,2,,,,,,,,,,,,,,,,,,,,,1.724,1.678,347.78448630007915,None,,,,,,,,,,,,,,,,,,,,348.3255382999778,348.82951349997893,0.5065259297844023,1.006803129799664,348.8128866001498,348.92956029996276,348.8128866001498,348.92956029996276,348.91287620016374,None,m,1,0.9996507000178099,348.91287620016374,None,,,,,m,,p5,2022_Mar_09_1315,training+cueing,2021.1.4,59.928577149985195,
Self.png,You,Self ,c,1,11,21,91,,,,,0,0,0,0,,,,,5,0,60,0,,,,,,,,,,,,,,,,,,,,,1.646,1.684,350.0361520999577,None,,,,,,,,,,,,,,,,,,,,350.57481110002846,351.0811332000885,0.5128675298765302,1.0131384297274053,351.064486999996,351.1645295000635,351.064486999996,351.1645295000635,351.1645295000635,None,c,1,0.7800406999886036,351.1645295000635,None,,,,,m,,p5,2022_Mar_09_1315,training+cueing,2021.1.4,59.928577149985195,
Friend.png,Friend,Friend,c,2,12,22,92,,,,,0,0,0,0,,,,,5,1,61,4,,,,,,,,,,,,,,,,,,,,,1.473,2.145,352.0714863999747,None,,,,,,,,,,,,,,,,,,,,352.6257613999769,353.13263130001724,0.5139974399935454,1.0151571398600936,353.1159330001101,353.23271850007586,353.1159330001101,353.23271850007586,353.21607409999706,None,c,1,1.4324949998408556,353.21607409999706,None,,,,,m,,p5,2022_Mar_09_1315,training+cueing,2021.1.4,59.928577149985195,
Self.png,Stranger,Self ,m,3.1,18,28,98,,,,,0,0,0,0,,,,,5,2,62,2,,,,,,,,,,,,,,,,,,,,,1.653,1.601,354.7746145001147,None,,,,,,,,,,,,,,,,,,,,355.3153506000526,355.81788470014,0.5021944299805909,1.002520129783079,355.8012364001479,355.91791870002635,355.8012364001479,355.91791870002635,355.90128830005415,None,m,1,0.9232181999832392,355.90128830005415,None,,,,,m,,p5,2022_Mar_09_1315,training+cueing,2021.1.4,59.928577149985195,
Stranger.png,Stranger,Stranger,c,3,13,23,93,,,,,0,0,0,0,,,,,5,3,63,8,,,,,,,,,,,,,,,,,,,,,1.712,1.986,356.9587437999435,None,,,,,,,,,,,,,,,,,,,,357.49500600015745,358.0027681000065,0.4993455298244953,0.9995542299002409,357.96949629997835,358.06950390012935,357.96949629997835,358.06950390012935,358.06950390012935,None,c,1,1.2829607999883592,358.06950390012935,None,,,,,m,,p5,2022_Mar_09_1315,training+cueing,2021.1.4,59.928577149985195,
Stranger.png,Friend,Stranger,m,2.3,17,27,97,,,,,0,0,0,0,,,,,5,4,64,7,,,,,,,,,,,,,,,,,,,,,1.472,1.863,359.47687619994394,None,,,,,,,,,,,,,,,,,,,,360.04605649993755,360.55464630015194,0.49978014011867344,1.0008813401218504,360.5379842000548,360.6546922000125,360.5379842000548,360.6546922000125,360.6546922000125,None,m,1,0.8738619999494404,360.6546922000125,None,,,,,m,,p5,2022_Mar_09_1315,training+cueing,2021.1.4,59.928577149985195,
Stranger.png,You,Stranger,m,1.3,15,25,95,,,,,0,0,0,0,,,,,5,5,65,6,,,,,,,,,,,,,,,,,,,,,1.431,1.451,361.66312110004947,None,,,,,,,,,,,,,,,,,,,,362.20312750013545,362.7061861001421,0.5048818299546838,1.0053995298221707,362.68950890004635,362.78953070007265,362.68950890004635,362.78953070007265,362.78953070007265,None,c,0,0.7710400999058038,362.78953070007265,None,,,,,m,,p5,2022_Mar_09_1315,training+cueing,2021.1.4,59.928577149985195,
Self.png,You,Self ,c,1,11,21,91,,,,,0,0,0,0,,,,,5,6,66,9,,,,,,,,,,,,,,,,,,,,,1.692,1.827,363.69665589998476,None,,,,,,,,,,,,,,,,,,,,364.2327580000274,364.74095820006914,0.499844929901883,1.0003338300157338,364.7076405000407,364.80769659997895,364.7076405000407,364.80769659997895,364.80769659997895,None,c,1,0.6088926000520587,364.80769659997895,None,,,,,m,,p5,2022_Mar_09_1315,training+cueing,2021.1.4,59.928577149985195,
Friend.png,You,Friend,m,1.2,14,24,94,,,,,0,0,0,0,,,,,5,7,67,3,,,,,,,,,,,,,,,,,,,,,1.589,1.852,365.5482970001176,None,,,,,,,,,,,,,,,,,,,,366.08529810002074,366.59230160014704,0.5125884299632162,1.0129126301035285,366.57566410000436,366.6756917000748,366.57566410000436,366.6756917000748,366.6756917000748,None,m,1,1.108885700115934,366.6756917000748,None,,,,,m,,p5,2022_Mar_09_1315,training+cueing,2021.1.4,59.928577149985195,
Friend.png,Stranger,Friend,m,3.2,19,29,99,,,,,0,0,0,0,,,,,5,8,68,5,,,,,,,,,,,,,,,,,,,,,1.716,1.361,367.91644160007127,None,,,,,,,,,,,,,,,,,,,,368.4553881001193,368.9607069999911,0.5105211299378425,1.0107922297902405,368.94402700010687,369.060749999946,368.94402700010687,369.060749999946,369.04402060015127,None,c,0,1.3323911998886615,369.04402060015127,None,,,,,m,,p5,2022_Mar_09_1315,training+cueing,2021.1.4,59.928577149985195,
Stranger.png,Stranger,Stranger,c,3,13,23,93,,,,,0,0,0,0,,,,,5,9,69,11,,,,,,,,,,,,,,,,,,,,,1.466,1.993,370.5015348000452,None,,,,,,,,,,,,,,,,,,,,371.0392809000332,371.54587360005826,0.5128374297637492,1.0131404297426343,371.52922759996727,371.6459220999386,371.52922759996727,371.6459220999386,371.6292610000819,None,m,0,1.0192442999687046,371.6292610000819,None,,,,,m,,p5,2022_Mar_09_1315,training+cueing,2021.1.4,59.928577149985195,
Friend.png,Friend,Friend,c,2,12,22,92,,,,,0,0,0,0,,,,,5,10,70,10,,,,,,,,,,,,,,,,,,,,,1.738,1.604,372.76993239996955,None,,,,,,,,,,,,,,,,,,,,373.3095832001418,373.8142032001633,0.507826830027625,1.008046830072999,373.7975695000496,373.9144991999492,373.7975695000496,373.9144991999492,373.89754060003906,None,c,1,1.4068529000505805,373.89754060003906,None,,,,,m,,p5,2022_Mar_09_1315,training+cueing,2021.1.4,59.928577149985195,
Self.png,Friend,Self ,m,2.1,16,26,96,,,,,0,0,0,0,,,,,5,11,71,1,,,,,,,,,,,,,,,,,,,,,1.597,1.361,375.4385522999801,None,,,,,,,,,,,,,,,,,,,,375.9766117001418,376.4827600000426,0.5125861298292875,1.0130111298058182,376.46610469999723,376.5827947000507,376.46610469999723,376.5827947000507,376.5661458000541,None,m,1,1.0583603999111801,376.5661458000541,None,,,,,m,,p5,2022_Mar_09_1315,training+cueing,2021.1.4,59.928577149985195,
Stranger.png,You,Stranger,m,1.3,15,25,95,,,,,0,0,0,0,,,,,6,0,72,6,,,,,,,,,,,,,,,,,,,,,1.719,1.464,377.7568594000768,None,,,,,,,,,,,,,,,,,,,,378.29427960002795,378.8011161000468,0.511788230156526,1.012087430106476,378.78447260009125,378.8844890000764,378.78447260009125,378.8844890000764,378.8844890000764,None,c,0,0.7879377999342978,378.8844890000764,None,,,,,m,,p5,2022_Mar_09_1315,training+cueing,2021.1.4,59.928577149985195,
Friend.png,Friend,Friend,c,2,12,22,92,,,,,0,0,0,0,,,,,6,1,73,10,,,,,,,,,,,,,,,,,,,,,1.795,2.183,379.8077809000388,None,,,,,,,,,,,,,,,,,,,,380.3478705000598,380.85257370001636,0.5079774297773838,1.0082344298716635,380.83594559994526,380.9525844999589,380.83594559994526,380.9525844999589,380.9359723001253,None,c,1,1.0884557999670506,380.9359723001253,None,,,,,m,,p5,2022_Mar_09_1315,training+cueing,2021.1.4,59.928577149985195,
Friend.png,Stranger,Friend,m,3.2,19,29,99,,,,,0,0,0,0,,,,,6,2,74,5,,,,,,,,,,,,,,,,,,,,,1.458,1.267,382.1600689000916,None,,,,,,,,,,,,,,,,,,,,382.69949960010126,383.20446510007605,0.5104443300515413,1.0105345300398767,383.1879124001134,383.3044726999942,383.1879124001134,383.3044726999942,383.2877695001662,None,c,0,1.424780999775976,383.2877695001662,None,,,,,m,,p5,2022_Mar_09_1315,training+cueing,2021.1.4,59.928577149985195,
Friend.png,You,Friend,m,1.2,14,24,94,,,,,0,0,0,0,,,,,6,3,75,3,,,,,,,,,,,,,,,,,,,,,1.687,2.351,384.84550540009513,None,,,,,,,,,,,,,,,,,,,,385.38579630013555,385.8895539001096,0.505273429909721,1.0055547298397869,385.87292180000804,385.97292309999466,385.87292180000804,385.97292309999466,385.97292309999466,None,m,1,1.0115606000181288,385.97292309999466,None,,,,,m,,p5,2022_Mar_09_1315,training+cueing,2021.1.4,59.928577149985195,
Self.png,You,Self ,c,1,11,21,91,,,,,0,0,0,0,,,,,6,4,76,0,,,,,,,,,,,,,,,,,,,,,1.546,2.191,387.1134453001432,None,,,,,,,,,,,,,,,,,,,,387.66410790011287,388.17453050008044,0.5036605298519135,1.0047148298472166,388.15789950010367,388.25791839999147,388.15789950010367,388.25791839999147,388.25791839999147,None,c,1,0.8226127999369055,388.25791839999147,None,,,,,m,,p5,2022_Mar_09_1315,training+cueing,2021.1.4,59.928577149985195,
Stranger.png,Stranger,Stranger,c,3,13,23,93,,,,,0,0,0,0,,,,,6,5,77,8,,,,,,,,,,,,,,,,,,,,,1.598,2.422,389.2163693001494,None,,,,,,,,,,,,,,,,,,,,389.7571256000083,390.2593978999648,0.5056317301932722,1.0066212301608175,390.2426930000074,390.35944909998216,390.2426930000074,390.35944909998216,390.34275529999286,None,m,0,1.3617746999952942,390.34275529999286,None,,,,,m,,p5,2022_Mar_09_1315,training+cueing,2021.1.4,59.928577149985195,
Friend.png,Friend,Friend,c,2,12,22,92,,,,,0,0,0,0,,,,,6,6,78,4,,,,,,,,,,,,,,,,,,,,,1.795,1.519,391.83356820000336,None,,,,,,,,,,,,,,,,,,,,392.376341199968,392.8779339999892,0.5003848299384117,1.0009870301000774,392.8612522999756,392.97876860015094,392.8612522999756,392.97876860015094,392.97876860015094,None,m,0,1.0297174998559058,392.97876860015094,None,,,,,m,,p5,2022_Mar_09_1315,training+cueing,2021.1.4,59.928577149985195,
Stranger.png,Stranger,Stranger,c,3,13,23,93,,,,,0,0,0,0,,,,,6,7,79,11,,,,,,,,,,,,,,,,,,,,,1.675,1.415,394.13532340014353,None,,,,,,,,,,,,,,,,,,,,394.7011592001654,395.21303800004534,0.5091318401973695,1.0089668401051313,395.19666450005025,395.3130348001141,395.19666450005025,395.3130348001141,395.29628790006973,None,m,0,0.8721090999897569,395.29628790006973,None,,,,,m,,p5,2022_Mar_09_1315,training+cueing,2021.1.4,59.928577149985195,
Self.png,You,Self ,c,1,11,21,91,,,,,0,0,0,0,,,,,6,8,80,9,,,,,,,,,,,,,,,,,,,,,1.479,1.229,396.30337800015695,None,,,,,,,,,,,,,,,,,,,,396.8421297001187,397.34780360013247,0.5082553301472217,1.0089777300599962,397.3311640000902,397.43119550007395,397.3311640000902,397.43119550007395,397.43119550007395,None,c,1,0.8333294000476599,397.43119550007395,None,,,,,m,,p5,2022_Mar_09_1315,training+cueing,2021.1.4,59.928577149985195,
Stranger.png,Friend,Stranger,m,2.3,17,27,97,,,,,0,0,0,0,,,,,6,9,81,7,,,,,,,,,,,,,,,,,,,,,1.444,1.94,398.38921639998443,None,,,,,,,,,,,,,,,,,,,,398.93029050016776,399.4326820001006,0.5063637299463153,1.00670782988891,399.41600960004143,399.5327361000236,399.41600960004143,399.5327361000236,399.5160124001559,None,m,1,1.1805267999880016,399.5160124001559,None,,,,,m,,p5,2022_Mar_09_1315,training+cueing,2021.1.4,59.928577149985195,
Self.png,Stranger,Self ,m,3.1,18,28,98,,,,,0,0,0,0,,,,,6,10,82,2,,,,,,,,,,,,,,,,,,,,,1.518,2.33,400.82335710013285,None,,,,,,,,,,,,,,,,,,,,401.36453570006415,401.8677322999574,0.5065729299094528,1.0068858300801367,401.85108870011754,401.9678434000816,401.85108870011754,401.9678434000816,401.9511621000711,None,c,0,1.4013363001868129,401.9511621000711,None,,,,,m,,p5,2022_Mar_09_1315,training+cueing,2021.1.4,59.928577149985195,
Self.png,Friend,Self ,m,2.1,16,26,96,,,,,0,0,0,0,,,,,6,11,83,1,,,,,,,,,,,,,,,,,,,,,1.756,1.822,403.476613300154,None,,,,,,,,,,,,,,,,,,,,404.01548080006614,404.5197048999835,0.5060929302126169,1.006400230107829,404.5029686000198,404.6197261000052,404.5029686000198,404.6197261000052,404.60300220013596,None,m,1,0.7813675999641418,404.60300220013596,None,,,,,m,,p5,2022_Mar_09_1315,training+cueing,2021.1.4,59.928577149985195,
Self.png,You,Self ,c,1,11,21,91,,,,,0,0,0,0,,,,,7,0,84,0,,,,,,,,,,,,,,,,,,,,,1.795,1.3,405.50985070015304,None,,,,,,,,,,,,,,,,,,,,406.0506260001566,406.5544660000596,0.5079212298151106,1.0082196299917996,406.5377915999852,406.63780690007843,406.5377915999852,406.63780690007843,406.63780690007843,None,c,1,0.8906208002008498,406.63780690007843,None,,,,,m,,p5,2022_Mar_09_1315,training+cueing,2021.1.4,59.928577149985195,
Self.png,Stranger,Self ,m,3.1,18,28,98,,,,,0,0,0,0,,,,,7,1,85,2,,,,,,,,,,,,,,,,,,,,,1.672,1.771,407.66087669995613,None,,,,,,,,,,,,,,,,,,,,408.2027618000284,408.7059907000512,0.5063865301199257,1.0069448300637305,408.6893657001201,408.8063336999621,408.6893657001201,408.8063336999621,408.7896354999393,None,m,1,0.9627754001412541,408.7896354999393,None,,,,,m,,p5,2022_Mar_09_1315,training+cueing,2021.1.4,59.928577149985195,
Friend.png,Stranger,Friend,m,3.2,19,29,99,,,,,0,0,0,0,,,,,7,2,86,5,,,,,,,,,,,,,,,,,,,,,1.655,2.329,409.88001860002987,None,,,,,,,,,,,,,,,,,,,,410.4182635000907,410.9242724000942,0.50960922986269,1.0098377298563719,410.90766440005973,411.0243552001193,410.90766440005973,411.0243552001193,411.0076276999898,None,m,1,1.112837600056082,411.0076276999898,None,,,,,m,,p5,2022_Mar_09_1315,training+cueing,2021.1.4,59.928577149985195,
Stranger.png,You,Stranger,m,1.3,15,25,95,,,,,0,0,0,0,,,,,7,3,87,6,,,,,,,,,,,,,,,,,,,,,1.547,2.276,412.24778930004686,None,,,,,,,,,,,,,,,,,,,,412.80208329996094,413.30934210005216,0.5152510399930179,1.01588514004834,413.29263489996083,413.3926987000741,413.29263489996083,413.3926987000741,413.3926987000741,None,c,0,1.271648099878803,413.3926987000741,None,,,,,m,,p5,2022_Mar_09_1315,training+cueing,2021.1.4,59.928577149985195,
Self.png,You,Self ,c,1,11,21,91,,,,,0,0,0,0,,,,,7,4,88,9,,,,,,,,,,,,,,,,,,,,,1.783,2.413,414.8004016999621,None,,,,,,,,,,,,,,,,,,,,415.3375021000393,415.8444654000923,0.5121884301770478,1.0124462300445884,415.8278565001674,415.9278770000674,415.8278565001674,415.9278770000674,415.9278770000674,None,c,1,0.7526388999540359,415.9278770000674,None,,,,,m,,p5,2022_Mar_09_1315,training+cueing,2021.1.4,59.928577149985195,
Friend.png,You,Friend,m,1.2,14,24,94,,,,,0,0,0,0,,,,,7,5,89,3,,,,,,,,,,,,,,,,,,,,,1.705,1.232,416.8175812000409,None,,,,,,,,,,,,,,,,,,,,417.3533646001015,417.8626145001035,0.5010486200917512,1.0013473199214786,417.845924400026,417.94597010011785,417.845924400026,417.94597010011785,417.94597010011785,None,m,1,0.7983949000481516,417.94597010011785,None,,,,,m,,p5,2022_Mar_09_1315,training+cueing,2021.1.4,59.928577149985195,
Friend.png,Friend,Friend,c,2,12,22,92,,,,,0,0,0,0,,,,,7,6,90,10,,,,,,,,,,,,,,,,,,,,,1.401,1.644,418.86975549999624,None,,,,,,,,,,,,,,,,,,,,419.4102440001443,419.9141534001101,0.5079930301290005,1.0084017300978303,419.8974140000064,420.01414580014534,419.8974140000064,420.01414580014534,419.997442800086,None,m,0,1.291369599988684,419.997442800086,None,,,,,m,,p5,2022_Mar_09_1315,training+cueing,2021.1.4,59.928577149985195,
Stranger.png,Stranger,Stranger,c,3,13,23,93,,,,,0,0,0,0,,,,,7,7,91,11,,,,,,,,,,,,,,,,,,,,,1.408,1.505,421.42266599996947,None,,,,,,,,,,,,,,,,,,,,421.96332999994047,422.46590880001895,0.5022291298955679,1.0025420300662518,422.44924039999023,422.56595910014585,422.44924039999023,422.56595910014585,422.54927690001205,None,m,0,0.7870922000147402,422.54927690001205,None,,,,,m,,p5,2022_Mar_09_1315,training+cueing,2021.1.4,59.928577149985195,
Self.png,Friend,Self ,m,2.1,16,26,96,,,,,0,0,0,0,,,,,7,8,92,1,,,,,,,,,,,,,,,,,,,,,1.42,2.299,423.4727495999541,None,,,,,,,,,,,,,,,,,,,,424.0135948001407,424.5174126001075,0.5074675297364593,1.0077297296375036,424.500784000149,424.6174443999771,424.500784000149,424.6174443999771,424.6007807001006,None,m,1,0.7997142001986504,424.6007807001006,None,,,,,m,,p5,2022_Mar_09_1315,training+cueing,2021.1.4,59.928577149985195,
Stranger.png,Stranger,Stranger,c,3,13,23,93,,,,,0,0,0,0,,,,,7,9,93,8,,,,,,,,,,,,,,,,,,,,,1.599,1.638,425.5252956999466,None,,,,,,,,,,,,,,,,,,,,426.08019400015473,426.5855692999903,0.5112545399460942,1.0115277401637286,426.56892670015804,426.6855836000759,426.56892670015804,426.6855836000759,426.66893159993924,None,m,0,1.0674815999809653,426.66893159993924,None,,,,,m,,p5,2022_Mar_09_1315,training+cueing,2021.1.4,59.928577149985195,
Friend.png,Friend,Friend,c,2,12,22,92,,,,,0,0,0,0,,,,,7,10,94,4,,,,,,,,,,,,,,,,,,,,,1.533,2.439,427.85923489998095,None,,,,,,,,,,,,,,,,,,,,428.3993125001434,428.9040537001565,0.5073446300812066,1.0076017300598323,428.8872424000874,429.0039562000893,428.8872424000874,429.0039562000893,428.987258200068,None,c,1,1.1331807000096887,428.987258200068,None,,,,,m,,p5,2022_Mar_09_1315,training+cueing,2021.1.4,59.928577149985195,
Stranger.png,Friend,Stranger,m,2.3,17,27,97,,,,,0,0,0,0,,,,,7,11,95,7,,,,,,,,,,,,,,,,,,,,,1.426,1.785,430.2457869001664,None,,,,,,,,,,,,,,,,,,,,430.78442190005444,431.2889348999597,0.5081672300584614,1.0084395299199969,431.27229820005596,431.38899260014296,431.27229820005596,431.38899260014296,431.372323699994,None,m,1,1.0840873999986798,431.372323699994,None,,,,,m,,p5,2022_Mar_09_1315,training+cueing,2021.1.4,59.928577149985195,
Friend.png,You,Friend,m,1.2,14,24,94,,,,,0,0,0,0,,,,,8,0,96,3,,,,,,,,,,,,,,,,,,,,,1.678,1.963,432.5800187999848,None,,,,,,,,,,,,,,,,,,,,433.11814719997346,433.6239529000595,0.5087066297419369,1.0089453298132867,433.6072864001617,433.70735809998587,433.6072864001617,433.70735809998587,433.70735809998587,None,c,0,1.1810216999147087,433.70735809998587,None,,,,,m,,p5,2022_Mar_09_1315,training+cueing,2021.1.4,59.928577149985195,
Self.png,Stranger,Self ,m,3.1,18,28,98,,,,,0,0,0,0,,,,,8,1,97,2,,,,,,,,,,,,,,,,,,,,,1.519,1.52,435.0146183001343,None,,,,,,,,,,,,,,,,,,,,435.55430090008304,436.0590719000902,0.5088767299894243,1.0091621298342943,436.0423817001283,436.1591279001441,436.0423817001283,436.1591279001441,436.1423996000085,None,m,1,0.9219190999865532,436.1423996000085,None,,,,,m,,p5,2022_Mar_09_1315,training+cueing,2021.1.4,59.928577149985195,
Stranger.png,Friend,Stranger,m,2.3,17,27,97,,,,,0,0,0,0,,,,,8,2,98,7,,,,,,,,,,,,,,,,,,,,,1.685,1.754,437.20011180010624,None,,,,,,,,,,,,,,,,,,,,437.7403915000614,438.24394990014844,0.5078016298357397,1.0080885298084468,438.22732380009256,438.3440048000775,438.22732380009256,438.3440048000775,438.3273241999559,None,m,1,1.281066999770701,438.3273241999559,None,,,,,m,,p5,2022_Mar_09_1315,training+cueing,2021.1.4,59.928577149985195,
Friend.png,Friend,Friend,c,2,12,22,92,,,,,0,0,0,0,,,,,8,3,99,4,,,,,,,,,,,,,,,,,,,,,1.603,1.685,439.73487389995717,None,,,,,,,,,,,,,,,,,,,,440.2859441000037,440.7958386000246,0.5011000300291926,1.0014094300568104,440.77915730001405,440.89583089994267,440.77915730001405,440.89583089994267,440.89583089994267,None,None,0,,440.89583089994267,None,,,,,m,,p5,2022_Mar_09_1315,training+cueing,2021.1.4,59.928577149985195,
Stranger.png,Stranger,Stranger,c,3,13,23,93,,,,,0,0,0,0,,,,,8,4,100,11,,,,,,,,,,,,,,,,,,,,,1.46,1.946,442.6182012001518,None,,,,,,,,,,,,,,,,,,,,443.1612356000114,443.66454800008796,0.5065801297314465,1.0068797296844423,443.64790079998784,443.76464720000513,443.64790079998784,443.76464720000513,443.7479165000841,None,m,0,1.204458500025794,443.7479165000841,None,,,,,m,,p5,2022_Mar_09_1315,training+cueing,2021.1.4,59.928577149985195,
Friend.png,Stranger,Friend,m,3.2,19,29,99,,,,,0,0,0,0,,,,,8,5,101,5,,,,,,,,,,,,,,,,,,,,,1.536,2.432,445.08853449998423,None,,,,,,,,,,,,,,,,,,,,445.6259953000117,446.1329737000633,0.512878029840067,1.0131874298676848,446.11631970014423,446.23301660013385,446.11631970014423,446.23301660013385,446.2163400000427,None,m,1,0.9759728999342769,446.2163400000427,None,,,,,m,,p5,2022_Mar_09_1315,training+cueing,2021.1.4,59.928577149985195,
Self.png,You,Self ,c,1,11,21,91,,,,,0,0,0,0,,,,,8,6,102,0,,,,,,,,,,,,,,,,,,,,,1.6,2.458,447.3240469000302,None,,,,,,,,,,,,,,,,,,,,447.86333500011824,448.36793740000576,0.5079227299429476,1.008251029998064,448.3512631000485,448.451325800037,448.3512631000485,448.451325800037,448.451325800037,None,c,1,0.5811197001021355,448.451325800037,None,,,,,m,,p5,2022_Mar_09_1315,training+cueing,2021.1.4,59.928577149985195,
Stranger.png,Stranger,Stranger,c,3,13,23,93,,,,,0,0,0,0,,,,,8,7,103,8,,,,,,,,,,,,,,,,,,,,,1.756,1.756,449.15838210005313,None,,,,,,,,,,,,,,,,,,,,449.69797750003636,450.20260850014165,0.5093693297822028,1.0096686298493296,450.18590219994076,450.3026562000159,450.18590219994076,450.3026562000159,450.28593110013753,None,c,1,1.034547199960798,450.28593110013753,None,,,,,m,,p5,2022_Mar_09_1315,training+cueing,2021.1.4,59.928577149985195,
Self.png,Friend,Self ,m,2.1,16,26,96,,,,,0,0,0,0,,,,,8,8,104,1,,,,,,,,,,,,,,,,,,,,,1.455,1.523,451.44312660000287,None,,,,,,,,,,,,,,,,,,,,451.99826980009675,452.50424579996616,0.5099443402141333,1.0102299402933568,452.48760300013237,452.6042851000093,452.48760300013237,452.6042851000093,452.5876205000095,None,c,0,0.6527750000823289,452.5876205000095,None,,,,,m,,p5,2022_Mar_09_1315,training+cueing,2021.1.4,59.928577149985195,
Stranger.png,You,Stranger,m,1.3,15,25,95,,,,,0,0,0,0,,,,,8,9,105,6,,,,,,,,,,,,,,,,,,,,,1.446,1.361,453.37802439997904,None,,,,,,,,,,,,,,,,,,,,453.917322000023,454.42243549996056,0.509349329629913,1.0096309296786785,454.40574509999715,454.50577619997784,454.40574509999715,454.50577619997784,454.50577619997784,None,m,1,0.7508312999270856,454.50577619997784,None,,,,,m,,p5,2022_Mar_09_1315,training+cueing,2021.1.4,59.928577149985195,
Friend.png,Friend,Friend,c,2,12,22,92,,,,,0,0,0,0,,,,,8,10,106,10,,,,,,,,,,,,,,,,,,,,,1.509,2.321,455.3795980999712,None,,,,,,,,,,,,,,,,,,,,455.921899799956,456.42376490007155,0.5048581298906356,1.0051005298737437,456.4071309999563,456.52378930011764,456.4071309999563,456.52378930011764,456.5071050999686,None,m,0,0.9253538001794368,456.5071050999686,None,,,,,m,,p5,2022_Mar_09_1315,training+cueing,2021.1.4,59.928577149985195,
Self.png,You,Self ,c,1,11,21,91,,,,,0,0,0,0,,,,,8,11,107,9,,,,,,,,,,,,,,,,,,,,,1.548,1.489,457.5645204000175,None,,,,,,,,,,,,,,,,,,,,458.1029596000444,458.6086755001452,0.5100435300264508,1.010347930015996,458.59196670004167,458.6920171000529,458.59196670004167,458.6920171000529,458.6920171000529,None,c,1,0.5644320000428706,458.6920171000529,None,,,,,m,,p5,2022_Mar_09_1315,training+cueing,2021.1.4,59.928577149985195,
Friend.png,Friend,Friend,c,2,12,22,92,,,,,0,0,0,0,,,,,9,0,108,10,,,,,,,,,,,,,,,,,,,,,1.477,1.941,459.3824371001683,None,,,,,,,,,,,,,,,,,,,,459.92312839999795,460.42667690012604,0.5077914299909025,1.008064730092883,460.40998700005,460.5266537000425,460.40998700005,460.5266537000425,460.5100062000565,None,m,0,0.9384030001237988,460.5100062000565,None,,,,,m,,p5,2022_Mar_09_1315,training+cueing,2021.1.4,59.928577149985195,
Self.png,You,Self ,c,1,11,21,91,,,,,0,0,0,0,,,,,9,1,109,0,,,,,,,,,,,,,,,,,,,,,1.772,1.264,461.5841381000355,None,,,,,,,,,,,,,,,,,,,,462.12196400016546,462.62824740004726,0.512483430095017,1.0127790300175548,462.6115546999499,462.7115955001209,462.6115546999499,462.7115955001209,462.7115955001209,None,c,1,0.6088352999649942,462.7115955001209,None,,,,,m,,p5,2022_Mar_09_1315,training+cueing,2021.1.4,59.928577149985195,
Self.png,You,Self ,c,1,11,21,91,,,,,0,0,0,0,,,,,9,2,110,9,,,,,,,,,,,,,,,,,,,,,1.765,2.43,463.45295980013907,None,,,,,,,,,,,,,,,,,,,,463.99505300004967,464.4962355000898,0.5009724297560751,1.0012884298339486,464.4795381000731,464.57958819996566,464.4795381000731,464.57958819996566,464.57958819996566,None,c,1,0.6927589001134038,464.57958819996566,None,,,,,m,,p5,2022_Mar_09_1315,training+cueing,2021.1.4,59.928577149985195,
Friend.png,Friend,Friend,c,2,12,22,92,,,,,0,0,0,0,,,,,9,3,111,4,,,,,,,,,,,,,,,,,,,,,1.482,1.352,465.4029131999705,None,,,,,,,,,,,,,,,,,,,,465.9493089001626,466.4643556000665,0.5138077300507575,1.0141153300646693,466.4476483000908,466.5643864001613,466.4476483000908,466.5643864001613,466.54766599996947,None,m,0,0.6446558001916856,466.54766599996947,None,,,,,m,,p5,2022_Mar_09_1315,training+cueing,2021.1.4,59.928577149985195,
Self.png,Friend,Self ,m,2.1,16,26,96,,,,,0,0,0,0,,,,,9,4,112,1,,,,,,,,,,,,,,,,,,,,,1.669,2.362,467.32106909994036,None,,,,,,,,,,,,,,,,,,,,467.8579055001028,468.36589820007794,0.5130248297937214,1.0134616298601031,468.34913660003804,468.4659657999873,468.34913660003804,468.4659657999873,468.44923719996586,None,c,0,0.7911036000587046,468.44923719996586,None,,,,,m,,p5,2022_Mar_09_1315,training+cueing,2021.1.4,59.928577149985195,
Stranger.png,Stranger,Stranger,c,3,13,23,93,,,,,0,0,0,0,,,,,9,5,113,8,,,,,,,,,,,,,,,,,,,,,1.716,1.354,469.3733564000577,None,,,,,,,,,,,,,,,,,,,,469.9320145000238,470.434076000005,0.5063125402666628,1.006429540226236,470.41753250011243,470.5340883999597,470.41753250011243,470.5340883999597,470.5174221000634,None,m,0,1.3630811001639813,470.5174221000634,None,,,,,m,,p5,2022_Mar_09_1315,training+cueing,2021.1.4,59.928577149985195,
Stranger.png,Stranger,Stranger,c,3,13,23,93,,,,,0,0,0,0,,,,,9,6,114,11,,,,,,,,,,,,,,,,,,,,,1.751,1.842,472.0091483001597,None,,,,,,,,,,,,,,,,,,,,472.55095760012046,473.0523851001635,0.5032053296454251,1.0034349297638983,473.0357648001518,473.1524567999877,473.0357648001518,473.1524567999877,473.13578130002134,None,m,0,1.2885404999833554,473.13578130002134,None,,,,,m,,p5,2022_Mar_09_1315,training+cueing,2021.1.4,59.928577149985195,
Friend.png,Stranger,Friend,m,3.2,19,29,99,,,,,0,0,0,0,,,,,9,7,115,5,,,,,,,,,,,,,,,,,,,,,1.401,1.489,474.5599811000284,None,,,,,,,,,,,,,,,,,,,,475.0970681000035,475.60422470001504,0.5123358299024403,1.012649429962039,475.58756170002744,475.70426689996384,475.58756170002744,475.70426689996384,475.6876038000919,None,c,0,0.9286913999821991,475.6876038000919,None,,,,,m,,p5,2022_Mar_09_1315,training+cueing,2021.1.4,59.928577149985195,
Friend.png,You,Friend,m,1.2,14,24,94,,,,,0,0,0,0,,,,,9,8,116,3,,,,,,,,,,,,,,,,,,,,,1.714,2.433,476.74489130009897,None,,,,,,,,,,,,,,,,,,,,477.2822637001518,477.7891631000675,0.5127441298682243,1.0138890298549086,477.7724748000037,477.87252470012754,477.7724748000037,477.87252470012754,477.87252470012754,None,c,0,1.2081232001073658,477.87252470012754,None,,,,,m,,p5,2022_Mar_09_1315,training+cueing,2021.1.4,59.928577149985195,
Self.png,Stranger,Self ,m,3.1,18,28,98,,,,,0,0,0,0,,,,,9,9,117,2,,,,,,,,,,,,,,,,,,,,,1.614,1.548,479.2147538000718,None,,,,,,,,,,,,,,,,,,,,479.756800299976,480.2575902999379,0.5018453299999237,1.0021122300531715,480.24097110005096,480.35765360016376,480.24097110005096,480.35765360016376,480.3410058999434,None,c,0,0.9474519002251327,480.3410058999434,None,,,,,m,,p5,2022_Mar_09_1315,training+cueing,2021.1.4,59.928577149985195,
Stranger.png,Friend,Stranger,m,2.3,17,27,97,,,,,0,0,0,0,,,,,9,10,118,7,,,,,,,,,,,,,,,,,,,,,1.711,1.591,481.4141140000429,None,,,,,,,,,,,,,,,,,,,,481.96956570004113,482.47585369995795,0.5109982402063906,1.0113085401244462,482.45920650009066,482.5759374999907,482.45920650009066,482.5759374999907,482.559563399991,None,m,1,0.9046998000703752,482.559563399991,None,,,,,m,,p5,2022_Mar_09_1315,training+cueing,2021.1.4,59.928577149985195,
Stranger.png,You,Stranger,m,1.3,15,25,95,,,,,0,0,0,0,,,,,9,11,119,6,,,,,,,,,,,,,,,,,,,,,1.408,2.205,483.59994069999084,None,,,,,,,,,,,,,,,,,,,,484.13724980014376,484.6440698001534,0.5136343298945576,1.014853729866445,484.6274280999787,484.7274744999595,484.6274280999787,484.7274744999595,484.7274744999595,None,c,0,1.136937800096348,484.7274744999595,None,,,,,m,,p5,2022_Mar_09_1315,training+cueing,2021.1.4,59.928577149985195,
,,,,,,,,,,,,0,0,0,0,,,,,,,,,,,,,,,,,,,,,,,,,,,,,,,,,,,,,,,,,,,,,,,,,,,,,,,,,,,,,,,,,,,0.016514179995283484,None,,,m,,p5,2022_Mar_09_1315,training+cueing,2021.1.4,59.928577149985195,
Friend.png,Stranger,Friend,m,3.2,19,29,99,,,,,1,0,1,0,0,0,0,5,,,,,,,,,,,,,,,,,486.5129470000975,None,space,19.351279499940574,2.0135428099893034,None,507.8777281001676,None,1.594,2.328,510.89471819996834,None,511.4256413001567,511.9304272001609,511.91374290012754,512.0305151999928,511.91374290012754,512.0305151999928,512.0137859000824,None,m,1,1.4025007002055645,512.0137859000824,None,513.4314077999443,None,,,,,,,,,,,,,,,,,,,,,,,,m,,p5,2022_Mar_09_1315,training+cueing,2021.1.4,59.928577149985195,
Self.png,Stranger,Self ,m,3.1,18,28,98,,,,,1,0,1,0,0,1,1,2,,,,,,,,,,,,,,,,,,,,,,,,,1.77,1.62,513.8317960000131,None,514.3750448001083,514.8826671999414,514.8660174000543,514.982720100088,514.8660174000543,514.982720100088,514.9660406999756,None,m,1,1.1382748000323772,514.9660406999756,None,516.1335927001201,None,,,,,,,,,,,,,,,,,,,,,,,,m,,p5,2022_Mar_09_1315,training+cueing,2021.1.4,59.928577149985195,
Self.png,Friend,Self ,m,2.1,16,26,96,,,,,1,0,1,0,0,2,2,1,,,,,,,,,,,,,,,,,,,,,,,,,1.744,1.332,516.5338137000799,None,517.0698751001619,517.5845065000467,517.5678602999542,517.684553100029,517.5678602999542,517.684553100029,517.6679176001344,None,m,1,1.1562488998752087,517.6679176001344,None,518.8521630000323,None,,,,,,,,,,,,,,,,,,,,,,,,m,,p5,2022_Mar_09_1315,training+cueing,2021.1.4,59.928577149985195,
Stranger.png,You,Stranger,m,1.3,15,25,95,,,,,1,0,1,0,0,3,3,6,,,,,,,,,,,,,,,,,,,,,,,,,1.514,1.647,519.2524978001602,None,519.786027800059,520.2864463999867,520.2698169001378,520.3698466999922,520.2698169001378,520.3698466999922,520.3698466999922,None,m,1,0.7744104000739753,520.3698466999922,None,521.1704140000511,None,,,,,,,,,,,,,,,,,,,,,,,,m,,p5,2022_Mar_09_1315,training+cueing,2021.1.4,59.928577149985195,
Stranger.png,Stranger,Stranger,c,3,13,23,93,,,,,1,0,1,0,0,4,4,11,,,,,,,,,,,,,,,,,,,,,,,,,1.685,1.366,521.5707253001165,None,522.1040070001036,522.6048056001309,522.5881262000185,522.7048711001407,522.5881262000185,522.7048711001407,522.7048711001407,None,c,1,1.0793742998503149,522.7048711001407,None,523.8056966001168,None,,,,,,,,,,,,,,,,,,,,,,,,m,,p5,2022_Mar_09_1315,training+cueing,2021.1.4,59.928577149985195,
Friend.png,Friend,Friend,c,2,12,22,92,,,,,1,0,1,0,0,5,5,10,,,,,,,,,,,,,,,,,,,,,,,,,1.41,1.799,524.2060806001537,None,524.7426201000344,525.2567287001293,525.240034500137,525.356789200101,525.240034500137,525.356789200101,525.340065299999,None,m,0,1.03618979989551,525.340065299999,None,526.4075647999998,None,,,,,,,,,,,,,,,,,,,,,,,,m,,p5,2022_Mar_09_1315,training+cueing,2021.1.4,59.928577149985195,
Stranger.png,Stranger,Stranger,c,3,13,23,93,,,,,1,0,1,0,0,6,6,8,,,,,,,,,,,,,,,,,,,,,,,,,1.797,1.853,526.8079437001143,None,527.3440819000825,527.8585808000062,527.8419791001361,527.9586186001543,527.8419791001361,527.9586186001543,527.9419428000692,None,m,0,1.2183789000846446,527.9419428000692,None,529.1762643000111,None,,,,,,,,,,,,,,,,,,,,,,,,m,,p5,2022_Mar_09_1315,training+cueing,2021.1.4,59.928577149985195,
Self.png,You,Self ,c,1,11,21,91,,,,,1,0,1,0,0,7,7,9,,,,,,,,,,,,,,,,,,,,,,,,,1.427,2.027,529.5766068999656,None,530.1117972000502,530.6272792001255,530.6105766000692,530.7106113999616,530.6105766000692,530.7106113999616,530.7106113999616,None,c,1,0.6735555999912322,530.7106113999616,None,531.4098203000613,None,,,,,,,,,,,,,,,,,,,,,,,,m,,p5,2022_Mar_09_1315,training+cueing,2021.1.4,59.928577149985195,
Friend.png,Friend,Friend,c,2,12,22,92,,,,,1,0,1,0,0,8,8,4,,,,,,,,,,,,,,,,,,,,,,,,,1.532,1.839,531.8114587001037,None,532.3646690000314,532.8788928999566,532.8622198000085,532.9789654000197,532.8622198000085,532.9789654000197,532.9622569000348,None,c,1,0.9819028000347316,532.9622569000348,None,533.9632628001273,None,,,,,,,,,,,,,,,,,,,,,,,,m,,p5,2022_Mar_09_1315,training+cueing,2021.1.4,59.928577149985195,
Stranger.png,Friend,Stranger,m,2.3,17,27,97,,,,,1,0,1,0,0,9,9,7,,,,,,,,,,,,,,,,,,,,,,,,,1.786,2.144,534.3642613999546,None,534.8995173999574,535.4140399000607,535.3973499999847,535.5140686000232,535.3973499999847,535.5140686000232,535.4973971000873,None,m,1,1.1987844998948276,535.4973971000873,None,536.715027899947,None,,,,,,,,,,,,,,,,,,,,,,,,m,,p5,2022_Mar_09_1315,training+cueing,2021.1.4,59.928577149985195,
Self.png,You,Self ,c,1,11,21,91,,,,,1,0,1,0,0,10,10,0,,,,,,,,,,,,,,,,,,,,,,,,,1.705,1.611,537.1154533999506,None,537.6661181000527,538.1659385999665,538.1493015000597,538.2494030001108,538.1493015000597,538.2494030001108,538.2494030001108,None,c,1,0.8147919001057744,538.2494030001108,None,539.0833936000708,None,,,,,,,,,,,,,,,,,,,,,,,,m,,p5,2022_Mar_09_1315,training+cueing,2021.1.4,59.928577149985195,
Friend.png,You,Friend,m,1.2,14,24,94,,,,,1,0,1,0,0,11,11,3,,,,,,,,,,,,,,,,,,,,,,,,,1.555,1.953,539.4836343000643,None,540.0174196001608,540.5177176001016,540.5177176001016,540.6177596000489,540.5177176001016,540.6177596000489,540.6177596000489,None,m,1,1.0067547000944614,540.6177596000489,None,541.6519115001429,None,,,,,,,,,,,,,,,,,,,,,,,,m,,p5,2022_Mar_09_1315,training+cueing,2021.1.4,59.928577149985195,
Friend.png,Friend,Friend,c,2,12,22,92,,,,,1,0,1,0,,,,,0,0,0,4,,,,,,,,,,,,,,,,,,,554.7615978000686,None,1.761,2.409,558.2781379001681,None,,,,,,,,,,,,,,,,542.051961600082,None,0.014231309993192554,0.5121792100835592,558.8121148000937,559.314607999986,0.5057001300156116,1.0059886300005019,559.2979763001204,559.4146749000065,559.2979763001204,559.4146749000065,559.3979595999699,None,m,0,0.9781694998964667,559.3979595999699,None,,,,,m,,p5,2022_Mar_09_1315,training+cueing,2021.1.4,59.928577149985195,
Stranger.png,Friend,Stranger,m,2.3,17,27,97,,,,,1,0,1,0,,,,,0,1,1,7,,,,,,,,,,,,,,,,,,,,,1.654,1.251,560.5058095999993,None,,,,,,,,,,,,,,,,,,,,561.0423336001113,561.5495688000228,0.5147156300954521,1.0149994299281389,561.532887800131,561.6496264000889,561.532887800131,561.6496264000889,561.6329004999716,None,m,1,1.3353196000680327,561.6329004999716,None,,,,,m,,p5,2022_Mar_09_1315,training+cueing,2021.1.4,59.928577149985195,
Stranger.png,Stranger,Stranger,c,3,13,23,93,,,,,1,0,1,0,,,,,0,2,2,8,,,,,,,,,,,,,,,,,,,,,1.583,1.566,563.0904000999872,None,,,,,,,,,,,,,,,,,,,,563.6479001999833,564.1516343001276,0.5047437401954085,1.0051195402629673,564.134997199988,564.2516650999896,564.134997199988,564.2516650999896,564.2349888000172,None,c,1,1.4532238999381661,564.2349888000172,None,,,,,m,,p5,2022_Mar_09_1315,training+cueing,2021.1.4,59.928577149985195,
Stranger.png,Stranger,Stranger,c,3,13,23,93,,,,,1,0,1,0,,,,,0,3,3,11,,,,,,,,,,,,,,,,,,,,,1.752,1.778,565.8264862999786,None,,,,,,,,,,,,,,,,,,,,566.3817603001371,566.886759800138,0.5110694402828813,1.011366940336302,566.8700602001045,566.9868171999697,566.8700602001045,566.9868171999697,566.9700824001338,None,m,0,1.4701125000137836,566.9700824001338,None,,,,,m,,p5,2022_Mar_09_1315,training+cueing,2021.1.4,59.928577149985195,
Friend.png,Stranger,Friend,m,3.2,19,29,99,,,,,1,0,1,0,,,,,0,4,4,5,,,,,,,,,,,,,,,,,,,,,1.658,1.279,568.577685700031,None,,,,,,,,,,,,,,,,,,,,569.1372484001331,569.6386872001458,0.5022390400990844,1.0025969401467592,569.6220019999892,569.7387924001087,569.6220019999892,569.7387924001087,569.7221075000707,None,None,0,,569.7221075000707,None,,,,,m,,p5,2022_Mar_09_1315,training+cueing,2021.1.4,59.928577149985195,
Stranger.png,You,Stranger,m,1.3,15,25,95,,,,,1,0,1,0,,,,,0,5,5,6,,,,,,,,,,,,,,,,,,,,,1.413,2.298,571.4945839999709,None,,,,,,,,,,,,,,,,,,,,572.0359654000495,572.5409313000273,0.5099597298540175,1.0102330297231674,572.5242781999987,572.6243259999901,572.5242781999987,572.6243259999901,572.6243259999901,None,c,0,0.6797990000341088,572.6243259999901,None,,,,,m,,p5,2022_Mar_09_1315,training+cueing,2021.1.4,59.928577149985195,
Friend.png,Friend,Friend,c,2,12,22,92,,,,,1,0,1,0,,,,,0,6,6,10,,,,,,,,,,,,,,,,,,,,,1.411,1.461,573.4310153000988,None,,,,,,,,,,,,,,,,,,,,573.972929400159,574.4755198999774,0.5055271300952882,1.0058392300270498,574.4588901000097,574.5757257000078,574.4588901000097,574.5757257000078,574.558895900147,None,m,0,1.257271199952811,574.558895900147,None,,,,,m,,p5,2022_Mar_09_1315,training+cueing,2021.1.4,59.928577149985195,
Self.png,Friend,Self ,m,2.1,16,26,96,,,,,1,0,1,0,,,,,0,7,7,1,,,,,,,,,,,,,,,,,,,,,1.724,1.475,575.950244900072,None,,,,,,,,,,,,,,,,,,,,576.4898042001296,576.9940560001414,0.506281330017373,1.0066037299111485,576.9773675000761,577.0941280999687,576.9773675000761,577.0941280999687,577.077414700063,None,m,1,1.0747724000830203,577.077414700063,None,,,,,m,,p5,2022_Mar_09_1315,training+cueing,2021.1.4,59.928577149985195,
Self.png,Stranger,Self ,m,3.1,18,28,98,,,,,1,0,1,0,,,,,0,8,8,2,,,,,,,,,,,,,,,,,,,,,1.547,1.405,578.2846260999795,None,,,,,,,,,,,,,,,,,,,,578.8357418000232,579.3457184000872,0.5031210300512612,1.0034222300164402,579.3290943000466,579.445740400115,579.3290943000466,579.445740400115,579.4290930000134,None,m,1,0.8189989000093192,579.4290930000134,None,,,,,m,,p5,2022_Mar_09_1315,training+cueing,2021.1.4,59.928577149985195,
Self.png,You,Self ,c,1,11,21,91,,,,,1,0,1,0,,,,,0,9,9,9,,,,,,,,,,,,,,,,,,,,,1.594,1.916,580.3863619000185,None,,,,,,,,,,,,,,,,,,,,580.9281756000128,581.4305990999565,0.5061756297945976,1.0065340297296643,581.4139157000463,581.5139281000011,581.4139157000463,581.5139281000011,581.5139281000011,None,c,1,0.9261651998385787,581.5139281000011,None,,,,,m,,p5,2022_Mar_09_1315,training+cueing,2021.1.4,59.928577149985195,
Friend.png,You,Friend,m,1.2,14,24,94,,,,,1,0,1,0,,,,,0,10,10,3,,,,,,,,,,,,,,,,,,,,,1.78,1.787,582.5713536001276,None,,,,,,,,,,,,,,,,,,,,583.1085773000959,583.6154599001165,0.5116588298697025,1.0119392299093306,583.5988166001625,583.698838799959,583.5988166001625,583.698838799959,583.698838799959,None,m,1,1.0613104000221938,583.698838799959,None,,,,,m,,p5,2022_Mar_09_1315,training+cueing,2021.1.4,59.928577149985195,
Self.png,You,Self ,c,1,11,21,91,,,,,1,0,1,0,,,,,0,11,11,0,,,,,,,,,,,,,,,,,,,,,1.492,2.396,584.8895193999633,None,,,,,,,,,,,,,,,,,,,,585.4280114001594,585.9338430999778,0.5102913298178464,1.0105640299152583,585.9171554001514,586.0171944999602,585.9171554001514,586.0171944999602,586.0171944999602,None,m,0,1.0789412001613528,586.0171944999602,None,,,,,m,,p5,2022_Mar_09_1315,training+cueing,2021.1.4,59.928577149985195,
Self.png,You,Self ,c,1,11,21,91,,,,,1,0,1,0,,,,,1,0,12,0,,,,,,,,,,,,,,,,,,,,,1.603,1.654,587.2247401999775,None,,,,,,,,,,,,,,,,,,,,587.7940307999961,588.302276100032,0.5141950501129031,1.0143706500530243,588.28563700011,588.3855847001541,588.28563700011,588.3855847001541,588.3855847001541,None,c,1,0.6466081000398844,588.3855847001541,None,,,,,m,,p5,2022_Mar_09_1315,training+cueing,2021.1.4,59.928577149985195,
Self.png,Stranger,Self ,m,3.1,18,28,98,,,,,1,0,1,0,,,,,1,1,13,2,,,,,,,,,,,,,,,,,,,,,1.783,1.899,589.1591161999386,None,,,,,,,,,,,,,,,,,,,,589.6989072000142,590.2035503999796,0.5102146298158914,1.0105396299622953,590.1868561001029,590.3035955000669,590.1868561001029,590.3035955000669,590.286929700058,None,m,1,0.8412243002094328,590.286929700058,None,,,,,m,,p5,2022_Mar_09_1315,training+cueing,2021.1.4,59.928577149985195,
Self.png,Friend,Self ,m,2.1,16,26,96,,,,,1,0,1,0,,,,,1,2,14,1,,,,,,,,,,,,,,,,,,,,,1.58,1.993,591.260749500012,None,,,,,,,,,,,,,,,,,,,,591.81696560001,592.3217486999929,0.5099907403346151,1.0101921402383596,592.3051438999828,592.4218030001502,592.3051438999828,592.4218030001502,592.4051671000198,None,c,0,1.3629332999698818,592.4051671000198,None,,,,,m,,p5,2022_Mar_09_1315,training+cueing,2021.1.4,59.928577149985195,
Self.png,You,Self ,c,1,11,21,91,,,,,1,0,1,0,,,,,1,3,15,9,,,,,,,,,,,,,,,,,,,,,1.5,2.381,593.8962973000016,None,,,,,,,,,,,,,,,,,,,,594.4361372999847,594.9403254000936,0.5062551300507039,1.0065628299489617,594.9236294999719,595.0236754000653,594.9236294999719,595.0236754000653,595.0236754000653,None,c,1,0.7924792999401689,595.0236754000653,None,,,,,m,,p5,2022_Mar_09_1315,training+cueing,2021.1.4,59.928577149985195,
Stranger.png,Stranger,Stranger,c,3,13,23,93,,,,,1,0,1,0,,,,,1,4,16,8,,,,,,,,,,,,,,,,,,,,,1.495,1.694,595.947548000142,None,,,,,,,,,,,,,,,,,,,,596.4894159000833,596.9918117001653,0.5057218298316002,1.0059225298464298,596.9752156999893,597.0918756001629,596.9752156999893,597.0918756001629,597.0751662999392,None,m,0,1.140936499927193,597.0751662999392,None,,,,,m,,p5,2022_Mar_09_1315,training+cueing,2021.1.4,59.928577149985195,
Friend.png,You,Friend,m,1.2,14,24,94,,,,,1,0,1,0,,,,,1,5,17,3,,,,,,,,,,,,,,,,,,,,,1.651,1.648,598.3487714000512,None,,,,,,,,,,,,,,,,,,,,598.8901492999867,599.3935661001597,0.507215429795906,1.007510329829529,599.3768778999802,599.4769310001284,599.3768778999802,599.4769310001284,599.4769310001284,None,None,0,,599.4769310001284,None,,,,,m,,p5,2022_Mar_09_1315,training+cueing,2021.1.4,59.928577149985195,
Stranger.png,Stranger,Stranger,c,3,13,23,93,,,,,1,0,1,0,,,,,1,6,18,11,,,,,,,,,,,,,,,,,,,,,1.618,1.347,601.2324960001279,None,,,,,,,,,,,,,,,,,,,,601.7909459001385,602.2956527001224,0.5088888399768621,1.0091182398609817,602.2789925001562,602.3957267000806,602.2789925001562,602.3957267000806,602.378973599989,None,m,0,0.9733764000702649,602.378973599989,None,,,,,m,,p5,2022_Mar_09_1315,training+cueing,2021.1.4,59.928577149985195,
Friend.png,Friend,Friend,c,2,12,22,92,,,,,1,0,1,0,,,,,1,7,19,10,,,,,,,,,,,,,,,,,,,,,1.513,1.246,603.486335300142,None,,,,,,,,,,,,,,,,,,,,604.0409091000911,604.5472297000233,0.5130765400826931,1.0133881401270628,604.5305844999384,604.6473022999708,604.5305844999384,604.6473022999708,604.6306066000834,None,c,1,1.281407600035891,604.6306066000834,None,,,,,m,,p5,2022_Mar_09_1315,training+cueing,2021.1.4,59.928577149985195,
Stranger.png,Friend,Stranger,m,2.3,17,27,97,,,,,1,0,1,0,,,,,1,8,20,7,,,,,,,,,,,,,,,,,,,,,1.462,2.358,606.037577399984,None,,,,,,,,,,,,,,,,,,,,606.5731210000813,607.0823864000849,0.4993665299843997,0.9996808299329132,607.0490393999498,607.1490836001467,607.0490393999498,607.1490836001467,607.1490836001467,None,m,1,1.4030560001265258,607.1490836001467,None,,,,,m,,p5,2022_Mar_09_1315,training+cueing,2021.1.4,59.928577149985195,
Friend.png,Friend,Friend,c,2,12,22,92,,,,,1,0,1,0,,,,,1,9,21,4,,,,,,,,,,,,,,,,,,,,,1.45,1.646,608.6900639999658,None,,,,,,,,,,,,,,,,,,,,609.2513989000581,609.7510190000758,0.4995859400369227,0.9999808399006724,609.7342940999661,609.8510692999698,609.7342940999661,609.8510692999698,609.8510692999698,None,None,0,,609.8510692999698,None,,,,,m,,p5,2022_Mar_09_1315,training+cueing,2021.1.4,59.928577149985195,
Stranger.png,You,Stranger,m,1.3,15,25,95,,,,,1,0,1,0,,,,,1,10,22,6,,,,,,,,,,,,,,,,,,,,,1.795,1.614,611.4062165999785,None,,,,,,,,,,,,,,,,,,,,611.9486367001664,612.4529715999961,0.5073790301103145,1.0084715301636606,612.4362991000526,612.5363150001504,612.4362991000526,612.5363150001504,612.5363150001504,None,c,0,0.879919599974528,612.5363150001504,None,,,,,m,,p5,2022_Mar_09_1315,training+cueing,2021.1.4,59.928577149985195,
Friend.png,Stranger,Friend,m,3.2,19,29,99,,,,,1,0,1,0,,,,,1,11,23,5,,,,,,,,,,,,,,,,,,,,,1.623,2.031,613.5446075999644,None,,,,,,,,,,,,,,,,,,,,614.0862050999422,614.5878278000746,0.5020635300315917,1.0023271299432963,614.5711608999409,614.6878631999716,614.5711608999409,614.6878631999716,614.6711917000357,None,m,1,0.8568749998230487,614.6711917000357,None,,,,,m,,p5,2022_Mar_09_1315,training+cueing,2021.1.4,59.928577149985195,
Self.png,You,Self ,c,1,11,21,91,,,,,1,0,1,0,,,,,2,0,24,0,,,,,,,,,,,,,,,,,,,,,1.566,2.167,615.6611802000552,None,,,,,,,,,,,,,,,,,,,,616.2024608999491,616.7060171000194,0.5070143300108612,1.0076879300177097,616.6893591000699,616.7893901001662,616.6893591000699,616.7893901001662,616.7893901001662,None,c,1,0.8509294998366386,616.7893901001662,None,,,,,m,,p5,2022_Mar_09_1315,training+cueing,2021.1.4,59.928577149985195,
Stranger.png,Friend,Stranger,m,2.3,17,27,97,,,,,1,0,1,0,,,,,2,1,25,7,,,,,,,,,,,,,,,,,,,,,1.659,2.255,617.7629015001003,None,,,,,,,,,,,,,,,,,,,,618.3195662000217,618.8241981000174,0.508967739995569,1.00926664005965,618.8075548000634,618.9242529000621,618.8075548000634,618.9242529000621,618.9076201000717,None,None,0,,618.9076201000717,None,,,,,m,,p5,2022_Mar_09_1315,training+cueing,2021.1.4,59.928577149985195,
Friend.png,Friend,Friend,c,2,12,22,92,,,,,1,0,1,0,,,,,2,2,26,4,,,,,,,,,,,,,,,,,,,,,1.406,1.258,620.6796232999768,None,,,,,,,,,,,,,,,,,,,,621.221681300085,621.7262848000973,0.508063429966569,1.0083270301111042,621.7096619000658,621.8263493999839,621.7096619000658,621.8263493999839,621.8096752001438,None,None,0,,621.8096752001438,None,,,,,m,,p5,2022_Mar_09_1315,training+cueing,2021.1.4,59.928577149985195,
Friend.png,Stranger,Friend,m,3.2,19,29,99,,,,,1,0,1,0,,,,,2,3,27,5,,,,,,,,,,,,,,,,,,,,,1.471,2.2,623.330704400083,None,,,,,,,,,,,,,,,,,,,,623.875453799963,624.3783399001695,0.5056445298250765,1.005812929943204,624.3616804999765,624.4782910000067,624.3616804999765,624.4782910000067,624.4615810001269,None,None,0,,624.4615810001269,None,,,,,m,,p5,2022_Mar_09_1315,training+cueing,2021.1.4,59.928577149985195,
Friend.png,Friend,Friend,c,2,12,22,92,,,,,1,0,1,0,,,,,2,4,28,10,,,,,,,,,,,,,,,,,,,,,1.443,2.123,626.0508675000165,None,,,,,,,,,,,,,,,,,,,,626.5932165000122,627.096829800168,0.5057152300141752,1.0060319299809635,627.0801787001546,627.1969018999953,627.0801787001546,627.1969018999953,627.1802060001064,None,c,1,1.243991799885407,627.1802060001064,None,,,,,m,,p5,2022_Mar_09_1315,training+cueing,2021.1.4,59.928577149985195,
Friend.png,You,Friend,m,1.2,14,24,94,,,,,1,0,1,0,,,,,2,5,29,3,,,,,,,,,,,,,,,,,,,,,1.651,2.244,628.5546691999771,None,,,,,,,,,,,,,,,,,,,,629.0946264001541,629.598630500026,0.5072860298678279,1.0075921299867332,629.5819902000949,629.6820185000543,629.5819902000949,629.6820185000543,629.6820185000543,None,m,1,0.9181445001158863,629.6820185000543,None,,,,,m,,p5,2022_Mar_09_1315,training+cueing,2021.1.4,59.928577149985195,
Self.png,You,Self ,c,1,11,21,91,,,,,1,0,1,0,,,,,2,6,30,9,,,,,,,,,,,,,,,,,,,,,1.7,1.512,630.7233047999907,None,,,,,,,,,,,,,,,,,,,,631.2610268001445,631.7668936001137,0.5113950297236443,1.0116947297938168,631.7502059999388,631.8502090000547,631.7502059999388,631.8502090000547,631.8502090000547,None,c,1,0.7660741999279708,631.8502090000547,None,,,,,m,,p5,2022_Mar_09_1315,training+cueing,2021.1.4,59.928577149985195,
Self.png,Friend,Self ,m,2.1,16,26,96,,,,,1,0,1,0,,,,,2,7,31,1,,,,,,,,,,,,,,,,,,,,,1.507,1.332,632.7445682999678,None,,,,,,,,,,,,,,,,,,,,633.2818960000295,633.7850319000427,0.5033657299354672,1.0035639298148453,633.7683697000612,633.8850617001299,633.7683697000612,633.8850617001299,633.8683512001298,None,c,0,0.7637870998587459,633.8683512001298,None,,,,,m,,p5,2022_Mar_09_1315,training+cueing,2021.1.4,59.928577149985195,
Stranger.png,Stranger,Stranger,c,3,13,23,93,,,,,1,0,1,0,,,,,2,8,32,11,,,,,,,,,,,,,,,,,,,,,1.504,1.351,634.7590044999961,None,,,,,,,,,,,,,,,,,,,,635.3003716000821,635.8031476000324,0.5050365298520774,1.0061163296923041,635.786472100066,635.9032098001335,635.786472100066,635.9032098001335,635.8864756000694,None,m,0,0.8736942000687122,635.8864756000694,None,,,,,m,,p5,2022_Mar_09_1315,training+cueing,2021.1.4,59.928577149985195,
Stranger.png,You,Stranger,m,1.3,15,25,95,,,,,1,0,1,0,,,,,2,9,33,6,,,,,,,,,,,,,,,,,,,,,1.59,1.304,636.8946346000303,None,,,,,,,,,,,,,,,,,,,,637.4363035999704,637.9380131000653,0.5026703299954534,1.0030010300688446,637.9213503000792,638.0213636001572,637.9213503000792,638.0213636001572,638.0213636001572,None,m,1,0.9626919999718666,638.0213636001572,None,,,,,m,,p5,2022_Mar_09_1315,training+cueing,2021.1.4,59.928577149985195,
Stranger.png,Stranger,Stranger,c,3,13,23,93,,,,,1,0,1,0,,,,,2,10,34,8,,,,,,,,,,,,,,,,,,,,,1.562,2.138,639.1121187999379,None,,,,,,,,,,,,,,,,,,,,639.6529175001197,640.1562791001052,0.5043608299456537,1.0046342299319804,640.1396195001435,640.256321300054,640.1396195001435,640.256321300054,640.2396335001104,None,None,0,,640.2396335001104,None,,,,,m,,p5,2022_Mar_09_1315,training+cueing,2021.1.4,59.928577149985195,
Self.png,Stranger,Self ,m,3.1,18,28,98,,,,,1,0,1,0,,,,,2,11,35,2,,,,,,,,,,,,,,,,,,,,,1.408,2.411,641.9121034001,None,,,,,,,,,,,,,,,,,,,,642.4534187000245,642.958304699976,0.5103111299686134,1.0106001300737262,642.9416402999777,643.0583536000922,642.9416402999777,643.0583536000922,643.0416546999477,None,None,0,,643.0416546999477,None,,,,,m,,p5,2022_Mar_09_1315,training+cueing,2021.1.4,59.928577149985195,
Friend.png,Friend,Friend,c,2,12,22,92,,,,,1,0,1,0,,,,,3,0,36,4,,,,,,,,,,,,,,,,,,,,,1.497,1.503,644.5639315999579,None,,,,,,,,,,,,,,,,,,,,645.1064931999426,645.6102287000977,0.5051777299959213,1.0054236298892647,645.5935529000126,645.7102119999472,645.5935529000126,645.7102119999472,645.6935734001454,None,c,1,1.2908152998425066,645.6935734001454,None,,,,,m,,p5,2022_Mar_09_1315,training+cueing,2021.1.4,59.928577149985195,
Friend.png,Stranger,Friend,m,3.2,19,29,99,,,,,1,0,1,0,,,,,3,1,37,5,,,,,,,,,,,,,,,,,,,,,1.429,1.731,647.1178240000736,None,,,,,,,,,,,,,,,,,,,,647.6594724999741,648.1620444001164,0.5044999297242612,1.004875929793343,648.1453581000678,648.2621091001201,648.1453581000678,648.2621091001201,648.2454007000197,None,None,0,,648.2454007000197,None,,,,,m,,p5,2022_Mar_09_1315,training+cueing,2021.1.4,59.928577149985195,
Friend.png,You,Friend,m,1.2,14,24,94,,,,,1,0,1,0,,,,,3,2,38,3,,,,,,,,,,,,,,,,,,,,,1.614,2.355,649.7855829000473,None,,,,,,,,,,,,,,,,,,,,650.3277221999597,650.8308350001462,0.5063414298929274,1.0065729299094528,650.8141451000702,650.9141776000615,650.8141451000702,650.9141776000615,650.9141776000615,None,m,1,0.5340982999186963,650.9141776000615,None,,,,,m,,p5,2022_Mar_09_1315,training+cueing,2021.1.4,59.928577149985195,
Self.png,Friend,Self ,m,2.1,16,26,96,,,,,1,0,1,0,,,,,3,3,39,1,,,,,,,,,,,,,,,,,,,,,1.474,1.893,651.5716556999832,None,,,,,,,,,,,,,,,,,,,,652.1114688999951,652.6152311000042,0.5048092298675328,1.005152229918167,652.5985975000076,652.7153056000825,652.5985975000076,652.7153056000825,652.6986237999517,None,c,0,0.6533793997950852,652.6986237999517,None,,,,,m,,p5,2022_Mar_09_1315,training+cueing,2021.1.4,59.928577149985195,
Stranger.png,You,Stranger,m,1.3,15,25,95,,,,,1,0,1,0,,,,,3,4,40,6,,,,,,,,,,,,,,,,,,,,,1.779,1.883,653.4883795001078,None,,,,,,,,,,,,,,,,,,,,654.0284854001366,654.5335158000235,0.5096649301704019,1.0099514301400632,654.516812399961,654.6168446999509,654.516812399961,654.6168446999509,654.6168446999509,None,None,0,,654.6168446999509,None,,,,,m,,p5,2022_Mar_09_1315,training+cueing,2021.1.4,59.928577149985195,
Self.png,Stranger,Self ,m,3.1,18,28,98,,,,,1,0,1,0,,,,,3,5,41,2,,,,,,,,,,,,,,,,,,,,,1.462,1.551,656.5069254001137,None,,,,,,,,,,,,,,,,,,,,657.0522329001687,657.5521842001472,0.5152030300814658,1.0155130301136523,657.5521842001472,657.6521940000821,657.5521842001472,657.6521940000821,657.6521940000821,None,m,1,0.8997929999604821,657.6521940000821,None,,,,,m,,p5,2022_Mar_09_1315,training+cueing,2021.1.4,59.928577149985195,
Friend.png,Friend,Friend,c,2,12,22,92,,,,,1,0,1,0,,,,,3,6,42,10,,,,,,,,,,,,,,,,,,,,,1.59,1.76,658.6753883000929,None,,,,,,,,,,,,,,,,,,,,659.2187959000003,659.7203760000411,0.5023273299448192,1.0026335299480706,659.7036936001386,659.8204620000906,659.7036936001386,659.8204620000906,659.8037213000935,None,m,0,0.8443179000169039,659.8037213000935,None,,,,,m,,p5,2022_Mar_09_1315,training+cueing,2021.1.4,59.928577149985195,
Stranger.png,Stranger,Stranger,c,3,13,23,93,,,,,1,0,1,0,,,,,3,7,43,11,,,,,,,,,,,,,,,,,,,,,1.608,1.403,660.777714899974,None,,,,,,,,,,,,,,,,,,,,661.3263110001571,661.8385608999524,0.508394829928875,1.0087250298820436,661.8218765000347,661.9387081000023,661.8218765000347,661.9387081000023,661.9219206999987,None,c,1,0.5500500998459756,661.9219206999987,None,,,,,m,,p5,2022_Mar_09_1315,training+cueing,2021.1.4,59.928577149985195,
Stranger.png,Friend,Stranger,m,2.3,17,27,97,,,,,1,0,1,0,,,,,3,8,44,7,,,,,,,,,,,,,,,,,,,,,1.414,2.194,662.5947356999386,None,,,,,,,,,,,,,,,,,,,,663.1355256000534,663.6398853000719,0.5058933300897479,1.0061546301003546,663.6232038999442,663.739928800147,663.6232038999442,663.739928800147,663.7232061000541,None,m,1,0.6208256999962032,663.7232061000541,None,,,,,m,,p5,2022_Mar_09_1315,training+cueing,2021.1.4,59.928577149985195,
Self.png,You,Self ,c,1,11,21,91,,,,,1,0,1,0,,,,,3,9,45,9,,,,,,,,,,,,,,,,,,,,,1.654,2.263,664.4805066999979,None,,,,,,,,,,,,,,,,,,,,665.0207424000837,665.5245620000642,0.5075989300385118,1.0087126300204545,665.5079131000675,665.6079756000545,665.5079131000675,665.6079756000545,665.6079756000545,None,m,0,0.4800627001095563,665.6079756000545,None,,,,,m,,p5,2022_Mar_09_1315,training+cueing,2021.1.4,59.928577149985195,
Self.png,You,Self ,c,1,11,21,91,,,,,1,0,1,0,,,,,3,10,46,0,,,,,,,,,,,,,,,,,,,,,1.502,1.224,666.2159021000843,None,,,,,,,,,,,,,,,,,,,,666.7551947000902,667.2591516999528,0.5082378298975527,1.0085093299858272,667.2425047999714,667.3426361000165,667.2425047999714,667.3426361000165,667.3426361000165,None,c,1,0.5052795000374317,667.3426361000165,None,,,,,m,,p5,2022_Mar_09_1315,training+cueing,2021.1.4,59.928577149985195,
Stranger.png,Stranger,Stranger,c,3,13,23,93,,,,,1,0,1,0,,,,,3,11,47,8,,,,,,,,,,,,,,,,,,,,,1.501,2.452,667.982898700051,None,,,,,,,,,,,,,,,,,,,,668.5399305999745,669.0438020001166,0.5066783402580768,1.0067866402678192,669.0272616001312,669.1438205000013,669.0272616001312,669.1438205000013,669.1271341000684,None,m,0,1.1689085999969393,669.1271341000684,None,,,,,m,,p5,2022_Mar_09_1315,training+cueing,2021.1.4,59.928577149985195,
Self.png,You,Self ,c,1,11,21,91,,,,,1,0,1,0,,,,,4,0,48,9,,,,,,,,,,,,,,,,,,,,,1.641,2.261,670.417480800068,None,,,,,,,,,,,,,,,,,,,,670.9586678999476,671.4621972001623,0.5071364301256835,1.007432530168444,671.4455089999828,671.5455414999742,671.4455089999828,671.5455414999742,671.5455414999742,None,None,0,,671.5455414999742,None,,,,,m,,p5,2022_Mar_09_1315,training+cueing,2021.1.4,59.928577149985195,
Friend.png,Stranger,Friend,m,3.2,19,29,99,,,,,1,0,1,0,,,,,4,1,49,5,,,,,,,,,,,,,,,,,,,,,1.493,1.604,673.3026298000477,None,,,,,,,,,,,,,,,,,,,,673.8459892999381,674.3476021999959,0.5032918299548328,1.004378329962492,674.3309514001012,674.4476590000559,674.3309514001012,674.4476590000559,674.4309857001062,None,None,0,,674.4309857001062,None,,,,,m,,p5,2022_Mar_09_1315,training+cueing,2021.1.4,59.928577149985195,
Stranger.png,You,Stranger,m,1.3,15,25,95,,,,,1,0,1,0,,,,,4,2,50,6,,,,,,,,,,,,,,,,,,,,,1.605,2.222,676.0367209000979,None,,,,,,,,,,,,,,,,,,,,676.5787458999548,677.0828633999918,0.506744529819116,1.0070493298117071,677.066247300012,677.1662455999758,677.066247300012,677.1662455999758,677.1662455999758,None,None,0,,677.1662455999758,None,,,,,m,,p5,2022_Mar_09_1315,training+cueing,2021.1.4,59.928577149985195,
Stranger.png,Stranger,Stranger,c,3,13,23,93,,,,,1,0,1,0,,,,,4,3,51,11,,,,,,,,,,,,,,,,,,,,,1.704,2.151,678.8886782000773,None,,,,,,,,,,,,,,,,,,,,679.4328733000439,679.934971800074,0.5052092301193625,1.0055060300510377,679.9183183000423,680.035030100029,679.9183183000423,680.035030100029,680.0183117999695,None,m,0,0.853703900007531,680.0183117999695,None,,,,,m,,p5,2022_Mar_09_1315,training+cueing,2021.1.4,59.928577149985195,
Friend.png,Friend,Friend,c,2,12,22,92,,,,,1,0,1,0,,,,,4,4,52,10,,,,,,,,,,,,,,,,,,,,,1.699,1.46,681.0083847001661,None,,,,,,,,,,,,,,,,,,,,681.5470188001636,682.0531252000947,0.5092437299899757,1.0096093299798667,682.0364644001238,682.1532004999463,682.0364644001238,682.1532004999463,682.1365197999403,None,c,1,1.3755127999465913,682.1365197999403,None,,,,,m,,p5,2022_Mar_09_1315,training+cueing,2021.1.4,59.928577149985195,
Friend.png,Friend,Friend,c,2,12,22,92,,,,,1,0,1,0,,,,,4,5,53,4,,,,,,,,,,,,,,,,,,,,,1.702,2.304,683.6433703999501,None,,,,,,,,,,,,,,,,,,,,684.1795405000448,684.6883774001617,0.5002965298481286,1.0005056296940893,684.6550833999645,684.7550638001412,684.6550833999645,684.7550638001412,684.7550638001412,None,c,1,1.6049251998774707,684.7550638001412,None,,,,,m,,p5,2022_Mar_09_1315,training+cueing,2021.1.4,59.928577149985195,
Self.png,Friend,Self ,m,2.1,16,26,96,,,,,1,0,1,0,,,,,4,6,54,1,,,,,,,,,,,,,,,,,,,,,1.6,2.312,686.4953809999861,None,,,,,,,,,,,,,,,,,,,,687.0326265001204,687.5405354001559,0.5142774297855794,1.0145629297476262,687.5237955001649,687.6405130999628,687.5237955001649,687.6405130999628,687.6238286001608,None,m,1,1.4400905000511557,687.6238286001608,None,,,,,m,,p5,2022_Mar_09_1315,training+cueing,2021.1.4,59.928577149985195,
Stranger.png,Friend,Stranger,m,2.3,17,27,97,,,,,1,0,1,0,,,,,4,7,55,7,,,,,,,,,,,,,,,,,,,,,1.591,1.472,689.1979942000471,None,,,,,,,,,,,,,,,,,,,,689.7490618999582,690.259090000065,0.5032530298922211,1.003546429798007,690.2424369000364,690.359136500163,690.2424369000364,690.359136500163,690.3424635999836,None,c,0,1.4255900999996811,690.3424635999836,None,,,,,m,,p5,2022_Mar_09_1315,training+cueing,2021.1.4,59.928577149985195,
Stranger.png,Stranger,Stranger,c,3,13,23,93,,,,,1,0,1,0,,,,,4,8,56,8,,,,,,,,,,,,,,,,,,,,,1.558,2.044,691.9003394001629,None,,,,,,,,,,,,,,,,,,,,692.4957036001142,693.0110651999712,0.5140081599820405,1.014312859857455,692.9943826999515,693.1111337000038,692.9943826999515,693.1111337000038,693.0944126001559,None,None,0,,693.0944126001559,None,,,,,m,,p5,2022_Mar_09_1315,training+cueing,2021.1.4,59.928577149985195,
Friend.png,You,Friend,m,1.2,14,24,94,,,,,1,0,1,0,,,,,4,9,57,3,,,,,,,,,,,,,,,,,,,,,1.5,2.264,694.7671541001182,None,,,,,,,,,,,,,,,,,,,,695.307880599983,695.8131496999413,0.5093854297883809,1.0096323299221694,695.7963851001114,695.8964656000026,695.7963851001114,695.8964656000026,695.8964656000026,None,None,0,,695.8964656000026,None,,,,,m,,p5,2022_Mar_09_1315,training+cueing,2021.1.4,59.928577149985195,
Self.png,Stranger,Self ,m,3.1,18,28,98,,,,,1,0,1,0,,,,,4,10,58,2,,,,,,,,,,,,,,,,,,,,,1.424,1.537,697.5044038000051,None,,,,,,,,,,,,,,,,,,,,698.0467523001134,698.5484108000528,0.5020676299463958,1.0023454299662262,698.5317365000956,698.6484280000441,698.5317365000956,698.6484280000441,698.6317678999621,None,None,0,,698.6317678999621,None,,,,,m,,p5,2022_Mar_09_1315,training+cueing,2021.1.4,59.928577149985195,
Self.png,You,Self ,c,1,11,21,91,,,,,1,0,1,0,,,,,4,11,59,0,,,,,,,,,,,,,,,,,,,,,1.769,1.661,700.1707295000087,None,,,,,,,,,,,,,,,,,,,,700.7101641001645,701.2170095001347,0.5128944297321141,1.013775129802525,701.2005454001483,701.3003291001078,701.2005454001483,701.3003291001078,701.3003291001078,None,c,1,0.9957981000188738,701.3003291001078,None,,,,,m,,p5,2022_Mar_09_1315,training+cueing,2021.1.4,59.928577149985195,
Friend.png,Friend,Friend,c,2,12,22,92,,,,,1,0,1,0,,,,,5,0,60,10,,,,,,,,,,,,,,,,,,,,,1.686,1.661,702.424159000162,None,,,,,,,,,,,,,,,,,,,,702.9697716000956,703.4852682000492,0.5114434298593551,1.0117512298747897,703.4686184001621,703.5853420000058,703.4686184001621,703.5853420000058,703.5686602999922,None,m,0,1.095364699838683,703.5686602999922,None,,,,,m,,p5,2022_Mar_09_1315,training+cueing,2021.1.4,59.928577149985195,
Stranger.png,Stranger,Stranger,c,3,13,23,93,,,,,1,0,1,0,,,,,5,1,61,11,,,,,,,,,,,,,,,,,,,,,1.439,1.371,704.7927582000848,None,,,,,,,,,,,,,,,,,,,,705.3337060001213,705.8369899999816,0.5054146298207343,1.0060080299153924,705.8203201000579,705.937315300107,705.8203201000579,705.937315300107,705.9206505001057,None,c,1,0.9195095999166369,705.9206505001057,None,,,,,m,,p5,2022_Mar_09_1315,training+cueing,2021.1.4,59.928577149985195,
Self.png,You,Self ,c,1,11,21,91,,,,,1,0,1,0,,,,,5,2,62,9,,,,,,,,,,,,,,,,,,,,,1.473,2.333,706.9788095001131,None,,,,,,,,,,,,,,,,,,,,707.5261367999483,708.0385907001328,0.5079578298609704,1.0082484299782664,708.0219003001694,708.1219311000314,708.0219003001694,708.1219311000314,708.1219311000314,None,c,1,0.942078199936077,708.1219311000314,None,,,,,m,,p5,2022_Mar_09_1315,training+cueing,2021.1.4,59.928577149985195,
Friend.png,Stranger,Friend,m,3.2,19,29,99,,,,,1,0,1,0,,,,,5,3,63,5,,,,,,,,,,,,,,,,,,,,,1.627,1.306,709.196275500115,None,,,,,,,,,,,,,,,,,,,,709.7540458000731,710.2569565000013,0.5037363399751484,1.0039988399948925,710.2403198999818,710.3569920000155,710.2403198999818,710.3569920000155,710.3403179000597,None,m,1,1.411696300143376,710.3403179000597,None,,,,,m,,p5,2022_Mar_09_1315,training+cueing,2021.1.4,59.928577149985195,
Self.png,Stranger,Self ,m,3.1,18,28,98,,,,,1,0,1,0,,,,,5,4,64,2,,,,,,,,,,,,,,,,,,,,,1.592,2.169,711.8815419001039,None,,,,,,,,,,,,,,,,,,,,712.4207756000105,712.9254080001265,0.5090627302415669,1.009341630153358,712.9087859001011,713.0255100999493,712.9087859001011,713.0255100999493,713.0087846999522,None,m,1,0.8711760998703539,713.0087846999522,None,,,,,m,,p5,2022_Mar_09_1315,training+cueing,2021.1.4,59.928577149985195,
Friend.png,You,Friend,m,1.2,14,24,94,,,,,1,0,1,0,,,,,5,5,65,3,,,,,,,,,,,,,,,,,,,,,1.773,2.043,714.0163706000894,None,,,,,,,,,,,,,,,,,,,,714.554739400046,715.060296199983,0.5105602298863232,1.0108342298772186,715.0436750999652,715.1436863001436,715.0436750999652,715.1436863001436,715.1436863001436,None,m,1,1.1042703001294285,715.1436863001436,None,,,,,m,,p5,2022_Mar_09_1315,training+cueing,2021.1.4,59.928577149985195,
Self.png,You,Self ,c,1,11,21,91,,,,,1,0,1,0,,,,,5,6,66,0,,,,,,,,,,,,,,,,,,,,,1.687,2.455,716.3839763000142,None,,,,,,,,,,,,,,,,,,,,716.9220645001624,717.4287370999809,0.5111104298848659,1.011348329950124,717.4120593999978,717.5120661000255,717.4120593999978,717.5120661000255,717.5120661000255,None,c,1,0.7518257999327034,717.5120661000255,None,,,,,m,,p5,2022_Mar_09_1315,training+cueing,2021.1.4,59.928577149985195,
Stranger.png,You,Stranger,m,1.3,15,25,95,,,,,1,0,1,0,,,,,5,7,67,6,,,,,,,,,,,,,,,,,,,,,1.435,1.629,718.3858356000856,None,,,,,,,,,,,,,,,,,,,,718.9369461000897,719.4470019999426,0.5050658299587667,1.0053144299890846,719.4303395999596,719.530338200042,719.4303395999596,719.530338200042,719.530338200042,None,m,1,0.7017842000350356,719.530338200042,None,,,,,m,,p5,2022_Mar_09_1315,training+cueing,2021.1.4,59.928577149985195,
Self.png,Friend,Self ,m,2.1,16,26,96,,,,,1,0,1,0,,,,,5,8,68,1,,,,,,,,,,,,,,,,,,,,,1.708,1.233,720.3569849000778,None,,,,,,,,,,,,,,,,,,,,720.9169302000664,721.4315401001368,0.5119385400321335,1.0121320399921387,721.4149601000827,721.5316503001377,721.4149601000827,721.5316503001377,721.5149372001179,None,m,1,0.9412712999619544,721.5149372001179,None,,,,,m,,p5,2022_Mar_09_1315,training+cueing,2021.1.4,59.928577149985195,
Friend.png,Friend,Friend,c,2,12,22,92,,,,,1,0,1,0,,,,,5,9,69,4,,,,,,,,,,,,,,,,,,,,,1.422,2.359,722.5921010000166,None,,,,,,,,,,,,,,,,,,,,723.1288147999439,723.6331561000552,0.5084569298196584,1.0087327298242599,723.6164766999427,723.7332244999707,723.6164766999427,723.7332244999707,723.7165137000848,None,m,0,1.075417899992317,723.7165137000848,None,,,,,m,,p5,2022_Mar_09_1315,training+cueing,2021.1.4,59.928577149985195,
Stranger.png,Stranger,Stranger,c,3,13,23,93,,,,,1,0,1,0,,,,,5,10,70,8,,,,,,,,,,,,,,,,,,,,,1.452,1.728,724.9236415000632,None,,,,,,,,,,,,,,,,,,,,725.4640119001269,725.9681713001337,0.5073958297725767,1.0077753297518939,725.951518899994,726.0682233001571,725.951518899994,726.0682233001571,726.0515521001071,None,m,0,1.2684013000689447,726.0515521001071,None,,,,,m,,p5,2022_Mar_09_1315,training+cueing,2021.1.4,59.928577149985195,
Stranger.png,Friend,Stranger,m,2.3,17,27,97,,,,,1,0,1,0,,,,,5,11,71,7,,,,,,,,,,,,,,,,,,,,,1.793,2.133,727.4413308999501,None,,,,,,,,,,,,,,,,,,,,727.9824022001121,728.4866726000328,0.5056265299208462,1.00601062993519,728.46998049994,728.5867304999847,728.46998049994,728.5867304999847,728.5700014000759,None,m,1,0.9099465999752283,728.5700014000759,None,,,,,m,,p5,2022_Mar_09_1315,training+cueing,2021.1.4,59.928577149985195,
Friend.png,Friend,Friend,c,2,12,22,92,,,,,1,0,1,0,,,,,6,0,72,4,,,,,,,,,,,,,,,,,,,,,1.569,1.327,729.6107371000107,None,,,,,,,,,,,,,,,,,,,,730.14908140013,730.6551081000362,0.5108969300054014,1.012307730037719,730.6373554000165,730.7550679999404,730.6373554000165,730.7550679999404,730.7383465999737,None,c,1,0.8536123000085354,730.7383465999737,None,,,,,m,,p5,2022_Mar_09_1315,training+cueing,2021.1.4,59.928577149985195,
Friend.png,Stranger,Friend,m,3.2,19,29,99,,,,,1,0,1,0,,,,,6,1,73,5,,,,,,,,,,,,,,,,,,,,,1.712,2.321,731.7288651999552,None,,,,,,,,,,,,,,,,,,,,732.2696825000457,732.7731079000514,0.5052797300741076,1.0055712300818413,732.7564100001473,732.8731681001373,732.7564100001473,732.8731681001373,732.85645750002,None,m,1,1.1834157998673618,732.85645750002,None,,,,,m,,p5,2022_Mar_09_1315,training+cueing,2021.1.4,59.928577149985195,
Friend.png,Friend,Friend,c,2,12,22,92,,,,,1,0,1,0,,,,,6,2,74,10,,,,,,,,,,,,,,,,,,,,,1.425,1.683,734.1638867999427,None,,,,,,,,,,,,,,,,,,,,734.7045291000977,735.2082740000915,0.5053779298905283,1.0054745299275964,735.1916839999612,735.308210400166,735.1916839999612,735.308210400166,735.2915592000354,None,c,1,0.7483202000148594,735.2915592000354,None,,,,,m,,p5,2022_Mar_09_1315,training+cueing,2021.1.4,59.928577149985195,
Stranger.png,Stranger,Stranger,c,3,13,23,93,,,,,1,0,1,0,,,,,6,3,75,8,,,,,,,,,,,,,,,,,,,,,1.652,2.192,736.1653565999586,None,,,,,,,,,,,,,,,,,,,,736.7060740999877,737.2098550000228,0.5068255299702287,1.007734030019492,737.1931002000347,737.309663800057,737.1931002000347,737.309663800057,737.293003299972,None,c,1,1.5629794001579285,737.293003299972,None,,,,,m,,p5,2022_Mar_09_1315,training+cueing,2021.1.4,59.928577149985195,
Stranger.png,Stranger,Stranger,c,3,13,23,93,,,,,1,0,1,0,,,,,6,4,76,11,,,,,,,,,,,,,,,,,,,,,1.462,1.204,738.9836180999409,None,,,,,,,,,,,,,,,,,,,,739.5305029000156,740.0450345999561,0.5090453301090747,1.009339930023998,740.0283288999926,740.145067299949,740.0283288999926,740.145067299949,740.1283487000037,None,None,0,,740.1283487000037,None,,,,,m,,p5,2022_Mar_09_1315,training+cueing,2021.1.4,59.928577149985195,
Self.png,Friend,Self ,m,2.1,16,26,96,,,,,1,0,1,0,,,,,6,5,77,1,,,,,,,,,,,,,,,,,,,,,1.658,1.638,741.7005664999597,None,,,,,,,,,,,,,,,,,,,,742.2410029000603,742.746974500129,0.510994530050084,1.0112880300730467,742.7302864000667,742.8470259001479,742.7302864000667,742.8470259001479,742.8302941999864,None,m,1,0.9536270000971854,742.8302941999864,None,,,,,m,,p5,2022_Mar_09_1315,training+cueing,2021.1.4,59.928577149985195,
Stranger.png,You,Stranger,m,1.3,15,25,95,,,,,1,0,1,0,,,,,6,6,78,6,,,,,,,,,,,,,,,,,,,,,1.424,1.738,743.9209972999524,None,,,,,,,,,,,,,,,,,,,,744.4613634999841,744.965195100056,0.5072789299301803,1.0076084297616035,744.9485421001446,745.048604800133,744.9485421001446,745.048604800133,745.048604800133,None,m,1,1.07130610011518,745.048604800133,None,,,,,m,,p5,2022_Mar_09_1315,training+cueing,2021.1.4,59.928577149985195,
Self.png,You,Self ,c,1,11,21,91,,,,,1,0,1,0,,,,,6,7,79,9,,,,,,,,,,,,,,,,,,,,,1.789,1.738,746.2559762999881,None,,,,,,,,,,,,,,,,,,,,746.7926684999838,747.3002508000936,0.5124153299257159,1.0127054299227893,747.2835806000512,747.3838462999556,747.2835806000512,747.3838462999556,747.3838462999556,None,c,1,0.7680149998050183,747.3838462999556,None,,,,,m,,p5,2022_Mar_09_1315,training+cueing,2021.1.4,59.928577149985195,
Friend.png,You,Friend,m,1.2,14,24,94,,,,,1,0,1,0,,,,,6,8,80,3,,,,,,,,,,,,,,,,,,,,,1.441,2.306,748.2741505999584,None,,,,,,,,,,,,,,,,,,,,748.8124180000741,749.3185241001192,0.5115993299987167,1.0117955300956964,749.3017782000825,749.4017762001604,749.3017782000825,749.4017762001604,749.4017762001604,None,m,1,0.7341833000537008,749.4017762001604,None,,,,,m,,p5,2022_Mar_09_1315,training+cueing,2021.1.4,59.928577149985195,
Stranger.png,Friend,Stranger,m,2.3,17,27,97,,,,,1,0,1,0,,,,,6,9,81,7,,,,,,,,,,,,,,,,,,,,,1.515,1.377,750.2587469001301,None,,,,,,,,,,,,,,,,,,,,750.7986809001304,751.3031697000843,0.5094883299898356,1.0097664298955351,751.2864670001436,751.4031990000512,751.2864670001436,751.4031990000512,751.3864347999915,None,c,0,1.2616991000249982,751.3864347999915,None,,,,,m,,p5,2022_Mar_09_1315,training+cueing,2021.1.4,59.928577149985195,
Self.png,Stranger,Self ,m,3.1,18,28,98,,,,,1,0,1,0,,,,,6,10,82,2,,,,,,,,,,,,,,,,,,,,,1.609,1.23,752.7813136000186,None,,,,,,,,,,,,,,,,,,,,753.3225763000082,753.8216306001414,0.513120329938829,1.0136047301348299,753.8216306001414,753.9216978000477,753.8216306001414,753.9216978000477,753.9216978000477,None,m,1,0.9181329999119043,753.9216978000477,None,,,,,m,,p5,2022_Mar_09_1315,training+cueing,2021.1.4,59.928577149985195,
Self.png,You,Self ,c,1,11,21,91,,,,,1,0,1,0,,,,,6,11,83,0,,,,,,,,,,,,,,,,,,,,,1.615,1.367,754.961886000121,None,,,,,,,,,,,,,,,,,,,,755.502647700021,756.0065169001464,0.5074062300845981,1.0077063301578164,755.9898489001207,756.0898730000481,755.9898489001207,756.0898730000481,756.0898730000481,None,c,1,0.8619976998306811,756.0898730000481,None,,,,,m,,p5,2022_Mar_09_1315,training+cueing,2021.1.4,59.928577149985195,
Friend.png,Friend,Friend,c,2,12,22,92,,,,,1,0,1,0,,,,,7,0,84,10,,,,,,,,,,,,,,,,,,,,,1.771,1.659,757.0798043999821,None,,,,,,,,,,,,,,,,,,,,757.617915000068,758.1247435000259,0.5114073297008872,1.0117023296188563,758.1080444001127,758.2247941000387,758.1080444001127,758.2247941000387,758.208063099999,None,m,0,0.791822100058198,758.208063099999,None,,,,,m,,p5,2022_Mar_09_1315,training+cueing,2021.1.4,59.928577149985195,
