Image,Name,Face,CorrAns,Match,Face_onset,CResponse_onset,IResponse_onset,Match.thisRepN,Match.thisTrialN,Match.thisN,Match.thisIndex,Blocks.thisRepN,Blocks.thisTrialN,Blocks.thisN,Blocks.thisIndex,trials.thisRepN,trials.thisTrialN,trials.thisN,trials.thisIndex,trials_2.thisRepN,trials_2.thisTrialN,trials_2.thisN,trials_2.thisIndex,text.started,text.stopped,p1.started,p1.stopped,MatchInstructions.started,MatchInstructions.stopped,Name1.started,Name1.stopped,Face_Relevance.started,Face_Relevance.stopped,MismatchInstructions.started,MismatchInstructions.stopped,Rest_trainingInstruct.started,Rest_trainingInstruct.stopped,next8.keys,next8.rt,next8.started,next8.stopped,Ready.started,Ready.stopped,delay_one_picked,delay_two_picked,blank0.started,blank0.stopped,FixationCross1.started,FixationCross1.stopped,Name3.started,Name3.stopped,Face_Relevance3.started,Face_Relevance3.stopped,responseTime.started,responseTime.stopped,resp.keys,resp.corr,resp.started,resp.stopped,Accuracy.started,Accuracy.stopped,resp.rt,questions.started,questions.stopped,p2.started,p2.stopped,FixationCross3.started,FixationCross3.stopped,port_Face_onset.started,port_Face_onset.stopped,Name4.started,Name4.stopped,Face_Relevance4.started,Face_Relevance4.stopped,responseTime2.started,responseTime2.stopped,Response.keys,Response.corr,Response.rt,Response.started,Response.stopped,p3.started,p3.stopped,Finish.started,Finish.stopped,gender,age,participant,date,expName,psychopyVersion,frameRate,
Friend.png,Friend,,,,,,,0,0,0,1,,,,,,,,,,,,,30.051076899981126,None,0.003487239999230951,0.5252052400028333,38.4467799999984,None,54.223199200001545,None,54.223199200001545,None,,,,,,,,,,,,,,,,,,,,,,,,,,,,,,,,,,,,,,,,,,,,,,,,,,,,,m,,p6,2022_Mar_17_1134,training+cueing,2021.1.4,59.915148166254546,
Self.png,You,,,,,,,0,1,1,0,,,,,,,,,,,,,,,,,,,74.12960029998794,None,74.12960029998794,None,,,,,,,,,,,,,,,,,,,,,,,,,,,,,,,,,,,,,,,,,,,,,,,,,,,,,m,,p6,2022_Mar_17_1134,training+cueing,2021.1.4,59.915148166254546,
Stranger.png,Stranger,,,,,,,0,2,2,2,,,,,,,,,,,,,,,,,,,94.12886440000148,None,94.12886440000148,None,,,,,,,,,,,,,,,,,,,,,,,,,,,,,,,,,,,,,,,,,,,,,,,,,,,,,m,,p6,2022_Mar_17_1134,training+cueing,2021.1.4,59.915148166254546,
Friend.png,Stranger,Friend,m,3.2,19,29,99,,,,,0,0,0,0,0,0,0,5,,,,,,,,,,,,,,,114.08561159999226,None,158.9014074000006,None,space,1.0490735999774188,2.0087361900077667,None,161.95392979998724,None,1.614,1.611,164.9599760999845,None,165.57604399998672,166.0905044999963,166.07366009999532,166.19040819999645,166.07366009999532,166.19040819999645,166.17369920000783,None,None,0,166.17369920000783,None,167.79014969998389,None,,,,,,,,,,,,,,,,,,,,,,,,,m,,p6,2022_Mar_17_1134,training+cueing,2021.1.4,59.915148166254546,
Friend.png,Friend,Friend,c,2,12,22,92,,,,,0,0,0,0,0,1,1,4,,,,,,,,,,,,,,,,,,,,,,,,,1.462,2.164,168.19182519998867,None,168.73071669999626,169.2425646999909,169.2259228999901,169.34265629999572,169.2259228999901,169.34265629999572,169.32597609999357,None,c,1,169.32597609999357,None,170.0764240999997,None,0.7348371999978554,,,,,,,,,,,,,,,,,,,,,,,,m,,p6,2022_Mar_17_1134,training+cueing,2021.1.4,59.915148166254546,
Self.png,You,Self ,c,1,11,21,91,,,,,0,0,0,0,0,2,2,9,,,,,,,,,,,,,,,,,,,,,,,,,1.722,2.147,170.47672299999977,None,171.0091844999988,171.5108069999842,171.49412389998906,171.59419229999185,171.49412389998906,171.59419229999185,171.59419229999185,None,m,0,171.59419229999185,None,172.1446047000063,None,0.5306205000088084,,,,,,,,,,,,,,,,,,,,,,,,m,,p6,2022_Mar_17_1134,training+cueing,2021.1.4,59.915148166254546,
Friend.png,You,Friend,m,1.2,14,24,94,,,,,0,0,0,0,0,3,3,3,,,,,,,,,,,,,,,,,,,,,,,,,1.678,2.267,172.54520319998846,None,173.082227100007,173.59570149998763,173.5789955999935,173.67905459998292,173.5789955999935,173.67905459998292,173.67905459998292,None,c,0,173.67905459998292,None,174.3963179999846,None,0.7017591999901924,,,,,,,,,,,,,,,,,,,,,,,,m,,p6,2022_Mar_17_1134,training+cueing,2021.1.4,59.915148166254546,
Self.png,Stranger,Self ,m,3.1,18,28,98,,,,,0,0,0,0,0,4,4,2,,,,,,,,,,,,,,,,,,,,,,,,,1.763,2.296,174.79656180000165,None,175.32994699999108,175.83088339999085,175.81410109999706,175.93098730000202,175.81410109999706,175.93098730000202,175.93098730000202,None,m,1,175.93098730000202,None,177.2163637999911,None,1.2658288999809884,,,,,,,,,,,,,,,,,,,,,,,,m,,p6,2022_Mar_17_1134,training+cueing,2021.1.4,59.915148166254546,
Friend.png,Friend,Friend,c,2,12,22,92,,,,,0,0,0,0,0,5,5,10,,,,,,,,,,,,,,,,,,,,,,,,,1.459,2.107,177.6320582999906,None,178.16617720000795,178.66606079999474,178.6493916999898,178.7661232999817,178.6493916999898,178.7661232999817,178.7661232999817,None,c,1,178.7661232999817,None,179.23525299999164,None,0.4469098999979906,,,,,,,,,,,,,,,,,,,,,,,,m,,p6,2022_Mar_17_1134,training+cueing,2021.1.4,59.915148166254546,
Stranger.png,Friend,Stranger,m,2.3,17,27,97,,,,,0,0,0,0,0,6,6,7,,,,,,,,,,,,,,,,,,,,,,,,,1.662,1.446,179.65024069999345,None,180.18486000000848,180.6841787000012,180.6841787000012,180.7842692999984,180.6841787000012,180.7842692999984,180.7842692999984,None,m,1,180.7842692999984,None,182.35214390000328,None,1.548464799998328,,,,,,,,,,,,,,,,,,,,,,,,m,,p6,2022_Mar_17_1134,training+cueing,2021.1.4,59.915148166254546,
Stranger.png,Stranger,Stranger,c,3,13,23,93,,,,,0,0,0,0,0,7,7,8,,,,,,,,,,,,,,,,,,,,,,,,,1.59,1.928,182.75239819998387,None,183.28516130000935,183.78648439998506,183.76979160000337,183.88654780000797,183.76979160000337,183.88654780000797,183.8698965999938,None,m,0,183.8698965999938,None,184.85490979999304,None,0.9589483000163455,,,,,,,,,,,,,,,,,,,,,,,,m,,p6,2022_Mar_17_1134,training+cueing,2021.1.4,59.915148166254546,
Stranger.png,You,Stranger,m,1.3,15,25,95,,,,,0,0,0,0,0,8,8,6,,,,,,,,,,,,,,,,,,,,,,,,,1.732,1.952,185.25425120000727,None,185.78476109998883,186.28842920000898,186.27175640000496,186.37182339999708,186.27175640000496,186.37182339999708,186.37182339999708,None,c,0,186.37182339999708,None,187.70844409998972,None,1.3053046000131872,,,,,,,,,,,,,,,,,,,,,,,,m,,p6,2022_Mar_17_1134,training+cueing,2021.1.4,59.915148166254546,
Self.png,Friend,Self ,m,2.1,16,26,96,,,,,0,0,0,0,0,9,9,1,,,,,,,,,,,,,,,,,,,,,,,,,1.767,1.682,188.12314949999563,None,188.66036509998958,189.17381690000184,189.1570848999836,189.27385309999227,189.1570848999836,189.27385309999227,189.25715150000178,None,None,0,189.25715150000178,None,191.02517350000562,None,,,,,,,,,,,,,,,,,,,,,,,,,m,,p6,2022_Mar_17_1134,training+cueing,2021.1.4,59.915148166254546,
Self.png,You,Self ,c,1,11,21,91,,,,,0,0,0,0,0,10,10,0,,,,,,,,,,,,,,,,,,,,,,,,,1.433,2.288,191.42541160000837,None,191.95751700000255,192.4595056999824,192.44285419999505,192.54291509999894,192.44285419999505,192.54291509999894,192.54291509999894,None,None,0,192.54291509999894,None,193.97735000000102,None,,,,,,,,,,,,,,,,,,,,,,,,,m,,p6,2022_Mar_17_1134,training+cueing,2021.1.4,59.915148166254546,
Stranger.png,Stranger,Stranger,c,3,13,23,93,,,,,0,0,0,0,0,11,11,11,,,,,,,,,,,,,,,,,,,,,,,,,1.418,1.38,194.37762230000226,None,194.91004610000527,195.41170179998153,195.39509609999368,195.51173689999268,195.39509609999368,195.51173689999268,195.51173689999268,None,c,1,195.51173689999268,None,196.34716999999364,None,0.8050655999977607,,,,,,,,,,,,,,,,,,,,,,,,m,,p6,2022_Mar_17_1134,training+cueing,2021.1.4,59.915148166254546,
Friend.png,You,Friend,m,1.2,14,24,94,,,,,0,0,0,0,,,,,0,0,0,3,,,,,,,,,,,,,,,,,,,236.65887439998914,None,1.671,1.337,240.17321720000473,None,,,,,,,,,,,,,,,,196.76282629999332,None,0.014407790004042909,0.5127202900184784,240.80035299999872,241.31223859998863,0.504827020020457,1.0051782200171147,241.29556579998462,241.39560349998646,241.29556579998462,241.39560349998646,241.39560349998646,None,m,1,1.0812012999958824,241.39560349998646,None,,,,,m,,p6,2022_Mar_17_1134,training+cueing,2021.1.4,59.915148166254546,
Self.png,You,Self ,c,1,11,21,91,,,,,0,0,0,0,,,,,0,1,1,9,,,,,,,,,,,,,,,,,,,,,1.77,1.764,242.60380859998986,None,,,,,,,,,,,,,,,,,,,,243.14305039998726,243.64712740000687,0.5066897699725814,1.0071228699816857,243.6304293999856,243.73050360000343,243.6304293999856,243.73050360000343,243.73050360000343,None,c,1,0.810455600003479,243.73050360000343,None,,,,,m,,p6,2022_Mar_17_1134,training+cueing,2021.1.4,59.915148166254546,
Friend.png,Friend,Friend,c,2,12,22,92,,,,,0,0,0,0,,,,,0,2,2,10,,,,,,,,,,,,,,,,,,,,,1.482,1.713,244.67118360000313,None,,,,,,,,,,,,,,,,,,,,245.21206249998068,245.71531890000915,0.505842969956575,1.0061650699644815,245.69863500000793,245.81536700000288,245.69863500000793,245.81536700000288,245.79869249998592,None,c,1,0.9021952000039164,245.79869249998592,None,,,,,m,,p6,2022_Mar_17_1134,training+cueing,2021.1.4,59.915148166254546,
Self.png,Stranger,Self ,m,3.1,18,28,98,,,,,0,0,0,0,,,,,0,3,3,2,,,,,,,,,,,,,,,,,,,,,1.531,1.941,246.83834689998184,None,,,,,,,,,,,,,,,,,,,,247.38069449999603,247.88357509998605,0.5039150699740276,1.004230769991409,247.86690890000318,247.9836270000087,247.86690890000318,247.9836270000087,247.96695979998913,None,c,0,0.9899009999935515,247.96695979998913,None,,,,,m,,p6,2022_Mar_17_1134,training+cueing,2021.1.4,59.915148166254546,
Self.png,You,Self ,c,1,11,21,91,,,,,0,0,0,0,,,,,0,4,4,0,,,,,,,,,,,,,,,,,,,,,1.653,1.607,249.0907518999884,None,,,,,,,,,,,,,,,,,,,,249.62907490000362,250.13523449999047,0.511832569987746,1.0121289700036868,250.11855789998663,250.21861189999618,250.11855789998663,250.21861189999618,250.21861189999618,None,c,1,0.6422625000122935,250.21861189999618,None,,,,,m,,p6,2022_Mar_17_1134,training+cueing,2021.1.4,59.915148166254546,
Stranger.png,Friend,Stranger,m,2.3,17,27,97,,,,,0,0,0,0,,,,,0,5,5,7,,,,,,,,,,,,,,,,,,,,,1.596,2.348,250.99231669999426,None,,,,,,,,,,,,,,,,,,,,251.53247780000675,252.03662719999556,0.5067874699889217,1.0070806699804962,252.01994890000788,252.136683299992,252.01994890000788,252.136683299992,252.1199873999867,None,m,1,0.8529087999777403,252.1199873999867,None,,,,,m,,p6,2022_Mar_17_1134,training+cueing,2021.1.4,59.915148166254546,
Stranger.png,You,Stranger,m,1.3,15,25,95,,,,,0,0,0,0,,,,,0,6,6,6,,,,,,,,,,,,,,,,,,,,,1.767,2.253,253.1102580000006,None,,,,,,,,,,,,,,,,,,,,253.6503895999922,254.15485449999687,0.5061830699851271,1.0064499699801672,254.13819649998914,254.2382369999832,254.13819649998914,254.2382369999832,254.2382369999832,None,m,1,0.8466562999819871,254.2382369999832,None,,,,,m,,p6,2022_Mar_17_1134,training+cueing,2021.1.4,59.915148166254546,
Self.png,Friend,Self ,m,2.1,16,26,96,,,,,0,0,0,0,,,,,0,7,7,1,,,,,,,,,,,,,,,,,,,,,1.407,1.925,255.21207259999937,None,,,,,,,,,,,,,,,,,,,,255.7526014999894,256.256396199984,0.5068065699888393,1.0070673699956387,256.23970979999285,256.356395699986,256.23970979999285,256.356395699986,256.33974500000477,None,m,1,1.1452030999935232,256.33974500000477,None,,,,,m,,p6,2022_Mar_17_1134,training+cueing,2021.1.4,59.915148166254546,
Stranger.png,Stranger,Stranger,c,3,13,23,93,,,,,0,0,0,0,,,,,0,8,8,11,,,,,,,,,,,,,,,,,,,,,1.425,1.36,257.6134299999976,None,,,,,,,,,,,,,,,,,,,,258.1506303999922,258.6581622000085,0.5113906699989457,1.0116795700159855,258.641461399995,258.7582196999865,258.641461399995,258.7582196999865,258.7415034000005,None,c,1,1.143460099992808,258.7415034000005,None,,,,,m,,p6,2022_Mar_17_1134,training+cueing,2021.1.4,59.915148166254546,
Friend.png,Stranger,Friend,m,3.2,19,29,99,,,,,0,0,0,0,,,,,0,9,9,5,,,,,,,,,,,,,,,,,,,,,1.612,1.918,260.0147486999922,None,,,,,,,,,,,,,,,,,,,,260.554767900001,261.059926499991,0.5101433699892368,1.0103835699846968,261.043244600005,261.16005189999123,261.043244600005,261.16005189999123,261.14321419998305,None,m,1,0.9496883999963757,261.14321419998305,None,,,,,m,,p6,2022_Mar_17_1134,training+cueing,2021.1.4,59.915148166254546,
Stranger.png,Stranger,Stranger,c,3,13,23,93,,,,,0,0,0,0,,,,,0,10,10,8,,,,,,,,,,,,,,,,,,,,,1.568,1.263,262.21714580000844,None,,,,,,,,,,,,,,,,,,,,262.7549238000065,263.2615270999959,0.5119774699851405,1.0125196700100787,263.2448150999844,263.3615635999886,263.2448150999844,263.3615635999886,263.3448589000036,None,m,0,1.3560496999998577,263.3448589000036,None,,,,,m,,p6,2022_Mar_17_1134,training+cueing,2021.1.4,59.915148166254546,
Friend.png,Friend,Friend,c,2,12,22,92,,,,,0,0,0,0,,,,,0,11,11,4,,,,,,,,,,,,,,,,,,,,,1.778,2.146,264.835562399996,None,,,,,,,,,,,,,,,,,,,,265.3734414000064,265.8800973999896,0.5111687699973118,1.011599670018768,265.8634211999888,265.9801457999856,265.8634211999888,265.9801457999856,265.9634662999888,None,c,1,0.9135651999968104,265.9634662999888,None,,,,,m,,p6,2022_Mar_17_1134,training+cueing,2021.1.4,59.915148166254546,
Friend.png,Friend,Friend,c,2,12,22,92,,,,,0,0,0,0,,,,,1,0,12,10,,,,,,,,,,,,,,,,,,,,,1.43,2.232,267.00372139998944,None,,,,,,,,,,,,,,,,,,,,267.54233759999624,268.04833230000804,0.5107197699835524,1.011062370002037,268.0316520000051,268.14838820000296,268.0316520000051,268.14838820000296,268.1316830999858,None,c,1,0.7772184000059497,268.1316830999858,None,,,,,m,,p6,2022_Mar_17_1134,training+cueing,2021.1.4,59.915148166254546,
Stranger.png,Stranger,Stranger,c,3,13,23,93,,,,,0,0,0,0,,,,,1,1,13,11,,,,,,,,,,,,,,,,,,,,,1.682,1.875,269.03774749999866,None,,,,,,,,,,,,,,,,,,,,269.5808941999858,270.0833209999837,0.5048116700199898,1.0051040700054727,270.0664717000036,270.1832100999891,270.0664717000036,270.1832100999891,270.1665057000064,None,m,0,0.7105249000014737,270.1665057000064,None,,,,,m,,p6,2022_Mar_17_1134,training+cueing,2021.1.4,59.915148166254546,
Self.png,You,Self ,c,1,11,21,91,,,,,0,0,0,0,,,,,1,2,14,9,,,,,,,,,,,,,,,,,,,,,1.595,1.38,271.00614769998356,None,,,,,,,,,,,,,,,,,,,,271.54483609998715,272.0512627999997,0.5104946699866559,1.0108114699833095,272.0345725000079,272.13465419999557,272.0345725000079,272.13465419999557,272.13465419999557,None,c,1,1.4463255000009667,272.13465419999557,None,,,,,m,,p6,2022_Mar_17_1134,training+cueing,2021.1.4,59.915148166254546,
Friend.png,You,Friend,m,1.2,14,24,94,,,,,0,0,0,0,,,,,1,3,15,3,,,,,,,,,,,,,,,,,,,,,1.769,1.201,273.70810119999805,None,,,,,,,,,,,,,,,,,,,,274.2511960999982,274.7532360999903,0.5039049700135365,1.004211870022118,274.7365346000006,274.8365879000048,274.7365346000006,274.8365879000048,274.8365879000048,None,None,0,,274.8365879000048,None,,,,,m,,p6,2022_Mar_17_1134,training+cueing,2021.1.4,59.915148166254546,
Self.png,Stranger,Self ,m,3.1,18,28,98,,,,,0,0,0,0,,,,,1,4,16,2,,,,,,,,,,,,,,,,,,,,,1.706,1.736,276.7255353000073,None,,,,,,,,,,,,,,,,,,,,277.267989999993,277.7720860999834,0.506048870011,1.0063862699898891,277.7554098999826,277.8721322999918,277.7554098999826,277.8721322999918,277.8554645999975,None,None,0,,277.8554645999975,None,,,,,m,,p6,2022_Mar_17_1134,training+cueing,2021.1.4,59.915148166254546,
Friend.png,Friend,Friend,c,2,12,22,92,,,,,0,0,0,0,,,,,1,5,17,4,,,,,,,,,,,,,,,,,,,,,1.696,1.662,279.6772161999834,None,,,,,,,,,,,,,,,,,,,,280.2214135999966,280.7242656000017,0.5054947699827608,1.0057815699838102,280.70758379998733,280.82430239999667,280.70758379998733,280.82430239999667,280.8075971000071,None,None,0,,280.8075971000071,None,,,,,m,,p6,2022_Mar_17_1134,training+cueing,2021.1.4,59.915148166254546,
Friend.png,Stranger,Friend,m,3.2,19,29,99,,,,,0,0,0,0,,,,,1,6,18,5,,,,,,,,,,,,,,,,,,,,,1.509,1.361,282.6130794000055,None,,,,,,,,,,,,,,,,,,,,283.1736258000019,283.6764293999877,0.5063912599871401,1.0066588599875104,283.65980219998164,283.77649729998666,283.65980219998164,283.77649729998666,283.75981409999076,None,None,0,,283.75981409999076,None,,,,,m,,p6,2022_Mar_17_1134,training+cueing,2021.1.4,59.915148166254546,
Self.png,You,Self ,c,1,11,21,91,,,,,0,0,0,0,,,,,1,7,19,0,,,,,,,,,,,,,,,,,,,,,1.683,1.468,285.38173789999564,None,,,,,,,,,,,,,,,,,,,,285.93953549998696,286.4450710999954,0.510174859984545,1.0104557599697728,286.42838699999265,286.5284075999807,286.42838699999265,286.5284075999807,286.5284075999807,None,c,1,0.9884683999989647,286.5284075999807,None,,,,,m,,p6,2022_Mar_17_1134,training+cueing,2021.1.4,59.915148166254546,
Stranger.png,Friend,Stranger,m,2.3,17,27,97,,,,,0,0,0,0,,,,,1,8,20,7,,,,,,,,,,,,,,,,,,,,,1.437,1.732,287.65185689998907,None,,,,,,,,,,,,,,,,,,,,288.1927836999821,288.69668490000186,0.5076923700107727,1.0080183699901681,288.67999319999944,288.79672479999135,288.67999319999944,288.79672479999135,288.7800403999863,None,m,1,0.9929888999904506,288.7800403999863,None,,,,,m,,p6,2022_Mar_17_1134,training+cueing,2021.1.4,59.915148166254546,
Self.png,Friend,Self ,m,2.1,16,26,96,,,,,0,0,0,0,,,,,1,9,21,1,,,,,,,,,,,,,,,,,,,,,1.486,2.479,289.9039117000066,None,,,,,,,,,,,,,,,,,,,,290.4422477000044,290.9483155999915,0.5105503700324334,1.01083257002756,290.93161390000023,291.04836429998977,290.93161390000023,291.04836429998977,291.0316862000036,None,m,1,1.0132982000068296,291.0316862000036,None,,,,,m,,p6,2022_Mar_17_1134,training+cueing,2021.1.4,59.915148166254546,
Stranger.png,You,Stranger,m,1.3,15,25,95,,,,,0,0,0,0,,,,,1,10,22,6,,,,,,,,,,,,,,,,,,,,,1.583,2.244,292.17313199999626,None,,,,,,,,,,,,,,,,,,,,292.71170399998664,293.216646099987,0.5067380699911155,1.0075001699733548,293.199959199992,293.29999739999766,293.199959199992,293.29999739999766,293.29999739999766,None,None,0,,293.29999739999766,None,,,,,m,,p6,2022_Mar_17_1134,training+cueing,2021.1.4,59.915148166254546,
Stranger.png,Stranger,Stranger,c,3,13,23,93,,,,,0,0,0,0,,,,,1,11,23,8,,,,,,,,,,,,,,,,,,,,,1.684,1.939,294.9886503999878,None,,,,,,,,,,,,,,,,,,,,295.53368890000274,296.03534549998585,0.5043999699701089,1.0046666699636262,296.01867839999613,296.1355346000055,296.01867839999613,296.1355346000055,296.11868819998926,None,c,1,1.0782539000210818,296.11868819998926,None,,,,,m,,p6,2022_Mar_17_1134,training+cueing,2021.1.4,59.915148166254546,
Self.png,You,Self ,c,1,11,21,91,,,,,0,0,0,0,,,,,2,0,24,0,,,,,,,,,,,,,,,,,,,,,1.532,2.171,297.3259749999852,None,,,,,,,,,,,,,,,,,,,,297.8644784000062,298.37038159999065,0.5083690699830186,1.0091657699667849,298.3537040000083,298.45376909998595,298.3537040000083,298.45376909998595,298.45376909998595,None,c,1,0.8712643999897409,298.45376909998595,None,,,,,m,,p6,2022_Mar_17_1134,training+cueing,2021.1.4,59.915148166254546,
Friend.png,Friend,Friend,c,2,12,22,92,,,,,0,0,0,0,,,,,2,1,25,10,,,,,,,,,,,,,,,,,,,,,1.633,2.44,299.4616568000056,None,,,,,,,,,,,,,,,,,,,,299.99934370000847,300.50523389998125,0.5122585699718911,1.0124730699753854,300.4885854999884,300.60527659999207,300.4885854999884,300.60527659999207,300.5885944000038,None,c,1,0.48046469999826513,300.5885944000038,None,,,,,m,,p6,2022_Mar_17_1134,training+cueing,2021.1.4,59.915148166254546,
Friend.png,Stranger,Friend,m,3.2,19,29,99,,,,,0,0,0,0,,,,,2,2,26,5,,,,,,,,,,,,,,,,,,,,,1.59,2.119,301.19496259998414,None,,,,,,,,,,,,,,,,,,,,301.73546199998236,302.23981999998796,0.508463469974231,1.008776169968769,302.2231369999936,302.33987110000453,302.2231369999936,302.33987110000453,302.3232148999814,None,m,1,0.8099941000109538,302.3232148999814,None,,,,,m,,p6,2022_Mar_17_1134,training+cueing,2021.1.4,59.915148166254546,
Friend.png,Friend,Friend,c,2,12,22,92,,,,,0,0,0,0,,,,,2,3,27,4,,,,,,,,,,,,,,,,,,,,,1.715,1.259,303.267377399985,None,,,,,,,,,,,,,,,,,,,,303.82051809999393,304.3246763999923,0.5068505599629134,1.007139359950088,304.307991699985,304.4247572000022,304.307991699985,304.4247572000022,304.40801179999835,None,c,1,0.6609810999943875,304.40801179999835,None,,,,,m,,p6,2022_Mar_17_1134,training+cueing,2021.1.4,59.915148166254546,
Self.png,Stranger,Self ,m,3.1,18,28,98,,,,,0,0,0,0,,,,,2,4,28,2,,,,,,,,,,,,,,,,,,,,,1.558,1.677,305.1985610999982,None,,,,,,,,,,,,,,,,,,,,305.7394881999935,306.2427789999929,0.5062196699727792,1.0064976699650288,306.2260538999981,306.34277909999946,306.2260538999981,306.34277909999946,306.3261002000072,None,m,1,1.5109861999808345,306.3261002000072,None,,,,,m,,p6,2022_Mar_17_1134,training+cueing,2021.1.4,59.915148166254546,
Stranger.png,Stranger,Stranger,c,3,13,23,93,,,,,0,0,0,0,,,,,2,5,29,8,,,,,,,,,,,,,,,,,,,,,1.613,1.484,307.9670999000082,None,,,,,,,,,,,,,,,,,,,,308.5055627999827,309.0113891999936,0.5115753699792549,1.011856169992825,308.9947242999915,309.1114571999933,308.9947242999915,309.1114571999933,309.09474780000164,None,c,1,0.8381705000065267,309.09474780000164,None,,,,,m,,p6,2022_Mar_17_1134,training+cueing,2021.1.4,59.915148166254546,
Stranger.png,You,Stranger,m,1.3,15,25,95,,,,,0,0,0,0,,,,,2,6,30,6,,,,,,,,,,,,,,,,,,,,,1.508,1.816,310.06841949999216,None,,,,,,,,,,,,,,,,,,,,310.60903570000664,311.11291429999983,0.5051962699799333,1.005481569969561,311.09625020000385,311.19631519998075,311.09625020000385,311.19631519998075,311.19631519998075,None,m,1,1.2168382000236306,311.19631519998075,None,,,,,m,,p6,2022_Mar_17_1134,training+cueing,2021.1.4,59.915148166254546,
Stranger.png,Friend,Stranger,m,2.3,17,27,97,,,,,0,0,0,0,,,,,2,7,31,7,,,,,,,,,,,,,,,,,,,,,1.626,1.759,312.5399688000034,None,,,,,,,,,,,,,,,,,,,,313.0803277999803,313.58139030000893,0.5015994700079318,1.0018352699989919,313.56475779999164,313.68143070000224,313.56475779999164,313.68143070000224,313.68143070000224,None,m,1,1.259548600006383,313.68143070000224,None,,,,,m,,p6,2022_Mar_17_1134,training+cueing,2021.1.4,59.915148166254546,
Friend.png,You,Friend,m,1.2,14,24,94,,,,,0,0,0,0,,,,,2,8,32,3,,,,,,,,,,,,,,,,,,,,,1.795,2.053,315.0714883999899,None,,,,,,,,,,,,,,,,,,,,315.6113888999971,316.11657320000813,0.5080327699834015,1.0083167699922342,316.09994349998306,316.1998709999898,316.09994349998306,316.1998709999898,316.1998709999898,None,c,0,0.5490768000017852,316.1998709999898,None,,,,,m,,p6,2022_Mar_17_1134,training+cueing,2021.1.4,59.915148166254546,
Self.png,Friend,Self ,m,2.1,16,26,96,,,,,0,0,0,0,,,,,2,9,33,1,,,,,,,,,,,,,,,,,,,,,1.573,1.82,316.8727269000083,None,,,,,,,,,,,,,,,,,,,,317.41426369998953,317.91783540000324,0.505922370008193,1.0062856700096745,317.90116720000515,318.0178971999849,317.90116720000515,318.0178971999849,318.0011823999812,None,None,0,,318.0011823999812,None,,,,,m,,p6,2022_Mar_17_1134,training+cueing,2021.1.4,59.915148166254546,
Self.png,You,Self ,c,1,11,21,91,,,,,0,0,0,0,,,,,2,10,34,9,,,,,,,,,,,,,,,,,,,,,1.731,2.313,319.6895482999971,None,,,,,,,,,,,,,,,,,,,,320.2334820999822,320.73654379998334,0.5059792699757963,1.0061507699720096,320.71998679998796,320.819926199998,320.71998679998796,320.819926199998,320.819926199998,None,None,0,,320.819926199998,None,,,,,m,,p6,2022_Mar_17_1134,training+cueing,2021.1.4,59.915148166254546,
Stranger.png,Stranger,Stranger,c,3,13,23,93,,,,,0,0,0,0,,,,,2,11,35,11,,,,,,,,,,,,,,,,,,,,,1.781,2.489,322.65886689999024,None,,,,,,,,,,,,,,,,,,,,323.20175439998275,323.7053681999969,0.5042054699733853,1.0046356699895114,323.68867599999066,323.8055163999961,323.68867599999066,323.8055163999961,323.7888336000033,None,c,1,0.9601852000050712,323.7888336000033,None,,,,,m,,p6,2022_Mar_17_1134,training+cueing,2021.1.4,59.915148166254546,
Stranger.png,Stranger,Stranger,c,3,13,23,93,,,,,0,0,0,0,,,,,3,0,36,8,,,,,,,,,,,,,,,,,,,,,1.757,2.06,324.87834979998297,None,,,,,,,,,,,,,,,,,,,,325.41756289999466,325.92364709998947,0.512235670001246,1.0125555699924007,325.9069374999963,326.02369319999707,325.9069374999963,326.02369319999707,326.006993899995,None,c,1,0.9020175999903586,326.006993899995,None,,,,,m,,p6,2022_Mar_17_1134,training+cueing,2021.1.4,59.915148166254546,
Friend.png,You,Friend,m,1.2,14,24,94,,,,,0,0,0,0,,,,,3,1,37,3,,,,,,,,,,,,,,,,,,,,,1.446,1.223,327.0472821999865,None,,,,,,,,,,,,,,,,,,,,327.5851980999869,328.0920307000051,0.512989769980777,1.0132706699660048,328.075205000001,328.1752542000031,328.075205000001,328.1752542000031,328.1752542000031,None,m,1,0.749664600007236,328.1752542000031,None,,,,,m,,p6,2022_Mar_17_1134,training+cueing,2021.1.4,59.915148166254546,
Friend.png,Friend,Friend,c,2,12,22,92,,,,,0,0,0,0,,,,,3,2,38,4,,,,,,,,,,,,,,,,,,,,,1.453,1.656,329.0485819999885,None,,,,,,,,,,,,,,,,,,,,329.5884390999854,330.0934976999997,0.5082105700275861,1.0084773700218648,330.07668559998274,330.1933485000045,330.07668559998274,330.1933485000045,330.1767142000026,None,c,1,0.49233700000331737,330.1767142000026,None,,,,,m,,p6,2022_Mar_17_1134,training+cueing,2021.1.4,59.915148166254546,
Self.png,You,Self ,c,1,11,21,91,,,,,0,0,0,0,,,,,3,3,39,9,,,,,,,,,,,,,,,,,,,,,1.721,2.36,330.7996285999834,None,,,,,,,,,,,,,,,,,,,,331.3408385000075,331.84457630000543,0.5076480700226966,1.0080206700076815,331.82789280000725,331.92792550000013,331.82789280000725,331.92792550000013,331.92792550000013,None,c,1,0.5010731999936979,331.92792550000013,None,,,,,m,,p6,2022_Mar_17_1134,training+cueing,2021.1.4,59.915148166254546,
Friend.png,Stranger,Friend,m,3.2,19,29,99,,,,,0,0,0,0,,,,,3,4,40,5,,,,,,,,,,,,,,,,,,,,,1.568,2.177,332.55072420000215,None,,,,,,,,,,,,,,,,,,,,333.09266009999556,333.59587059999467,0.5036893700016662,1.0040921699837781,333.5791435999854,333.6959103999834,333.5791435999854,333.6959103999834,333.6792068000068,None,None,0,,333.6792068000068,None,,,,,m,,p6,2022_Mar_17_1134,training+cueing,2021.1.4,59.915148166254546,
Self.png,You,Self ,c,1,11,21,91,,,,,0,0,0,0,,,,,3,5,41,0,,,,,,,,,,,,,,,,,,,,,1.763,2.065,335.35120790000656,None,,,,,,,,,,,,,,,,,,,,335.8938950999873,336.3978783999919,0.5073916699911933,1.0076862699643243,336.38118520000717,336.48123699999996,336.38118520000717,336.48123699999996,336.48123699999996,None,m,0,1.1957617999869399,336.48123699999996,None,,,,,m,,p6,2022_Mar_17_1134,training+cueing,2021.1.4,59.915148166254546,
Stranger.png,Stranger,Stranger,c,3,13,23,93,,,,,0,0,0,0,,,,,3,6,42,11,,,,,,,,,,,,,,,,,,,,,1.484,2.045,337.80901120000635,None,,,,,,,,,,,,,,,,,,,,338.3463596999936,338.8496347999899,0.5069030699960422,1.0072978700045496,338.8329734999861,338.95020699998713,338.8329734999861,338.95020699998713,338.933165800001,None,c,1,1.287828200001968,338.933165800001,None,,,,,m,,p6,2022_Mar_17_1134,training+cueing,2021.1.4,59.915148166254546,
Stranger.png,Friend,Stranger,m,2.3,17,27,97,,,,,0,0,0,0,,,,,3,7,43,7,,,,,,,,,,,,,,,,,,,,,1.508,2.447,340.35698909999337,None,,,,,,,,,,,,,,,,,,,,340.89594449999277,341.4014762000006,0.5089356699900236,1.0092499699967448,341.3848173999868,341.501546399988,341.3848173999868,341.501546399988,341.4848784999922,None,m,1,0.6724123999883886,341.4848784999922,None,,,,,m,,p6,2022_Mar_17_1134,training+cueing,2021.1.4,59.915148166254546,
Friend.png,Friend,Friend,c,2,12,22,92,,,,,0,0,0,0,,,,,3,8,44,10,,,,,,,,,,,,,,,,,,,,,1.499,2.069,342.291658800008,None,,,,,,,,,,,,,,,,,,,,342.8470069000032,343.3529147999943,0.512185360013973,1.0125730599975213,343.33626260000165,343.45297009998467,343.33626260000165,343.45297009998467,343.4362322000088,None,c,1,0.6568015000084415,343.4362322000088,None,,,,,m,,p6,2022_Mar_17_1134,training+cueing,2021.1.4,59.915148166254546,
Stranger.png,You,Stranger,m,1.3,15,25,95,,,,,0,0,0,0,,,,,3,9,45,6,,,,,,,,,,,,,,,,,,,,,1.694,1.867,344.22749479999766,None,,,,,,,,,,,,,,,,,,,,344.7706666000013,345.27094479999505,0.500890769995749,1.0012174700095784,345.25425359999645,345.3543401999923,345.25425359999645,345.3543401999923,345.3543401999923,None,m,1,0.6907538000086788,345.3543401999923,None,,,,,m,,p6,2022_Mar_17_1134,training+cueing,2021.1.4,59.915148166254546,
Self.png,Friend,Self ,m,2.1,16,26,96,,,,,0,0,0,0,,,,,3,10,46,1,,,,,,,,,,,,,,,,,,,,,1.504,1.239,346.17761809998774,None,,,,,,,,,,,,,,,,,,,,346.71816640000907,347.2223263999913,0.5070713700260967,1.0073794700147118,347.205727499997,347.32243309999467,347.205727499997,347.32243309999467,347.30576079999446,None,m,1,0.7711992999829818,347.30576079999446,None,,,,,m,,p6,2022_Mar_17_1134,training+cueing,2021.1.4,59.915148166254546,
Self.png,Stranger,Self ,m,3.1,18,28,98,,,,,0,0,0,0,,,,,3,11,47,2,,,,,,,,,,,,,,,,,,,,,1.733,1.351,348.21247319999384,None,,,,,,,,,,,,,,,,,,,,348.7540683999832,349.2571684999857,0.5056428700336255,1.0059320700238459,349.2405002999876,349.3572419999982,349.2405002999876,349.3572419999982,349.34054139998625,None,m,1,0.8164591999957338,349.34054139998625,None,,,,,m,,p6,2022_Mar_17_1134,training+cueing,2021.1.4,59.915148166254546,
Friend.png,You,Friend,m,1.2,14,24,94,,,,,0,0,0,0,,,,,4,0,48,3,,,,,,,,,,,,,,,,,,,,,1.632,1.52,350.2805182999873,None,,,,,,,,,,,,,,,,,,,,350.8196695999941,351.3253495999961,0.5090429700212553,1.0093409700202756,351.3086607999867,351.4087165000092,351.3086607999867,351.4087165000092,351.4087165000092,None,m,1,0.8283681999891996,351.4087165000092,None,,,,,m,,p6,2022_Mar_17_1134,training+cueing,2021.1.4,59.915148166254546,
Stranger.png,Friend,Stranger,m,2.3,17,27,97,,,,,0,0,0,0,,,,,4,1,49,7,,,,,,,,,,,,,,,,,,,,,1.548,2.374,352.36535400000867,None,,,,,,,,,,,,,,,,,,,,352.90605299998424,353.4101807999832,0.5065861699695233,1.0068661699770018,353.39353430000483,353.51024440000765,353.39353430000483,353.51024440000765,353.49358290000237,None,m,1,0.79142709998996,353.49358290000237,None,,,,,m,,p6,2022_Mar_17_1134,training+cueing,2021.1.4,59.915148166254546,
Friend.png,Stranger,Friend,m,3.2,19,29,99,,,,,0,0,0,0,,,,,4,2,50,5,,,,,,,,,,,,,,,,,,,,,1.451,1.731,354.4169880999834,None,,,,,,,,,,,,,,,,,,,,354.95773979998194,355.4616878000088,0.5079310699657071,1.0082173699920531,355.4449926999805,355.5617174000072,355.4449926999805,355.5617174000072,355.5450215000019,None,m,1,0.9960906000051182,355.5450215000019,None,,,,,m,,p6,2022_Mar_17_1134,training+cueing,2021.1.4,59.915148166254546,
Self.png,You,Self ,c,1,11,21,91,,,,,0,0,0,0,,,,,4,3,51,0,,,,,,,,,,,,,,,,,,,,,1.759,1.849,356.6687186000054,None,,,,,,,,,,,,,,,,,,,,357.2087185999844,357.7133022999915,0.5062839699967299,1.0065850699902512,357.69661949999863,357.79667229999905,357.69661949999863,357.79667229999905,357.79667229999905,None,c,1,0.8726457000011578,357.79667229999905,None,,,,,m,,p6,2022_Mar_17_1134,training+cueing,2021.1.4,59.915148166254546,
Stranger.png,Stranger,Stranger,c,3,13,23,93,,,,,0,0,0,0,,,,,4,4,52,8,,,,,,,,,,,,,,,,,,,,,1.795,1.456,358.80698409999604,None,,,,,,,,,,,,,,,,,,,,359.3467519999831,359.8482861999946,0.5037334699882194,1.0039605700003449,359.8315881000017,359.94824430000153,359.8315881000017,359.94824430000153,359.9315166999877,None,m,0,1.2814044999831822,359.9315166999877,None,,,,,m,,p6,2022_Mar_17_1134,training+cueing,2021.1.4,59.915148166254546,
Self.png,Stranger,Self ,m,3.1,18,28,98,,,,,0,0,0,0,,,,,4,5,53,2,,,,,,,,,,,,,,,,,,,,,1.612,2.233,361.33847059999243,None,,,,,,,,,,,,,,,,,,,,361.8747376999818,362.3833258000086,0.5155238699808251,1.0158282699703705,362.36666339999647,362.48338839999633,362.36666339999647,362.48338839999633,362.46671209999477,None,m,1,1.4982581000076607,362.46671209999477,None,,,,,m,,p6,2022_Mar_17_1134,training+cueing,2021.1.4,59.915148166254546,
Friend.png,Friend,Friend,c,2,12,22,92,,,,,0,0,0,0,,,,,4,6,54,10,,,,,,,,,,,,,,,,,,,,,1.653,1.512,364.0909970999928,None,,,,,,,,,,,,,,,,,,,,364.63749629998347,365.1519864999864,0.5106282699853182,1.010850569989998,365.1353767999972,365.25204999998095,365.1353767999972,365.25204999998095,365.2353857999842,None,c,1,0.6337310000089929,365.2353857999842,None,,,,,m,,p6,2022_Mar_17_1134,training+cueing,2021.1.4,59.915148166254546,
Stranger.png,You,Stranger,m,1.3,15,25,95,,,,,0,0,0,0,,,,,4,7,55,6,,,,,,,,,,,,,,,,,,,,,1.55,2.384,365.9914959000016,None,,,,,,,,,,,,,,,,,,,,366.53241829999024,367.03673429999617,0.5073205700027756,1.00757756998064,367.02005369999097,367.12009290000424,367.02005369999097,367.12009290000424,367.12009290000424,None,m,1,0.9570155999972485,367.12009290000424,None,,,,,m,,p6,2022_Mar_17_1134,training+cueing,2021.1.4,59.915148166254546,
Stranger.png,Stranger,Stranger,c,3,13,23,93,,,,,0,0,0,0,,,,,4,8,56,11,,,,,,,,,,,,,,,,,,,,,1.506,2.493,368.21106519998284,None,,,,,,,,,,,,,,,,,,,,368.7498622999992,369.25495599998976,0.5071279699914157,1.0074218699883204,369.23832040000707,369.35502980000456,369.23832040000707,369.35502980000456,369.3383562999952,None,c,1,0.6267447000136599,369.3383562999952,None,,,,,m,,p6,2022_Mar_17_1134,training+cueing,2021.1.4,59.915148166254546,
Self.png,You,Self ,c,1,11,21,91,,,,,0,0,0,0,,,,,4,9,57,9,,,,,,,,,,,,,,,,,,,,,1.748,2.289,370.0951198999828,None,,,,,,,,,,,,,,,,,,,,370.6350846999849,371.13968029999523,0.50789316999726,1.008182069985196,371.12301280000247,371.22305639999104,371.12301280000247,371.22305639999104,371.22305639999104,None,c,1,0.6300527999992482,371.22305639999104,None,,,,,m,,p6,2022_Mar_17_1134,training+cueing,2021.1.4,59.915148166254546,
Friend.png,Friend,Friend,c,2,12,22,92,,,,,0,0,0,0,,,,,4,10,58,4,,,,,,,,,,,,,,,,,,,,,1.598,1.791,371.97975579998456,None,,,,,,,,,,,,,,,,,,,,372.5203475999879,373.02438709998387,0.5064503700123169,1.0067609700199682,373.0076807999867,373.124467799993,373.0076807999867,373.124467799993,373.1077318000025,None,c,1,0.39335009999922477,373.1077318000025,None,,,,,m,,p6,2022_Mar_17_1134,training+cueing,2021.1.4,59.915148166254546,
Self.png,Friend,Self ,m,2.1,16,26,96,,,,,0,0,0,0,,,,,4,11,59,1,,,,,,,,,,,,,,,,,,,,,1.485,1.489,373.63101029998506,None,,,,,,,,,,,,,,,,,,,,374.1690988999908,374.67568429998937,0.5096967699646484,1.0100029699678998,374.6588341000024,374.7756218999857,374.6588341000024,374.7756218999857,374.7589217000059,None,m,1,0.7421210000175051,374.7589217000059,None,,,,,m,,p6,2022_Mar_17_1134,training+cueing,2021.1.4,59.915148166254546,
Self.png,You,Self ,c,1,11,21,91,,,,,0,0,0,0,,,,,5,0,60,9,,,,,,,,,,,,,,,,,,,,,1.419,1.712,375.6328533999913,None,,,,,,,,,,,,,,,,,,,,376.18976169999223,376.69386999998824,0.5085198599845171,1.0088225599902216,376.6771565999952,376.77717539999867,376.6771565999952,376.77717539999867,376.77717539999867,None,m,0,0.6919493000023067,376.77717539999867,None,,,,,m,,p6,2022_Mar_17_1134,training+cueing,2021.1.4,59.915148166254546,
Stranger.png,You,Stranger,m,1.3,15,25,95,,,,,0,0,0,0,,,,,5,1,61,6,,,,,,,,,,,,,,,,,,,,,1.722,1.53,377.6018312999804,None,,,,,,,,,,,,,,,,,,,,378.13921999998274,378.64517199998954,0.5107583699864335,1.01104496998596,378.62842279998586,378.72847850000835,378.62842279998586,378.72847850000835,378.72847850000835,None,m,1,0.7565605999843683,378.72847850000835,None,,,,,m,,p6,2022_Mar_17_1134,training+cueing,2021.1.4,59.915148166254546,
Friend.png,Friend,Friend,c,2,12,22,92,,,,,0,0,0,0,,,,,5,2,62,4,,,,,,,,,,,,,,,,,,,,,1.471,1.851,379.61860719998367,None,,,,,,,,,,,,,,,,,,,,380.1563376999984,380.6632371000014,0.5112737700110301,1.0115772699937224,380.64655879998463,380.7633124999993,380.64655879998463,380.7633124999993,380.74660359998234,None,c,1,0.466369300003862,380.74660359998234,None,,,,,m,,p6,2022_Mar_17_1134,training+cueing,2021.1.4,59.915148166254546,
Friend.png,You,Friend,m,1.2,14,24,94,,,,,0,0,0,0,,,,,5,3,63,3,,,,,,,,,,,,,,,,,,,,,1.498,1.484,381.33707989999675,None,,,,,,,,,,,,,,,,,,,,381.87532769999234,382.38113239998347,0.5114843700139318,1.0117764700262342,382.36447020000196,382.46451610000804,382.36447020000196,382.46451610000804,382.46451610000804,None,m,1,0.716544899973087,382.46451610000804,None,,,,,m,,p6,2022_Mar_17_1134,training+cueing,2021.1.4,59.915148166254546,
Self.png,Stranger,Self ,m,3.1,18,28,98,,,,,0,0,0,0,,,,,5,4,64,2,,,,,,,,,,,,,,,,,,,,,1.472,1.269,383.3046953000012,None,,,,,,,,,,,,,,,,,,,,383.8455612999969,384.3492699000053,0.5049222699599341,1.0050953699683305,384.33267089998117,384.44925999999396,384.33267089998117,384.44925999999396,384.43263450000086,None,m,1,0.8924743999959901,384.43263450000086,None,,,,,m,,p6,2022_Mar_17_1134,training+cueing,2021.1.4,59.915148166254546,
Stranger.png,Stranger,Stranger,c,3,13,23,93,,,,,0,0,0,0,,,,,5,5,65,8,,,,,,,,,,,,,,,,,,,,,1.531,2.34,385.4565223999962,None,,,,,,,,,,,,,,,,,,,,386.00118610000936,386.50089450000087,0.5003330699983053,1.0006147699896246,386.48423519998323,386.6009619999968,386.48423519998323,386.6009619999968,386.6009619999968,None,c,1,0.7560511000046972,386.6009619999968,None,,,,,m,,p6,2022_Mar_17_1134,training+cueing,2021.1.4,59.915148166254546,
Stranger.png,Friend,Stranger,m,2.3,17,27,97,,,,,0,0,0,0,,,,,5,6,66,7,,,,,,,,,,,,,,,,,,,,,1.74,1.634,387.4906173000054,None,,,,,,,,,,,,,,,,,,,,388.03282210000907,388.5355976999854,0.5065866700024344,1.0069578700058628,388.5189190999954,388.63564910000423,388.5189190999954,388.63564910000423,388.6189565999957,None,m,1,0.7380766000133008,388.6189565999957,None,,,,,m,,p6,2022_Mar_17_1134,training+cueing,2021.1.4,59.915148166254546,
Friend.png,Stranger,Friend,m,3.2,19,29,99,,,,,0,0,0,0,,,,,5,7,67,5,,,,,,,,,,,,,,,,,,,,,1.416,1.485,389.49194290000014,None,,,,,,,,,,,,,,,,,,,,390.0310341999866,390.5370467999892,0.5100997699482832,1.0104131699481513,390.52034399998956,390.6371002999949,390.52034399998956,390.6371002999949,390.62045069999294,None,m,1,0.6406359000247903,390.62045069999294,None,,,,,m,,p6,2022_Mar_17_1134,training+cueing,2021.1.4,59.915148166254546,
Self.png,You,Self ,c,1,11,21,91,,,,,0,0,0,0,,,,,5,8,68,0,,,,,,,,,,,,,,,,,,,,,1.475,2.16,391.3942570000072,None,,,,,,,,,,,,,,,,,,,,391.93462699998054,392.438419699989,0.507641970005352,1.007935469999211,392.42174839999643,392.5217877999821,392.42174839999643,392.5217877999821,392.5217877999821,None,c,1,0.6433218000165652,392.5217877999821,None,,,,,m,,p6,2022_Mar_17_1134,training+cueing,2021.1.4,59.915148166254546,
Friend.png,Friend,Friend,c,2,12,22,92,,,,,0,0,0,0,,,,,5,9,69,10,,,,,,,,,,,,,,,,,,,,,1.713,1.241,393.29466149999644,None,,,,,,,,,,,,,,,,,,,,393.8367065000057,394.33982110000215,0.5063624699541833,None,394.3231306000089,394.4398590000055,394.3231306000089,394.4398590000055,394.42322639998747,None,c,1,0.27787700001499616,394.42322639998747,None,,,,,m,,p6,2022_Mar_17_1134,training+cueing,2021.1.4,59.915148166254546,
Self.png,Friend,Self ,m,2.1,16,26,96,,,,,0,0,0,0,,,,,5,10,70,1,,,,,,,,,,,,,,,,,,,,,1.714,2.045,394.82905840000603,None,,,,,,,,,,,,,,,,,,,,395.3679343999829,395.87428009998985,0.5101131699921098,1.0104210700083058,395.8575606000086,395.97430129998247,395.8575606000086,395.97430129998247,395.95760779999546,None,m,1,0.5994285000197124,395.95760779999546,None,,,,,m,,p6,2022_Mar_17_1134,training+cueing,2021.1.4,59.915148166254546,
Stranger.png,Stranger,Stranger,c,3,13,23,93,,,,,0,0,0,0,,,,,5,11,71,11,,,,,,,,,,,,,,,,,,,,,1.737,2.476,396.6804794000054,None,,,,,,,,,,,,,,,,,,,,397.22040879999986,397.7255991999991,0.5110445699829143,1.0113518699945416,397.7088909999875,397.8255785999936,397.7088909999875,397.8255785999936,397.8089264000009,None,c,1,0.764110400021309,397.8089264000009,None,,,,,m,,p6,2022_Mar_17_1134,training+cueing,2021.1.4,59.915148166254546,
Friend.png,Friend,Friend,c,2,12,22,92,,,,,0,0,0,0,,,,,6,0,72,4,,,,,,,,,,,,,,,,,,,,,1.457,1.659,398.6990070999891,None,,,,,,,,,,,,,,,,,,,,399.23958609998226,399.74370890000137,0.5065521700016689,1.0070965699851513,399.72703889998957,399.84428489999846,399.72703889998957,399.84428489999846,399.8271209000086,None,m,0,0.9860993000038434,399.8271209000086,None,,,,,m,,p6,2022_Mar_17_1134,training+cueing,2021.1.4,59.915148166254546,
Self.png,You,Self ,c,1,11,21,91,,,,,0,0,0,0,,,,,6,1,73,9,,,,,,,,,,,,,,,,,,,,,1.708,1.3,400.95151660000556,None,,,,,,,,,,,,,,,,,,,,401.4927269000036,401.9952978999936,0.5057730700063985,1.0060752700082958,401.97864280000795,402.07883919999585,401.97864280000795,402.07883919999585,402.07883919999585,None,c,1,0.8462173000152688,402.07883919999585,None,,,,,m,,p6,2022_Mar_17_1134,training+cueing,2021.1.4,59.915148166254546,
Self.png,Friend,Self ,m,2.1,16,26,96,,,,,0,0,0,0,,,,,6,2,74,1,,,,,,,,,,,,,,,,,,,,,1.551,1.645,403.0522554999916,None,,,,,,,,,,,,,,,,,,,,403.5933228000067,404.097036799998,0.5058340699761175,1.006047269969713,404.08024700000533,404.1969226000074,404.08024700000533,404.1969226000074,404.1802185999986,None,m,1,1.1768337000103202,404.1802185999986,None,,,,,m,,p6,2022_Mar_17_1134,training+cueing,2021.1.4,59.915148166254546,
Self.png,You,Self ,c,1,11,21,91,,,,,0,0,0,0,,,,,6,3,75,0,,,,,,,,,,,,,,,,,,,,,1.597,2.457,405.4876194999961,None,,,,,,,,,,,,,,,,,,,,406.0266775999917,406.5319348000048,0.5084338699525688,1.0087466699478682,406.51528699998744,406.61534240000765,406.51528699998744,406.61534240000765,406.61534240000765,None,c,1,0.5976674999983516,406.61534240000765,None,,,,,m,,p6,2022_Mar_17_1134,training+cueing,2021.1.4,59.915148166254546,
Stranger.png,You,Stranger,m,1.3,15,25,95,,,,,0,0,0,0,,,,,6,4,76,6,,,,,,,,,,,,,,,,,,,,,1.78,1.921,407.3389480999904,None,,,,,,,,,,,,,,,,,,,,407.8904221999983,408.4000057000085,0.5032006699766498,1.0034886699868366,408.38331269999617,408.483367000008,408.38331269999617,408.483367000008,408.483367000008,None,m,1,0.6497223999758717,408.483367000008,None,,,,,m,,p6,2022_Mar_17_1134,training+cueing,2021.1.4,59.915148166254546,
Stranger.png,Stranger,Stranger,c,3,13,23,93,,,,,0,0,0,0,,,,,6,5,77,11,,,,,,,,,,,,,,,,,,,,,1.737,1.327,409.25638079998316,None,,,,,,,,,,,,,,,,,,,,409.7954667999875,410.3013540999964,0.5119052700174507,1.0122022700088564,410.2846758000087,410.40140370000154,410.2846758000087,410.40140370000154,410.384724500007,None,c,1,0.6523555000021588,410.384724500007,None,,,,,m,,p6,2022_Mar_17_1134,training+cueing,2021.1.4,59.915148166254546,
Friend.png,You,Friend,m,1.2,14,24,94,,,,,0,0,0,0,,,,,6,6,78,3,,,,,,,,,,,,,,,,,,,,,1.666,1.726,411.1749038999842,None,,,,,,,,,,,,,,,,,,,,411.7135493999813,412.2193900999846,0.5091556699480861,1.0094897699600551,412.2026940000069,412.30276859999867,412.2026940000069,412.30276859999867,412.30276859999867,None,m,1,0.5423832999949809,412.30276859999867,None,,,,,m,,p6,2022_Mar_17_1134,training+cueing,2021.1.4,59.915148166254546,
Stranger.png,Friend,Stranger,m,2.3,17,27,97,,,,,0,0,0,0,,,,,6,7,79,7,,,,,,,,,,,,,,,,,,,,,1.514,2.079,412.97616649998236,None,,,,,,,,,,,,,,,,,,,,413.5172865999921,414.0207020000089,0.5064349699532613,1.006737469957443,414.00403159999405,414.12076610000804,414.00403159999405,414.12076610000804,414.10409370000707,None,m,1,0.7889218999771401,414.10409370000707,None,,,,,m,,p6,2022_Mar_17_1134,training+cueing,2021.1.4,59.915148166254546,
Self.png,Stranger,Self ,m,3.1,18,28,98,,,,,0,0,0,0,,,,,6,8,80,2,,,,,,,,,,,,,,,,,,,,,1.769,1.411,415.02750789999845,None,,,,,,,,,,,,,,,,,,,,415.56512879999354,416.07215399999404,0.5104581699706614,1.0112948699679691,416.0555269999895,416.17222619999666,416.0555269999895,416.17222619999666,416.15555209998274,None,c,0,0.9775907000002917,416.15555209998274,None,,,,,m,,p6,2022_Mar_17_1134,training+cueing,2021.1.4,59.915148166254546,
Friend.png,Friend,Friend,c,2,12,22,92,,,,,0,0,0,0,,,,,6,9,81,10,,,,,,,,,,,,,,,,,,,,,1.584,2.279,417.26334010000573,None,,,,,,,,,,,,,,,,,,,,417.80359659998794,418.3071367999946,0.5060790699790232,1.006346569978632,418.2904867999896,418.4071908000042,418.2904867999896,418.4071908000042,418.3905192000093,None,m,0,0.6786418999836314,418.3905192000093,None,,,,,m,,p6,2022_Mar_17_1134,training+cueing,2021.1.4,59.915148166254546,
Friend.png,Stranger,Friend,m,3.2,19,29,99,,,,,0,0,0,0,,,,,6,10,82,5,,,,,,,,,,,,,,,,,,,,,1.668,1.405,419.19679749998613,None,,,,,,,,,,,,,,,,,,,,419.7363125999982,420.24186809998355,0.5096430699632037,1.009927669976605,420.22519649998867,420.3419303999981,420.22519649998867,420.3419303999981,420.32524420000846,None,m,1,0.8400869999895804,420.32524420000846,None,,,,,m,,p6,2022_Mar_17_1134,training+cueing,2021.1.4,59.915148166254546,
Stranger.png,Stranger,Stranger,c,3,13,23,93,,,,,0,0,0,0,,,,,6,11,83,8,,,,,,,,,,,,,,,,,,,,,1.51,2.399,421.2985512999876,None,,,,,,,,,,,,,,,,,,,,421.8373292000033,422.3434602000052,0.5094158700085245,1.0096587699954398,422.3267661999853,422.44343069999013,422.3267661999853,422.44343069999013,422.4267664999934,None,m,0,1.1704107999976259,422.4267664999934,None,,,,,m,,p6,2022_Mar_17_1134,training+cueing,2021.1.4,59.915148166254546,
Stranger.png,You,Stranger,m,1.3,15,25,95,,,,,0,0,0,0,,,,,7,0,84,6,,,,,,,,,,,,,,,,,,,,,1.623,1.916,423.7339091000031,None,,,,,,,,,,,,,,,,,,,,424.27402909999364,424.7785028000071,0.5083671699976549,1.0086075700237416,424.76183479998144,424.86184619998676,424.76183479998144,424.86184619998676,424.86184619998676,None,m,1,0.9432275000144728,424.86184619998676,None,,,,,m,,p6,2022_Mar_17_1134,training+cueing,2021.1.4,59.915148166254546,
Friend.png,Friend,Friend,c,2,12,22,92,,,,,0,0,0,0,,,,,7,1,85,10,,,,,,,,,,,,,,,,,,,,,1.556,2.022,425.93505460000597,None,,,,,,,,,,,,,,,,,,,,426.4733627999958,426.98008879998815,0.5124907699646428,1.0127932699688245,426.96340249999776,427.0801322000043,426.96340249999776,427.0801322000043,427.0634289000009,None,c,1,0.7899777000129689,427.0634289000009,None,,,,,m,,p6,2022_Mar_17_1134,training+cueing,2021.1.4,59.915148166254546,
Friend.png,Stranger,Friend,m,3.2,19,29,99,,,,,0,0,0,0,,,,,7,2,86,5,,,,,,,,,,,,,,,,,,,,,1.602,1.638,427.98760999998194,None,,,,,,,,,,,,,,,,,,,,428.5265828999982,429.0315833000059,0.5071316699904855,1.007424670009641,429.01488339999923,429.13162120000925,429.01488339999923,429.13162120000925,429.11491780000506,None,m,1,0.6101951999880839,429.11491780000506,None,,,,,m,,p6,2022_Mar_17_1134,training+cueing,2021.1.4,59.915148166254546,
Stranger.png,Stranger,Stranger,c,3,13,23,93,,,,,0,0,0,0,,,,,7,3,87,11,,,,,,,,,,,,,,,,,,,,,1.406,2.118,429.85484349998296,None,,,,,,,,,,,,,,,,,,,,430.39444830000866,430.89962260000175,0.51031926998985,1.0106056700169574,430.8829390000028,430.9996395999915,430.8829390000028,430.9996395999915,430.98295449998113,None,m,0,0.8061656999925617,430.98295449998113,None,,,,,m,,p6,2022_Mar_17_1134,training+cueing,2021.1.4,59.915148166254546,
Self.png,Friend,Self ,m,2.1,16,26,96,,,,,0,0,0,0,,,,,7,4,88,1,,,,,,,,,,,,,,,,,,,,,1.775,1.255,431.92323990000295,None,,,,,,,,,,,,,,,,,,,,432.4621915000025,432.967751499993,0.5089784700248856,1.0092759700200986,432.95106900000246,433.0677968999953,432.95106900000246,433.0677968999953,433.05111119998037,None,m,1,0.7063264999887906,433.05111119998037,None,,,,,m,,p6,2022_Mar_17_1134,training+cueing,2021.1.4,59.915148166254546,
Friend.png,You,Friend,m,1.2,14,24,94,,,,,0,0,0,0,,,,,7,5,89,3,,,,,,,,,,,,,,,,,,,,,1.499,1.848,433.8913367000059,None,,,,,,,,,,,,,,,,,,,,434.4326244999829,434.9358593999932,0.5052230699802749,1.0055252699821722,434.91915619999054,435.0192269999825,434.91915619999054,435.0192269999825,435.0192269999825,None,c,0,0.5778834999946412,435.0192269999825,None,,,,,m,,p6,2022_Mar_17_1134,training+cueing,2021.1.4,59.915148166254546,
Self.png,Stranger,Self ,m,3.1,18,28,98,,,,,0,0,0,0,,,,,7,6,90,2,,,,,,,,,,,,,,,,,,,,,1.458,1.308,435.7259054000024,None,,,,,,,,,,,,,,,,,,,,436.2651408999809,436.77052389999153,0.5111576699709985,1.0114363699685782,436.7538286999916,436.87055679998593,436.7538286999916,436.87055679998593,436.8538708999986,None,None,0,,436.8538708999986,None,,,,,m,,p6,2022_Mar_17_1134,training+cueing,2021.1.4,59.915148166254546,
Friend.png,Friend,Friend,c,2,12,22,92,,,,,0,0,0,0,,,,,7,7,91,4,,,,,,,,,,,,,,,,,,,,,1.798,1.265,438.42554769999697,None,,,,,,,,,,,,,,,,,,,,438.968988299981,439.4724653000012,0.5047459699853789,1.0050346700008959,439.45576439998695,439.5725126999896,439.45576439998695,439.5725126999896,439.5558056999871,None,m,0,0.5853770999819972,439.5558056999871,None,,,,,m,,p6,2022_Mar_17_1134,training+cueing,2021.1.4,59.915148166254546,
Self.png,You,Self ,c,1,11,21,91,,,,,0,0,0,0,,,,,7,8,92,0,,,,,,,,,,,,,,,,,,,,,1.563,2.198,440.26244540000334,None,,,,,,,,,,,,,,,,,,,,440.8019282000023,441.30710700000054,0.5103858699731063,1.0106873699696735,441.29042020000634,441.39049990000785,441.29042020000634,441.39049990000785,441.39049990000785,None,c,1,0.7346363000106066,441.39049990000785,None,,,,,m,,p6,2022_Mar_17_1134,training+cueing,2021.1.4,59.915148166254546,
Self.png,You,Self ,c,1,11,21,91,,,,,0,0,0,0,,,,,7,9,93,9,,,,,,,,,,,,,,,,,,,,,1.62,2.063,442.24686799998744,None,,,,,,,,,,,,,,,,,,,,442.7857523999992,443.29189779999433,0.5114296699757688,1.0116912699886598,443.2752335999976,443.37527980000596,443.2752335999976,443.37527980000596,443.37527980000596,None,m,0,0.653895699972054,443.37527980000596,None,,,,,m,,p6,2022_Mar_17_1134,training+cueing,2021.1.4,59.915148166254546,
Stranger.png,Friend,Stranger,m,2.3,17,27,97,,,,,0,0,0,0,,,,,7,10,94,7,,,,,,,,,,,,,,,,,,,,,1.684,2.383,444.16573239999707,None,,,,,,,,,,,,,,,,,,,,444.7035622999829,445.20993199999793,0.5110584699723404,1.011359169962816,445.19326450000517,445.3099513000052,445.19326450000517,445.3099513000052,445.2933117999928,None,m,1,0.7197745000012219,445.2933117999928,None,,,,,m,,p6,2022_Mar_17_1134,training+cueing,2021.1.4,59.915148166254546,
Stranger.png,Stranger,Stranger,c,3,13,23,93,,,,,0,0,0,0,,,,,7,11,95,8,,,,,,,,,,,,,,,,,,,,,1.574,1.768,446.1506501999975,None,,,,,,,,,,,,,,,,,,,,446.69123969998327,447.1947036999918,0.5059608700103126,1.0062912700232118,447.1780047999928,447.2947698000062,447.1780047999928,447.2947698000062,447.2780714999826,None,c,1,0.703146799991373,447.2780714999826,None,,,,,m,,p6,2022_Mar_17_1134,training+cueing,2021.1.4,59.915148166254546,
Friend.png,Friend,Friend,c,2,12,22,92,,,,,0,0,0,0,,,,,8,0,96,10,,,,,,,,,,,,,,,,,,,,,1.717,1.572,448.11803260000306,None,,,,,,,,,,,,,,,,,,,,448.6579414999869,449.1627841999871,0.5063229700026568,1.00663577002706,449.1461180000042,449.2628410999896,449.1461180000042,449.2628410999896,449.2461640999827,None,c,1,0.5429278000083286,449.2461640999827,None,,,,,m,,p6,2022_Mar_17_1134,training+cueing,2021.1.4,59.915148166254546,
Self.png,Stranger,Self ,m,3.1,18,28,98,,,,,0,0,0,0,,,,,8,1,97,2,,,,,,,,,,,,,,,,,,,,,1.523,2.458,449.91951529998914,None,,,,,,,,,,,,,,,,,,,,450.45934519998264,450.9640983999998,0.5094302699435502,None,450.94741989998147,451.06416320000426,450.94741989998147,451.06416320000426,451.0474813999899,None,c,0,0.37372919998597354,451.0474813999899,None,,,,,m,,p6,2022_Mar_17_1134,training+cueing,2021.1.4,59.915148166254546,
Friend.png,Stranger,Friend,m,3.2,19,29,99,,,,,0,0,0,0,,,,,8,2,98,5,,,,,,,,,,,,,,,,,,,,,1.486,1.941,451.55372339999303,None,,,,,,,,,,,,,,,,,,,,452.09309039998334,452.5986845000007,0.5114141700032633,1.011712270003045,452.5819361000031,452.6986772999808,452.5819361000031,452.6986772999808,452.6819792999886,None,None,0,,452.6819792999886,None,,,,,m,,p6,2022_Mar_17_1134,training+cueing,2021.1.4,59.915148166254546,
Friend.png,You,Friend,m,1.2,14,24,94,,,,,0,0,0,0,,,,,8,3,99,3,,,,,,,,,,,,,,,,,,,,,1.433,2.426,454.287042299984,None,,,,,,,,,,,,,,,,,,,,454.82856110000284,455.3340027999948,0.5091053699725308,1.009559169964632,455.31729919998907,455.41731220000656,455.31729919998907,455.41731220000656,455.41731220000656,None,m,1,0.8841304999950808,455.41731220000656,None,,,,,m,,p6,2022_Mar_17_1134,training+cueing,2021.1.4,59.915148166254546,
Self.png,Friend,Self ,m,2.1,16,26,96,,,,,0,0,0,0,,,,,8,4,100,1,,,,,,,,,,,,,,,,,,,,,1.521,1.619,456.4259807000053,None,,,,,,,,,,,,,,,,,,,,456.96724919998087,457.46880519998376,0.5024097699788399,1.0026999699766748,457.45213709998643,457.5688831000007,457.45213709998643,457.5688831000007,457.5521679999947,None,m,1,1.2613015999959316,457.5521679999947,None,,,,,m,,p6,2022_Mar_17_1134,training+cueing,2021.1.4,59.915148166254546,
Stranger.png,Stranger,Stranger,c,3,13,23,93,,,,,0,0,0,0,,,,,8,5,101,11,,,,,,,,,,,,,,,,,,,,,1.757,2.387,458.94576460000826,None,,,,,,,,,,,,,,,,,,,,459.487464899983,459.98733030000585,0.5005896700022276,1.0008674699929543,459.97062750000623,460.0875687999942,459.97062750000623,460.0875687999942,460.0875687999942,None,c,1,0.6615445999777876,460.0875687999942,None,,,,,m,,p6,2022_Mar_17_1134,training+cueing,2021.1.4,59.915148166254546,
Self.png,You,Self ,c,1,11,21,91,,,,,0,0,0,0,,,,,8,6,102,0,,,,,,,,,,,,,,,,,,,,,1.646,2.385,460.87687999999616,None,,,,,,,,,,,,,,,,,,,,461.4150464999839,461.9220279000001,0.5116841699637007,1.0119390699837822,461.9053644000087,462.00541660000454,461.9053644000087,462.00541660000454,462.00541660000454,None,c,1,0.6476756999909412,462.00541660000454,None,,,,,m,,p6,2022_Mar_17_1134,training+cueing,2021.1.4,59.915148166254546,
Friend.png,Friend,Friend,c,2,12,22,92,,,,,0,0,0,0,,,,,8,7,103,4,,,,,,,,,,,,,,,,,,,,,1.594,2.37,462.77918079998926,None,,,,,,,,,,,,,,,,,,,,463.3185342999932,463.823390000005,0.5087574699718971,None,463.80674299999373,463.92344969999976,463.80674299999373,463.92344969999976,463.90677040000446,None,c,1,0.3142801000212785,463.90677040000446,None,,,,,m,,p6,2022_Mar_17_1134,training+cueing,2021.1.4,59.915148166254546,
Stranger.png,Stranger,Stranger,c,3,13,23,93,,,,,0,0,0,0,,,,,8,8,104,8,,,,,,,,,,,,,,,,,,,,,1.408,1.77,464.34677149998606,None,,,,,,,,,,,,,,,,,,,,464.8863606999803,465.39121109998086,0.5067307699937373,1.007028869993519,465.37452330000815,465.49125619998085,465.37452330000815,465.49125619998085,465.47453109998605,None,m,0,1.3386931999993976,465.47453109998605,None,,,,,m,,p6,2022_Mar_17_1134,training+cueing,2021.1.4,59.915148166254546,
Stranger.png,You,Stranger,m,1.3,15,25,95,,,,,0,0,0,0,,,,,8,9,105,6,,,,,,,,,,,,,,,,,,,,,1.634,1.385,466.9485415999952,None,,,,,,,,,,,,,,,,,,,,467.4879961999832,467.9931139999826,0.5103297699824907,1.0106399699870963,467.97639779999736,468.0764413999859,467.97639779999736,468.0764413999859,468.0764413999859,None,m,1,0.9767279000079725,468.0764413999859,None,,,,,m,,p6,2022_Mar_17_1134,training+cueing,2021.1.4,59.915148166254546,
Self.png,You,Self ,c,1,11,21,91,,,,,0,0,0,0,,,,,8,10,106,9,,,,,,,,,,,,,,,,,,,,,1.423,1.82,469.18344170000637,None,,,,,,,,,,,,,,,,,,,,469.72248019999824,470.22802730000694,0.5110917699639685,1.0113898699637502,470.2113587000058,470.31142330000876,470.2113587000058,470.31142330000876,470.31142330000876,None,c,1,0.7899636999936774,470.31142330000876,None,,,,,m,,p6,2022_Mar_17_1134,training+cueing,2021.1.4,59.915148166254546,
Stranger.png,Friend,Stranger,m,2.3,17,27,97,,,,,0,0,0,0,,,,,8,11,107,7,,,,,,,,,,,,,,,,,,,,,1.672,1.76,471.23446879998664,None,,,,,,,,,,,,,,,,,,,,471.7748664999963,472.27952779998304,0.5070039699785411,1.0076075699762441,472.2628527999914,472.3800687000039,472.2628527999914,472.3800687000039,472.3634134999884,None,m,1,1.0580081999942195,472.3634134999884,None,,,,,m,,p6,2022_Mar_17_1134,training+cueing,2021.1.4,59.915148166254546,
Stranger.png,Friend,Stranger,m,2.3,17,27,97,,,,,0,0,0,0,,,,,9,0,108,7,,,,,,,,,,,,,,,,,,,,,1.732,2.463,473.55683270000736,None,,,,,,,,,,,,,,,,,,,,474.0928816999949,474.59788019998814,0.5088441699917894,1.0091599699808285,474.5811725999811,474.6979539000022,474.5811725999811,474.6979539000022,474.68133550000493,None,m,1,0.7560747000097763,474.68133550000493,None,,,,,m,,p6,2022_Mar_17_1134,training+cueing,2021.1.4,59.915148166254546,
Friend.png,Friend,Friend,c,2,12,22,92,,,,,0,0,0,0,,,,,9,1,109,4,,,,,,,,,,,,,,,,,,,,,1.694,1.382,475.57168880000245,None,,,,,,,,,,,,,,,,,,,,476.12780009998824,476.63267629998154,0.5090047599805985,1.0092768599861301,476.6160491000046,476.73275259998627,476.6160491000046,476.73275259998627,476.71606020000763,None,c,1,0.5610763999866322,476.71606020000763,None,,,,,m,,p6,2022_Mar_17_1134,training+cueing,2021.1.4,59.915148166254546,
Self.png,You,Self ,c,1,11,21,91,,,,,0,0,0,0,,,,,9,2,110,0,,,,,,,,,,,,,,,,,,,,,1.688,2.43,477.40603719998035,None,,,,,,,,,,,,,,,,,,,,477.9457962999877,478.4506572999817,0.5068263699649833,1.0070773699844722,478.43398790000356,478.5340618999908,478.43398790000356,478.5340618999908,478.5340618999908,None,c,1,0.5030735000036657,478.5340618999908,None,,,,,m,,p6,2022_Mar_17_1134,training+cueing,2021.1.4,59.915148166254546,
Friend.png,Stranger,Friend,m,3.2,19,29,99,,,,,0,0,0,0,,,,,9,3,111,5,,,,,,,,,,,,,,,,,,,,,1.755,1.564,479.1741815999849,None,,,,,,,,,,,,,,,,,,,,479.7147777999926,480.2186389999988,0.5082384700071998,1.0085162699979264,480.2019506999932,480.318666200008,480.2019506999932,480.318666200008,480.3019848999975,None,m,1,0.9758061000029556,480.3019848999975,None,,,,,m,,p6,2022_Mar_17_1134,training+cueing,2021.1.4,59.915148166254546,
Self.png,Stranger,Self ,m,3.1,18,28,98,,,,,0,0,0,0,,,,,9,4,112,2,,,,,,,,,,,,,,,,,,,,,1.596,1.52,481.41212530000485,None,,,,,,,,,,,,,,,,,,,,481.94788769999286,482.4535574000038,0.5078188699844759,1.0081163700087927,482.43688719999045,482.5536176000023,482.43688719999045,482.5536176000023,482.5369388999825,None,m,1,0.9002215999935288,482.5369388999825,None,,,,,m,,p6,2022_Mar_17_1134,training+cueing,2021.1.4,59.915148166254546,
Stranger.png,Stranger,Stranger,c,3,13,23,93,,,,,0,0,0,0,,,,,9,5,113,8,,,,,,,,,,,,,,,,,,,,,1.6,1.492,483.5603528000065,None,,,,,,,,,,,,,,,,,,,,484.09937640000135,484.60510349998367,0.5112619699793868,1.0116142699844204,484.5884029000008,484.7051707000064,484.5884029000008,484.7051707000064,484.6885038999899,None,m,0,1.308668999990914,484.6885038999899,None,,,,,m,,p6,2022_Mar_17_1134,training+cueing,2021.1.4,59.915148166254546,
Friend.png,Friend,Friend,c,2,12,22,92,,,,,0,0,0,0,,,,,9,6,114,10,,,,,,,,,,,,,,,,,,,,,1.614,1.791,486.1299279000086,None,,,,,,,,,,,,,,,,,,,,486.66830779999145,487.1736482999986,0.5106633699906524,1.0109650699887425,487.1569482999912,487.27371809998294,487.1569482999912,487.27371809998294,487.2569955000072,None,c,1,0.5161719000025187,487.2569955000072,None,,,,,m,,p6,2022_Mar_17_1134,training+cueing,2021.1.4,59.915148166254546,
Stranger.png,Stranger,Stranger,c,3,13,23,93,,,,,0,0,0,0,,,,,9,7,115,11,,,,,,,,,,,,,,,,,,,,,1.709,1.476,487.8967646000092,None,,,,,,,,,,,,,,,,,,,,488.43654229998356,488.94157019999693,0.5071164699911606,1.0074005699716508,488.92491879998124,489.041650500003,488.92491879998124,489.041650500003,489.02496509999037,None,c,1,1.2602466999960598,489.02496509999037,None,,,,,m,,p6,2022_Mar_17_1134,training+cueing,2021.1.4,59.915148166254546,
Self.png,Friend,Self ,m,2.1,16,26,96,,,,,0,0,0,0,,,,,9,8,116,1,,,,,,,,,,,,,,,,,,,,,1.477,1.371,490.41561729999376,None,,,,,,,,,,,,,,,,,,,,490.97202069999184,491.4769285999937,0.5092977599997539,1.009401560004335,491.46038889998454,491.5769397999975,491.46038889998454,491.5769397999975,491.5602541999833,None,m,1,0.6610457999922801,491.5602541999833,None,,,,,m,,p6,2022_Mar_17_1134,training+cueing,2021.1.4,59.915148166254546,
Self.png,You,Self ,c,1,11,21,91,,,,,0,0,0,0,,,,,9,9,117,9,,,,,,,,,,,,,,,,,,,,,1.739,1.582,492.35054429998854,None,,,,,,,,,,,,,,,,,,,,492.8917191000073,493.3948168999923,0.5069445699919015,1.0072154699882958,493.37815969999065,493.47820449998835,493.37815969999065,493.47820449998835,493.47820449998835,None,c,1,0.42304550000699237,493.47820449998835,None,,,,,m,,p6,2022_Mar_17_1134,training+cueing,2021.1.4,59.915148166254546,
Stranger.png,You,Stranger,m,1.3,15,25,95,,,,,0,0,0,0,,,,,9,10,118,6,,,,,,,,,,,,,,,,,,,,,1.474,1.83,494.0343681999948,None,,,,,,,,,,,,,,,,,,,,494.57276690000435,495.07935489999363,0.5105219700199086,1.0107826700259466,495.0627148000058,495.1627635000041,495.0627148000058,495.1627635000041,495.1627635000041,None,m,1,0.690501699980814,495.1627635000041,None,,,,,m,,p6,2022_Mar_17_1134,training+cueing,2021.1.4,59.915148166254546,
Friend.png,You,Friend,m,1.2,14,24,94,,,,,0,0,0,0,,,,,9,11,119,3,,,,,,,,,,,,,,,,,,,,,1.533,1.46,495.98592949999147,None,,,,,,,,,,,,,,,,,,,,496.5236312999914,497.0307935999881,0.5141155699675437,1.0144744699646253,497.0140776000044,497.11414759999025,497.0140776000044,497.11414759999025,497.11414759999025,None,m,1,0.6270367999968585,497.11414759999025,None,,,,,m,,p6,2022_Mar_17_1134,training+cueing,2021.1.4,59.915148166254546,
,,,,,,,,,,,,0,0,0,0,,,,,,,,,,,,,,,,,,,,,,,,,,,,,,,,,,,,,,,,,,,,,,,,,,,,,,,,,,,,,,,,,,,0.0002663299674168229,None,,,m,,p6,2022_Mar_17_1134,training+cueing,2021.1.4,59.915148166254546,
Stranger.png,Friend,Stranger,m,2.3,17,27,97,,,,,1,0,1,0,0,0,0,7,,,,,,,,,,,,,,,,,498.3818112000008,None,space,62.36674509997829,2.0163945899985265,None,562.7618195999821,None,1.638,1.897,565.7803661999933,None,566.3018280999968,566.8146776999929,566.7979556999926,566.9146789000079,566.7979556999926,566.9146789000079,566.8979768999852,None,m,1,566.8979768999852,None,567.715309399995,None,0.7953154999995604,,,,,,,,,,,,,,,,,,,,,,,,m,,p6,2022_Mar_17_1134,training+cueing,2021.1.4,59.915148166254546,
Friend.png,Stranger,Friend,m,3.2,19,29,99,,,,,1,0,1,0,0,1,1,5,,,,,,,,,,,,,,,,,,,,,,,,,1.796,2.065,568.115727299999,None,568.6484375,569.1496427000093,569.1329787999857,569.2497609999846,569.1329787999857,569.2497609999846,569.2330577999819,None,m,1,569.2330577999819,None,570.1151250999828,None,0.860332499985816,,,,,,,,,,,,,,,,,,,,,,,,m,,p6,2022_Mar_17_1134,training+cueing,2021.1.4,59.915148166254546,
Friend.png,Friend,Friend,c,2,12,22,92,,,,,1,0,1,0,0,2,2,10,,,,,,,,,,,,,,,,,,,,,,,,,1.724,1.207,570.5173565000005,None,571.0540540000075,571.5680773000058,571.5514071999933,571.6681140000001,571.5514071999933,571.6681140000001,571.6514643999981,None,c,1,571.6514643999981,None,572.2186725999927,None,0.5378121999965515,,,,,,,,,,,,,,,,,,,,,,,,m,,p6,2022_Mar_17_1134,training+cueing,2021.1.4,59.915148166254546,
Friend.png,You,Friend,m,1.2,14,24,94,,,,,1,0,1,0,0,3,3,3,,,,,,,,,,,,,,,,,,,,,,,,,1.783,1.347,572.6189122000069,None,573.1546984000015,573.6695487999823,573.6529203999962,573.7529563999851,573.6529203999962,573.7529563999851,573.7529563999851,None,m,1,573.7529563999851,None,575.4027142999985,None,1.6364153000176884,,,,,,,,,,,,,,,,,,,,,,,,m,,p6,2022_Mar_17_1134,training+cueing,2021.1.4,59.915148166254546,
Stranger.png,You,Stranger,m,1.3,15,25,95,,,,,1,0,1,0,0,4,4,6,,,,,,,,,,,,,,,,,,,,,,,,,1.524,2.368,575.8044807999977,None,576.3345025999879,576.8385535999842,576.8218286999909,576.9219283999992,576.8218286999909,576.9219283999992,576.9219283999992,None,m,1,576.9219283999992,None,577.589118999982,None,0.6433558000135235,,,,,,,,,,,,,,,,,,,,,,,,m,,p6,2022_Mar_17_1134,training+cueing,2021.1.4,59.915148166254546,
Friend.png,Friend,Friend,c,2,12,22,92,,,,,1,0,1,0,0,5,5,4,,,,,,,,,,,,,,,,,,,,,,,,,1.63,1.672,577.9893945000076,None,578.5223979000002,579.0236025000049,579.0069046999852,579.1236097000074,579.0069046999852,579.1236097000074,579.1236097000074,None,c,1,579.1236097000074,None,579.7908121999935,None,0.6495336999942083,,,,,,,,,,,,,,,,,,,,,,,,m,,p6,2022_Mar_17_1134,training+cueing,2021.1.4,59.915148166254546,
Self.png,You,Self ,c,1,11,21,91,,,,,1,0,1,0,0,6,6,0,,,,,,,,,,,,,,,,,,,,,,,,,1.611,1.845,580.1910693999962,None,580.7201840000052,581.2250731999811,581.2083803999994,581.3084301000054,581.2083803999994,581.3084301000054,581.3084301000054,None,c,1,581.3084301000054,None,581.7588193999836,None,0.4328070000046864,,,,,,,,,,,,,,,,,,,,,,,,m,,p6,2022_Mar_17_1134,training+cueing,2021.1.4,59.915148166254546,
Stranger.png,Stranger,Stranger,c,3,13,23,93,,,,,1,0,1,0,0,7,7,11,,,,,,,,,,,,,,,,,,,,,,,,,1.625,1.575,582.1590780999977,None,582.6917782000091,583.1931458000035,583.1764597999863,583.2932162999932,583.1764597999863,583.2932162999932,583.2932162999932,None,c,1,583.2932162999932,None,584.444068199984,None,1.1199991000175942,,,,,,,,,,,,,,,,,,,,,,,,m,,p6,2022_Mar_17_1134,training+cueing,2021.1.4,59.915148166254546,
Self.png,Stranger,Self ,m,3.1,18,28,98,,,,,1,0,1,0,0,8,8,2,,,,,,,,,,,,,,,,,,,,,,,,,1.729,2.375,584.8444729000039,None,585.3794995000062,585.8950773999968,585.8784920999897,585.9956867999863,585.8784920999897,585.9956867999863,585.978452099982,None,m,1,585.978452099982,None,587.0611315999995,None,1.058932999992976,,,,,,,,,,,,,,,,,,,,,,,,m,,p6,2022_Mar_17_1134,training+cueing,2021.1.4,59.915148166254546,
Self.png,Friend,Self ,m,2.1,16,26,96,,,,,1,0,1,0,0,9,9,1,,,,,,,,,,,,,,,,,,,,,,,,,1.625,1.78,587.4630553000025,None,587.9929238999903,588.4969880999997,588.4803290999844,588.5970535000088,588.4803290999844,588.5970535000088,588.5803826999909,None,m,1,588.5803826999909,None,589.5628092999978,None,0.9530212999961805,,,,,,,,,,,,,,,,,,,,,,,,m,,p6,2022_Mar_17_1134,training+cueing,2021.1.4,59.915148166254546,
Self.png,You,Self ,c,1,11,21,91,,,,,1,0,1,0,0,10,10,9,,,,,,,,,,,,,,,,,,,,,,,,,1.649,2.356,589.9648779999989,None,590.5045077999821,591.0154892999853,590.9988196000049,591.0988799000042,590.9988196000049,591.0988799000042,591.0988799000042,None,c,1,591.0988799000042,None,591.4824847999844,None,0.35443839998333715,,,,,,,,,,,,,,,,,,,,,,,,m,,p6,2022_Mar_17_1134,training+cueing,2021.1.4,59.915148166254546,
Stranger.png,Stranger,Stranger,c,3,13,23,93,,,,,1,0,1,0,0,11,11,8,,,,,,,,,,,,,,,,,,,,,,,,,1.755,1.974,591.8829194999998,None,592.4218254000007,592.9336549,592.9169790000014,593.0337281999819,592.9169790000014,593.0337281999819,593.0170577999961,None,c,1,593.0170577999961,None,593.8993901000067,None,0.8523929999792017,,,,,,,,,,,,,,,,,,,,,,,,m,,p6,2022_Mar_17_1134,training+cueing,2021.1.4,59.915148166254546,
Friend.png,Friend,Friend,c,2,12,22,92,,,,,1,0,1,0,,,,,0,0,0,10,,,,,,,,,,,,,,,,,,,599.0547640000004,None,1.515,1.846,602.5724811999826,None,,,,,,,,,,,,,,,,594.3012511999987,None,0.014585889992304146,0.5129247900040355,603.1062244999921,603.6080860999937,0.5047246699978132,1.0050294699904043,603.591400699981,603.7082840999938,603.591400699981,603.7082840999938,603.6914248999965,None,c,1,0.561797000002116,603.6914248999965,None,,,,,m,,p6,2022_Mar_17_1134,training+cueing,2021.1.4,59.915148166254546,
Stranger.png,You,Stranger,m,1.3,15,25,95,,,,,1,0,1,0,,,,,0,1,1,6,,,,,,,,,,,,,,,,,,,,,1.474,2.334,604.3822655999975,None,,,,,,,,,,,,,,,,,,,,604.923939500004,605.4259271000046,0.5057027700240724,1.0061182700155769,605.4092051000043,605.5092799999984,605.4092051000043,605.5092799999984,605.5092799999984,None,m,1,1.0319780000136234,605.5092799999984,None,,,,,m,,p6,2022_Mar_17_1134,training+cueing,2021.1.4,59.915148166254546,
Friend.png,Friend,Friend,c,2,12,22,92,,,,,1,0,1,0,,,,,0,2,2,4,,,,,,,,,,,,,,,,,,,,,1.705,1.588,606.6660887000035,None,,,,,,,,,,,,,,,,,,,,607.2091057999933,607.7109244999883,0.503559970005881,1.003654069994809,607.6944060999958,607.8109815999924,607.6944060999958,607.8109815999924,607.7942688000039,None,c,1,0.6031454000039957,607.7942688000039,None,,,,,m,,p6,2022_Mar_17_1134,training+cueing,2021.1.4,59.915148166254546,
Self.png,Friend,Self ,m,2.1,16,26,96,,,,,1,0,1,0,,,,,0,3,3,1,,,,,,,,,,,,,,,,,,,,,1.414,2.281,608.534339100006,None,,,,,,,,,,,,,,,,,,,,609.0736353999819,609.5789551000053,0.5099515699839685,1.0102014699950814,609.5623006999958,609.6789699000074,609.5623006999958,609.6789699000074,609.6622874999885,None,m,1,0.7030290999973658,609.6622874999885,None,,,,,m,,p6,2022_Mar_17_1134,training+cueing,2021.1.4,59.915148166254546,
Self.png,Stranger,Self ,m,3.1,18,28,98,,,,,1,0,1,0,,,,,0,4,4,2,,,,,,,,,,,,,,,,,,,,,1.786,2.183,610.5024253999873,None,,,,,,,,,,,,,,,,,,,,611.0440831999877,611.5470061999804,0.5043069700186606,1.0046024699986447,611.5303162999917,611.6470582000038,611.5303162999917,611.6470582000038,611.630379499984,None,m,1,0.8629779999901075,611.630379499984,None,,,,,m,,p6,2022_Mar_17_1134,training+cueing,2021.1.4,59.915148166254546,
Friend.png,You,Friend,m,1.2,14,24,94,,,,,1,0,1,0,,,,,0,5,5,3,,,,,,,,,,,,,,,,,,,,,1.778,1.618,612.6210022000014,None,,,,,,,,,,,,,,,,,,,,613.1626115999825,613.6652156999917,0.5061346699949354,1.0064322699909098,613.6485471999913,613.7485928999959,613.6485471999913,613.7485928999959,613.7485928999959,None,m,1,1.1447896999889053,613.7485928999959,None,,,,,m,,p6,2022_Mar_17_1134,training+cueing,2021.1.4,59.915148166254546,
Stranger.png,Stranger,Stranger,c,3,13,23,93,,,,,1,0,1,0,,,,,0,6,6,8,,,,,,,,,,,,,,,,,,,,,1.751,1.723,615.022790899995,None,,,,,,,,,,,,,,,,,,,,615.5638801000023,616.0669654000085,0.5045872699702159,1.0049064699560404,616.0502824999858,616.1669953999808,616.0502824999858,616.1669953999808,616.150358599989,None,c,1,1.0790014999802224,616.150358599989,None,,,,,m,,p6,2022_Mar_17_1134,training+cueing,2021.1.4,59.915148166254546,
Stranger.png,Stranger,Stranger,c,3,13,23,93,,,,,1,0,1,0,,,,,0,7,7,11,,,,,,,,,,,,,,,,,,,,,1.701,1.896,617.3573994000035,None,,,,,,,,,,,,,,,,,,,,617.8955094999983,618.4019967000058,0.5100838699727319,1.0105685699963942,618.3852642999846,618.502024699992,618.3852642999846,618.502024699992,618.485360599996,None,c,1,0.791972299979534,618.485360599996,None,,,,,m,,p6,2022_Mar_17_1134,training+cueing,2021.1.4,59.915148166254546,
Friend.png,Stranger,Friend,m,3.2,19,29,99,,,,,1,0,1,0,,,,,0,8,8,5,,,,,,,,,,,,,,,,,,,,,1.69,1.585,619.4088869999978,None,,,,,,,,,,,,,,,,,,,,619.9485855000094,620.453545299999,0.5101932699908502,1.0110518699802924,620.4367903000093,620.5540816999855,620.4367903000093,620.5540816999855,620.536813499988,None,m,1,0.6607077000080608,620.536813499988,None,,,,,m,,p6,2022_Mar_17_1134,training+cueing,2021.1.4,59.915148166254546,
Self.png,You,Self ,c,1,11,21,91,,,,,1,0,1,0,,,,,0,9,9,9,,,,,,,,,,,,,,,,,,,,,1.639,2.147,621.3303153000015,None,,,,,,,,,,,,,,,,,,,,621.870812899986,622.3715536999807,0.5020845699764322,1.002537369960919,622.3548469000089,622.4548963999841,622.3548469000089,622.4548963999841,622.4548963999841,None,c,1,0.7904091000091285,622.4548963999841,None,,,,,m,,p6,2022_Mar_17_1134,training+cueing,2021.1.4,59.915148166254546,
Self.png,You,Self ,c,1,11,21,91,,,,,1,0,1,0,,,,,0,10,10,0,,,,,,,,,,,,,,,,,,,,,1.457,1.757,623.378464199981,None,,,,,,,,,,,,,,,,,,,,623.9168489000003,624.423092699988,0.5102116699854378,1.0105057700129692,624.4063277999812,624.5063746999949,624.4063277999812,624.5063746999949,624.5063746999949,None,c,1,0.6910025000106543,624.5063746999949,None,,,,,m,,p6,2022_Mar_17_1134,training+cueing,2021.1.4,59.915148166254546,
Stranger.png,Friend,Stranger,m,2.3,17,27,97,,,,,1,0,1,0,,,,,0,11,11,7,,,,,,,,,,,,,,,,,,,,,1.59,1.565,625.3295070999884,None,,,,,,,,,,,,,,,,,,,,625.8705254000088,626.3744374999951,0.5080005700001493,1.0083208699943498,626.357755999983,626.474509599997,626.357755999983,626.474509599997,626.457779999997,None,m,1,0.659552099998109,626.457779999997,None,,,,,m,,p6,2022_Mar_17_1134,training+cueing,2021.1.4,59.915148166254546,
Stranger.png,You,Stranger,m,1.3,15,25,95,,,,,1,0,1,0,,,,,1,0,12,6,,,,,,,,,,,,,,,,,,,,,1.622,2.234,627.2482607999991,None,,,,,,,,,,,,,,,,,,,,627.7878607999883,628.2924848999828,0.5060206699708942,1.006314169964753,628.2758161000093,628.3758722000057,628.2758161000093,628.3758722000057,628.3758722000057,None,m,1,0.7897866999846883,628.3758722000057,None,,,,,m,,p6,2022_Mar_17_1134,training+cueing,2021.1.4,59.915148166254546,
Friend.png,Friend,Friend,c,2,12,22,92,,,,,1,0,1,0,,,,,1,1,13,4,,,,,,,,,,,,,,,,,,,,,1.732,2.253,629.2995208000066,None,,,,,,,,,,,,,,,,,,,,629.841034299985,630.3439845999819,0.505774970020866,1.0066069700405933,630.3272866999905,630.444473999989,630.3272866999905,630.444473999989,630.427333700005,None,c,1,0.46615990001009777,630.427333700005,None,,,,,m,,p6,2022_Mar_17_1134,training+cueing,2021.1.4,59.915148166254546,
Stranger.png,Stranger,Stranger,c,3,13,23,93,,,,,1,0,1,0,,,,,1,2,14,11,,,,,,,,,,,,,,,,,,,,,1.763,2.203,631.0210634999967,None,,,,,,,,,,,,,,,,,,,,631.5607017999864,632.0618995999976,0.5031127700058278,1.003405669995118,632.0451900000044,632.1619068,632.0451900000044,632.1619068,632.1452293999901,None,c,1,0.7640989000210539,632.1452293999901,None,,,,,m,,p6,2022_Mar_17_1134,training+cueing,2021.1.4,59.915148166254546,
Self.png,You,Self ,c,1,11,21,91,,,,,1,0,1,0,,,,,1,3,15,0,,,,,,,,,,,,,,,,,,,,,1.53,1.499,633.0353925999952,None,,,,,,,,,,,,,,,,,,,,633.5761339000019,634.0799969999935,0.5052156699821353,1.0055161700001918,634.0633316999883,634.1633829000057,634.0633316999883,634.1633829000057,634.1633829000057,None,c,1,0.5379106999898795,634.1633829000057,None,,,,,m,,p6,2022_Mar_17_1134,training+cueing,2021.1.4,59.915148166254546,
Self.png,You,Self ,c,1,11,21,91,,,,,1,0,1,0,,,,,1,4,16,9,,,,,,,,,,,,,,,,,,,,,1.79,1.623,634.8370219999924,None,,,,,,,,,,,,,,,,,,,,635.3757451999991,635.8812899999903,0.5105939699860755,1.0109233699913602,635.8646414999967,635.9646972999908,635.8646414999967,635.9646972999908,635.9646972999908,None,m,0,0.6246285999950487,635.9646972999908,None,,,,,m,,p6,2022_Mar_17_1134,training+cueing,2021.1.4,59.915148166254546,
Friend.png,You,Friend,m,1.2,14,24,94,,,,,1,0,1,0,,,,,1,5,17,3,,,,,,,,,,,,,,,,,,,,,1.584,1.908,636.7212779999827,None,,,,,,,,,,,,,,,,,,,,637.2603094000078,637.7660235000076,0.5109024699777365,1.0112160699791275,637.7493140999868,637.8493783999875,637.7493140999868,637.8493783999875,637.8493783999875,None,c,0,0.9318404000077862,637.8493783999875,None,,,,,m,,p6,2022_Mar_17_1134,training+cueing,2021.1.4,59.915148166254546,
Friend.png,Stranger,Friend,m,3.2,19,29,99,,,,,1,0,1,0,,,,,1,6,18,5,,,,,,,,,,,,,,,,,,,,,1.529,2.091,638.9059673000011,None,,,,,,,,,,,,,,,,,,,,639.4481458000082,639.9509400999814,0.5045846700086258,1.0048682700144127,639.9342800999875,640.0509867999936,639.9342800999875,640.0509867999936,640.0343145999941,None,m,1,0.8910814999835566,640.0343145999941,None,,,,,m,,p6,2022_Mar_17_1134,training+cueing,2021.1.4,59.915148166254546,
Stranger.png,Stranger,Stranger,c,3,13,23,93,,,,,1,0,1,0,,,,,1,7,19,8,,,,,,,,,,,,,,,,,,,,,1.493,2.078,641.0581935000082,None,,,,,,,,,,,,,,,,,,,,641.5966004999937,642.1025957999809,0.5109317699680105,1.011051769979531,642.0859685000032,642.2025299000088,642.0859685000032,642.2025299000088,642.1858493000036,None,c,1,0.6435763000044972,642.1858493000036,None,,,,,m,,p6,2022_Mar_17_1134,training+cueing,2021.1.4,59.915148166254546,
Stranger.png,Friend,Stranger,m,2.3,17,27,97,,,,,1,0,1,0,,,,,1,8,20,7,,,,,,,,,,,,,,,,,,,,,1.433,1.314,642.9592529000074,None,,,,,,,,,,,,,,,,,,,,643.5117355999828,644.0205641000066,0.514886659977492,1.0151474599842913,644.0038952000032,644.1205878999899,644.0038952000032,644.1205878999899,644.1040012000012,None,m,1,0.6934248000034131,644.1040012000012,None,,,,,m,,p6,2022_Mar_17_1134,training+cueing,2021.1.4,59.915148166254546,
Self.png,Stranger,Self ,m,3.1,18,28,98,,,,,1,0,1,0,,,,,1,9,21,2,,,,,,,,,,,,,,,,,,,,,1.455,1.274,644.9273650999821,None,,,,,,,,,,,,,,,,,,,,645.4673839999887,645.9719041000062,0.5087125699792523,1.0090381699847057,645.9552504000021,646.0719954000087,645.9552504000021,646.0719954000087,646.0553238999855,None,m,1,1.1740170999837574,646.0553238999855,None,,,,,m,,p6,2022_Mar_17_1134,training+cueing,2021.1.4,59.915148166254546,
Self.png,Friend,Self ,m,2.1,16,26,96,,,,,1,0,1,0,,,,,1,10,22,1,,,,,,,,,,,,,,,,,,,,,1.643,1.947,647.3623643000028,None,,,,,,,,,,,,,,,,,,,,647.9038537000015,648.4070043999818,0.5047733699902892,1.0050572699983604,648.3903742999828,648.5070574999845,648.3903742999828,648.5070574999845,648.4904149000067,None,m,1,0.8509256000106689,648.4904149000067,None,,,,,m,,p6,2022_Mar_17_1134,training+cueing,2021.1.4,59.915148166254546,
Friend.png,Friend,Friend,c,2,12,22,92,,,,,1,0,1,0,,,,,1,11,23,10,,,,,,,,,,,,,,,,,,,,,1.535,1.465,649.4641849999898,None,,,,,,,,,,,,,,,,,,,,650.0019747999904,650.5085471000057,0.5105012700078078,1.0109913700143807,650.4918693999934,650.6086153000069,650.4918693999934,650.6086153000069,650.5919381999993,None,c,1,0.7334035000239965,650.5919381999993,None,,,,,m,,p6,2022_Mar_17_1134,training+cueing,2021.1.4,59.915148166254546,
Friend.png,Friend,Friend,c,2,12,22,92,,,,,1,0,1,0,,,,,2,0,24,10,,,,,,,,,,,,,,,,,,,,,1.679,2.19,651.449169200001,None,,,,,,,,,,,,,,,,,,,,651.987512599997,652.4933599999931,0.5108246699965093,1.0110305700218305,652.4766955999949,652.5933967999881,652.4766955999949,652.5933967999881,652.5767141999968,None,c,1,0.6046463000238873,652.5767141999968,None,,,,,m,,p6,2022_Mar_17_1134,training+cueing,2021.1.4,59.915148166254546,
Stranger.png,Friend,Stranger,m,2.3,17,27,97,,,,,1,0,1,0,,,,,2,1,25,7,,,,,,,,,,,,,,,,,,,,,1.48,1.943,653.3169574000058,None,,,,,,,,,,,,,,,,,,,,653.8546115999925,654.3613280999998,0.5128917699912563,1.013350969995372,654.3446915999812,654.4619390000007,654.3446915999812,654.4619390000007,654.4452504999936,None,m,1,0.6881606999959331,654.4452504999936,None,,,,,m,,p6,2022_Mar_17_1134,training+cueing,2021.1.4,59.915148166254546,
Friend.png,Stranger,Friend,m,3.2,19,29,99,,,,,1,0,1,0,,,,,2,2,26,5,,,,,,,,,,,,,,,,,,,,,1.424,1.678,655.2685848999827,None,,,,,,,,,,,,,,,,,,,,655.809576700005,656.3127779999922,0.5048093700024765,1.0051276700105518,656.2961181999999,656.412837699987,656.2961181999999,656.412837699987,656.3961363999988,None,m,1,0.7853104000096209,656.3961363999988,None,,,,,m,,p6,2022_Mar_17_1134,training+cueing,2021.1.4,59.915148166254546,
Self.png,Stranger,Self ,m,3.1,18,28,98,,,,,1,0,1,0,,,,,2,3,27,2,,,,,,,,,,,,,,,,,,,,,1.538,1.783,657.3026553000091,None,,,,,,,,,,,,,,,,,,,,657.8424432000029,658.3476317999884,0.510448169981828,1.010717669967562,658.3309243999829,658.447631499992,658.3309243999829,658.447631499992,658.4309293999977,None,m,1,0.6386428000114392,658.4309293999977,None,,,,,m,,p6,2022_Mar_17_1134,training+cueing,2021.1.4,59.915148166254546,
Self.png,You,Self ,c,1,11,21,91,,,,,1,0,1,0,,,,,2,4,28,9,,,,,,,,,,,,,,,,,,,,,1.576,2.484,659.2041085000092,None,,,,,,,,,,,,,,,,,,,,659.742680299998,660.2489539000089,0.5091982699814253,1.009475869970629,660.2322788999882,660.3323473999917,660.2322788999882,660.3323473999917,660.3323473999917,None,c,1,0.5771009999734815,660.3323473999917,None,,,,,m,,p6,2022_Mar_17_1134,training+cueing,2021.1.4,59.915148166254546,
Stranger.png,Stranger,Stranger,c,3,13,23,93,,,,,1,0,1,0,,,,,2,5,29,11,,,,,,,,,,,,,,,,,,,,,1.486,1.47,661.0387072000012,None,,,,,,,,,,,,,,,,,,,,661.5985289000091,662.1004168000072,0.5050937599735335,1.0051009599701501,662.0838851000008,662.2003107999917,662.0838851000008,662.2003107999917,662.1837034999917,None,c,1,1.3179352000006475,662.1837034999917,None,,,,,m,,p6,2022_Mar_17_1134,training+cueing,2021.1.4,59.915148166254546,
Self.png,You,Self ,c,1,11,21,91,,,,,1,0,1,0,,,,,2,6,30,0,,,,,,,,,,,,,,,,,,,,,1.623,2.362,663.6236580999976,None,,,,,,,,,,,,,,,,,,,,664.1652943000081,664.6688111999829,0.5069753699935973,1.0072803699877113,664.652142899984,664.7522102000075,664.652142899984,664.7522102000075,664.7522102000075,None,c,1,0.8133718999742996,664.7522102000075,None,,,,,m,,p6,2022_Mar_17_1134,training+cueing,2021.1.4,59.915148166254546,
Friend.png,You,Friend,m,1.2,14,24,94,,,,,1,0,1,0,,,,,2,7,31,3,,,,,,,,,,,,,,,,,,,,,1.627,2.185,665.6958380999858,None,,,,,,,,,,,,,,,,,,,,666.2329863999912,666.7369739999995,0.5060531699855346,1.006341970001813,666.7203111999843,666.820361799997,666.7203111999843,666.820361799997,666.820361799997,None,m,1,0.5850728999939747,666.820361799997,None,,,,,m,,p6,2022_Mar_17_1134,training+cueing,2021.1.4,59.915148166254546,
Friend.png,Friend,Friend,c,2,12,22,92,,,,,1,0,1,0,,,,,2,8,32,4,,,,,,,,,,,,,,,,,,,,,1.43,2.242,667.5268267999927,None,,,,,,,,,,,,,,,,,,,,668.0789577999967,668.5883261999988,0.501716069993563,1.0020315699803177,668.5716368999856,668.6883579999849,668.5716368999856,668.6883579999849,668.6883579999849,None,m,0,0.7169759000244085,668.6883579999849,None,,,,,m,,p6,2022_Mar_17_1134,training+cueing,2021.1.4,59.915148166254546,
Self.png,Friend,Self ,m,2.1,16,26,96,,,,,1,0,1,0,,,,,2,9,33,1,,,,,,,,,,,,,,,,,,,,,1.509,1.845,669.5280625000014,None,,,,,,,,,,,,,,,,,,,,670.0673332999868,670.5731363999948,0.5108817699947394,1.011087069986388,670.5564755999949,670.673171500006,670.5564755999949,670.673171500006,670.6564760000037,None,m,1,0.7488833999959752,670.6564760000037,None,,,,,m,,p6,2022_Mar_17_1134,training+cueing,2021.1.4,59.915148166254546,
Stranger.png,Stranger,Stranger,c,3,13,23,93,,,,,1,0,1,0,,,,,2,10,34,8,,,,,,,,,,,,,,,,,,,,,1.508,1.511,671.5298427999951,None,,,,,,,,,,,,,,,,,,,,672.0706181999994,672.5745394999976,0.506050369964214,1.0063735699513927,672.5578411000024,672.6746216999891,672.5578411000024,672.6746216999891,672.6578967999958,None,c,1,0.795465500006685,672.6578967999958,None,,,,,m,,p6,2022_Mar_17_1134,training+cueing,2021.1.4,59.915148166254546,
Stranger.png,You,Stranger,m,1.3,15,25,95,,,,,1,0,1,0,,,,,2,11,35,6,,,,,,,,,,,,,,,,,,,,,1.78,2.224,673.5812278999947,None,,,,,,,,,,,,,,,,,,,,674.1245478999917,674.6260638999811,0.5039777700148989,1.004271570011042,674.6093615999853,674.7094287000073,674.6093615999853,674.7094287000073,674.7094287000073,None,m,1,1.0159756000211928,674.7094287000073,None,,,,,m,,p6,2022_Mar_17_1134,training+cueing,2021.1.4,59.915148166254546,
Stranger.png,Friend,Stranger,m,2.3,17,27,97,,,,,1,0,1,0,,,,,3,0,36,7,,,,,,,,,,,,,,,,,,,,,1.439,1.718,675.8495427999878,None,,,,,,,,,,,,,,,,,,,,676.3903701999807,676.8943654999894,0.5050558699877001,1.0053387699881569,676.877676700009,676.9944112999947,676.877676700009,676.9944112999947,676.9777264999866,None,m,1,0.69967220001854,676.9777264999866,None,,,,,m,,p6,2022_Mar_17_1134,training+cueing,2021.1.4,59.915148166254546,
Self.png,Stranger,Self ,m,3.1,18,28,98,,,,,1,0,1,0,,,,,3,1,37,2,,,,,,,,,,,,,,,,,,,,,1.459,2.199,677.8006749000051,None,,,,,,,,,,,,,,,,,,,,678.344643199991,678.8457584999851,0.5026401700160932,1.002939169993624,678.8290816000081,678.9458134000015,678.8290816000081,678.9458134000015,678.9291019999946,None,m,1,0.8763641999976244,678.9291019999946,None,,,,,m,,p6,2022_Mar_17_1134,training+cueing,2021.1.4,59.915148166254546,
Self.png,Friend,Self ,m,2.1,16,26,96,,,,,1,0,1,0,,,,,3,2,38,1,,,,,,,,,,,,,,,,,,,,,1.643,2.215,679.9360525000084,None,,,,,,,,,,,,,,,,,,,,680.4758055999991,680.9806444999995,0.508709869987797,1.0089894699922297,680.9639746999892,681.0806656999921,680.9639746999892,681.0806656999921,681.0639980999986,None,m,1,0.677426700014621,681.0639980999986,None,,,,,m,,p6,2022_Mar_17_1134,training+cueing,2021.1.4,59.915148166254546,
Self.png,You,Self ,c,1,11,21,91,,,,,1,0,1,0,,,,,3,3,39,0,,,,,,,,,,,,,,,,,,,,,1.527,1.722,681.8710082999896,None,,,,,,,,,,,,,,,,,,,,682.4155624999839,682.9153814000019,0.5148749699874315,1.0151543699903414,682.9153814000019,683.0154176999931,682.9153814000019,683.0154176999931,683.0154176999931,None,c,1,0.6780106000078376,683.0154176999931,None,,,,,m,,p6,2022_Mar_17_1134,training+cueing,2021.1.4,59.915148166254546,
Friend.png,Friend,Friend,c,2,12,22,92,,,,,1,0,1,0,,,,,3,4,40,4,,,,,,,,,,,,,,,,,,,,,1.514,2.144,683.8221011999995,None,,,,,,,,,,,,,,,,,,,,684.3696376000007,684.8835284999805,0.5117441700131167,1.0120317699911539,684.8668637000083,684.9835778999841,684.8668637000083,684.9835778999841,684.9669059999869,None,c,1,0.4545444000104908,684.9669059999869,None,,,,,m,,p6,2022_Mar_17_1134,training+cueing,2021.1.4,59.915148166254546,
Friend.png,Friend,Friend,c,2,12,22,92,,,,,1,0,1,0,,,,,3,5,41,10,,,,,,,,,,,,,,,,,,,,,1.63,1.247,685.5572193999833,None,,,,,,,,,,,,,,,,,,,,686.0945735999849,686.6013774999883,0.513872569979867,None,686.5846671999898,686.7014376999869,686.5846671999898,686.7014376999869,686.6847247999976,None,c,1,0.38477530001546256,686.6847247999976,None,,,,,m,,p6,2022_Mar_17_1134,training+cueing,2021.1.4,59.915148166254546,
Stranger.png,Stranger,Stranger,c,3,13,23,93,,,,,1,0,1,0,,,,,3,6,42,11,,,,,,,,,,,,,,,,,,,,,1.483,1.216,687.1909132000001,None,,,,,,,,,,,,,,,,,,,,687.731612500007,688.2358711999841,0.5067912699596491,1.0070654699520674,688.2192310999963,688.3359334999986,688.2192310999963,688.3359334999986,688.3192423,None,c,1,1.3101578000059817,688.3192423,None,,,,,m,,p6,2022_Mar_17_1134,training+cueing,2021.1.4,59.915148166254546,
Friend.png,You,Friend,m,1.2,14,24,94,,,,,1,0,1,0,,,,,3,7,43,3,,,,,,,,,,,,,,,,,,,,,1.783,1.322,689.7603221999889,None,,,,,,,,,,,,,,,,,,,,690.3005156999861,690.8044492999907,0.5064121699833777,1.00697046998539,690.7877108999819,690.8877696999989,690.7877108999819,690.8877696999989,690.8877696999989,None,m,1,0.7257936999958474,690.8877696999989,None,,,,,m,,p6,2022_Mar_17_1134,training+cueing,2021.1.4,59.915148166254546,
Stranger.png,Stranger,Stranger,c,3,13,23,93,,,,,1,0,1,0,,,,,3,8,44,8,,,,,,,,,,,,,,,,,,,,,1.558,1.876,691.7457120000036,None,,,,,,,,,,,,,,,,,,,,692.2875550999888,692.7891812000016,0.5005672699771821,1.001071469974704,692.7724993999873,692.8897594999871,692.7724993999873,692.8897594999871,692.8897594999871,None,c,1,1.1396315000019968,692.8897594999871,None,,,,,m,,p6,2022_Mar_17_1134,training+cueing,2021.1.4,59.915148166254546,
Stranger.png,You,Stranger,m,1.3,15,25,95,,,,,1,0,1,0,,,,,3,9,45,6,,,,,,,,,,,,,,,,,,,,,1.437,1.838,694.1643877000024,None,,,,,,,,,,,,,,,,,,,,694.7029737999837,695.2076907999872,0.5084576700173784,1.0087571700278204,695.1910250000074,695.2910891000065,695.1910250000074,695.2910891000065,695.2910891000065,None,m,1,0.8182550999918021,695.2910891000065,None,,,,,m,,p6,2022_Mar_17_1134,training+cueing,2021.1.4,59.915148166254546,
Friend.png,Stranger,Friend,m,3.2,19,29,99,,,,,1,0,1,0,,,,,3,10,46,5,,,,,,,,,,,,,,,,,,,,,1.671,2.04,696.231194699998,None,,,,,,,,,,,,,,,,,,,,696.7737492999877,697.2757435999811,0.5048754699819256,1.0052027700003237,697.2590748000075,697.3758086999878,697.2590748000075,697.3758086999878,697.3591317999817,None,m,1,0.9743224999983795,697.3591317999817,None,,,,,m,,p6,2022_Mar_17_1134,training+cueing,2021.1.4,59.915148166254546,
Self.png,You,Self ,c,1,11,21,91,,,,,1,0,1,0,,,,,3,11,47,9,,,,,,,,,,,,,,,,,,,,,1.774,2.098,698.465630199993,None,,,,,,,,,,,,,,,,,,,,699.0064601000049,699.5107348999882,0.5056887699756771,1.0059857699670829,699.4940468999848,699.5941037999874,699.4940468999848,699.5941037999874,699.5941037999874,None,c,1,0.5954123999981675,699.5941037999874,None,,,,,m,,p6,2022_Mar_17_1134,training+cueing,2021.1.4,59.915148166254546,
Self.png,Stranger,Self ,m,3.1,18,28,98,,,,,1,0,1,0,,,,,4,0,48,2,,,,,,,,,,,,,,,,,,,,,1.765,1.714,700.3175212999922,None,,,,,,,,,,,,,,,,,,,,700.8608615999983,701.3620879999944,0.5024654699955136,1.0029474699986167,701.3453710000031,701.4621351999813,701.3453710000031,701.4621351999813,701.4454225999943,None,m,1,0.7439717999950517,701.4454225999943,None,,,,,m,,p6,2022_Mar_17_1134,training+cueing,2021.1.4,59.915148166254546,
Self.png,You,Self ,c,1,11,21,91,,,,,1,0,1,0,,,,,4,1,49,0,,,,,,,,,,,,,,,,,,,,,1.489,2.198,702.3192525999912,None,,,,,,,,,,,,,,,,,,,,702.862355899997,703.3635024999967,0.5026805699744727,1.0029559699760284,703.3468504000048,703.446873399982,703.3468504000048,703.446873399982,703.446873399982,None,m,0,0.9665837999782525,703.446873399982,None,,,,,m,,p6,2022_Mar_17_1134,training+cueing,2021.1.4,59.915148166254546,
Friend.png,Stranger,Friend,m,3.2,19,29,99,,,,,1,0,1,0,,,,,4,2,50,5,,,,,,,,,,,,,,,,,,,,,1.72,2.115,704.5371961999917,None,,,,,,,,,,,,,,,,,,,,705.0795614999952,705.581815499987,0.5038724699697923,1.0041731699602678,705.565105799993,705.681823699997,705.565105799993,705.681823699997,705.6651345999853,None,m,1,1.1325408999982756,705.6651345999853,None,,,,,m,,p6,2022_Mar_17_1134,training+cueing,2021.1.4,59.915148166254546,
Friend.png,Friend,Friend,c,2,12,22,92,,,,,1,0,1,0,,,,,4,3,51,10,,,,,,,,,,,,,,,,,,,,,1.467,1.898,706.9261058999982,None,,,,,,,,,,,,,,,,,,,,707.4655954999907,707.9668624000042,0.5030443699797615,1.0033531699737068,707.9501716999803,708.0669120000093,707.9501716999803,708.0669120000093,708.0502053000091,None,c,1,0.6993894999905024,708.0502053000091,None,,,,,m,,p6,2022_Mar_17_1134,training+cueing,2021.1.4,59.915148166254546,
Self.png,Friend,Self ,m,2.1,16,26,96,,,,,1,0,1,0,,,,,4,4,52,1,,,,,,,,,,,,,,,,,,,,,1.457,1.239,708.8766066999815,None,,,,,,,,,,,,,,,,,,,,709.4105358999805,709.9182774999936,0.5120216699724551,1.0123344699677546,709.9015495000058,710.0183155999985,709.9015495000058,710.0183155999985,710.0016104999813,None,m,1,0.6997761999955401,710.0016104999813,None,,,,,m,,p6,2022_Mar_17_1134,training+cueing,2021.1.4,59.915148166254546,
Friend.png,Friend,Friend,c,2,12,22,92,,,,,1,0,1,0,,,,,4,5,53,4,,,,,,,,,,,,,,,,,,,,,1.635,1.593,710.8248189000005,None,,,,,,,,,,,,,,,,,,,,711.3643544999941,711.8698251000023,0.5107493699761108,1.0109150699572638,711.8530938999902,711.9697459999879,711.8530938999902,711.9697459999879,711.9530180000002,None,c,1,0.7164403000206221,711.9530180000002,None,,,,,m,,p6,2022_Mar_17_1134,training+cueing,2021.1.4,59.915148166254546,
Stranger.png,Friend,Stranger,m,2.3,17,27,97,,,,,1,0,1,0,,,,,4,6,54,7,,,,,,,,,,,,,,,,,,,,,1.634,1.97,712.7931376000051,None,,,,,,,,,,,,,,,,,,,,713.332848799997,713.8377821999893,0.5102083699603099,1.0105525699618738,713.8211096999876,713.9378250000009,713.8211096999876,713.9378250000009,713.9211379000044,None,m,1,0.7482453999982681,713.9211379000044,None,,,,,m,,p6,2022_Mar_17_1134,training+cueing,2021.1.4,59.915148166254546,
Stranger.png,Stranger,Stranger,c,3,13,23,93,,,,,1,0,1,0,,,,,4,7,55,11,,,,,,,,,,,,,,,,,,,,,1.795,1.594,714.7944273999892,None,,,,,,,,,,,,,,,,,,,,715.3911893999903,715.9059428999899,0.5106214400439057,1.0109295400616247,715.8892700999859,716.0059788000071,715.8892700999859,716.0059788000071,715.9893062000046,None,c,1,0.6801619000034407,715.9893062000046,None,,,,,m,,p6,2022_Mar_17_1134,training+cueing,2021.1.4,59.915148166254546,
Friend.png,You,Friend,m,1.2,14,24,94,,,,,1,0,1,0,,,,,4,8,56,3,,,,,,,,,,,,,,,,,,,,,1.677,1.276,716.7961959999811,None,,,,,,,,,,,,,,,,,,,,717.3378388999845,717.8406743999803,0.5054900699760765,1.0058027699706145,717.8240101999836,717.9240688999998,717.8240101999836,717.9240688999998,717.9240688999998,None,m,1,0.6813360000087414,717.9240688999998,None,,,,,m,,p6,2022_Mar_17_1134,training+cueing,2021.1.4,59.915148166254546,
Stranger.png,Stranger,Stranger,c,3,13,23,93,,,,,1,0,1,0,,,,,4,9,57,8,,,,,,,,,,,,,,,,,,,,,1.524,2.256,718.7308319000003,None,,,,,,,,,,,,,,,,,,,,719.2737407999812,719.7753994000086,0.5044161699770484,1.005287669977406,719.758717299992,719.8760036999884,719.758717299992,719.8760036999884,719.8587603000051,None,c,1,0.7467931999999564,719.8587603000051,None,,,,,m,,p6,2022_Mar_17_1134,training+cueing,2021.1.4,59.915148166254546,
Stranger.png,You,Stranger,m,1.3,15,25,95,,,,,1,0,1,0,,,,,4,10,58,6,,,,,,,,,,,,,,,,,,,,,1.701,2.274,720.7334002999996,None,,,,,,,,,,,,,,,,,,,,721.2753694999847,721.7768404999806,0.502251369995065,1.003178469982231,721.7601555000001,721.8603719999956,721.7601555000001,721.8603719999956,721.8603719999956,None,m,1,0.7610966000065673,721.8603719999956,None,,,,,m,,p6,2022_Mar_17_1134,training+cueing,2021.1.4,59.915148166254546,
Self.png,You,Self ,c,1,11,21,91,,,,,1,0,1,0,,,,,4,11,59,9,,,,,,,,,,,,,,,,,,,,,1.607,1.907,722.7513246999879,None,,,,,,,,,,,,,,,,,,,,723.3047527000017,723.811641999986,0.5148870599514339,1.0151789599622134,723.7949874000042,723.8950069999846,723.7949874000042,723.8950069999846,723.8950069999846,None,c,1,0.5983475000248291,723.8950069999846,None,,,,,m,,p6,2022_Mar_17_1134,training+cueing,2021.1.4,59.915148166254546,
Friend.png,Stranger,Friend,m,3.2,19,29,99,,,,,1,0,1,0,,,,,5,0,60,5,,,,,,,,,,,,,,,,,,,,,1.787,2.416,724.6178098999953,None,,,,,,,,,,,,,,,,,,,,725.1594324999896,725.6630064999918,0.5045067700266372,1.0048340700159315,725.6463319000031,725.7630553999916,725.6463319000031,725.7630553999916,725.7463782999839,None,m,1,0.6671130000031553,725.7463782999839,None,,,,,m,,p6,2022_Mar_17_1134,training+cueing,2021.1.4,59.915148166254546,
Friend.png,You,Friend,m,1.2,14,24,94,,,,,1,0,1,0,,,,,5,1,61,3,,,,,,,,,,,,,,,,,,,,,1.451,1.234,726.5359943000076,None,,,,,,,,,,,,,,,,,,,,727.0782870999828,727.581076500006,0.5046321699628606,1.0055462699674536,727.5643760999956,727.6644386999833,727.5643760999956,727.6644386999833,727.6644386999833,None,m,1,0.765034200012451,727.6644386999833,None,,,,,m,,p6,2022_Mar_17_1134,training+cueing,2021.1.4,59.915148166254546,
Stranger.png,Stranger,Stranger,c,3,13,23,93,,,,,1,0,1,0,,,,,5,2,62,8,,,,,,,,,,,,,,,,,,,,,1.611,1.445,728.5545595999865,None,,,,,,,,,,,,,,,,,,,,729.0953392999945,729.5991428999987,0.506424369988963,1.0068742699804716,729.5825238999969,729.6992004000058,729.5825238999969,729.6992004000058,729.6825555999822,None,c,1,0.7469157000014093,729.6825555999822,None,,,,,m,,p6,2022_Mar_17_1134,training+cueing,2021.1.4,59.915148166254546,
Stranger.png,Friend,Stranger,m,2.3,17,27,97,,,,,1,0,1,0,,,,,5,3,63,7,,,,,,,,,,,,,,,,,,,,,1.725,2.147,730.556371499988,None,,,,,,,,,,,,,,,,,,,,731.1105840999808,731.6173037999833,0.5110031599760987,1.011478159984108,731.6006343000045,731.7173695999954,731.6006343000045,731.7173695999954,731.7006918999832,None,m,1,0.616692299983697,731.7006918999832,None,,,,,m,,p6,2022_Mar_17_1134,training+cueing,2021.1.4,59.915148166254546,
Self.png,Stranger,Self ,m,3.1,18,28,98,,,,,1,0,1,0,,,,,5,4,64,2,,,,,,,,,,,,,,,,,,,,,1.431,2.333,732.441006100009,None,,,,,,,,,,,,,,,,,,,,732.9959806999832,733.5020679000008,0.5129468599916436,1.013151659979485,733.4854042000079,733.602080599987,733.4854042000079,733.602080599987,733.5853802000056,None,m,1,0.7320236999948975,733.5853802000056,None,,,,,m,,p6,2022_Mar_17_1134,training+cueing,2021.1.4,59.915148166254546,
Self.png,You,Self ,c,1,11,21,91,,,,,1,0,1,0,,,,,5,5,65,9,,,,,,,,,,,,,,,,,,,,,1.488,1.274,734.441931599984,None,,,,,,,,,,,,,,,,,,,,734.9817743999884,735.486754099984,0.5101952699769754,1.010485169972526,735.4701161999837,735.5701514999964,735.4701161999837,735.5701514999964,735.5701514999964,None,c,1,0.763332900009118,735.5701514999964,None,,,,,m,,p6,2022_Mar_17_1134,training+cueing,2021.1.4,59.915148166254546,
Stranger.png,You,Stranger,m,1.3,15,25,95,,,,,1,0,1,0,,,,,5,6,66,6,,,,,,,,,,,,,,,,,,,,,1.737,2.124,736.4604199999885,None,,,,,,,,,,,,,,,,,,,,736.9984689999837,737.5050334999978,0.5103969699994195,1.0107965699862689,737.4882171000063,737.5883343000023,737.4882171000063,737.5883343000023,737.5883343000023,None,m,1,0.5691633000096772,737.5883343000023,None,,,,,m,,p6,2022_Mar_17_1134,training+cueing,2021.1.4,59.915148166254546,
Friend.png,Friend,Friend,c,2,12,22,92,,,,,1,0,1,0,,,,,5,7,67,4,,,,,,,,,,,,,,,,,,,,,1.728,1.424,738.2949998999829,None,,,,,,,,,,,,,,,,,,,,738.8369024999847,739.3395835999982,0.5061870699573774,1.0070380699762609,739.322926199995,739.4396140000026,739.322926199995,739.4396140000026,739.4229342000035,None,c,1,0.5107323999982327,739.4229342000035,None,,,,,m,,p6,2022_Mar_17_1134,training+cueing,2021.1.4,59.915148166254546,
Stranger.png,Stranger,Stranger,c,3,13,23,93,,,,,1,0,1,0,,,,,5,8,68,11,,,,,,,,,,,,,,,,,,,,,1.46,1.395,740.0663210999919,None,,,,,,,,,,,,,,,,,,,,740.6179066000041,741.1241965999943,0.5113997599692084,1.011679759976687,741.1075356999936,741.2242329999863,741.1075356999936,741.2242329999863,741.207570300001,None,c,1,0.9498520999914035,741.207570300001,None,,,,,m,,p6,2022_Mar_17_1134,training+cueing,2021.1.4,59.915148166254546,
Friend.png,Friend,Friend,c,2,12,22,92,,,,,1,0,1,0,,,,,5,9,69,10,,,,,,,,,,,,,,,,,,,,,1.415,2.216,742.280914700008,None,,,,,,,,,,,,,,,,,,,,742.8223990999977,743.325789399998,0.5054655699932482,1.0057948699977715,743.3090899999952,743.4258480999852,743.3090899999952,743.4258480999852,743.409138499992,None,None,0,,743.409138499992,None,,,,,m,,p6,2022_Mar_17_1134,training+cueing,2021.1.4,59.915148166254546,
Self.png,You,Self ,c,1,11,21,91,,,,,1,0,1,0,,,,,5,10,70,0,,,,,,,,,,,,,,,,,,,,,1.659,2.27,744.9311115999881,None,,,,,,,,,,,,,,,,,,,,745.4736019999837,745.9777183999831,0.506719669996528,1.0069990699994378,745.9610660999897,746.0611162999994,745.9610660999897,746.0611162999994,746.0611162999994,None,c,1,0.5763974000001326,746.0611162999994,None,,,,,m,,p6,2022_Mar_17_1134,training+cueing,2021.1.4,59.915148166254546,
Self.png,Friend,Self ,m,2.1,16,26,96,,,,,1,0,1,0,,,,,5,11,71,1,,,,,,,,,,,,,,,,,,,,,1.605,1.622,746.7670460999943,None,,,,,,,,,,,,,,,,,,,,747.3063521999866,747.8123734999972,0.5103368700074498,1.0106378700002097,747.7956823999994,747.9124338999973,747.7956823999994,747.9124338999973,747.8957406999834,None,m,1,0.773817000008421,747.8957406999834,None,,,,,m,,p6,2022_Mar_17_1134,training+cueing,2021.1.4,59.915148166254546,
Self.png,Friend,Self ,m,2.1,16,26,96,,,,,1,0,1,0,,,,,6,0,72,1,,,,,,,,,,,,,,,,,,,,,1.479,1.29,748.803122399986,None,,,,,,,,,,,,,,,,,,,,749.342298500007,749.8471630999993,0.5103825699770823,1.0107792699709535,749.8304627999896,749.9472460999968,749.8304627999896,749.9472460999968,749.9305479000031,None,m,1,0.6273368000111077,749.9305479000031,None,,,,,m,,p6,2022_Mar_17_1134,training+cueing,2021.1.4,59.915148166254546,
Stranger.png,You,Stranger,m,1.3,15,25,95,,,,,1,0,1,0,,,,,6,1,73,6,,,,,,,,,,,,,,,,,,,,,1.741,2.027,750.6911022999848,None,,,,,,,,,,,,,,,,,,,,751.2306994999817,751.7319060000009,0.5033013699576259,1.0035692699602805,751.7152163999854,751.8152417999809,751.7152163999854,751.8152417999809,751.8152417999809,None,m,1,0.9661764000193216,751.8152417999809,None,,,,,m,,p6,2022_Mar_17_1134,training+cueing,2021.1.4,59.915148166254546,
Friend.png,Stranger,Friend,m,3.2,19,29,99,,,,,1,0,1,0,,,,,6,2,74,5,,,,,,,,,,,,,,,,,,,,,1.568,2.288,752.9059304999828,None,,,,,,,,,,,,,,,,,,,,753.4466917999962,753.9501676000073,0.5045333699963521,1.0048457699886058,753.933466699993,754.0502118000004,753.933466699993,754.0502118000004,754.0335091000015,None,m,1,0.7000026000023354,754.0335091000015,None,,,,,m,,p6,2022_Mar_17_1134,training+cueing,2021.1.4,59.915148166254546,
Stranger.png,Friend,Stranger,m,2.3,17,27,97,,,,,1,0,1,0,,,,,6,3,75,7,,,,,,,,,,,,,,,,,,,,,1.477,1.51,754.8566280000086,None,,,,,,,,,,,,,,,,,,,,755.3984455000027,755.9015590999916,0.5056681699643377,1.0059446699742693,755.884873700008,756.0016198999947,755.884873700008,756.0016198999947,755.9849392999895,None,m,1,0.7325530000089202,755.9849392999895,None,,,,,m,,p6,2022_Mar_17_1134,training+cueing,2021.1.4,59.915148166254546,
Self.png,You,Self ,c,1,11,21,91,,,,,1,0,1,0,,,,,6,4,76,9,,,,,,,,,,,,,,,,,,,,,1.607,2.321,756.841101900005,None,,,,,,,,,,,,,,,,,,,,757.3816482999828,757.8863520000014,0.5066803700174205,1.00696717001847,757.8696762000036,757.9697422999889,757.8696762000036,757.9697422999889,757.9697422999889,None,c,1,0.5561197000206448,757.9697422999889,None,,,,,m,,p6,2022_Mar_17_1134,training+cueing,2021.1.4,59.915148166254546,
Friend.png,Friend,Friend,c,2,12,22,92,,,,,1,0,1,0,,,,,6,5,77,4,,,,,,,,,,,,,,,,,,,,,1.69,2.208,758.6597469999979,None,,,,,,,,,,,,,,,,,,,,759.2016036999994,759.7043168999953,0.5060465699934866,1.0063428699795622,759.6876540000085,759.8043753000093,759.6876540000085,759.8043753000093,759.7876883999852,None,m,0,0.7218249999859836,759.7876883999852,None,,,,,m,,p6,2022_Mar_17_1134,training+cueing,2021.1.4,59.915148166254546,
Self.png,You,Self ,c,1,11,21,91,,,,,1,0,1,0,,,,,6,6,78,0,,,,,,,,,,,,,,,,,,,,,1.704,1.318,760.644581600005,None,,,,,,,,,,,,,,,,,,,,761.1870839000039,761.6890589999966,0.5054848699946888,1.0057552699872758,761.6724351999874,761.7724644999835,761.6724351999874,761.7724644999835,761.7724644999835,None,c,1,0.5770425999944564,761.7724644999835,None,,,,,m,,p6,2022_Mar_17_1134,training+cueing,2021.1.4,59.915148166254546,
Self.png,Stranger,Self ,m,3.1,18,28,98,,,,,1,0,1,0,,,,,6,7,79,2,,,,,,,,,,,,,,,,,,,,,1.756,1.969,762.4792177999916,None,,,,,,,,,,,,,,,,,,,,763.019679399993,763.5237343999906,0.5060947699530516,1.0064209699630737,763.5070664999948,763.6238160000066,763.5070664999948,763.6238160000066,763.6071322000062,None,m,1,0.726384900015546,763.6071322000062,None,,,,,m,,p6,2022_Mar_17_1134,training+cueing,2021.1.4,59.915148166254546,
Friend.png,You,Friend,m,1.2,14,24,94,,,,,1,0,1,0,,,,,6,8,80,3,,,,,,,,,,,,,,,,,,,,,1.683,1.32,764.4639153000026,None,,,,,,,,,,,,,,,,,,,,765.0048193999974,765.5085532999947,0.5070695699832868,1.0073890699713957,765.4918284000014,765.591894799989,765.4918284000014,765.591894799989,765.591894799989,None,m,1,0.9016533000103664,765.591894799989,None,,,,,m,,p6,2022_Mar_17_1134,training+cueing,2021.1.4,59.915148166254546,
Friend.png,Friend,Friend,c,2,12,22,92,,,,,1,0,1,0,,,,,6,9,81,10,,,,,,,,,,,,,,,,,,,,,1.418,1.384,766.6154681000044,None,,,,,,,,,,,,,,,,,,,,767.1556369999889,767.6601114000077,0.5092613699962385,1.0095891700184438,767.643364699994,767.7601272999891,767.643364699994,767.7601272999891,767.743447099987,None,c,1,0.6540917999809608,767.743447099987,None,,,,,m,,p6,2022_Mar_17_1134,training+cueing,2021.1.4,59.915148166254546,
Stranger.png,Stranger,Stranger,c,3,13,23,93,,,,,1,0,1,0,,,,,6,10,82,11,,,,,,,,,,,,,,,,,,,,,1.501,1.45,768.533927099983,None,,,,,,,,,,,,,,,,,,,,769.0877313999808,769.5948215999815,0.5122056599648204,1.0125826599542052,769.5781414000085,769.6948865999875,769.5781414000085,769.6948865999875,769.6781793999835,None,c,1,1.0235253999999259,769.6781793999835,None,,,,,m,,p6,2022_Mar_17_1134,training+cueing,2021.1.4,59.915148166254546,
Stranger.png,Stranger,Stranger,c,3,13,23,93,,,,,1,0,1,0,,,,,6,11,83,8,,,,,,,,,,,,,,,,,,,,,1.471,1.868,770.8346301999991,None,,,,,,,,,,,,,,,,,,,,771.376343299984,771.8797848999966,0.505708170006983,1.0060123700241093,771.8631153999886,771.9798718999955,771.8631153999886,771.9798718999955,771.9631771999993,None,c,1,0.6742480999964755,771.9631771999993,None,,,,,m,,p6,2022_Mar_17_1134,training+cueing,2021.1.4,59.915148166254546,
Stranger.png,You,Stranger,m,1.3,15,25,95,,,,,1,0,1,0,,,,,7,0,84,6,,,,,,,,,,,,,,,,,,,,,1.433,2.122,772.7701826999837,None,,,,,,,,,,,,,,,,,,,,773.3105284000048,773.8145250999951,0.5062670700135641,1.0065324700262863,773.7979016999889,773.8979238999891,773.7979016999889,773.8979238999891,773.8979238999891,None,m,1,0.6596098000009079,773.8979238999891,None,,,,,m,,p6,2022_Mar_17_1134,training+cueing,2021.1.4,59.915148166254546,
