Image,Name,Face,CorrAns,Match,Face_onset,CResponse_onset,IResponse_onset,Match.thisRepN,Match.thisTrialN,Match.thisN,Match.thisIndex,Blocks.thisRepN,Blocks.thisTrialN,Blocks.thisN,Blocks.thisIndex,trials.thisRepN,trials.thisTrialN,trials.thisN,trials.thisIndex,trials_2.thisRepN,trials_2.thisTrialN,trials_2.thisN,trials_2.thisIndex,text.started,text.stopped,p1.started,p1.stopped,MatchInstructions.started,MatchInstructions.stopped,Name1.started,Name1.stopped,Face_Relevance.started,Face_Relevance.stopped,MismatchInstructions.started,MismatchInstructions.stopped,Rest_trainingInstruct.started,Rest_trainingInstruct.stopped,next8.keys,next8.rt,next8.started,next8.stopped,Ready.started,Ready.stopped,delay_one_picked,delay_two_picked,blank0.started,blank0.stopped,FixationCross1.started,FixationCross1.stopped,Name3.started,Name3.stopped,Face_Relevance3.started,Face_Relevance3.stopped,responseTime.started,responseTime.stopped,resp.keys,resp.corr,resp.started,resp.stopped,Accuracy.started,Accuracy.stopped,resp.rt,questions.started,questions.stopped,p2.started,p2.stopped,FixationCross3.started,FixationCross3.stopped,port_Face_onset.started,port_Face_onset.stopped,Name4.started,Name4.stopped,Face_Relevance4.started,Face_Relevance4.stopped,responseTime2.started,responseTime2.stopped,Response.keys,Response.corr,Response.rt,Response.started,Response.stopped,p3.started,p3.stopped,Finish.started,Finish.stopped,gender,age,participant,date,expName,psychopyVersion,frameRate,
Self.png,You,,,,,,,0,0,0,0,,,,,,,,,,,,,19.885032900143415,None,0.0024539197329431772,0.5204133198130876,32.06214020005427,None,42.36666980013251,None,42.36666980013251,None,,,,,,,,,,,,,,,,,,,,,,,,,,,,,,,,,,,,,,,,,,,,,,,,,,,,,m,,p7,2022_Mar_08_1231,training+cueing,2021.1.4,60.05681370294661,
Stranger.png,Stranger,,,,,,,0,1,1,2,,,,,,,,,,,,,,,,,,,62.26778820017353,None,62.26778820017353,None,,,,,,,,,,,,,,,,,,,,,,,,,,,,,,,,,,,,,,,,,,,,,,,,,,,,,m,,p7,2022_Mar_08_1231,training+cueing,2021.1.4,60.05681370294661,
Friend.png,Friend,,,,,,,0,2,2,1,,,,,,,,,,,,,,,,,,,82.26474840007722,None,82.26474840007722,None,,,,,,,,,,,,,,,,,,,,,,,,,,,,,,,,,,,,,,,,,,,,,,,,,,,,,m,,p7,2022_Mar_08_1231,training+cueing,2021.1.4,60.05681370294661,
Self.png,Stranger,Self ,m,3.1,18,28,98,,,,,0,0,0,0,0,0,0,2,,,,,,,,,,,,,,,102.22975250007585,None,160.17170730000362,None,space,0.13300830009393394,2.0086645900737494,None,162.32147530000657,None,1.56,1.713,165.33240280020982,None,165.97638800018467,166.47636500000954,166.47636500000954,166.5763944000937,166.47636500000954,166.5763944000937,166.5763944000937,None,None,0,166.5763944000937,None,168.14370240014978,None,,,,,,,,,,,,,,,,,,,,,,,,,m,,p7,2022_Mar_08_1231,training+cueing,2021.1.4,60.05681370294661,
Friend.png,Stranger,Friend,m,3.2,19,29,99,,,,,0,0,0,0,0,1,1,5,,,,,,,,,,,,,,,,,,,,,,,,,1.798,2.174,168.54446030012332,None,169.07292070006952,169.57841860014014,169.56181470002048,169.67847460019402,169.56181470002048,169.67847460019402,169.66178760002367,None,m,1,169.66178760002367,None,171.02910819998942,None,1.3479949999600649,,,,,,,,,,,,,,,,,,,,,,,,m,,p7,2022_Mar_08_1231,training+cueing,2021.1.4,60.05681370294661,
Friend.png,Friend,Friend,c,2,12,22,92,,,,,0,0,0,0,0,2,2,10,,,,,,,,,,,,,,,,,,,,,,,,,1.515,1.344,171.42962680011988,None,171.96477610012516,172.4639002000913,172.4639002000913,172.56465050019324,172.4639002000913,172.56465050019324,172.56465050019324,None,c,1,172.56465050019324,None,173.93141459999606,None,1.3409734999295324,,,,,,,,,,,,,,,,,,,,,,,,m,,p7,2022_Mar_08_1231,training+cueing,2021.1.4,60.05681370294661,
Stranger.png,Stranger,Stranger,c,3,13,23,93,,,,,0,0,0,0,0,3,3,11,,,,,,,,,,,,,,,,,,,,,,,,,1.415,1.474,174.33208810002543,None,174.87765420018695,175.38339060009457,175.36528989998624,175.48292220011353,175.36528989998624,175.48292220011353,175.46619940013625,None,m,0,175.46619940013625,None,176.57989639998414,None,1.0797502000350505,,,,,,,,,,,,,,,,,,,,,,,,m,,p7,2022_Mar_08_1231,training+cueing,2021.1.4,60.05681370294661,
Stranger.png,You,Stranger,m,1.3,15,25,95,,,,,0,0,0,0,0,4,4,6,,,,,,,,,,,,,,,,,,,,,,,,,1.495,2.19,176.98394230008125,None,177.52312260004692,178.03456760011613,178.018055499997,178.11783390003256,178.018055499997,178.11783390003256,178.11783390003256,None,c,0,178.11783390003256,None,179.55542640015483,None,1.4200691001024097,,,,,,,,,,,,,,,,,,,,,,,,m,,p7,2022_Mar_08_1231,training+cueing,2021.1.4,60.05681370294661,
Self.png,Friend,Self ,m,2.1,16,26,96,,,,,0,0,0,0,0,5,5,1,,,,,,,,,,,,,,,,,,,,,,,,,1.711,2.354,179.96949510020204,None,180.50697220000438,181.02006850019097,181.00331420009024,181.120010800194,181.00331420009024,181.120010800194,181.10338950017467,None,None,0,181.10338950017467,None,182.82131330017,None,,,,,,,,,,,,,,,,,,,,,,,,,m,,p7,2022_Mar_08_1231,training+cueing,2021.1.4,60.05681370294661,
Stranger.png,Stranger,Stranger,c,3,13,23,93,,,,,0,0,0,0,0,6,6,8,,,,,,,,,,,,,,,,,,,,,,,,,1.771,2.078,183.22164200013503,None,183.7634158001747,184.27232570014894,184.2551888001617,184.3724984000437,184.2551888001617,184.3724984000437,184.3558364000637,None,None,0,184.3558364000637,None,186.13963790005073,None,,,,,,,,,,,,,,,,,,,,,,,,,m,,p7,2022_Mar_08_1231,training+cueing,2021.1.4,60.05681370294661,
Self.png,You,Self ,c,1,11,21,91,,,,,0,0,0,0,0,7,7,9,,,,,,,,,,,,,,,,,,,,,,,,,1.612,1.319,186.54058110015467,None,187.0941465999931,187.6079078000039,187.59157590009272,187.69150539999828,187.59157590009272,187.69150539999828,187.69150539999828,None,c,1,187.69150539999828,None,188.50770210009068,None,0.7901202000211924,,,,,,,,,,,,,,,,,,,,,,,,m,,p7,2022_Mar_08_1231,training+cueing,2021.1.4,60.05681370294661,
Self.png,You,Self ,c,1,11,21,91,,,,,0,0,0,0,0,8,8,0,,,,,,,,,,,,,,,,,,,,,,,,,1.766,1.267,188.90977790020406,None,189.44335260009393,189.9432701000478,189.9432701000478,190.0433139000088,189.9432701000478,190.0433139000088,190.0433139000088,None,c,1,190.0433139000088,None,190.7252539000474,None,0.6623330998700112,,,,,,,,,,,,,,,,,,,,,,,,m,,p7,2022_Mar_08_1231,training+cueing,2021.1.4,60.05681370294661,
Friend.png,Friend,Friend,c,2,12,22,92,,,,,0,0,0,0,0,9,9,4,,,,,,,,,,,,,,,,,,,,,,,,,1.66,1.489,191.12745100003667,None,191.67840690002777,192.1781137001235,192.16140460013412,192.27815530006774,192.16140460013412,192.27815530006774,192.27815530006774,None,None,0,192.27815530006774,None,193.95628250017762,None,,,,,,,,,,,,,,,,,,,,,,,,,m,,p7,2022_Mar_08_1231,training+cueing,2021.1.4,60.05681370294661,
Stranger.png,Friend,Stranger,m,2.3,17,27,97,,,,,0,0,0,0,0,10,10,7,,,,,,,,,,,,,,,,,,,,,,,,,1.411,1.748,194.36366310017183,None,194.89251819998026,195.39731370005757,195.38055390003137,195.49699250003323,195.38055390003137,195.49699250003323,195.48020640015602,None,m,1,195.48020640015602,None,196.4977437001653,None,0.9854717999696732,,,,,,,,,,,,,,,,,,,,,,,,m,,p7,2022_Mar_08_1231,training+cueing,2021.1.4,60.05681370294661,
Friend.png,You,Friend,m,1.2,14,24,94,,,,,0,0,0,0,0,11,11,3,,,,,,,,,,,,,,,,,,,,,,,,,1.476,2.03,196.89823450008407,None,197.42413659999147,197.93242259998806,197.9157730001025,198.01583960000426,197.9157730001025,198.01583960000426,198.01583960000426,None,m,1,198.01583960000426,None,199.2830914000515,None,1.2497074001003057,,,,,,,,,,,,,,,,,,,,,,,,m,,p7,2022_Mar_08_1231,training+cueing,2021.1.4,60.05681370294661,
Stranger.png,Friend,Stranger,m,2.3,17,27,97,,,,,0,0,0,0,,,,,0,0,0,7,,,,,,,,,,,,,,,,,,,245.6664933001157,None,1.518,1.606,249.18765279999934,None,,,,,,,,,,,,,,,,199.68369200010784,None,0.014328790362924337,0.5125972903333604,249.82004070002586,250.320298000006,0.49925980996340513,0.9993240099865943,250.30346429999918,250.41999140009284,250.30346429999918,250.41999140009284,250.41999140009284,None,m,1,1.1654711000155658,250.41999140009284,None,,,,,m,,p7,2022_Mar_08_1231,training+cueing,2021.1.4,60.05681370294661,
Stranger.png,Stranger,Stranger,c,3,13,23,93,,,,,0,0,0,0,,,,,0,1,1,8,,,,,,,,,,,,,,,,,,,,,1.546,1.247,251.71118840016425,None,,,,,,,,,,,,,,,,,,,,252.2634848000016,252.77172030019574,0.49950586003251374,0.9999343601521105,252.73849270003848,252.83850349998102,252.73849270003848,252.83850349998102,252.83850349998102,None,m,0,1.3711394001729786,252.83850349998102,None,,,,,m,,p7,2022_Mar_08_1231,training+cueing,2021.1.4,60.05681370294661,
Self.png,You,Self ,c,1,11,21,91,,,,,0,0,0,0,,,,,0,2,2,9,,,,,,,,,,,,,,,,,,,,,1.508,1.797,254.34661460015923,None,,,,,,,,,,,,,,,,,,,,254.88412980013527,255.39051470020786,0.5128809702582657,1.0131348702125251,255.37380570010282,255.47359060007147,255.37380570010282,255.47359060007147,255.47359060007147,None,c,1,1.0238743000663817,255.47359060007147,None,,,,,m,,p7,2022_Mar_08_1231,training+cueing,2021.1.4,60.05681370294661,
Stranger.png,Stranger,Stranger,c,3,13,23,93,,,,,0,0,0,0,,,,,0,3,3,11,,,,,,,,,,,,,,,,,,,,,1.784,1.284,256.6304154000245,None,,,,,,,,,,,,,,,,,,,,257.1690810001455,257.67531489999965,0.510033970233053,1.0103710701223463,257.6585809001699,257.7753854000475,257.6585809001699,257.7753854000475,257.7586907001678,None,m,0,0.8029922000132501,257.7586907001678,None,,,,,m,,p7,2022_Mar_08_1231,training+cueing,2021.1.4,60.05681370294661,
Friend.png,You,Friend,m,1.2,14,24,94,,,,,0,0,0,0,,,,,0,4,4,3,,,,,,,,,,,,,,,,,,,,,1.427,1.296,258.69974440010265,None,,,,,,,,,,,,,,,,,,,,259.238385300152,259.7435352001339,0.5093401700723916,1.010322670219466,259.7268236000091,259.82683160016313,259.7268236000091,259.82683160016313,259.82683160016313,None,None,0,,259.82683160016313,None,,,,,m,,p7,2022_Mar_08_1231,training+cueing,2021.1.4,60.05681370294661,
Stranger.png,You,Stranger,m,1.3,15,25,95,,,,,0,0,0,0,,,,,0,5,5,6,,,,,,,,,,,,,,,,,,,,,1.508,2.01,261.3679024002049,None,,,,,,,,,,,,,,,,,,,,261.91576060000807,262.42853550007567,0.5086224700789899,1.0093468700069934,262.4119096000213,262.5124981000554,262.4119096000213,262.5124981000554,262.5124981000554,None,c,0,1.2649224000051618,262.5124981000554,None,,,,,m,,p7,2022_Mar_08_1231,training+cueing,2021.1.4,60.05681370294661,
Friend.png,Stranger,Friend,m,3.2,19,29,99,,,,,0,0,0,0,,,,,0,6,6,5,,,,,,,,,,,,,,,,,,,,,1.579,1.666,263.9025272000581,None,,,,,,,,,,,,,,,,,,,,264.44820079999045,264.94723270018585,0.5123253697529435,1.0125880697742105,264.94723270018585,265.0473573000636,264.94723270018585,265.0473573000636,265.0473573000636,None,m,1,0.842149900039658,265.0473573000636,None,,,,,m,,p7,2022_Mar_08_1231,training+cueing,2021.1.4,60.05681370294661,
Self.png,Stranger,Self ,m,3.1,18,28,98,,,,,0,0,0,0,,,,,0,7,7,2,,,,,,,,,,,,,,,,,,,,,1.602,2.445,266.0203388000373,None,,,,,,,,,,,,,,,,,,,,266.5948411000427,267.0988971001934,0.5075055500492454,1.008811849867925,267.0811472001951,267.199015900027,267.0811472001951,267.199015900027,267.1822538000997,None,None,0,,267.1822538000997,None,,,,,m,,p7,2022_Mar_08_1231,training+cueing,2021.1.4,60.05681370294661,
Self.png,You,Self ,c,1,11,21,91,,,,,0,0,0,0,,,,,0,8,8,0,,,,,,,,,,,,,,,,,,,,,1.542,1.924,268.9035290000029,None,,,,,,,,,,,,,,,,,,,,269.4434709001798,269.9508532001637,0.5121729697566479,1.012443269835785,269.9339519001078,270.0342270000838,269.9339519001078,270.0342270000838,270.0342270000838,None,c,1,0.7994544000830501,270.0342270000838,None,,,,,m,,p7,2022_Mar_08_1231,training+cueing,2021.1.4,60.05681370294661,
Friend.png,Friend,Friend,c,2,12,22,92,,,,,0,0,0,0,,,,,0,9,9,4,,,,,,,,,,,,,,,,,,,,,1.615,1.337,270.9615017999895,None,,,,,,,,,,,,,,,,,,,,271.49781550001353,272.00251760007814,0.5085745702963322,1.0088456701487303,271.9858449001331,272.1026557001751,271.9858449001331,272.1026557001751,272.0856361000333,None,m,0,1.0201087000314146,272.0856361000333,None,,,,,m,,p7,2022_Mar_08_1231,training+cueing,2021.1.4,60.05681370294661,
Friend.png,Friend,Friend,c,2,12,22,92,,,,,0,0,0,0,,,,,0,10,10,10,,,,,,,,,,,,,,,,,,,,,1.466,1.658,273.2298046001233,None,,,,,,,,,,,,,,,,,,,,273.78200180013664,274.2871338000987,0.5097068601753563,1.0109212601091713,274.2704453000333,274.38720400002785,274.2704453000333,274.38720400002785,274.3704464000184,None,m,0,1.119381200056523,274.3704464000184,None,,,,,m,,p7,2022_Mar_08_1231,training+cueing,2021.1.4,60.05681370294661,
Self.png,Friend,Self ,m,2.1,16,26,96,,,,,0,0,0,0,,,,,0,11,11,1,,,,,,,,,,,,,,,,,,,,,1.651,1.277,275.61446250020526,None,,,,,,,,,,,,,,,,,,,,276.14684370020404,276.6554922000505,0.5143205700442195,1.0145156702492386,276.63890510005876,276.75574619998224,276.63890510005876,276.75574619998224,276.73907670006156,None,m,1,1.5823269998654723,276.73907670006156,None,,,,,m,,p7,2022_Mar_08_1231,training+cueing,2021.1.4,60.05681370294661,
Stranger.png,Friend,Stranger,m,2.3,17,27,97,,,,,0,0,0,0,,,,,1,0,12,7,,,,,,,,,,,,,,,,,,,,,1.554,2.426,278.4463345000986,None,,,,,,,,,,,,,,,,,,,,279.00607040012255,279.50771460006945,0.5044255601242185,1.0053076602052897,279.4911087001674,279.6078432002105,279.4911087001674,279.6078432002105,279.5910950000398,None,None,0,,279.5910950000398,None,,,,,m,,p7,2022_Mar_08_1231,training+cueing,2021.1.4,60.05681370294661,
Stranger.png,Stranger,Stranger,c,3,13,23,93,,,,,0,0,0,0,,,,,1,1,13,11,,,,,,,,,,,,,,,,,,,,,1.428,2.122,281.2657981000375,None,,,,,,,,,,,,,,,,,,,,281.8312709000893,282.3433135000523,0.5063414599280804,1.00665926001966,282.3264394002035,282.44332429999486,282.3264394002035,282.44332429999486,282.4266648001503,None,None,0,,282.4266648001503,None,,,,,m,,p7,2022_Mar_08_1231,training+cueing,2021.1.4,60.05681370294661,
Stranger.png,Stranger,Stranger,c,3,13,23,93,,,,,0,0,0,0,,,,,1,2,14,8,,,,,,,,,,,,,,,,,,,,,1.716,1.996,283.9651064001955,None,,,,,,,,,,,,,,,,,,,,284.51153390016407,285.01174770016223,0.514933770056814,1.0154231700580567,285.01174770016223,285.111997500062,285.01174770016223,285.111997500062,285.111997500062,None,None,0,,285.111997500062,None,,,,,m,,p7,2022_Mar_08_1231,training+cueing,2021.1.4,60.05681370294661,
Self.png,You,Self ,c,1,11,21,91,,,,,0,0,0,0,,,,,1,3,15,0,,,,,,,,,,,,,,,,,,,,,1.446,2.202,286.9347441000864,None,,,,,,,,,,,,,,,,,,,,287.49559150007553,287.99703900003806,0.5043885600753129,1.0047448601108044,287.98042879998684,288.08041420020163,287.98042879998684,288.08041420020163,288.08041420020163,None,c,1,0.785336900036782,288.08041420020163,None,,,,,m,,p7,2022_Mar_08_1231,training+cueing,2021.1.4,60.05681370294661,
Self.png,Friend,Self ,m,2.1,16,26,96,,,,,0,0,0,0,,,,,1,4,16,1,,,,,,,,,,,,,,,,,,,,,1.443,1.575,288.990736000007,None,,,,,,,,,,,,,,,,,,,,289.5430360001046,290.04862550017424,0.5094845599960536,1.0104603599756956,290.03200020012446,290.1487349001691,290.03200020012446,290.1487349001691,290.1320180001203,None,c,0,0.6215458000078797,290.1320180001203,None,,,,,m,,p7,2022_Mar_08_1231,training+cueing,2021.1.4,60.05681370294661,
Self.png,You,Self ,c,1,11,21,91,,,,,0,0,0,0,,,,,1,5,17,9,,,,,,,,,,,,,,,,,,,,,1.572,2.42,290.8898227000609,None,,,,,,,,,,,,,,,,,,,,291.43862950010225,291.9497996000573,0.5050775702111423,1.005553370108828,291.93320189998485,292.0333087001927,291.93320189998485,292.0333087001927,292.0333087001927,None,c,1,0.8480421002022922,292.0333087001927,None,,,,,m,,p7,2022_Mar_08_1231,training+cueing,2021.1.4,60.05681370294661,
Stranger.png,You,Stranger,m,1.3,15,25,95,,,,,0,0,0,0,,,,,1,6,18,6,,,,,,,,,,,,,,,,,,,,,1.791,1.494,293.00649680010974,None,,,,,,,,,,,,,,,,,,,,293.55795390019193,294.06827240018174,0.5036902700085193,1.0039478701073676,294.05161920003593,294.151735200081,294.05161920003593,294.151735200081,294.151735200081,None,m,1,0.7456784001551569,294.151735200081,None,,,,,m,,p7,2022_Mar_08_1231,training+cueing,2021.1.4,60.05681370294661,
Friend.png,Stranger,Friend,m,3.2,19,29,99,,,,,0,0,0,0,,,,,1,7,19,5,,,,,,,,,,,,,,,,,,,,,1.495,2.435,295.0246952001471,None,,,,,,,,,,,,,,,,,,,,295.59054840006866,296.102919400204,0.5064425601158291,1.0074850600212812,296.0863688001409,296.20302200014703,296.0863688001409,296.20302200014703,296.1863921000622,None,None,0,,296.1863921000622,None,,,,,m,,p7,2022_Mar_08_1231,training+cueing,2021.1.4,60.05681370294661,
Friend.png,Friend,Friend,c,2,12,22,92,,,,,0,0,0,0,,,,,1,8,20,10,,,,,,,,,,,,,,,,,,,,,1.779,2.098,297.7937031001784,None,,,,,,,,,,,,,,,,,,,,298.3319961000234,298.8381778001785,0.511731670005247,1.0125111700035632,298.821501100203,298.92177970008925,298.821501100203,298.92177970008925,298.92177970008925,None,None,0,,298.92177970008925,None,,,,,m,,p7,2022_Mar_08_1231,training+cueing,2021.1.4,60.05681370294661,
Friend.png,Friend,Friend,c,2,12,22,92,,,,,0,0,0,0,,,,,1,9,21,4,,,,,,,,,,,,,,,,,,,,,1.421,1.286,300.8102669999935,None,,,,,,,,,,,,,,,,,,,,301.3620335999876,301.8737137999851,0.5061640699859709,1.006700969999656,301.8570232000202,301.9737752000801,301.8570232000202,301.9737752000801,301.95723090018146,None,c,1,1.2122546001337469,301.95723090018146,None,,,,,m,,p7,2022_Mar_08_1231,training+cueing,2021.1.4,60.05681370294661,
Self.png,Stranger,Self ,m,3.1,18,28,98,,,,,0,0,0,0,,,,,1,10,22,2,,,,,,,,,,,,,,,,,,,,,1.71,1.906,303.2975260000676,None,,,,,,,,,,,,,,,,,,,,303.8529128001537,304.3590500000864,0.5101974599529058,1.010285260155797,304.34228079998866,304.4590493000578,304.34228079998866,304.4590493000578,304.44234429998323,None,m,1,1.0149912000633776,304.44234429998323,None,,,,,m,,p7,2022_Mar_08_1231,training+cueing,2021.1.4,60.05681370294661,
Friend.png,You,Friend,m,1.2,14,24,94,,,,,0,0,0,0,,,,,1,11,23,3,,,,,,,,,,,,,,,,,,,,,1.465,2.277,305.5827321000397,None,,,,,,,,,,,,,,,,,,,,306.1349626001902,306.6416504001245,0.5009950699750334,1.0012313697952777,306.6273298000451,306.72714870003983,306.6273298000451,306.72714870003983,306.72714870003983,None,m,1,1.1463707000948489,306.72714870003983,None,,,,,m,,p7,2022_Mar_08_1231,training+cueing,2021.1.4,60.05681370294661,
Friend.png,Stranger,Friend,m,3.2,19,29,99,,,,,0,0,0,0,,,,,2,0,24,5,,,,,,,,,,,,,,,,,,,,,1.664,2.289,308.00240550003946,None,,,,,,,,,,,,,,,,,,,,308.55567290005274,309.0624077001121,0.5108541599474847,1.0110940600279719,309.04576340015046,309.1624629001599,309.04576340015046,309.1624629001599,309.14578960021026,None,m,1,1.4477554999757558,309.14578960021026,None,,,,,m,,p7,2022_Mar_08_1231,training+cueing,2021.1.4,60.05681370294661,
Stranger.png,Friend,Stranger,m,2.3,17,27,97,,,,,0,0,0,0,,,,,2,1,25,7,,,,,,,,,,,,,,,,,,,,,1.504,2.46,310.7202235001605,None,,,,,,,,,,,,,,,,,,,,311.2883542000782,311.79790880018845,0.5040743600111455,1.0043141599744558,311.781268700026,311.89799810014665,311.781268700026,311.89799810014665,311.8812597000506,None,c,0,1.3042639000341296,311.8812597000506,None,,,,,m,,p7,2022_Mar_08_1231,training+cueing,2021.1.4,60.05681370294661,
Self.png,Stranger,Self ,m,3.1,18,28,98,,,,,0,0,0,0,,,,,2,2,26,2,,,,,,,,,,,,,,,,,,,,,1.769,1.609,313.32225930015557,None,,,,,,,,,,,,,,,,,,,,313.878938900074,314.3830411999952,0.5100858600344509,1.0104780599940568,314.3661858001724,314.48281950014643,314.3661858001724,314.48281950014643,314.4664117000066,None,m,1,0.9271566001698375,314.4664117000066,None,,,,,m,,p7,2022_Mar_08_1231,training+cueing,2021.1.4,60.05681370294661,
Stranger.png,Stranger,Stranger,c,3,13,23,93,,,,,0,0,0,0,,,,,2,3,27,11,,,,,,,,,,,,,,,,,,,,,1.42,2.032,315.5242138002068,None,,,,,,,,,,,,,,,,,,,,316.0652034000959,316.56771530001424,0.504933969816193,1.0055567699018866,316.55102960020304,316.66795000014827,316.55102960020304,316.66795000014827,316.6510473000817,None,m,0,1.1103697998914868,316.6510473000817,None,,,,,m,,p7,2022_Mar_08_1231,training+cueing,2021.1.4,60.05681370294661,
Stranger.png,You,Stranger,m,1.3,15,25,95,,,,,0,0,0,0,,,,,2,4,28,6,,,,,,,,,,,,,,,,,,,,,1.71,2.195,317.8920395001769,None,,,,,,,,,,,,,,,,,,,,318.45132860005833,318.952896800125,0.5028301600832492,1.0036562599707395,318.93625230016187,319.03647510008886,318.93625230016187,319.03647510008886,319.03647510008886,None,c,0,0.9649138001259416,319.03647510008886,None,,,,,m,,p7,2022_Mar_08_1231,training+cueing,2021.1.4,60.05681370294661,
Friend.png,Friend,Friend,c,2,12,22,92,,,,,0,0,0,0,,,,,2,5,29,10,,,,,,,,,,,,,,,,,,,,,1.574,1.919,320.12682750006206,None,,,,,,,,,,,,,,,,,,,,320.69512400007807,321.20471250009723,0.5022796599660069,1.0023249599616975,321.1880332001019,321.3046950001735,321.1880332001019,321.3046950001735,321.2880526999943,None,m,0,0.7293351001571864,321.2880526999943,None,,,,,m,,p7,2022_Mar_08_1231,training+cueing,2021.1.4,60.05681370294661,
Friend.png,Friend,Friend,c,2,12,22,92,,,,,0,0,0,0,,,,,2,6,30,4,,,,,,,,,,,,,,,,,,,,,1.483,2.468,322.14490579999983,None,,,,,,,,,,,,,,,,,,,,322.696356800152,323.20592460012995,0.49977826001122594,1.0005652599502355,323.1723643001169,323.27324620005675,323.1723643001169,323.27324620005675,323.27324620005675,None,None,0,,323.27324620005675,None,,,,,m,,p7,2022_Mar_08_1231,training+cueing,2021.1.4,60.05681370294661,
Friend.png,You,Friend,m,1.2,14,24,94,,,,,0,0,0,0,,,,,2,7,31,3,,,,,,,,,,,,,,,,,,,,,1.513,2.482,324.8609982000198,None,,,,,,,,,,,,,,,,,,,,325.4086003000848,325.907807599986,0.5144149698317051,1.0147730698809028,325.907807599986,326.0079774002079,325.907807599986,326.0079774002079,326.0079774002079,None,None,0,,326.0079774002079,None,,,,,m,,p7,2022_Mar_08_1231,training+cueing,2021.1.4,60.05681370294661,
Self.png,You,Self ,c,1,11,21,91,,,,,0,0,0,0,,,,,2,8,32,9,,,,,,,,,,,,,,,,,,,,,1.54,2.284,327.6325134001672,None,,,,,,,,,,,,,,,,,,,,328.1700995999854,328.67676610010676,0.5100711700506508,1.011422769865021,328.65874169999734,328.7600723002106,328.65874169999734,328.7600723002106,328.7600723002106,None,c,1,1.0173942998517305,328.7600723002106,None,,,,,m,,p7,2022_Mar_08_1231,training+cueing,2021.1.4,60.05681370294661,
Stranger.png,Stranger,Stranger,c,3,13,23,93,,,,,0,0,0,0,,,,,2,9,33,8,,,,,,,,,,,,,,,,,,,,,1.527,1.33,329.8990686000325,None,,,,,,,,,,,,,,,,,,,,330.4389593000524,330.94518100004643,0.5113320699892938,1.0115586700849235,330.92852270021103,331.0452021001838,330.92852270021103,331.0452021001838,331.0285000000149,None,None,0,,331.0285000000149,None,,,,,m,,p7,2022_Mar_08_1231,training+cueing,2021.1.4,60.05681370294661,
Self.png,You,Self ,c,1,11,21,91,,,,,0,0,0,0,,,,,2,10,34,0,,,,,,,,,,,,,,,,,,,,,1.74,1.794,332.6777445001062,None,,,,,,,,,,,,,,,,,,,,333.20787900011055,333.7137072000187,0.5097902701236308,1.0100122701842338,333.697072400013,333.79686920018867,333.697072400013,333.79686920018867,333.79686920018867,None,c,1,0.860573599813506,333.79686920018867,None,,,,,m,,p7,2022_Mar_08_1231,training+cueing,2021.1.4,60.05681370294661,
Self.png,Friend,Self ,m,2.1,16,26,96,,,,,0,0,0,0,,,,,2,11,35,1,,,,,,,,,,,,,,,,,,,,,1.648,2.276,334.78835809999146,None,,,,,,,,,,,,,,,,,,,,335.3388118001167,335.84832260012627,0.4992934602778405,0.9997093603014946,335.81491399998777,335.9157761000097,335.81491399998777,335.9157761000097,335.9157761000097,None,m,1,0.7575852000154555,335.9157761000097,None,,,,,m,,p7,2022_Mar_08_1231,training+cueing,2021.1.4,60.05681370294661,
Stranger.png,Friend,Stranger,m,2.3,17,27,97,,,,,0,0,0,0,,,,,3,0,36,7,,,,,,,,,,,,,,,,,,,,,1.792,2.385,336.8049090001732,None,,,,,,,,,,,,,,,,,,,,337.3501139001455,337.85008070012555,0.5009319698438048,1.0009932699613273,337.83335139998235,337.9501045001671,337.83335139998235,337.9501045001671,337.9501045001671,None,c,0,1.3473314999137074,337.9501045001671,None,,,,,m,,p7,2022_Mar_08_1231,training+cueing,2021.1.4,60.05681370294661,
Self.png,Stranger,Self ,m,3.1,18,28,98,,,,,0,0,0,0,,,,,3,1,37,2,,,,,,,,,,,,,,,,,,,,,1.426,2.085,339.42303970013745,None,,,,,,,,,,,,,,,,,,,,339.96654790011235,340.4685573000461,0.5042740700300783,1.0042615700513124,340.45186000014655,340.56855750014074,340.45186000014655,340.56855750014074,340.55190660012886,None,m,1,0.8897651000879705,340.55190660012886,None,,,,,m,,p7,2022_Mar_08_1231,training+cueing,2021.1.4,60.05681370294661,
Stranger.png,Stranger,Stranger,c,3,13,23,93,,,,,0,0,0,0,,,,,3,2,38,11,,,,,,,,,,,,,,,,,,,,,1.716,2.355,341.5749333000276,None,,,,,,,,,,,,,,,,,,,,342.1116705001332,342.61977079999633,0.5147265701089054,1.0150037701241672,342.6030978001654,342.7200174999889,342.6030978001654,342.7200174999889,342.70329490001313,None,m,0,1.3301417999900877,342.70329490001313,None,,,,,m,,p7,2022_Mar_08_1231,training+cueing,2021.1.4,60.05681370294661,
Stranger.png,Stranger,Stranger,c,3,13,23,93,,,,,0,0,0,0,,,,,3,3,39,8,,,,,,,,,,,,,,,,,,,,,1.51,1.259,344.1612339001149,None,,,,,,,,,,,,,,,,,,,,344.7111724000424,345.2217337000184,0.5039653698913753,1.0043163700029254,345.2051314001437,345.32192420004867,345.2051314001437,345.32192420004867,345.3051662000362,None,None,0,,345.3051662000362,None,,,,,m,,p7,2022_Mar_08_1231,training+cueing,2021.1.4,60.05681370294661,
Self.png,You,Self ,c,1,11,21,91,,,,,0,0,0,0,,,,,3,4,40,0,,,,,,,,,,,,,,,,,,,,,1.44,1.711,346.9274356001988,None,,,,,,,,,,,,,,,,,,,,347.47014730004594,347.97380490018986,0.5050223697908223,1.0053084697574377,347.9569472000003,348.0569765002001,347.9569472000003,348.0569765002001,348.0569765002001,None,c,1,0.7924627000465989,348.0569765002001,None,,,,,m,,p7,2022_Mar_08_1231,training+cueing,2021.1.4,60.05681370294661,
Friend.png,Friend,Friend,c,2,12,22,92,,,,,0,0,0,0,,,,,3,5,41,10,,,,,,,,,,,,,,,,,,,,,1.781,1.271,348.980599100003,None,,,,,,,,,,,,,,,,,,,,349.5188188001048,350.02512020012364,0.511926970211789,1.0131708702538162,350.0084203002043,350.12529880017973,350.0084203002043,350.12529880017973,350.10863780020736,None,m,0,0.9328068001195788,350.10863780020736,None,,,,,m,,p7,2022_Mar_08_1231,training+cueing,2021.1.4,60.05681370294661,
Friend.png,Stranger,Friend,m,3.2,19,29,99,,,,,0,0,0,0,,,,,3,6,42,5,,,,,,,,,,,,,,,,,,,,,1.56,2.171,351.166314400034,None,,,,,,,,,,,,,,,,,,,,351.71449510008097,352.22688790014945,0.5070240700151771,1.0072036699857563,352.2102010999806,352.32694300008006,352.2102010999806,352.32694300008006,352.31021020002663,None,m,1,1.1794535999651998,352.31021020002663,None,,,,,m,,p7,2022_Mar_08_1231,training+cueing,2021.1.4,60.05681370294661,
Friend.png,Friend,Friend,c,2,12,22,92,,,,,0,0,0,0,,,,,3,7,43,4,,,,,,,,,,,,,,,,,,,,,1.614,1.602,353.6208550001029,None,,,,,,,,,,,,,,,,,,,,354.17204700014554,354.6786487000063,0.5121233600657433,1.0127793599385768,354.66199440020137,354.7786521001253,354.66199440020137,354.7786521001253,354.76202840008773,None,c,1,1.2237919999752194,354.76202840008773,None,,,,,m,,p7,2022_Mar_08_1231,training+cueing,2021.1.4,60.05681370294661,
Self.png,Friend,Self ,m,2.1,16,26,96,,,,,0,0,0,0,,,,,3,8,44,1,,,,,,,,,,,,,,,,,,,,,1.793,1.69,356.1199002000503,None,,,,,,,,,,,,,,,,,,,,356.6788562000729,357.18040410010144,0.5045523601584136,1.0056937602348626,357.1636139000766,357.28041030000895,357.1636139000766,357.28041030000895,357.2638242000248,None,None,0,,357.2638242000248,None,,,,,m,,p7,2022_Mar_08_1231,training+cueing,2021.1.4,60.05681370294661,
Friend.png,You,Friend,m,1.2,14,24,94,,,,,0,0,0,0,,,,,3,9,45,3,,,,,,,,,,,,,,,,,,,,,1.409,1.245,359.1702829001006,None,,,,,,,,,,,,,,,,,,,,359.70930070010945,360.21591510018334,0.5131314699538052,1.0135972700081766,360.1993124000728,360.2993283001706,360.1993124000728,360.2993283001706,360.2993283001706,None,m,1,0.7739532999694347,360.2993283001706,None,,,,,m,,p7,2022_Mar_08_1231,training+cueing,2021.1.4,60.05681370294661,
Self.png,You,Self ,c,1,11,21,91,,,,,0,0,0,0,,,,,3,10,46,9,,,,,,,,,,,,,,,,,,,,,1.405,2.221,361.20547620020807,None,,,,,,,,,,,,,,,,,,,,361.7527143000625,362.26742260018364,0.5103525700978935,1.0107235701289028,362.25076339999214,362.35082760010846,362.25076339999214,362.35082760010846,362.35082760010846,None,c,1,0.5626935001928359,362.35082760010846,None,,,,,m,,p7,2022_Mar_08_1231,training+cueing,2021.1.4,60.05681370294661,
Stranger.png,You,Stranger,m,1.3,15,25,95,,,,,0,0,0,0,,,,,3,11,47,6,,,,,,,,,,,,,,,,,,,,,1.499,1.38,363.0413505001925,None,,,,,,,,,,,,,,,,,,,,363.5813659999985,364.085642100079,0.5076250701677054,1.008367570117116,364.0690173001494,364.16895960015245,364.0690173001494,364.16895960015245,364.16895960015245,None,m,1,0.7604720999952406,364.16895960015245,None,,,,,m,,p7,2022_Mar_08_1231,training+cueing,2021.1.4,60.05681370294661,
Self.png,Friend,Self ,m,2.1,16,26,96,,,,,0,0,0,0,,,,,4,0,48,1,,,,,,,,,,,,,,,,,,,,,1.624,1.349,365.06417999998666,None,,,,,,,,,,,,,,,,,,,,365.59858270012774,366.1033770001959,0.5077488699462265,1.0080233700573444,366.08684690017253,366.20362580008805,366.08684690017253,366.20362580008805,366.1868838001974,None,c,0,0.5664568000938743,366.1868838001974,None,,,,,m,,p7,2022_Mar_08_1231,training+cueing,2021.1.4,60.05681370294661,
Self.png,Stranger,Self ,m,3.1,18,28,98,,,,,0,0,0,0,,,,,4,1,49,2,,,,,,,,,,,,,,,,,,,,,1.542,1.858,366.8766507001128,None,,,,,,,,,,,,,,,,,,,,367.4160780000966,367.9213967001997,0.5098464698530734,1.0104779698885977,367.904725600034,368.0218115001917,367.904725600034,368.0218115001917,368.00511180004105,None,m,1,1.3883841999340802,368.00511180004105,None,,,,,m,,p7,2022_Mar_08_1231,training+cueing,2021.1.4,60.05681370294661,
Self.png,You,Self ,c,1,11,21,91,,,,,0,0,0,0,,,,,4,2,50,0,,,,,,,,,,,,,,,,,,,,,1.667,1.42,369.529347400181,None,,,,,,,,,,,,,,,,,,,,370.0702510001138,370.57348830020055,0.5078779698815197,1.008041269844398,370.5570516001899,370.6568174001295,370.5570516001899,370.6568174001295,370.6568174001295,None,c,1,0.5606203000061214,370.6568174001295,None,,,,,m,,p7,2022_Mar_08_1231,training+cueing,2021.1.4,60.05681370294661,
Stranger.png,Stranger,Stranger,c,3,13,23,93,,,,,0,0,0,0,,,,,4,3,51,11,,,,,,,,,,,,,,,,,,,,,1.784,2.115,371.34824880003,None,,,,,,,,,,,,,,,,,,,,371.8985055000521,372.40830810018815,0.5013245700392872,1.0015701700467616,372.3916969001293,372.50819239998236,372.3916969001293,372.50819239998236,372.50819239998236,None,c,1,1.3650686999317259,372.50819239998236,None,,,,,m,,p7,2022_Mar_08_1231,training+cueing,2021.1.4,60.05681370294661,
Stranger.png,Friend,Stranger,m,2.3,17,27,97,,,,,0,0,0,0,,,,,4,4,52,7,,,,,,,,,,,,,,,,,,,,,1.682,1.874,373.9987656001467,None,,,,,,,,,,,,,,,,,,,,374.55532880011015,375.06022000010125,0.5097106599714607,1.0097468600142747,375.04350580018945,375.1603014001157,375.04350580018945,375.1603014001157,375.14353680005297,None,m,1,1.2258201998192817,375.14353680005297,None,,,,,m,,p7,2022_Mar_08_1231,training+cueing,2021.1.4,60.05681370294661,
Friend.png,Friend,Friend,c,2,12,22,92,,,,,0,0,0,0,,,,,4,5,53,10,,,,,,,,,,,,,,,,,,,,,1.532,2.058,376.4994622999802,None,,,,,,,,,,,,,,,,,,,,377.0441814002115,377.54512020014226,0.5022350701037794,1.0027401701081544,377.52844680007547,377.64514510007575,377.52844680007547,377.64514510007575,377.62844250001945,None,c,1,1.2691417001187801,377.62844250001945,None,,,,,m,,p7,2022_Mar_08_1231,training+cueing,2021.1.4,60.05681370294661,
Self.png,You,Self ,c,1,11,21,91,,,,,0,0,0,0,,,,,4,6,54,9,,,,,,,,,,,,,,,,,,,,,1.779,2.178,379.0219996001106,None,,,,,,,,,,,,,,,,,,,,379.5582054001279,380.0637328000739,0.5093843701761216,1.009410070022568,380.04715230013244,380.14722060016356,380.04715230013244,380.14722060016356,380.14722060016356,None,c,1,0.7181069001089782,380.14722060016356,None,,,,,m,,p7,2022_Mar_08_1231,training+cueing,2021.1.4,60.05681370294661,
Friend.png,Friend,Friend,c,2,12,22,92,,,,,0,0,0,0,,,,,4,7,55,4,,,,,,,,,,,,,,,,,,,,,1.765,2.023,380.98670090013184,None,,,,,,,,,,,,,,,,,,,,381.54509150004014,382.04899960011244,0.5053530600853264,1.0066334600560367,382.03084910009056,382.1486188999843,382.03084910009056,382.1486188999843,382.1319600001443,None,c,1,1.1495356999803334,382.1319600001443,None,,,,,m,,p7,2022_Mar_08_1231,training+cueing,2021.1.4,60.05681370294661,
Friend.png,You,Friend,m,1.2,14,24,94,,,,,0,0,0,0,,,,,4,8,56,3,,,,,,,,,,,,,,,,,,,,,1.524,1.527,383.4088736001868,None,,,,,,,,,,,,,,,,,,,,383.94814079999924,384.45006750011817,0.5026957700029016,1.003189570037648,384.43339080014266,384.5336089001503,384.43339080014266,384.5336089001503,384.5336089001503,None,m,1,1.4997466998174787,384.5336089001503,None,,,,,m,,p7,2022_Mar_08_1231,training+cueing,2021.1.4,60.05681370294661,
Friend.png,Stranger,Friend,m,3.2,19,29,99,,,,,0,0,0,0,,,,,4,9,57,5,,,,,,,,,,,,,,,,,,,,,1.683,1.771,386.15818490018137,None,,,,,,,,,,,,,,,,,,,,386.7001913001295,387.20232050004415,0.504799070302397,1.0048362703528255,387.18567590019666,387.3020721001085,387.18567590019666,387.3020721001085,387.2856808002107,None,m,1,1.3078437000513077,387.2856808002107,None,,,,,m,,p7,2022_Mar_08_1231,training+cueing,2021.1.4,60.05681370294661,
Stranger.png,You,Stranger,m,1.3,15,25,95,,,,,0,0,0,0,,,,,4,10,58,6,,,,,,,,,,,,,,,,,,,,,1.402,2.02,388.72713030013256,None,,,,,,,,,,,,,,,,,,,,389.28406050009653,389.7876139001455,0.5070592598058283,1.0073824599385262,389.77091530011967,389.8709761002101,389.77091530011967,389.8709761002101,389.8709761002101,None,m,1,0.8983445998746902,389.8709761002101,None,,,,,m,,p7,2022_Mar_08_1231,training+cueing,2021.1.4,60.05681370294661,
Stranger.png,Stranger,Stranger,c,3,13,23,93,,,,,0,0,0,0,,,,,4,11,59,8,,,,,,,,,,,,,,,,,,,,,1.68,2.34,390.8946508001536,None,,,,,,,,,,,,,,,,,,,,391.43187000020407,391.9388516000472,0.511157070286572,1.0112143701408058,391.92221390013583,392.03901270008646,391.92221390013583,392.03901270008646,392.02233370020986,None,m,0,0.8431902001611888,392.02233370020986,None,,,,,m,,p7,2022_Mar_08_1231,training+cueing,2021.1.4,60.05681370294661,
Self.png,You,Self ,c,1,11,21,91,,,,,0,0,0,0,,,,,5,0,60,0,,,,,,,,,,,,,,,,,,,,,1.791,1.395,392.99929750012234,None,,,,,,,,,,,,,,,,,,,,393.5348921001423,394.04060459998436,0.509543769992888,None,394.02393310004845,394.1239525000565,394.02393310004845,394.1239525000565,394.1239525000565,None,c,1,0.3575168000534177,394.1239525000565,None,,,,,m,,p7,2022_Mar_08_1231,training+cueing,2021.1.4,60.05681370294661,
Friend.png,Friend,Friend,c,2,12,22,92,,,,,0,0,0,0,,,,,5,1,61,4,,,,,,,,,,,,,,,,,,,,,1.652,1.578,394.61466020019725,None,,,,,,,,,,,,,,,,,,,,395.17280910001136,395.67515250016004,0.5056131600867957,1.00544106005691,395.65848480002023,395.7751567000523,395.65848480002023,395.7751567000523,395.75846000015736,None,c,1,1.0428492000792176,395.75846000015736,None,,,,,m,,p7,2022_Mar_08_1231,training+cueing,2021.1.4,60.05681370294661,
Stranger.png,Stranger,Stranger,c,3,13,23,93,,,,,0,0,0,0,,,,,5,2,62,11,,,,,,,,,,,,,,,,,,,,,1.463,1.24,396.9320761000272,None,,,,,,,,,,,,,,,,,,,,397.4841983001679,397.99325230019167,0.4997067602816969,0.9995747602079064,397.96008490002714,398.0601219001692,397.96008490002714,398.0601219001692,398.0601219001692,None,None,0,,398.0601219001692,None,,,,,m,,p7,2022_Mar_08_1231,training+cueing,2021.1.4,60.05681370294661,
Self.png,You,Self ,c,1,11,21,91,,,,,0,0,0,0,,,,,5,3,63,9,,,,,,,,,,,,,,,,,,,,,1.712,1.78,399.63153350003995,None,,,,,,,,,,,,,,,,,,,,400.18878520000726,400.6950466001872,0.5144324600696564,1.0144359599798918,400.67850350006483,400.7785271999892,400.67850350006483,400.7785271999892,400.7785271999892,None,c,1,0.48682430014014244,400.7785271999892,None,,,,,m,,p7,2022_Mar_08_1231,training+cueing,2021.1.4,60.05681370294661,
Friend.png,You,Friend,m,1.2,14,24,94,,,,,0,0,0,0,,,,,5,4,64,3,,,,,,,,,,,,,,,,,,,,,1.751,1.265,401.402134800097,None,,,,,,,,,,,,,,,,,,,,401.9379543000832,402.4466194000561,0.5138985700905323,1.0141036701388657,402.4299501001369,402.5299748000689,402.4299501001369,402.5299748000689,402.5299748000689,None,m,1,0.6873955000191927,402.5299748000689,None,,,,,m,,p7,2022_Mar_08_1231,training+cueing,2021.1.4,60.05681370294661,
Self.png,Friend,Self ,m,2.1,16,26,96,,,,,0,0,0,0,,,,,5,5,65,1,,,,,,,,,,,,,,,,,,,,,1.504,2.373,403.3528218001593,None,,,,,,,,,,,,,,,,,,,,403.9033743001055,404.414774000179,0.5069845700636506,1.0072481699753553,404.3980332000647,404.5147247000132,404.3980332000647,404.5147247000132,404.49789670016617,None,m,1,0.9753836998715997,404.49789670016617,None,,,,,m,,p7,2022_Mar_08_1231,training+cueing,2021.1.4,60.05681370294661,
Self.png,Stranger,Self ,m,3.1,18,28,98,,,,,0,0,0,0,,,,,5,6,66,2,,,,,,,,,,,,,,,,,,,,,1.468,2.425,405.60796230006963,None,,,,,,,,,,,,,,,,,,,,406.14543880010024,406.64734939998016,0.506724470295012,1.0074713702779263,406.632869400084,406.74936190014705,406.632869400084,406.74936190014705,406.73270740010776,None,m,1,0.6608688000123948,406.73270740010776,None,,,,,m,,p7,2022_Mar_08_1231,training+cueing,2021.1.4,60.05681370294661,
Stranger.png,Stranger,Stranger,c,3,13,23,93,,,,,0,0,0,0,,,,,5,7,67,8,,,,,,,,,,,,,,,,,,,,,1.435,2.446,407.5261702002026,None,,,,,,,,,,,,,,,,,,,,408.07217370020226,408.5841841001529,0.5050662700086832,1.0051716698799282,408.5675066001713,408.6842204001732,408.5675066001713,408.6842204001732,408.6675707001705,None,c,1,1.1259965000208467,408.6675707001705,None,,,,,m,,p7,2022_Mar_08_1231,training+cueing,2021.1.4,60.05681370294661,
Friend.png,Stranger,Friend,m,3.2,19,29,99,,,,,0,0,0,0,,,,,5,8,68,5,,,,,,,,,,,,,,,,,,,,,1.788,1.212,409.9287401000038,None,,,,,,,,,,,,,,,,,,,,410.47758590010926,410.9859890001826,0.5010995699558407,1.0020929698366672,410.9692670002114,411.0857939000707,410.9692670002114,411.0857939000707,411.0857939000707,None,m,1,1.139716099947691,411.0857939000707,None,,,,,m,,p7,2022_Mar_08_1231,training+cueing,2021.1.4,60.05681370294661,
Stranger.png,You,Stranger,m,1.3,15,25,95,,,,,0,0,0,0,,,,,5,9,69,6,,,,,,,,,,,,,,,,,,,,,1.768,2.343,412.3598013999872,None,,,,,,,,,,,,,,,,,,,,412.90861340006813,413.4208860001527,0.5073538701981306,1.0084936700295657,413.4042514001485,413.50441609998234,413.4042514001485,413.50441609998234,413.50441609998234,None,m,1,0.8491057001519948,413.50441609998234,None,,,,,m,,p7,2022_Mar_08_1231,training+cueing,2021.1.4,60.05681370294661,
Stranger.png,Friend,Stranger,m,2.3,17,27,97,,,,,0,0,0,0,,,,,5,10,70,7,,,,,,,,,,,,,,,,,,,,,1.404,2.434,414.48149550007656,None,,,,,,,,,,,,,,,,,,,,415.0331933000125,415.53926440002397,0.510884559713304,1.0117904597427696,415.52263820008375,415.63921100017615,415.52263820008375,415.63921100017615,415.62266670004465,None,c,0,1.3706328999251127,415.62266670004465,None,,,,,m,,p7,2022_Mar_08_1231,training+cueing,2021.1.4,60.05681370294661,
Friend.png,Friend,Friend,c,2,12,22,92,,,,,0,0,0,0,,,,,5,11,71,10,,,,,,,,,,,,,,,,,,,,,1.43,1.568,417.1303359000012,None,,,,,,,,,,,,,,,,,,,,417.6658441000618,418.1750279001426,0.4996489800978452,1.0183463799767196,418.1567279000301,418.27454120013863,418.1567279000301,418.27454120013863,418.27454120013863,None,None,0,,418.27454120013863,None,,,,,m,,p7,2022_Mar_08_1231,training+cueing,2021.1.4,60.05681370294661,
Stranger.png,You,Stranger,m,1.3,15,25,95,,,,,0,0,0,0,,,,,6,0,72,6,,,,,,,,,,,,,,,,,,,,,1.768,1.817,419.8128946002107,None,,,,,,,,,,,,,,,,,,,,420.35792660014704,420.85954880015925,0.5019204700365663,1.0026518700178713,420.8428093001712,420.94303840002976,420.8428093001712,420.94303840002976,420.94303840002976,None,None,0,,420.94303840002976,None,,,,,m,,p7,2022_Mar_08_1231,training+cueing,2021.1.4,60.05681370294661,
Self.png,You,Self ,c,1,11,21,91,,,,,0,0,0,0,,,,,6,1,73,0,,,,,,,,,,,,,,,,,,,,,1.712,1.645,422.8148312000558,None,,,,,,,,,,,,,,,,,,,,423.3649198000785,423.8785818000324,0.5110539698507637,1.012112369760871,423.86189770000055,423.961979100015,423.86189770000055,423.961979100015,423.961979100015,None,c,1,0.5516798999160528,423.961979100015,None,,,,,m,,p7,2022_Mar_08_1231,training+cueing,2021.1.4,60.05681370294661,
Friend.png,Friend,Friend,c,2,12,22,92,,,,,0,0,0,0,,,,,6,2,74,4,,,,,,,,,,,,,,,,,,,,,1.448,1.249,424.6386748000514,None,,,,,,,,,,,,,,,,,,,,425.1772923001554,425.67984860017896,0.5066832699812949,1.0066802699584514,425.66340880002826,425.7798998001963,425.66340880002826,425.7798998001963,425.7631511001382,None,m,0,0.7820623000152409,425.7631511001382,None,,,,,m,,p7,2022_Mar_08_1231,training+cueing,2021.1.4,60.05681370294661,
Friend.png,You,Friend,m,1.2,14,24,94,,,,,0,0,0,0,,,,,6,3,75,3,,,,,,,,,,,,,,,,,,,,,1.432,1.562,426.6698243999854,None,,,,,,,,,,,,,,,,,,,,427.236462400062,427.74790469999425,0.5055581601336598,1.0058068600483239,427.73128470010124,427.8315289001912,427.73128470010124,427.8315289001912,427.8315289001912,None,None,0,,427.8315289001912,None,,,,,m,,p7,2022_Mar_08_1231,training+cueing,2021.1.4,60.05681370294661,
Self.png,You,Self ,c,1,11,21,91,,,,,0,0,0,0,,,,,6,4,76,9,,,,,,,,,,,,,,,,,,,,,1.506,2.456,429.3702283001039,None,,,,,,,,,,,,,,,,,,,,429.91782530001365,430.4167958002072,0.5131429699249566,1.0131730700377375,430.4167958002072,430.5168421000708,430.4167958002072,430.5168421000708,430.5168421000708,None,c,1,0.5403303999919444,430.5168421000708,None,,,,,m,,p7,2022_Mar_08_1231,training+cueing,2021.1.4,60.05681370294661,
Stranger.png,Friend,Stranger,m,2.3,17,27,97,,,,,0,0,0,0,,,,,6,5,77,7,,,,,,,,,,,,,,,,,,,,,1.572,1.782,431.18968950002454,None,,,,,,,,,,,,,,,,,,,,431.7343898001127,432.23439170001075,0.5008234700653702,1.001238269964233,432.2180103000719,432.33527710009366,432.2180103000719,432.33527710009366,432.33527710009366,None,m,1,0.642009099945426,432.33527710009366,None,,,,,m,,p7,2022_Mar_08_1231,training+cueing,2021.1.4,60.05681370294661,
Stranger.png,Stranger,Stranger,c,3,13,23,93,,,,,0,0,0,0,,,,,6,6,78,11,,,,,,,,,,,,,,,,,,,,,1.767,1.32,433.1085994001478,None,,,,,,,,,,,,,,,,,,,,433.65144839999266,434.1526361000724,0.49938347004354,0.999612069921568,434.13598910020664,434.2528925000224,434.13598910020664,434.2528925000224,434.2528925000224,None,m,0,1.2046622999478132,434.2528925000224,None,,,,,m,,p7,2022_Mar_08_1231,training+cueing,2021.1.4,60.05681370294661,
Stranger.png,Stranger,Stranger,c,3,13,23,93,,,,,0,0,0,0,,,,,6,7,79,8,,,,,,,,,,,,,,,,,,,,,1.455,1.29,435.5965489000082,None,,,,,,,,,,,,,,,,,,,,436.16152950003743,436.6712300002109,0.5020080599933863,1.002323959954083,436.6544473001268,436.7714053001255,436.6544473001268,436.7714053001255,436.75463370000944,None,c,1,0.9906681999564171,436.75463370000944,None,,,,,m,,p7,2022_Mar_08_1231,training+cueing,2021.1.4,60.05681370294661,
Friend.png,Friend,Friend,c,2,12,22,92,,,,,0,0,0,0,,,,,6,8,80,10,,,,,,,,,,,,,,,,,,,,,1.479,1.863,437.8788690001238,None,,,,,,,,,,,,,,,,,,,,438.43030840018764,438.93968100007623,0.5009144700597972,1.0016903700307012,438.9229658001568,439.03977680020034,438.9229658001568,439.03977680020034,439.03977680020034,None,c,1,1.1695122001692653,439.03977680020034,None,,,,,m,,p7,2022_Mar_08_1231,training+cueing,2021.1.4,60.05681370294661,
Self.png,Friend,Self ,m,2.1,16,26,96,,,,,0,0,0,0,,,,,6,9,81,1,,,,,,,,,,,,,,,,,,,,,1.416,2.174,440.3477112001274,None,,,,,,,,,,,,,,,,,,,,440.8883221000433,441.39121840009466,0.5067473701201379,1.006913070101291,441.37462630006485,441.4910000001546,441.37462630006485,441.4910000001546,441.4743541001808,None,m,1,0.8148060999810696,441.4743541001808,None,,,,,m,,p7,2022_Mar_08_1231,training+cueing,2021.1.4,60.05681370294661,
Self.png,Stranger,Self ,m,3.1,18,28,98,,,,,0,0,0,0,,,,,6,10,82,2,,,,,,,,,,,,,,,,,,,,,1.595,1.579,442.41738520003855,None,,,,,,,,,,,,,,,,,,,,442.95538180018775,443.4593441002071,0.5071645698044449,1.0074560698121786,443.4426282001659,443.559358100174,443.4426282001659,443.559358100174,443.5426454001572,None,m,1,0.6990910000167787,443.5426454001572,None,,,,,m,,p7,2022_Mar_08_1231,training+cueing,2021.1.4,60.05681370294661,
Friend.png,Stranger,Friend,m,3.2,19,29,99,,,,,0,0,0,0,,,,,6,11,83,5,,,,,,,,,,,,,,,,,,,,,1.586,1.301,444.3699120001402,None,,,,,,,,,,,,,,,,,,,,444.9028758001514,445.4105620000046,0.5126980699133128,1.013251069933176,445.3938392000273,445.510643000016,445.3938392000273,445.510643000016,445.49388650013134,None,m,1,0.8912865000311285,445.49388650013134,None,,,,,m,,p7,2022_Mar_08_1231,training+cueing,2021.1.4,60.05681370294661,
Stranger.png,You,Stranger,m,1.3,15,25,95,,,,,0,0,0,0,,,,,7,0,84,6,,,,,,,,,,,,,,,,,,,,,1.678,1.764,446.5163026000373,None,,,,,,,,,,,,,,,,,,,,447.0622982000932,447.56211290019564,0.49967627017758787,1.0008771701250225,447.54552410007454,447.6457170001231,447.54552410007454,447.6457170001231,447.6457170001231,None,m,1,1.2520204000175,447.6457170001231,None,,,,,m,,p7,2022_Mar_08_1231,training+cueing,2021.1.4,60.05681370294661,
Self.png,Stranger,Self ,m,3.1,18,28,98,,,,,0,0,0,0,,,,,7,1,85,2,,,,,,,,,,,,,,,,,,,,,1.749,1.244,449.0230771000497,None,,,,,,,,,,,,,,,,,,,,449.5716568999924,450.0814960000571,0.5001888701226562,1.0010573701001704,450.0638143999968,450.1810712001752,450.0638143999968,450.1810712001752,450.1810712001752,None,m,1,0.7481013000942767,450.1810712001752,None,,,,,m,,p7,2022_Mar_08_1231,training+cueing,2021.1.4,60.05681370294661,
Self.png,You,Self ,c,1,11,21,91,,,,,0,0,0,0,,,,,7,2,86,9,,,,,,,,,,,,,,,,,,,,,1.496,1.487,451.05598180019297,None,,,,,,,,,,,,,,,,,,,,451.609377700137,452.1157470000908,0.513208860065788,1.0133857601322234,452.09905509999953,452.1990780001506,452.09905509999953,452.1990780001506,452.1990780001506,None,c,1,0.49014520016498864,452.1990780001506,None,,,,,m,,p7,2022_Mar_08_1231,training+cueing,2021.1.4,60.05681370294661,
Friend.png,Friend,Friend,c,2,12,22,92,,,,,0,0,0,0,,,,,7,3,87,10,,,,,,,,,,,,,,,,,,,,,1.779,2.118,452.822312500095,None,,,,,,,,,,,,,,,,,,,,453.3663117000833,453.866938700201,0.49990706983953714,1.0012189699336886,453.8491854001768,453.9671216001734,453.8491854001768,453.9671216001734,453.9671216001734,None,c,1,1.2183709000237286,453.9671216001734,None,,,,,m,,p7,2022_Mar_08_1231,training+cueing,2021.1.4,60.05681370294661,
Stranger.png,Stranger,Stranger,c,3,13,23,93,,,,,0,0,0,0,,,,,7,4,88,8,,,,,,,,,,,,,,,,,,,,,1.646,1.498,455.31082260003313,None,,,,,,,,,,,,,,,,,,,,455.8638502000831,456.3684708001092,0.5086403598543257,1.009235859848559,456.3518306000624,456.469361100113,456.3518306000624,456.469361100113,456.45204780017957,None,m,0,0.8132920998614281,456.45204780017957,None,,,,,m,,p7,2022_Mar_08_1231,training+cueing,2021.1.4,60.05681370294661,
Self.png,Friend,Self ,m,2.1,16,26,96,,,,,0,0,0,0,,,,,7,5,89,1,,,,,,,,,,,,,,,,,,,,,1.552,1.915,457.39191670017317,None,,,,,,,,,,,,,,,,,,,,457.930086000124,458.4368118001148,0.5116224698722363,1.0120656699873507,458.4200011000503,458.5368602001108,458.4200011000503,458.5368602001108,458.52016760013066,None,m,1,0.8893075999803841,458.52016760013066,None,,,,,m,,p7,2022_Mar_08_1231,training+cueing,2021.1.4,60.05681370294661,
Friend.png,Friend,Friend,c,2,12,22,92,,,,,0,0,0,0,,,,,7,6,90,4,,,,,,,,,,,,,,,,,,,,,1.68,1.689,459.5475327000022,None,,,,,,,,,,,,,,,,,,,,460.0939285000786,460.6050561000593,0.5054101699497551,1.0059354698751122,460.5884355001617,460.7050973000005,460.5884355001617,460.7050973000005,460.68841860000975,None,m,0,1.328785000136122,460.68841860000975,None,,,,,m,,p7,2022_Mar_08_1231,training+cueing,2021.1.4,60.05681370294661,
Friend.png,You,Friend,m,1.2,14,24,94,,,,,0,0,0,0,,,,,7,7,91,3,,,,,,,,,,,,,,,,,,,,,1.489,2.214,462.1453370000236,None,,,,,,,,,,,,,,,,,,,,462.70605710009113,463.20675120013766,0.5014543600846082,1.0024490600917488,463.19007110013627,463.29010020010173,463.19007110013627,463.29010020010173,463.29010020010173,None,m,1,0.7271662000566721,463.29010020010173,None,,,,,m,,p7,2022_Mar_08_1231,training+cueing,2021.1.4,60.05681370294661,
Friend.png,Stranger,Friend,m,3.2,19,29,99,,,,,0,0,0,0,,,,,7,8,92,5,,,,,,,,,,,,,,,,,,,,,1.577,1.457,464.1485640001483,None,,,,,,,,,,,,,,,,,,,,464.704228800023,465.20835430012085,0.5077427600044757,1.008044860092923,465.191683200188,465.30831970018335,465.191683200188,465.30831970018335,465.29171230015345,None,m,1,1.4615745998453349,465.29171230015345,None,,,,,m,,p7,2022_Mar_08_1231,training+cueing,2021.1.4,60.05681370294661,
Self.png,You,Self ,c,1,11,21,91,,,,,0,0,0,0,,,,,7,9,93,0,,,,,,,,,,,,,,,,,,,,,1.727,1.583,466.884011000162,None,,,,,,,,,,,,,,,,,,,,467.4366291000042,467.94384329998866,0.5147758601233363,1.0150300599634647,467.927261200035,468.02718660002574,467.927261200035,468.02718660002574,468.02718660002574,None,c,1,0.550244300160557,468.02718660002574,None,,,,,m,,p7,2022_Mar_08_1231,training+cueing,2021.1.4,60.05681370294661,
Stranger.png,Friend,Stranger,m,2.3,17,27,97,,,,,0,0,0,0,,,,,7,10,94,7,,,,,,,,,,,,,,,,,,,,,1.599,2.123,468.7009456001688,None,,,,,,,,,,,,,,,,,,,,469.23805580008775,469.75776479998603,0.529448369750753,1.0290415699128062,469.74564810004085,469.84508310002275,469.74564810004085,469.84508310002275,469.8283801001962,None,m,1,1.1808509000111371,469.8283801001962,None,,,,,m,,p7,2022_Mar_08_1231,training+cueing,2021.1.4,60.05681370294661,
Stranger.png,Stranger,Stranger,c,3,13,23,93,,,,,0,0,0,0,,,,,7,11,95,11,,,,,,,,,,,,,,,,,,,,,1.714,1.487,471.13502270006575,None,,,,,,,,,,,,,,,,,,,,471.6947011000011,472.19698480004445,0.5047970602754503,1.005545360269025,472.1802974999882,472.2998703001067,472.1802974999882,472.2998703001067,472.2904716001358,None,m,0,1.6467029999475926,472.2904716001358,None,,,,,m,,p7,2022_Mar_08_1231,training+cueing,2021.1.4,60.05681370294661,
Friend.png,Friend,Friend,c,2,12,22,92,,,,,0,0,0,0,,,,,8,0,96,10,,,,,,,,,,,,,,,,,,,,,1.702,2.106,474.07154390006326,None,,,,,,,,,,,,,,,,,,,,474.61008380004205,475.1155497999862,0.5091383701656014,1.0103055702056736,475.09873090009205,475.2157128001563,475.09873090009205,475.2157128001563,475.19899150007404,None,c,1,0.9302492998540401,475.19899150007404,None,,,,,m,,p7,2022_Mar_08_1231,training+cueing,2021.1.4,60.05681370294661,
Stranger.png,You,Stranger,m,1.3,15,25,95,,,,,0,0,0,0,,,,,8,1,97,6,,,,,,,,,,,,,,,,,,,,,1.685,1.46,476.2555906001944,None,,,,,,,,,,,,,,,,,,,,476.793145700125,477.3004560000263,0.5135875700507313,1.013852670090273,477.28374040010385,477.38383410009556,477.28374040010385,477.38383410009556,477.38383410009556,None,m,1,0.8093562999274582,477.38383410009556,None,,,,,m,,p7,2022_Mar_08_1231,training+cueing,2021.1.4,60.05681370294661,
Stranger.png,Friend,Stranger,m,2.3,17,27,97,,,,,0,0,0,0,,,,,8,2,98,7,,,,,,,,,,,,,,,,,,,,,1.534,2.296,478.3236891000997,None,,,,,,,,,,,,,,,,,,,,478.883048000047,479.38521099998616,0.5070319601800293,1.0069078602828085,479.36876720003784,479.485295600025,479.36876720003784,479.485295600025,479.4685438000597,None,m,1,1.2047133001033217,479.4685438000597,None,,,,,m,,p7,2022_Mar_08_1231,training+cueing,2021.1.4,60.05681370294661,
Friend.png,Friend,Friend,c,2,12,22,92,,,,,0,0,0,0,,,,,8,3,99,4,,,,,,,,,,,,,,,,,,,,,1.564,1.544,480.80954140005633,None,,,,,,,,,,,,,,,,,,,,481.35679720016196,481.8702297001146,0.510568069992587,1.0117381701711565,481.85355950007215,481.9708092000801,481.85355950007215,481.9708092000801,481.9535724001471,None,c,1,0.8157251998782158,481.9535724001471,None,,,,,m,,p7,2022_Mar_08_1231,training+cueing,2021.1.4,60.05681370294661,
Self.png,You,Self ,c,1,11,21,91,,,,,0,0,0,0,,,,,8,4,100,0,,,,,,,,,,,,,,,,,,,,,1.411,2.372,482.8964821000118,None,,,,,,,,,,,,,,,,,,,,483.4329995000735,483.9385880001355,0.5103930700570345,1.0107666701078415,483.9220275999978,484.0221900001634,483.9220275999978,484.0221900001634,484.0221900001634,None,c,1,0.7309426001738757,484.0221900001634,None,,,,,m,,p7,2022_Mar_08_1231,training+cueing,2021.1.4,60.05681370294661,
Self.png,Stranger,Self ,m,3.1,18,28,98,,,,,0,0,0,0,,,,,8,5,101,2,,,,,,,,,,,,,,,,,,,,,1.586,2.055,484.87992500001565,None,,,,,,,,,,,,,,,,,,,,485.42690460011363,485.9402015001979,0.5088948702905327,1.0089537701569498,485.9234877000563,486.04029000015,485.9234877000563,486.04029000015,486.02352120005526,None,m,1,1.0815995000302792,486.02352120005526,None,,,,,m,,p7,2022_Mar_08_1231,training+cueing,2021.1.4,60.05681370294661,
Self.png,Friend,Self ,m,2.1,16,26,96,,,,,0,0,0,0,,,,,8,6,102,1,,,,,,,,,,,,,,,,,,,,,1.455,1.987,487.2310241002124,None,,,,,,,,,,,,,,,,,,,,487.76791900000535,488.27525880001485,0.5125567701179534,1.012596569955349,488.2585758001078,488.37534090015106,488.2585758001078,488.37534090015106,488.35861890017986,None,None,0,,488.35861890017986,None,,,,,m,,p7,2022_Mar_08_1231,training+cueing,2021.1.4,60.05681370294661,
Friend.png,You,Friend,m,1.2,14,24,94,,,,,0,0,0,0,,,,,8,7,103,3,,,,,,,,,,,,,,,,,,,,,1.505,2.263,489.92995440005325,None,,,,,,,,,,,,,,,,,,,,490.47140160016716,490.9770090000238,0.5108613700140268,1.0109643700998276,490.96029080008157,491.0603609001264,490.96029080008157,491.0603609001264,491.0603609001264,None,None,0,,491.0603609001264,None,,,,,m,,p7,2022_Mar_08_1231,training+cueing,2021.1.4,60.05681370294661,
Stranger.png,Stranger,Stranger,c,3,13,23,93,,,,,0,0,0,0,,,,,8,8,104,11,,,,,,,,,,,,,,,,,,,,,1.512,1.451,492.681885200087,None,,,,,,,,,,,,,,,,,,,,493.22957860003226,493.7287571001798,0.5125545701012015,1.0128800701349974,493.7287571001798,493.8289969000034,493.7287571001798,493.8289969000034,493.8289969000034,None,None,0,,493.8289969000034,None,,,,,m,,p7,2022_Mar_08_1231,training+cueing,2021.1.4,60.05681370294661,
Stranger.png,Stranger,Stranger,c,3,13,23,93,,,,,0,0,0,0,,,,,8,9,105,8,,,,,,,,,,,,,,,,,,,,,1.698,1.928,495.4514964001719,None,,,,,,,,,,,,,,,,,,,,495.98837500019,496.49761310010217,0.5008533799555153,1.001055879984051,496.48093520011753,496.5976568001788,496.48093520011753,496.5976568001788,496.5976568001788,None,m,0,1.4518314998131245,496.5976568001788,None,,,,,m,,p7,2022_Mar_08_1231,training+cueing,2021.1.4,60.05681370294661,
Friend.png,Stranger,Friend,m,3.2,19,29,99,,,,,0,0,0,0,,,,,8,10,106,5,,,,,,,,,,,,,,,,,,,,,1.566,1.282,498.17234420008026,None,,,,,,,,,,,,,,,,,,,,498.71585989999585,499.216144700069,0.5005720700137317,1.0003786699380726,499.1998213001061,499.31666590017267,499.1998213001061,499.31666590017267,499.31666590017267,None,m,1,1.0684487000107765,499.31666590017267,None,,,,,m,,p7,2022_Mar_08_1231,training+cueing,2021.1.4,60.05681370294661,
Self.png,You,Self ,c,1,11,21,91,,,,,0,0,0,0,,,,,8,11,107,9,,,,,,,,,,,,,,,,,,,,,1.563,1.352,500.50658340007067,None,,,,,,,,,,,,,,,,,,,,501.05245210020803,501.56804160005413,0.5112770698033273,1.0122497698757797,501.55128930020146,501.6513559999876,501.55128930020146,501.6513559999876,501.6513559999876,None,c,1,0.5579910001251847,501.6513559999876,None,,,,,m,,p7,2022_Mar_08_1231,training+cueing,2021.1.4,60.05681370294661,
Friend.png,Stranger,Friend,m,3.2,19,29,99,,,,,0,0,0,0,,,,,9,0,108,5,,,,,,,,,,,,,,,,,,,,,1.528,2.12,502.34492270019837,None,,,,,,,,,,,,,,,,,,,,502.88904480007477,503.40258059999906,0.5092836699914187,1.0102814701385796,503.38593580015004,503.5025512999855,503.38593580015004,503.5025512999855,503.48572980007157,None,m,1,1.3955129000823945,503.48572980007157,None,,,,,m,,p7,2022_Mar_08_1231,training+cueing,2021.1.4,60.05681370294661,
Friend.png,Friend,Friend,c,2,12,22,92,,,,,0,0,0,0,,,,,9,1,109,10,,,,,,,,,,,,,,,,,,,,,1.587,2.433,505.00969750015065,None,,,,,,,,,,,,,,,,,,,,505.5652298000641,506.071501100203,0.511918859789148,1.011762959882617,506.05478490004316,506.1715675999876,506.05478490004316,506.1715675999876,506.1548288001213,None,c,1,0.9343558000400662,506.1548288001213,None,,,,,m,,p7,2022_Mar_08_1231,training+cueing,2021.1.4,60.05681370294661,
Self.png,Friend,Self ,m,2.1,16,26,96,,,,,0,0,0,0,,,,,9,2,110,1,,,,,,,,,,,,,,,,,,,,,1.593,1.825,507.211212299997,None,,,,,,,,,,,,,,,,,,,,507.74678550008684,508.2559800001327,0.5003704798873514,1.001530579989776,508.23930310015567,508.35594160016626,508.23930310015567,508.35594160016626,508.35594160016626,None,m,1,1.0533231999725103,508.35594160016626,None,,,,,m,,p7,2022_Mar_08_1231,training+cueing,2021.1.4,60.05681370294661,
Self.png,You,Self ,c,1,11,21,91,,,,,0,0,0,0,,,,,9,3,111,0,,,,,,,,,,,,,,,,,,,,,1.528,1.21,509.54704980016686,None,,,,,,,,,,,,,,,,,,,,510.08448640001006,510.5911473000888,0.5126805698964745,1.0132675699423999,510.57445379998535,510.6910399000626,510.57445379998535,510.6910399000626,510.67437920020893,None,c,1,0.4948978000320494,510.67437920020893,None,,,,,m,,p7,2022_Mar_08_1231,training+cueing,2021.1.4,60.05681370294661,
Self.png,Stranger,Self ,m,3.1,18,28,98,,,,,0,0,0,0,,,,,9,4,112,2,,,,,,,,,,,,,,,,,,,,,1.693,2.059,511.29894550004974,None,,,,,,,,,,,,,,,,,,,,511.84197790012695,512.3423631000333,0.49932357016950846,1.000619470141828,512.3254856001586,512.4427486001514,512.3254856001586,512.4427486001514,512.4427486001514,None,m,1,0.5984628999140114,512.4427486001514,None,,,,,m,,p7,2022_Mar_08_1231,training+cueing,2021.1.4,60.05681370294661,
Stranger.png,Stranger,Stranger,c,3,13,23,93,,,,,0,0,0,0,,,,,9,5,113,8,,,,,,,,,,,,,,,,,,,,,1.536,1.814,513.1685377000831,None,,,,,,,,,,,,,,,,,,,,513.7025985000655,514.2101761000231,0.513426470104605,1.0146052700001746,514.1927703002002,514.3102979001123,514.1927703002002,514.3102979001123,514.293865900021,None,m,0,1.0033412999473512,514.293865900021,None,,,,,m,,p7,2022_Mar_08_1231,training+cueing,2021.1.4,60.05681370294661,
Stranger.png,You,Stranger,m,1.3,15,25,95,,,,,0,0,0,0,,,,,9,6,114,6,,,,,,,,,,,,,,,,,,,,,1.654,2.082,515.4347254000604,None,,,,,,,,,,,,,,,,,,,,515.9730463000014,516.4785835000221,0.5102071699220687,1.0114139700308442,516.4618422000203,516.562099999981,516.4618422000203,516.562099999981,516.562099999981,None,m,1,0.8149109000805765,516.562099999981,None,,,,,m,,p7,2022_Mar_08_1231,training+cueing,2021.1.4,60.05681370294661,
Stranger.png,Stranger,Stranger,c,3,13,23,93,,,,,0,0,0,0,,,,,9,7,115,11,,,,,,,,,,,,,,,,,,,,,1.75,1.463,517.5014749001712,None,,,,,,,,,,,,,,,,,,,,518.046903999988,518.5468977000564,0.5146843700204045,1.0151926698163152,518.5468977000564,518.6472461000085,518.5468977000564,518.6472461000085,518.6472461000085,None,m,0,0.6019631000235677,518.6472461000085,None,,,,,m,,p7,2022_Mar_08_1231,training+cueing,2021.1.4,60.05681370294661,
Stranger.png,Friend,Stranger,m,2.3,17,27,97,,,,,0,0,0,0,,,,,9,8,116,7,,,,,,,,,,,,,,,,,,,,,1.495,2.309,519.388211700134,None,,,,,,,,,,,,,,,,,,,,519.9558024001308,520.4646915001795,0.5010825600475073,1.0018571601249278,520.4480785001069,520.5647484001238,520.4480785001069,520.5647484001238,520.5647484001238,None,None,0,,520.5647484001238,None,,,,,m,,p7,2022_Mar_08_1231,training+cueing,2021.1.4,60.05681370294661,
Friend.png,Friend,Friend,c,2,12,22,92,,,,,0,0,0,0,,,,,9,9,117,4,,,,,,,,,,,,,,,,,,,,,1.507,1.316,522.1708850001451,None,,,,,,,,,,,,,,,,,,,,522.7296531000175,523.2338237999938,0.5084220599383116,1.009150459896773,523.216898099985,523.3171584000811,523.216898099985,523.3171584000811,523.3171584000811,None,m,0,1.0839142999611795,523.3171584000811,None,,,,,m,,p7,2022_Mar_08_1231,training+cueing,2021.1.4,60.05681370294661,
Self.png,You,Self ,c,1,11,21,91,,,,,0,0,0,0,,,,,9,10,118,9,,,,,,,,,,,,,,,,,,,,,1.712,1.291,524.5235758000053,None,,,,,,,,,,,,,,,,,,,,525.0803239000961,525.5851806001738,0.5096613599453121,1.0100978601258248,525.5687997001223,525.6686103001703,525.5687997001223,525.6686103001703,525.6686103001703,None,c,1,0.4607392998877913,525.6686103001703,None,,,,,m,,p7,2022_Mar_08_1231,training+cueing,2021.1.4,60.05681370294661,
Friend.png,You,Friend,m,1.2,14,24,94,,,,,0,0,0,0,,,,,9,11,119,3,,,,,,,,,,,,,,,,,,,,,1.612,2.132,526.2615418999922,None,,,,,,,,,,,,,,,,,,,,526.8017785002012,527.3032522001304,0.5012441698927432,1.0025754699017853,527.2854635000695,527.3867939000484,527.2854635000695,527.3867939000484,527.3867939000484,None,c,0,1.0626568999141455,527.3867939000484,None,,,,,m,,p7,2022_Mar_08_1231,training+cueing,2021.1.4,60.05681370294661,
,,,,,,,,,,,,0,0,0,0,,,,,,,,,,,,,,,,,,,,,,,,,,,,,,,,,,,,,,,,,,,,,,,,,,,,,,,,,,,,,,,,,,,0.01481372001580894,0.5122853200882673,,,m,,p7,2022_Mar_08_1231,training+cueing,2021.1.4,60.05681370294661,
Self.png,Friend,Self ,m,2.1,16,26,96,,,,,1,0,1,0,0,0,0,1,,,,,,,,,,,,,,,,,529.0877801000606,None,space,131.31203570007347,2.0127975901123136,None,662.4008846001234,None,1.64,2.344,665.4147383000236,None,665.9467488999944,666.4534458001144,666.4369346001185,666.5536866001785,666.4369346001185,666.5536866001785,666.5369522001129,None,m,1,666.5369522001129,None,667.8036168001126,None,1.2402835001703352,,,,,,,,,,,,,,,,,,,,,,,,m,,p7,2022_Mar_08_1231,training+cueing,2021.1.4,60.05681370294661,
Self.png,You,Self ,c,1,11,21,91,,,,,1,0,1,0,0,1,1,9,,,,,,,,,,,,,,,,,,,,,,,,,1.699,2.135,668.2050155000761,None,668.7374676000327,669.2392566001508,669.2224193001166,669.3222803000826,669.2224193001166,669.3222803000826,669.3222803000826,None,None,0,669.3222803000826,None,671.0276781001594,None,,,,,,,,,,,,,,,,,,,,,,,,,m,,p7,2022_Mar_08_1231,training+cueing,2021.1.4,60.05681370294661,
Friend.png,You,Friend,m,1.2,14,24,94,,,,,1,0,1,0,0,2,2,3,,,,,,,,,,,,,,,,,,,,,,,,,1.676,1.854,671.4405327001587,None,671.9655293000396,672.4748535000253,672.4414514000528,672.5412387000397,672.4414514000528,672.5412387000397,672.5412387000397,None,m,1,672.5412387000397,None,673.9450177000836,None,1.37968480004929,,,,,,,,,,,,,,,,,,,,,,,,m,,p7,2022_Mar_08_1231,training+cueing,2021.1.4,60.05681370294661,
Stranger.png,Stranger,Stranger,c,3,13,23,93,,,,,1,0,1,0,0,3,3,8,,,,,,,,,,,,,,,,,,,,,,,,,1.555,2.369,674.3591010000091,None,674.9183414001018,675.4267082000151,675.4101128000766,675.5267946000677,675.4101128000766,675.5267946000677,675.5101119000465,None,c,1,675.5101119000465,None,676.7942100001965,None,1.2587146000005305,,,,,,,,,,,,,,,,,,,,,,,,m,,p7,2022_Mar_08_1231,training+cueing,2021.1.4,60.05681370294661,
Self.png,Stranger,Self ,m,3.1,18,28,98,,,,,1,0,1,0,0,4,4,2,,,,,,,,,,,,,,,,,,,,,,,,,1.401,1.893,677.19466560008,None,677.7223259001039,678.2289391001686,678.2122954002116,678.3289020000957,678.2122954002116,678.3289020000957,678.312295100186,None,m,1,678.312295100186,None,679.1125770001672,None,0.7765180999413133,,,,,,,,,,,,,,,,,,,,,,,,m,,p7,2022_Mar_08_1231,training+cueing,2021.1.4,60.05681370294661,
Stranger.png,Stranger,Stranger,c,3,13,23,93,,,,,1,0,1,0,0,5,5,11,,,,,,,,,,,,,,,,,,,,,,,,,1.713,2.171,679.5131109000649,None,680.0399470999837,680.5470879001077,680.5303975001443,680.6469628000632,680.5303975001443,680.6469628000632,680.6304352001753,None,m,0,680.6304352001753,None,682.0012563001364,None,1.3385130998212844,,,,,,,,,,,,,,,,,,,,,,,,m,,p7,2022_Mar_08_1231,training+cueing,2021.1.4,60.05681370294661,
Friend.png,Friend,Friend,c,2,12,22,92,,,,,1,0,1,0,0,6,6,10,,,,,,,,,,,,,,,,,,,,,,,,,1.64,2.016,682.4152452000417,None,682.9651309000328,683.4660807000473,683.4494053001981,683.5656657000072,683.4494053001981,683.5656657000072,683.5656657000072,None,c,1,683.5656657000072,None,684.5523203001358,None,0.963270400185138,,,,,,,,,,,,,,,,,,,,,,,,m,,p7,2022_Mar_08_1231,training+cueing,2021.1.4,60.05681370294661,
Self.png,You,Self ,c,1,11,21,91,,,,,1,0,1,0,0,7,7,0,,,,,,,,,,,,,,,,,,,,,,,,,1.7,1.802,684.9672310000751,None,685.5029114000499,686.0175691000186,686.0009732001927,686.1010981001891,686.0009732001927,686.1010981001891,686.1010981001891,None,c,1,686.1010981001891,None,686.6183364000171,None,0.4759289000649005,,,,,,,,,,,,,,,,,,,,,,,,m,,p7,2022_Mar_08_1231,training+cueing,2021.1.4,60.05681370294661,
Stranger.png,You,Stranger,m,1.3,15,25,95,,,,,1,0,1,0,0,8,8,6,,,,,,,,,,,,,,,,,,,,,,,,,1.764,2.437,687.018749800045,None,687.543054100126,688.0525084000546,688.0189903001301,688.1192338000983,688.0189903001301,688.1192338000983,688.1192338000983,None,m,1,688.1192338000983,None,688.9532244000584,None,0.8096896999049932,,,,,,,,,,,,,,,,,,,,,,,,m,,p7,2022_Mar_08_1231,training+cueing,2021.1.4,60.05681370294661,
Stranger.png,Friend,Stranger,m,2.3,17,27,97,,,,,1,0,1,0,0,9,9,7,,,,,,,,,,,,,,,,,,,,,,,,,1.534,1.275,689.3534135001246,None,689.8833956001326,690.3878717001062,690.3711590000894,690.4876586000901,690.3711590000894,690.4876586000901,690.4709415000398,None,m,1,690.4709415000398,None,691.6197750000283,None,1.1298513999208808,,,,,,,,,,,,,,,,,,,,,,,,m,,p7,2022_Mar_08_1231,training+cueing,2021.1.4,60.05681370294661,
Friend.png,Stranger,Friend,m,3.2,19,29,99,,,,,1,0,1,0,0,10,10,5,,,,,,,,,,,,,,,,,,,,,,,,,1.573,2.156,692.0227473000996,None,692.5653545001987,693.0726916000713,693.0561877000146,693.1728787000757,693.0561877000146,693.1728787000757,693.1562200000044,None,m,1,693.1562200000044,None,694.3891889001243,None,1.213060799986124,,,,,,,,,,,,,,,,,,,,,,,,m,,p7,2022_Mar_08_1231,training+cueing,2021.1.4,60.05681370294661,
Friend.png,Friend,Friend,c,2,12,22,92,,,,,1,0,1,0,0,11,11,4,,,,,,,,,,,,,,,,,,,,,,,,,1.405,2.062,694.7909757001325,None,695.3330889001954,695.8413377001416,695.8248234000057,695.9415436000563,695.8248234000057,695.9415436000563,695.9248363000806,None,c,1,695.9248363000806,None,696.9071129001677,None,0.9560650999192148,,,,,,,,,,,,,,,,,,,,,,,,m,,p7,2022_Mar_08_1231,training+cueing,2021.1.4,60.05681370294661,
Self.png,Friend,Self ,m,2.1,16,26,96,,,,,1,0,1,0,,,,,0,0,0,1,,,,,,,,,,,,,,,,,,,703.8805659001227,None,1.599,2.324,707.4114355000202,None,,,,,,,,,,,,,,,,697.3098893000279,None,0.014335389947518706,0.5128428898751736,707.9452142000664,708.4505456001498,0.5105220600962639,1.0106305601075292,708.434045900125,708.5508224000223,708.434045900125,708.5508224000223,708.5341557001229,None,None,0,,708.5341557001229,None,,,,,m,,p7,2022_Mar_08_1231,training+cueing,2021.1.4,60.05681370294661,
Friend.png,You,Friend,m,1.2,14,24,94,,,,,1,0,1,0,,,,,0,1,1,3,,,,,,,,,,,,,,,,,,,,,1.504,2.428,710.2403496000916,None,,,,,,,,,,,,,,,,,,,,710.7967001001816,711.3026358000934,0.5127132600173354,1.0130111598409712,711.2858866001479,711.385868600104,711.2858866001479,711.385868600104,711.385868600104,None,m,1,0.8709911000914872,711.385868600104,None,,,,,m,,p7,2022_Mar_08_1231,training+cueing,2021.1.4,60.05681370294661,
Stranger.png,You,Stranger,m,1.3,15,25,95,,,,,1,0,1,0,,,,,0,2,2,6,,,,,,,,,,,,,,,,,,,,,1.674,1.915,712.3925377000123,None,,,,,,,,,,,,,,,,,,,,712.9282308002003,713.4375403001904,0.49934287020005286,0.9994205702096224,713.404263400007,713.5040672000032,713.404263400007,713.5040672000032,713.5040672000032,None,m,1,1.1687366000842303,713.5040672000032,None,,,,,m,,p7,2022_Mar_08_1231,training+cueing,2021.1.4,60.05681370294661,
Stranger.png,Stranger,Stranger,c,3,13,23,93,,,,,1,0,1,0,,,,,0,3,3,8,,,,,,,,,,,,,,,,,,,,,1.419,2.003,714.7956795000937,None,,,,,,,,,,,,,,,,,,,,715.3426872000564,715.8558414999861,0.5100193698890507,1.0110253698658198,715.8392135000322,715.956028399989,715.8392135000322,715.956028399989,715.9393394000363,None,None,0,,715.9393394000363,None,,,,,m,,p7,2022_Mar_08_1231,training+cueing,2021.1.4,60.05681370294661,
Self.png,Stranger,Self ,m,3.1,18,28,98,,,,,1,0,1,0,,,,,0,4,4,2,,,,,,,,,,,,,,,,,,,,,1.753,2.062,717.477582000196,None,,,,,,,,,,,,,,,,,,,,718.0290208000224,718.5411922000349,0.5065018702298403,1.0065440700855106,718.5245186001994,718.6412588001695,718.5245186001994,718.6412588001695,718.6245594001375,None,m,1,0.8002944001927972,718.6245594001375,None,,,,,m,,p7,2022_Mar_08_1231,training+cueing,2021.1.4,60.05681370294661,
Stranger.png,Stranger,Stranger,c,3,13,23,93,,,,,1,0,1,0,,,,,0,5,5,11,,,,,,,,,,,,,,,,,,,,,1.613,1.752,719.5474847001024,None,,,,,,,,,,,,,,,,,,,,720.0959671000019,720.6092092001345,0.5083742700517178,1.0087083699181676,720.592498900136,720.7094175000675,720.592498900136,720.7094175000675,720.6926734000444,None,c,1,1.484229899942875,720.6926734000444,None,,,,,m,,p7,2022_Mar_08_1231,training+cueing,2021.1.4,60.05681370294661,
Self.png,You,Self ,c,1,11,21,91,,,,,1,0,1,0,,,,,0,6,6,0,,,,,,,,,,,,,,,,,,,,,1.4,2.387,722.3006820001174,None,,,,,,,,,,,,,,,,,,,,722.8559757000767,723.3611214000266,0.5111178599763662,1.0118954600766301,723.3444697000086,723.4445136000868,723.3444697000086,723.4445136000868,723.4445136000868,None,c,1,0.6682420999277383,723.4445136000868,None,,,,,m,,p7,2022_Mar_08_1231,training+cueing,2021.1.4,60.05681370294661,
Friend.png,Friend,Friend,c,2,12,22,92,,,,,1,0,1,0,,,,,0,7,7,10,,,,,,,,,,,,,,,,,,,,,1.572,1.814,724.2343488000333,None,,,,,,,,,,,,,,,,,,,,724.7721120000351,725.2792192001361,0.5114468701649457,1.0120372702367604,725.2626761000138,725.3795102001168,725.2626761000138,725.3795102001168,725.3627030001953,None,c,1,1.0381873999722302,725.3627030001953,None,,,,,m,,p7,2022_Mar_08_1231,training+cueing,2021.1.4,60.05681370294661,
Stranger.png,Friend,Stranger,m,2.3,17,27,97,,,,,1,0,1,0,,,,,0,8,8,7,,,,,,,,,,,,,,,,,,,,,1.509,1.707,726.5379313000012,None,,,,,,,,,,,,,,,,,,,,727.0879075000994,727.5979133001529,0.5031857702415437,1.0032727702055126,727.5812385000754,727.6979596000165,727.5812385000754,727.6979596000165,727.681254300056,None,m,1,0.7997326999902725,727.681254300056,None,,,,,m,,p7,2022_Mar_08_1231,training+cueing,2021.1.4,60.05681370294661,
Friend.png,Stranger,Friend,m,3.2,19,29,99,,,,,1,0,1,0,,,,,0,9,9,5,,,,,,,,,,,,,,,,,,,,,1.609,1.536,728.6077546000015,None,,,,,,,,,,,,,,,,,,,,729.1502989002038,729.6657048000488,0.5136798701714724,1.0141700701788068,729.6489938001614,729.7657270000782,729.6489938001614,729.7657270000782,729.749206900131,None,m,1,1.2276141000911593,729.749206900131,None,,,,,m,,p7,2022_Mar_08_1231,training+cueing,2021.1.4,60.05681370294661,
Self.png,You,Self ,c,1,11,21,91,,,,,1,0,1,0,,,,,0,10,10,9,,,,,,,,,,,,,,,,,,,,,1.626,1.205,731.1071140000131,None,,,,,,,,,,,,,,,,,,,,731.6437354001682,732.1508601000533,0.5124733701813966,1.013309270143509,732.1343480001669,732.2342710001394,732.1343480001669,732.2342710001394,732.2342710001394,None,c,1,0.5664486000314355,732.2342710001394,None,,,,,m,,p7,2022_Mar_08_1231,training+cueing,2021.1.4,60.05681370294661,
Friend.png,Friend,Friend,c,2,12,22,92,,,,,1,0,1,0,,,,,0,11,11,4,,,,,,,,,,,,,,,,,,,,,1.533,1.885,732.923584600212,None,,,,,,,,,,,,,,,,,,,,733.4636238000821,733.9688202000689,0.5102179697714746,1.0110299699008465,733.9521870000754,734.0690314001404,733.9521870000754,734.0690314001404,734.0523419000674,None,c,1,0.9884210999589413,734.0523419000674,None,,,,,m,,p7,2022_Mar_08_1231,training+cueing,2021.1.4,60.05681370294661,
Stranger.png,Stranger,Stranger,c,3,13,23,93,,,,,1,0,1,0,,,,,1,0,12,11,,,,,,,,,,,,,,,,,,,,,1.488,1.891,735.1768506001681,None,,,,,,,,,,,,,,,,,,,,735.7357515001204,736.2375776001718,0.49961625994183123,1.0008021600078791,736.2196070000064,736.3374429000542,736.2196070000064,736.3374429000542,736.3374429000542,None,c,1,0.8634127997793257,736.3374429000542,None,,,,,m,,p7,2022_Mar_08_1231,training+cueing,2021.1.4,60.05681370294661,
Stranger.png,You,Stranger,m,1.3,15,25,95,,,,,1,0,1,0,,,,,1,1,13,6,,,,,,,,,,,,,,,,,,,,,1.758,1.809,737.3289940000977,None,,,,,,,,,,,,,,,,,,,,737.8776742001064,738.3887488001492,0.5045427698642015,1.0045079698320478,738.3723878001329,738.472222500015,738.3723878001329,738.472222500015,738.472222500015,None,m,1,0.8727171998471022,738.472222500015,None,,,,,m,,p7,2022_Mar_08_1231,training+cueing,2021.1.4,60.05681370294661,
Stranger.png,Friend,Stranger,m,2.3,17,27,97,,,,,1,0,1,0,,,,,1,2,14,7,,,,,,,,,,,,,,,,,,,,,1.515,2.367,739.478952200152,None,,,,,,,,,,,,,,,,,,,,740.041872400092,740.5570578000043,0.5137815598864108,1.0140895599033684,740.5403520001564,740.6570831001736,740.5403520001564,740.6570831001736,740.6403541001491,None,None,0,,740.6403541001491,None,,,,,m,,p7,2022_Mar_08_1231,training+cueing,2021.1.4,60.05681370294661,
Friend.png,Friend,Friend,c,2,12,22,92,,,,,1,0,1,0,,,,,1,3,15,4,,,,,,,,,,,,,,,,,,,,,1.513,2.046,742.263766300166,None,,,,,,,,,,,,,,,,,,,,742.8127374001779,743.3255622000434,0.5078216698020697,1.008091369876638,743.3090535001829,743.4279821000528,743.3090535001829,743.4279821000528,743.4097611000761,None,c,1,0.7671699000056833,743.4097611000761,None,,,,,m,,p7,2022_Mar_08_1231,training+cueing,2021.1.4,60.05681370294661,
Stranger.png,Stranger,Stranger,c,3,13,23,93,,,,,1,0,1,0,,,,,1,4,16,8,,,,,,,,,,,,,,,,,,,,,1.697,1.957,744.2997598000802,None,,,,,,,,,,,,,,,,,,,,744.8381378999911,745.3560550999828,0.5284768699202687,1.030613969778642,745.3442923000548,745.4439853001386,745.3442923000548,745.4439853001386,745.42703300016,None,c,1,1.0377190001308918,745.42703300016,None,,,,,m,,p7,2022_Mar_08_1231,training+cueing,2021.1.4,60.05681370294661,
Friend.png,Stranger,Friend,m,3.2,19,29,99,,,,,1,0,1,0,,,,,1,5,17,5,,,,,,,,,,,,,,,,,,,,,1.46,1.276,746.6008129001129,None,,,,,,,,,,,,,,,,,,,,747.1455086001661,747.6457482001279,0.5004207699093968,1.0010350700467825,747.6289619000163,747.7462524999864,747.6289619000163,747.7462524999864,747.7462524999864,None,m,1,1.0867467999923974,747.7462524999864,None,,,,,m,,p7,2022_Mar_08_1231,training+cueing,2021.1.4,60.05681370294661,
Friend.png,You,Friend,m,1.2,14,24,94,,,,,1,0,1,0,,,,,1,6,18,3,,,,,,,,,,,,,,,,,,,,,1.616,1.249,748.9723290000111,None,,,,,,,,,,,,,,,,,,,,749.5147108000237,750.0141291001346,0.5135505700018257,1.0134845699649304,750.0141291001346,750.1141552000772,750.0141291001346,750.1141552000772,750.1141552000772,None,m,1,0.7986608999781311,750.1141552000772,None,,,,,m,,p7,2022_Mar_08_1231,training+cueing,2021.1.4,60.05681370294661,
Self.png,Stranger,Self ,m,3.1,18,28,98,,,,,1,0,1,0,,,,,1,7,19,2,,,,,,,,,,,,,,,,,,,,,1.61,2.499,751.0404634000733,None,,,,,,,,,,,,,,,,,,,,751.5777255001012,752.0819568000734,0.5078451700974256,1.0081275701522827,752.0653993000742,752.1821473001037,752.0653993000742,752.1821473001037,752.165435400093,None,m,1,0.731443899916485,752.165435400093,None,,,,,m,,p7,2022_Mar_08_1231,training+cueing,2021.1.4,60.05681370294661,
Self.png,Friend,Self ,m,2.1,16,26,96,,,,,1,0,1,0,,,,,1,8,20,1,,,,,,,,,,,,,,,,,,,,,1.606,1.466,753.0259030000307,None,,,,,,,,,,,,,,,,,,,,753.5624152000528,754.0670147000346,0.506621970096603,1.0068992702290416,754.0503511000425,754.1666688001715,754.0503511000425,754.1666688001715,754.1501447001938,None,m,1,0.9386040999088436,754.1501447001938,None,,,,,m,,p7,2022_Mar_08_1231,training+cueing,2021.1.4,60.05681370294661,
Self.png,You,Self ,c,1,11,21,91,,,,,1,0,1,0,,,,,1,9,21,0,,,,,,,,,,,,,,,,,,,,,1.644,2.163,755.2245858001988,None,,,,,,,,,,,,,,,,,,,,755.7619361001998,756.2682629001793,0.5120474700815976,1.0123784700408578,756.251507300185,756.3515569001902,756.251507300185,756.3515569001902,756.3515569001902,None,c,1,0.49713469995185733,756.3515569001902,None,,,,,m,,p7,2022_Mar_08_1231,training+cueing,2021.1.4,60.05681370294661,
Self.png,You,Self ,c,1,11,21,91,,,,,1,0,1,0,,,,,1,10,22,9,,,,,,,,,,,,,,,,,,,,,1.75,2.227,756.9747976001818,None,,,,,,,,,,,,,,,,,,,,757.5199071001261,758.0204302000348,0.5155367699917406,1.0150005700998008,758.0204302000348,758.1198195000179,758.0204302000348,758.1198195000179,758.1198195000179,None,c,1,0.45734349987469614,758.1198195000179,None,,,,,m,,p7,2022_Mar_08_1231,training+cueing,2021.1.4,60.05681370294661,
Friend.png,Friend,Friend,c,2,12,22,92,,,,,1,0,1,0,,,,,1,11,23,10,,,,,,,,,,,,,,,,,,,,,1.755,1.867,758.709324600175,None,,,,,,,,,,,,,,,,,,,,759.2474404000677,759.7544822001364,0.5119358701631427,1.0119153701234609,759.7377780000679,759.8544796002097,759.7377780000679,759.8544796002097,759.8378177999984,None,c,1,0.9311067999806255,759.8378177999984,None,,,,,m,,p7,2022_Mar_08_1231,training+cueing,2021.1.4,60.05681370294661,
Friend.png,Friend,Friend,c,2,12,22,92,,,,,1,0,1,0,,,,,2,0,24,10,,,,,,,,,,,,,,,,,,,,,1.735,1.973,760.8980414001271,None,,,,,,,,,,,,,,,,,,,,761.43514470011,761.9391288000625,0.5070761700626463,1.0071645700372756,761.9224836002104,762.0392113002017,761.9224836002104,762.0392113002017,762.0225002001971,None,c,1,0.7781897000968456,762.0225002001971,None,,,,,m,,p7,2022_Mar_08_1231,training+cueing,2021.1.4,60.05681370294661,
Stranger.png,You,Stranger,m,1.3,15,25,95,,,,,1,0,1,0,,,,,2,1,25,6,,,,,,,,,,,,,,,,,,,,,1.523,2.453,762.9293945000973,None,,,,,,,,,,,,,,,,,,,,763.480897200061,763.9908952000551,0.5024547700304538,1.0026754699647427,763.9741543000564,764.0739878001623,763.9741543000564,764.0739878001623,764.0739878001623,None,m,1,1.2066915999166667,764.0739878001623,None,,,,,m,,p7,2022_Mar_08_1231,training+cueing,2021.1.4,60.05681370294661,
Stranger.png,Friend,Stranger,m,2.3,17,27,97,,,,,1,0,1,0,,,,,2,2,26,7,,,,,,,,,,,,,,,,,,,,,1.798,1.818,765.4140647000168,None,,,,,,,,,,,,,,,,,,,,765.959855500143,766.4588855002075,0.5138079700991511,1.015090970089659,766.4588855002075,766.5590010001324,766.4588855002075,766.5590010001324,766.5590010001324,None,m,1,0.8816035999916494,766.5590010001324,None,,,,,m,,p7,2022_Mar_08_1231,training+cueing,2021.1.4,60.05681370294661,
Stranger.png,Stranger,Stranger,c,3,13,23,93,,,,,1,0,1,0,,,,,2,3,27,11,,,,,,,,,,,,,,,,,,,,,1.64,1.812,767.5659551001154,None,,,,,,,,,,,,,,,,,,,,768.1254302000161,768.6275429001544,0.5050977598875761,1.0053980599623173,768.6108216000721,768.7276018999983,768.6108216000721,768.7276018999983,768.7108568002004,None,c,1,1.1139271999709308,768.7108568002004,None,,,,,m,,p7,2022_Mar_08_1231,training+cueing,2021.1.4,60.05681370294661,
Friend.png,Stranger,Friend,m,3.2,19,29,99,,,,,1,0,1,0,,,,,2,4,28,5,,,,,,,,,,,,,,,,,,,,,1.646,2.491,769.9508192001376,None,,,,,,,,,,,,,,,,,,,,770.4861767000984,770.9918651999906,0.5172266701702029,1.0173842699732631,770.9798259001691,771.0791319999844,770.9798259001691,771.0791319999844,771.0791319999844,None,m,1,1.5139417999889702,771.0791319999844,None,,,,,m,,p7,2022_Mar_08_1231,training+cueing,2021.1.4,60.05681370294661,
Self.png,You,Self ,c,1,11,21,91,,,,,1,0,1,0,,,,,2,5,29,0,,,,,,,,,,,,,,,,,,,,,1.764,2.204,772.7228211001493,None,,,,,,,,,,,,,,,,,,,,773.2589170001447,773.7646022001281,0.5100984699092805,1.0099335699342191,773.7478683001827,773.8479354002047,773.7478683001827,773.8479354002047,773.8479354002047,None,c,1,0.5528249000199139,773.8479354002047,None,,,,,m,,p7,2022_Mar_08_1231,training+cueing,2021.1.4,60.05681370294661,
Self.png,Stranger,Self ,m,3.1,18,28,98,,,,,1,0,1,0,,,,,2,6,30,2,,,,,,,,,,,,,,,,,,,,,1.737,1.616,774.5373465002049,None,,,,,,,,,,,,,,,,,,,,775.0904333000071,775.5991165000014,0.501761469990015,1.0024341701064259,775.5823644001503,775.6990975001827,775.5823644001503,775.6990975001827,775.6990975001827,None,m,1,0.7178293999750167,775.6990975001827,None,,,,,m,,p7,2022_Mar_08_1231,training+cueing,2021.1.4,60.05681370294661,
Stranger.png,Stranger,Stranger,c,3,13,23,93,,,,,1,0,1,0,,,,,2,7,31,8,,,,,,,,,,,,,,,,,,,,,1.693,2.304,776.542769000167,None,,,,,,,,,,,,,,,,,,,,777.0880873000715,777.60067970003,0.5082649700343609,1.008104870095849,777.5839953999966,777.7003560999874,777.5839953999966,777.7003560999874,777.683936299989,None,c,1,1.5328941999468952,777.683936299989,None,,,,,m,,p7,2022_Mar_08_1231,training+cueing,2021.1.4,60.05681370294661,
Self.png,Friend,Self ,m,2.1,16,26,96,,,,,1,0,1,0,,,,,2,8,32,1,,,,,,,,,,,,,,,,,,,,,1.662,2.216,779.3448993000202,None,,,,,,,,,,,,,,,,,,,,779.8819145001471,780.3856513001956,0.5075888701248914,1.0085027699824423,780.3689278000966,780.4864368000999,780.3689278000966,780.4864368000999,780.4698451000731,None,m,1,0.8749253998976201,780.4698451000731,None,,,,,m,,p7,2022_Mar_08_1231,training+cueing,2021.1.4,60.05681370294661,
Friend.png,You,Friend,m,1.2,14,24,94,,,,,1,0,1,0,,,,,2,9,33,3,,,,,,,,,,,,,,,,,,,,,1.642,1.439,781.4757168001961,None,,,,,,,,,,,,,,,,,,,,782.0323505999986,782.5375345000066,0.5103023601695895,1.0104264600668103,782.5208118001465,782.621460000053,782.5208118001465,782.621460000053,782.621460000053,None,m,1,0.8832573997788131,782.621460000053,None,,,,,m,,p7,2022_Mar_08_1231,training+cueing,2021.1.4,60.05681370294661,
Self.png,You,Self ,c,1,11,21,91,,,,,1,0,1,0,,,,,2,10,34,9,,,,,,,,,,,,,,,,,,,,,1.591,2.176,783.6270930001047,None,,,,,,,,,,,,,,,,,,,,784.1712218001485,784.672244900139,0.5003166701644659,1.0004247701726854,784.6555306999944,784.7555917000864,784.6555306999944,784.7555917000864,784.7555917000864,None,c,1,0.9572995000053197,784.7555917000864,None,,,,,m,,p7,2022_Mar_08_1231,training+cueing,2021.1.4,60.05681370294661,
Friend.png,Friend,Friend,c,2,12,22,92,,,,,1,0,1,0,,,,,2,11,35,4,,,,,,,,,,,,,,,,,,,,,1.648,1.426,785.8466537001077,None,,,,,,,,,,,,,,,,,,,,786.3844272000715,786.8903386001475,0.5119260700885206,1.0130715700797737,786.8736947001889,786.990416900022,786.8736947001889,786.990416900022,786.973714100197,None,c,1,0.9150076999794692,786.973714100197,None,,,,,m,,p7,2022_Mar_08_1231,training+cueing,2021.1.4,60.05681370294661,
Stranger.png,You,Stranger,m,1.3,15,25,95,,,,,1,0,1,0,,,,,3,0,36,6,,,,,,,,,,,,,,,,,,,,,1.759,1.681,788.0149436001666,None,,,,,,,,,,,,,,,,,,,,788.5517574001569,789.0586856000591,0.5106065701693296,1.0111223701387644,789.0420237001963,789.1420323001221,789.0420237001963,789.1420323001221,789.1420323001221,None,m,1,0.810693999985233,789.1420323001221,None,,,,,m,,p7,2022_Mar_08_1231,training+cueing,2021.1.4,60.05681370294661,
Self.png,You,Self ,c,1,11,21,91,,,,,1,0,1,0,,,,,3,1,37,9,,,,,,,,,,,,,,,,,,,,,1.704,2.443,790.0822640000843,None,,,,,,,,,,,,,,,,,,,,790.6315665000584,791.1434638001956,0.5066583699081093,1.007689069956541,791.1268571000546,791.2269643000327,791.1268571000546,791.2269643000327,791.2269643000327,None,c,1,0.5658863000571728,791.2269643000327,None,,,,,m,,p7,2022_Mar_08_1231,training+cueing,2021.1.4,60.05681370294661,
Friend.png,Stranger,Friend,m,3.2,19,29,99,,,,,1,0,1,0,,,,,3,2,38,5,,,,,,,,,,,,,,,,,,,,,1.767,1.516,791.9208985001314,None,,,,,,,,,,,,,,,,,,,,792.4702175001148,792.9783863001503,0.49908046005293727,0.9997834600508213,792.9450958000962,793.0451317999978,792.9450958000962,793.0451317999978,793.0617933000904,None,m,1,1.355045499978587,793.0617933000904,None,,,,,m,,p7,2022_Mar_08_1231,training+cueing,2021.1.4,60.05681370294661,
Self.png,Stranger,Self ,m,3.1,18,28,98,,,,,1,0,1,0,,,,,3,3,39,2,,,,,,,,,,,,,,,,,,,,,1.404,2.42,794.553263900103,None,,,,,,,,,,,,,,,,,,,,795.0947153000161,795.5967956001405,0.5025074700824916,1.0028293700888753,795.5799804001581,795.6966374001931,795.5799804001581,795.6966374001931,795.6801440999843,None,m,1,0.8647231999784708,795.6801440999843,None,,,,,m,,p7,2022_Mar_08_1231,training+cueing,2021.1.4,60.05681370294661,
Friend.png,You,Friend,m,1.2,14,24,94,,,,,1,0,1,0,,,,,3,4,40,3,,,,,,,,,,,,,,,,,,,,,1.424,2.259,796.6743072001263,None,,,,,,,,,,,,,,,,,,,,797.2551039000973,797.7649654999841,0.5097596503328532,1.0098096502479166,797.7483205001336,797.8485245001502,797.7483205001336,797.8485245001502,797.8485245001502,None,m,1,0.7441910998895764,797.8485245001502,None,,,,,m,,p7,2022_Mar_08_1231,training+cueing,2021.1.4,60.05681370294661,
Stranger.png,Stranger,Stranger,c,3,13,23,93,,,,,1,0,1,0,,,,,3,5,41,8,,,,,,,,,,,,,,,,,,,,,1.451,1.805,798.7226561000571,None,,,,,,,,,,,,,,,,,,,,799.2613565002102,799.7662618001923,0.5104374699294567,1.0113221700303257,799.7495966001879,799.8667934001423,799.7495966001879,799.8667934001423,799.8501566001214,None,c,1,1.206484000198543,799.8501566001214,None,,,,,m,,p7,2022_Mar_08_1231,training+cueing,2021.1.4,60.05681370294661,
Self.png,Friend,Self ,m,2.1,16,26,96,,,,,1,0,1,0,,,,,3,6,42,1,,,,,,,,,,,,,,,,,,,,,1.554,2.235,801.1898340000771,None,,,,,,,,,,,,,,,,,,,,801.7396579000633,802.2518168999813,0.5056758702266961,1.0064364701975137,802.2351081001107,802.3518463000655,802.2351081001107,802.3518463000655,802.3351272,None,None,0,,802.3351272,None,,,,,m,,p7,2022_Mar_08_1231,training+cueing,2021.1.4,60.05681370294661,
Self.png,You,Self ,c,1,11,21,91,,,,,1,0,1,0,,,,,3,7,43,0,,,,,,,,,,,,,,,,,,,,,1.697,1.333,804.0099153001793,None,,,,,,,,,,,,,,,,,,,,804.567130099982,805.070242700167,0.5091855600476265,1.0092459600418806,805.0536703001708,805.1536690001376,805.0536703001708,805.1536690001376,805.1536690001376,None,c,1,1.0871508999262005,805.1536690001376,None,,,,,m,,p7,2022_Mar_08_1231,training+cueing,2021.1.4,60.05681370294661,
Friend.png,Friend,Friend,c,2,12,22,92,,,,,1,0,1,0,,,,,3,8,44,4,,,,,,,,,,,,,,,,,,,,,1.477,2.365,806.3766370001249,None,,,,,,,,,,,,,,,,,,,,806.9200301000383,807.422027300112,0.5026100699324161,1.0027234700974077,807.4053240001667,807.5218178001232,807.4053240001667,807.5218178001232,807.5051405001432,None,c,1,0.9595566000789404,807.5051405001432,None,,,,,m,,p7,2022_Mar_08_1231,training+cueing,2021.1.4,60.05681370294661,
Friend.png,Friend,Friend,c,2,12,22,92,,,,,1,0,1,0,,,,,3,9,45,10,,,,,,,,,,,,,,,,,,,,,1.699,2.181,808.5956154000014,None,,,,,,,,,,,,,,,,,,,,809.1431295000948,809.6568444999866,0.5104771701153368,1.0113767702132463,809.6402573001105,809.7569153001532,809.6402573001105,809.7569153001532,809.7402871001977,None,c,1,0.9164084999356419,809.7402871001977,None,,,,,m,,p7,2022_Mar_08_1231,training+cueing,2021.1.4,60.05681370294661,
Stranger.png,Stranger,Stranger,c,3,13,23,93,,,,,1,0,1,0,,,,,3,10,46,11,,,,,,,,,,,,,,,,,,,,,1.718,1.523,810.7812807001173,None,,,,,,,,,,,,,,,,,,,,811.3418769000564,811.8419889002107,0.5024257597979158,1.002718459814787,811.8253343000542,811.9420902000275,811.8253343000542,811.9420902000275,811.9254098001402,None,m,0,0.6352701000869274,811.9254098001402,None,,,,,m,,p7,2022_Mar_08_1231,training+cueing,2021.1.4,60.05681370294661,
Stranger.png,Friend,Stranger,m,2.3,17,27,97,,,,,1,0,1,0,,,,,3,11,47,7,,,,,,,,,,,,,,,,,,,,,1.412,2.191,812.6826312001795,None,,,,,,,,,,,,,,,,,,,,813.2285145001952,813.743353900034,0.510105469962582,1.010204569902271,813.7265606999863,813.8434161001351,813.7265606999863,813.8434161001351,813.8267276000697,None,None,0,,813.8267276000697,None,,,,,m,,p7,2022_Mar_08_1231,training+cueing,2021.1.4,60.05681370294661,
Stranger.png,You,Stranger,m,1.3,15,25,95,,,,,1,0,1,0,,,,,4,0,48,6,,,,,,,,,,,,,,,,,,,,,1.642,1.45,815.3517523000482,None,,,,,,,,,,,,,,,,,,,,815.8880664000753,816.3950158001389,0.5125733700115234,1.013754169922322,816.3783423001878,816.4786410001107,816.3783423001878,816.4786410001107,816.4786410001107,None,m,1,0.7859088000841439,816.4786410001107,None,,,,,m,,p7,2022_Mar_08_1231,training+cueing,2021.1.4,60.05681370294661,
Stranger.png,Stranger,Stranger,c,3,13,23,93,,,,,1,0,1,0,,,,,4,1,49,8,,,,,,,,,,,,,,,,,,,,,1.638,1.892,817.4019412000198,None,,,,,,,,,,,,,,,,,,,,817.9417642001063,818.4464176001493,0.5092815700918436,1.009507270064205,818.4299752002116,818.5464811001439,818.4299752002116,818.5464811001439,818.5299659001175,None,c,1,0.9747662001755089,818.5299659001175,None,,,,,m,,p7,2022_Mar_08_1231,training+cueing,2021.1.4,60.05681370294661,
Self.png,Friend,Self ,m,2.1,16,26,96,,,,,1,0,1,0,,,,,4,2,50,1,,,,,,,,,,,,,,,,,,,,,1.605,2.195,819.638332300121,None,,,,,,,,,,,,,,,,,,,,820.1760581000708,820.6817166002002,0.5087632697541267,1.0087839697953314,820.6651738001965,820.781775600044,820.6651738001965,820.781775600044,820.7650992001873,None,m,1,0.8679359001107514,820.7650992001873,None,,,,,m,,p7,2022_Mar_08_1231,training+cueing,2021.1.4,60.05681370294661,
Friend.png,Friend,Friend,c,2,12,22,92,,,,,1,0,1,0,,,,,4,3,51,10,,,,,,,,,,,,,,,,,,,,,1.692,2.076,821.7578181000426,None,,,,,,,,,,,,,,,,,,,,822.3002131001558,822.7999391001649,0.4998898699413985,1.0000999700278044,822.7832797002047,822.8999735000543,822.7832797002047,822.8999735000543,822.8999735000543,None,c,1,0.7486107000149786,822.8999735000543,None,,,,,m,,p7,2022_Mar_08_1231,training+cueing,2021.1.4,60.05681370294661,
Self.png,Stranger,Self ,m,3.1,18,28,98,,,,,1,0,1,0,,,,,4,4,52,2,,,,,,,,,,,,,,,,,,,,,1.738,2.447,823.7749546000268,None,,,,,,,,,,,,,,,,,,,,824.3126323001925,824.8178501999937,0.5063223699107766,1.007741869892925,824.8000266000163,824.917985800188,824.8000266000163,824.917985800188,824.9013810001779,None,m,1,0.8113311999477446,824.9013810001779,None,,,,,m,,p7,2022_Mar_08_1231,training+cueing,2021.1.4,60.05681370294661,
Friend.png,You,Friend,m,1.2,14,24,94,,,,,1,0,1,0,,,,,4,5,53,3,,,,,,,,,,,,,,,,,,,,,1.693,1.444,825.8421899001114,None,,,,,,,,,,,,,,,,,,,,826.3944887001999,826.9028390999883,0.4998816601000726,0.9999364600516856,826.8694387001451,826.9695172000211,826.8694387001451,826.9695172000211,826.9695172000211,None,m,1,0.823417600011453,826.9695172000211,None,,,,,m,,p7,2022_Mar_08_1231,training+cueing,2021.1.4,60.05681370294661,
Stranger.png,Stranger,Stranger,c,3,13,23,93,,,,,1,0,1,0,,,,,4,6,54,11,,,,,,,,,,,,,,,,,,,,,1.753,1.356,827.9263540999964,None,,,,,,,,,,,,,,,,,,,,828.5222728999797,829.0376306001563,0.514245439786464,1.0141839399002492,829.0211254002061,829.1378531001974,829.0211254002061,829.1378531001974,829.1211461001076,None,c,1,0.9435980999842286,829.1211461001076,None,,,,,m,,p7,2022_Mar_08_1231,training+cueing,2021.1.4,60.05681370294661,
Stranger.png,Friend,Stranger,m,2.3,17,27,97,,,,,1,0,1,0,,,,,4,7,55,7,,,,,,,,,,,,,,,,,,,,,1.77,1.776,830.1960395001806,None,,,,,,,,,,,,,,,,,,,,830.7339372001588,831.2389871000778,0.5078992701601237,1.0086515701841563,831.2223428001162,831.3389958001208,831.2223428001162,831.3389958001208,831.3223563001957,None,c,0,1.430257699918002,831.3223563001957,None,,,,,m,,p7,2022_Mar_08_1231,training+cueing,2021.1.4,60.05681370294661,
Friend.png,Friend,Friend,c,2,12,22,92,,,,,1,0,1,0,,,,,4,8,56,4,,,,,,,,,,,,,,,,,,,,,1.753,2.272,832.8788668999914,None,,,,,,,,,,,,,,,,,,,,833.4336527001578,833.9412310000043,0.5151124598924071,1.0152434599585831,833.9245725001674,834.0412739000749,833.9245725001674,834.0412739000749,834.0245813000947,None,c,1,1.2400714000687003,834.0245813000947,None,,,,,m,,p7,2022_Mar_08_1231,training+cueing,2021.1.4,60.05681370294661,
Self.png,You,Self ,c,1,11,21,91,,,,,1,0,1,0,,,,,4,9,57,0,,,,,,,,,,,,,,,,,,,,,1.68,2.149,835.3988994001411,None,,,,,,,,,,,,,,,,,,,,835.9447970001493,836.4597996000666,0.512333869934082,1.0123876701109111,836.4430755001958,836.5431818000507,836.4430755001958,836.5431818000507,836.5431818000507,None,c,1,0.5773968999274075,836.5431818000507,None,,,,,m,,p7,2022_Mar_08_1231,training+cueing,2021.1.4,60.05681370294661,
Self.png,You,Self ,c,1,11,21,91,,,,,1,0,1,0,,,,,4,10,58,9,,,,,,,,,,,,,,,,,,,,,1.755,1.848,837.2492949999869,None,,,,,,,,,,,,,,,,,,,,837.7984846001491,838.3111669002101,0.5076048700138927,1.0079085701145232,838.2944624000229,838.3945296001621,838.2944624000229,838.3945296001621,838.3945296001621,None,c,1,0.6460905000567436,838.3945296001621,None,,,,,m,,p7,2022_Mar_08_1231,training+cueing,2021.1.4,60.05681370294661,
Friend.png,Stranger,Friend,m,3.2,19,29,99,,,,,1,0,1,0,,,,,4,11,59,5,,,,,,,,,,,,,,,,,,,,,1.673,1.335,839.1673124001827,None,,,,,,,,,,,,,,,,,,,,839.7214808000717,840.2289307001047,0.5144227601122111,1.0153861599974334,840.2123500001617,840.329023900209,840.2123500001617,840.329023900209,840.3122744001448,None,m,1,1.1928948001004755,840.3122744001448,None,,,,,m,,p7,2022_Mar_08_1231,training+cueing,2021.1.4,60.05681370294661,
Friend.png,Friend,Friend,c,2,12,22,92,,,,,1,0,1,0,,,,,5,0,60,10,,,,,,,,,,,,,,,,,,,,,1.626,2.14,841.6401367001235,None,,,,,,,,,,,,,,,,,,,,842.1949513000436,842.6974644002039,0.5041321597527713,1.004920159932226,842.68063980015,842.797560499981,842.68063980015,842.797560499981,842.7806268001441,None,c,1,0.6599576999433339,842.7806268001441,None,,,,,m,,p7,2022_Mar_08_1231,training+cueing,2021.1.4,60.05681370294661,
Self.png,You,Self ,c,1,11,21,91,,,,,1,0,1,0,,,,,5,1,61,0,,,,,,,,,,,,,,,,,,,,,1.548,2.086,843.5702387001365,None,,,,,,,,,,,,,,,,,,,,844.1145466000307,844.615470000077,0.5022770699579269,1.0026762699708343,844.5986592001282,844.6988276999909,844.5986592001282,844.6988276999909,844.6988276999909,None,c,1,0.6937275000382215,844.6988276999909,None,,,,,m,,p7,2022_Mar_08_1231,training+cueing,2021.1.4,60.05681370294661,
Self.png,Friend,Self ,m,2.1,16,26,96,,,,,1,0,1,0,,,,,5,2,62,1,,,,,,,,,,,,,,,,,,,,,1.611,2.327,845.5220699000638,None,,,,,,,,,,,,,,,,,,,,846.064274400007,846.566900000209,0.5042713701259345,1.004884370137006,846.5501057000365,846.6654589001555,846.5501057000365,846.6654589001555,846.6549998000264,None,m,1,0.8976807999424636,846.6549998000264,None,,,,,m,,p7,2022_Mar_08_1231,training+cueing,2021.1.4,60.05681370294661,
Friend.png,You,Friend,m,1.2,14,24,94,,,,,1,0,1,0,,,,,5,3,63,3,,,,,,,,,,,,,,,,,,,,,1.649,2.346,847.6911534999963,None,,,,,,,,,,,,,,,,,,,,848.2584425001405,848.7683687000535,0.503576559945941,1.003867459949106,848.7518228001427,848.8516549000051,848.7518228001427,848.8516549000051,848.8516549000051,None,m,1,0.8771567998919636,848.8516549000051,None,,,,,m,,p7,2022_Mar_08_1231,training+cueing,2021.1.4,60.05681370294661,
Stranger.png,You,Stranger,m,1.3,15,25,95,,,,,1,0,1,0,,,,,5,4,64,6,,,,,,,,,,,,,,,,,,,,,1.679,1.967,849.8620621000882,None,,,,,,,,,,,,,,,,,,,,850.4140837001614,850.9198372000828,0.5116163599304855,1.0123211599420756,850.9031758001074,851.003428200027,850.9031758001074,851.003428200027,851.003428200027,None,m,1,1.0930536999367177,851.003428200027,None,,,,,m,,p7,2022_Mar_08_1231,training+cueing,2021.1.4,60.05681370294661,
Stranger.png,Friend,Stranger,m,2.3,17,27,97,,,,,1,0,1,0,,,,,5,5,65,7,,,,,,,,,,,,,,,,,,,,,1.496,1.459,852.227145300014,None,,,,,,,,,,,,,,,,,,,,852.7912821001373,853.3051195000298,0.5109348599798977,1.011496459832415,853.2884264001623,853.4056558001321,853.2884264001623,853.4056558001321,853.3891383002046,None,m,1,1.155488200020045,853.3891383002046,None,,,,,m,,p7,2022_Mar_08_1231,training+cueing,2021.1.4,60.05681370294661,
Friend.png,Stranger,Friend,m,3.2,19,29,99,,,,,1,0,1,0,,,,,5,6,66,5,,,,,,,,,,,,,,,,,,,,,1.665,1.54,854.6802568000276,None,,,,,,,,,,,,,,,,,,,,855.2329880001489,855.7401231999975,0.5151455602608621,1.0159707602579147,855.7236827001907,855.8401212000754,855.7236827001907,855.8401212000754,855.8235272001475,None,m,1,1.6330833998508751,855.8235272001475,None,,,,,m,,p7,2022_Mar_08_1231,training+cueing,2021.1.4,60.05681370294661,
Stranger.png,Stranger,Stranger,c,3,13,23,93,,,,,1,0,1,0,,,,,5,7,67,11,,,,,,,,,,,,,,,,,,,,,1.664,1.525,857.5816021000501,None,,,,,,,,,,,,,,,,,,,,858.1339987001847,858.6421927001793,0.5000241699162871,1.0009826698806137,858.6255986001343,858.7423485000618,858.6255986001343,858.7423485000618,858.7423485000618,None,c,1,1.1463942001573741,858.7423485000618,None,,,,,m,,p7,2022_Mar_08_1231,training+cueing,2021.1.4,60.05681370294661,
Self.png,You,Self ,c,1,11,21,91,,,,,1,0,1,0,,,,,5,8,68,9,,,,,,,,,,,,,,,,,,,,,1.719,1.989,860.0168895001989,None,,,,,,,,,,,,,,,,,,,,860.5612220000476,861.0608668001369,0.5135780700948089,1.014410370029509,861.0608668001369,861.1609590000007,861.0608668001369,861.1609590000007,861.1609590000007,None,c,1,0.6315796000417322,861.1609590000007,None,,,,,m,,p7,2022_Mar_08_1231,training+cueing,2021.1.4,60.05681370294661,
Self.png,Stranger,Self ,m,3.1,18,28,98,,,,,1,0,1,0,,,,,5,9,69,2,,,,,,,,,,,,,,,,,,,,,1.62,1.265,861.9180581001565,None,,,,,,,,,,,,,,,,,,,,862.4561913001817,862.9620250000153,0.5105769699439406,1.011040969984606,862.9453463000245,863.0621156000998,862.9453463000245,863.0621156000998,863.0454074000008,None,m,1,0.7951821000315249,863.0454074000008,None,,,,,m,,p7,2022_Mar_08_1231,training+cueing,2021.1.4,60.05681370294661,
Friend.png,Friend,Friend,c,2,12,22,92,,,,,1,0,1,0,,,,,5,10,70,4,,,,,,,,,,,,,,,,,,,,,1.587,1.869,863.968304600101,None,,,,,,,,,,,,,,,,,,,,864.5211328000296,865.0302296001464,0.5017535702791065,1.0022276702802628,865.0135351000354,865.1302883001044,865.0135351000354,865.1302883001044,865.1302883001044,None,c,1,0.9823787999339402,865.1302883001044,None,,,,,m,,p7,2022_Mar_08_1231,training+cueing,2021.1.4,60.05681370294661,
Stranger.png,Stranger,Stranger,c,3,13,23,93,,,,,1,0,1,0,,,,,5,11,71,8,,,,,,,,,,,,,,,,,,,,,1.45,2.13,866.2408706001006,None,,,,,,,,,,,,,,,,,,,,866.7853904000949,867.2985589001328,0.5069740698672831,1.0076813700143248,867.2816826000344,867.3992681000382,867.2816826000344,867.3992681000382,867.3816543000285,None,c,1,1.3708651000633836,867.3816543000285,None,,,,,m,,p7,2022_Mar_08_1231,training+cueing,2021.1.4,60.05681370294661,
Self.png,Stranger,Self ,m,3.1,18,28,98,,,,,1,0,1,0,,,,,6,0,72,2,,,,,,,,,,,,,,,,,,,,,1.629,1.925,868.8882956001908,None,,,,,,,,,,,,,,,,,,,,869.4389334002044,869.9503917000256,0.5062653699424118,1.0065442700870335,869.9337624001782,870.0503329001367,869.9337624001782,870.0503329001367,870.0337825000752,None,m,1,0.7188120998907834,870.0337825000752,None,,,,,m,,p7,2022_Mar_08_1231,training+cueing,2021.1.4,60.05681370294661,
Friend.png,Stranger,Friend,m,3.2,19,29,99,,,,,1,0,1,0,,,,,6,1,73,5,,,,,,,,,,,,,,,,,,,,,1.4,1.478,870.8903350001201,None,,,,,,,,,,,,,,,,,,,,871.4331276000012,871.9352206001058,0.5051159700378776,1.005108969984576,871.9187832002062,872.0352776001673,871.9187832002062,872.0352776001673,872.0185553000774,None,m,1,1.1660453998483717,872.0185553000774,None,,,,,m,,p7,2022_Mar_08_1231,training+cueing,2021.1.4,60.05681370294661,
Stranger.png,Stranger,Stranger,c,3,13,23,93,,,,,1,0,1,0,,,,,6,2,74,11,,,,,,,,,,,,,,,,,,,,,1.733,1.578,873.3096473000478,None,,,,,,,,,,,,,,,,,,,,873.8447269999888,874.3536483000498,0.5152773701120168,1.0155829701106995,874.3369158001151,874.4534545000643,874.3369158001151,874.4534545000643,874.4367610001937,None,c,1,1.0040660998784006,874.4367610001937,None,,,,,m,,p7,2022_Mar_08_1231,training+cueing,2021.1.4,60.05681370294661,
Friend.png,Friend,Friend,c,2,12,22,92,,,,,1,0,1,0,,,,,6,3,75,4,,,,,,,,,,,,,,,,,,,,,1.539,1.602,875.5800823001191,None,,,,,,,,,,,,,,,,,,,,876.1219079000875,876.6217438001186,0.49979406991042197,1.0001096699852496,876.6050700000487,876.7218558001332,876.6050700000487,876.7218558001332,876.7218558001332,None,c,1,0.958901199977845,876.7218558001332,None,,,,,m,,p7,2022_Mar_08_1231,training+cueing,2021.1.4,60.05681370294661,
Self.png,You,Self ,c,1,11,21,91,,,,,1,0,1,0,,,,,6,4,76,9,,,,,,,,,,,,,,,,,,,,,1.535,1.506,877.8128920001909,None,,,,,,,,,,,,,,,,,,,,878.3504304001108,878.8566984001081,0.510404669912532,1.0106524699367583,878.8401614001486,878.9401452001184,878.8401614001486,878.9401452001184,878.9401452001184,None,c,1,0.9324922999367118,878.9401452001184,None,,,,,m,,p7,2022_Mar_08_1231,training+cueing,2021.1.4,60.05681370294661,
Self.png,You,Self ,c,1,11,21,91,,,,,1,0,1,0,,,,,6,5,77,0,,,,,,,,,,,,,,,,,,,,,1.728,2.307,880.0011158001143,None,,,,,,,,,,,,,,,,,,,,880.545132700121,881.0583195001818,0.5085716699250042,1.0088543698657304,881.0415801000781,881.1418318001088,881.0415801000781,881.1418318001088,881.1418318001088,None,c,1,0.4747248000930995,881.1418318001088,None,,,,,m,,p7,2022_Mar_08_1231,training+cueing,2021.1.4,60.05681370294661,
Self.png,Friend,Self ,m,2.1,16,26,96,,,,,1,0,1,0,,,,,6,6,78,1,,,,,,,,,,,,,,,,,,,,,1.652,1.743,881.7484795001801,None,,,,,,,,,,,,,,,,,,,,882.2911375002004,882.7932353001088,0.5042508703190833,1.0042105701286346,882.776531400159,882.893267699983,882.776531400159,882.893267699983,882.8765579001047,None,m,1,0.836004399927333,882.8765579001047,None,,,,,m,,p7,2022_Mar_08_1231,training+cueing,2021.1.4,60.05681370294661,
Stranger.png,You,Stranger,m,1.3,15,25,95,,,,,1,0,1,0,,,,,6,7,79,6,,,,,,,,,,,,,,,,,,,,,1.462,1.615,883.8507050999906,None,,,,,,,,,,,,,,,,,,,,884.3955982001498,884.9112472999841,0.5128828699234873,1.0129687699954957,884.8945356002077,884.994460800197,884.8945356002077,884.994460800197,884.994460800197,None,m,1,1.1181012999732047,884.994460800197,None,,,,,m,,p7,2022_Mar_08_1231,training+cueing,2021.1.4,60.05681370294661,
Stranger.png,Friend,Stranger,m,2.3,17,27,97,,,,,1,0,1,0,,,,,6,8,80,7,,,,,,,,,,,,,,,,,,,,,1.598,2.378,886.2348140000831,None,,,,,,,,,,,,,,,,,,,,886.7731800000183,887.2796170001384,0.5123054699506611,1.0125153698027134,887.262952500023,887.379522500094,887.262952500023,887.379522500094,887.3629582000431,None,m,1,1.1496987000573426,887.3629582000431,None,,,,,m,,p7,2022_Mar_08_1231,training+cueing,2021.1.4,60.05681370294661,
Friend.png,You,Friend,m,1.2,14,24,94,,,,,1,0,1,0,,,,,6,9,81,3,,,,,,,,,,,,,,,,,,,,,1.7,1.364,888.6402455000207,None,,,,,,,,,,,,,,,,,,,,889.1769079000223,889.6939036000986,0.5262157700490206,1.0266382701229304,889.6819005000871,889.7815080999862,889.6819005000871,889.7815080999862,889.7646663000342,None,m,1,0.7159485998563468,889.7646663000342,None,,,,,m,,p7,2022_Mar_08_1231,training+cueing,2021.1.4,60.05681370294661,
Stranger.png,Stranger,Stranger,c,3,13,23,93,,,,,1,0,1,0,,,,,6,10,82,8,,,,,,,,,,,,,,,,,,,,,1.663,1.362,890.6085566000547,None,,,,,,,,,,,,,,,,,,,,891.1668660000432,891.6663207001984,0.5141153600998223,1.014495560200885,891.6663207001984,891.7662782000843,891.6663207001984,891.7662782000843,891.7662782000843,None,c,1,1.0023503999691457,891.7662782000843,None,,,,,m,,p7,2022_Mar_08_1231,training+cueing,2021.1.4,60.05681370294661,
Friend.png,Friend,Friend,c,2,12,22,92,,,,,1,0,1,0,,,,,6,11,83,10,,,,,,,,,,,,,,,,,,,,,1.5,1.474,892.9074052001815,None,,,,,,,,,,,,,,,,,,,,893.4551700002048,893.9679601001553,0.5079347698483616,1.0089424699544907,893.9510664001573,894.0680025001056,893.9510664001573,894.0680025001056,894.0513278001454,None,c,1,0.7811720001045614,894.0513278001454,None,,,,,m,,p7,2022_Mar_08_1231,training+cueing,2021.1.4,60.05681370294661,
Self.png,You,Self ,c,1,11,21,91,,,,,1,0,1,0,,,,,7,0,84,0,,,,,,,,,,,,,,,,,,,,,1.509,1.921,894.9588454000186,None,,,,,,,,,,,,,,,,,,,,895.4960847001057,896.0025696000084,0.5097758700139821,1.0107810702174902,895.9858717001043,896.0859284000471,895.9858717001043,896.0859284000471,896.0859284000471,None,c,1,0.5225031999871135,896.0859284000471,None,,,,,m,,p7,2022_Mar_08_1231,training+cueing,2021.1.4,60.05681370294661,
Self.png,Stranger,Self ,m,3.1,18,28,98,,,,,1,0,1,0,,,,,7,1,85,2,,,,,,,,,,,,,,,,,,,,,1.711,1.764,896.742818400031,None,,,,,,,,,,,,,,,,,,,,897.3083471001592,897.8205839002039,0.5097896601073444,1.0097536600660533,897.8041378001217,897.9207766000181,897.8041378001217,897.9207766000181,897.904098500032,None,m,1,1.3445270999800414,897.904098500032,None,,,,,m,,p7,2022_Mar_08_1231,training+cueing,2021.1.4,60.05681370294661,
