Image,Name,Face,CorrAns,Match,Face_onset,CResponse_onset,IResponse_onset,Match.thisRepN,Match.thisTrialN,Match.thisN,Match.thisIndex,Blocks.thisRepN,Blocks.thisTrialN,Blocks.thisN,Blocks.thisIndex,trials.thisRepN,trials.thisTrialN,trials.thisN,trials.thisIndex,trials_2.thisRepN,trials_2.thisTrialN,trials_2.thisN,trials_2.thisIndex,text.started,text.stopped,p1.started,p1.stopped,MatchInstructions.started,MatchInstructions.stopped,Name1.started,Name1.stopped,Face_Relevance.started,Face_Relevance.stopped,MismatchInstructions.started,MismatchInstructions.stopped,Rest_trainingInstruct.started,Rest_trainingInstruct.stopped,next8.keys,next8.rt,next8.started,next8.stopped,Ready.started,Ready.stopped,delay_one_picked,delay_two_picked,blank0.started,blank0.stopped,FixationCross1.started,FixationCross1.stopped,Name3.started,Name3.stopped,Face_Relevance3.started,Face_Relevance3.stopped,responseTime.started,responseTime.stopped,resp.keys,resp.corr,resp.started,resp.stopped,Accuracy.started,Accuracy.stopped,resp.rt,questions.started,questions.stopped,p2.started,p2.stopped,FixationCross3.started,FixationCross3.stopped,port_Face_onset.started,port_Face_onset.stopped,Name4.started,Name4.stopped,Face_Relevance4.started,Face_Relevance4.stopped,responseTime2.started,responseTime2.stopped,Response.keys,Response.corr,Response.rt,Response.started,Response.stopped,p3.started,p3.stopped,Finish.started,Finish.stopped,gender,age,participant,date,expName,psychopyVersion,frameRate,
Stranger.png,Stranger,,,,,,,0,0,0,2,,,,,,,,,,,,,26.563587700016797,None,0.00801400956697762,0.5318593096453696,41.39960160013288,None,50.926786500029266,None,50.926786500029266,None,,,,,,,,,,,,,,,,,,,,,,,,,,,,,,,,,,,,,,,,,,,,,,,,,,,,,m,,p9,2022_Mar_11_1149,training+cueing,2021.1.4,59.82535776727825,
Friend.png,Friend,,,,,,,0,1,1,1,,,,,,,,,,,,,,,,,,,70.80550890020095,None,70.80550890020095,None,,,,,,,,,,,,,,,,,,,,,,,,,,,,,,,,,,,,,,,,,,,,,,,,,,,,,m,,p9,2022_Mar_11_1149,training+cueing,2021.1.4,59.82535776727825,
Self.png,You,,,,,,,0,2,2,0,,,,,,,,,,,,,,,,,,,90.8149204000365,None,90.8149204000365,None,,,,,,,,,,,,,,,,,,,,,,,,,,,,,,,,,,,,,,,,,,,,,,,,,,,,,m,,p9,2022_Mar_11_1149,training+cueing,2021.1.4,59.82535776727825,
Stranger.png,Stranger,Stranger,c,3,13,23,93,,,,,0,0,0,0,0,0,0,8,,,,,,,,,,,,,,,110.7500570002012,None,174.96379820001312,None,space,-0.8155486998148263,2.007926589809358,None,176.96380230016075,None,1.413,1.85,179.98135560005903,None,180.60708880005404,181.1180757000111,181.10147600015625,181.21814810018986,181.10147600015625,181.21814810018986,181.20146210002713,None,None,0,181.20146210002713,None,182.61788190016523,None,,,,,,,,,,,,,,,,,,,,,,,,,m,,p9,2022_Mar_11_1149,training+cueing,2021.1.4,59.82535776727825,
Friend.png,You,Friend,m,1.2,14,24,94,,,,,0,0,0,0,0,1,1,3,,,,,,,,,,,,,,,,,,,,,,,,,1.608,1.459,183.0196821000427,None,183.55896310019307,184.07029890012927,184.05364370020106,184.1536224000156,184.05364370020106,184.1536224000156,184.1536224000156,None,m,1,184.1536224000156,None,184.93611680017784,None,0.7634596999268979,,,,,,,,,,,,,,,,,,,,,,,,m,,p9,2022_Mar_11_1149,training+cueing,2021.1.4,59.82535776727825,
Self.png,You,Self ,c,1,11,21,91,,,,,0,0,0,0,0,2,2,0,,,,,,,,,,,,,,,,,,,,,,,,,1.676,1.969,185.33784290007316,None,185.86810750002041,186.37200520001352,186.35529029997997,186.45529850013554,186.35529029997997,186.45529850013554,186.45529850013554,None,c,1,186.45529850013554,None,187.189263000153,None,0.7176062001381069,,,,,,,,,,,,,,,,,,,,,,,,m,,p9,2022_Mar_11_1149,training+cueing,2021.1.4,59.82535776727825,
Self.png,Friend,Self ,m,2.1,16,26,96,,,,,0,0,0,0,0,3,3,1,,,,,,,,,,,,,,,,,,,,,,,,,1.741,2.451,187.58968760003336,None,188.11926400009543,188.62358280015178,188.60689710010774,188.72362620010972,188.60689710010774,188.72362620010972,188.70694840000942,None,m,1,188.70694840000942,None,189.5228365000803,None,0.7861826999578625,,,,,,,,,,,,,,,,,,,,,,,,m,,p9,2022_Mar_11_1149,training+cueing,2021.1.4,59.82535776727825,
Stranger.png,You,Stranger,m,1.3,15,25,95,,,,,0,0,0,0,0,4,4,6,,,,,,,,,,,,,,,,,,,,,,,,,1.412,2.47,189.92474970011972,None,190.46326000010595,190.97547439998016,190.95873150019906,191.0588217000477,190.95873150019906,191.0588217000477,191.0588217000477,None,c,0,191.0588217000477,None,192.12701090006158,None,1.042127399938181,,,,,,,,,,,,,,,,,,,,,,,,m,,p9,2022_Mar_11_1149,training+cueing,2021.1.4,59.82535776727825,
Self.png,You,Self ,c,1,11,21,91,,,,,0,0,0,0,0,5,5,9,,,,,,,,,,,,,,,,,,,,,,,,,1.758,1.44,192.5264129000716,None,193.0768393999897,193.57721940008923,193.5605296001304,193.66060970001854,193.5605296001304,193.66060970001854,193.66060970001854,None,m,0,193.66060970001854,None,194.7447673000861,None,1.0643901999574155,,,,,,,,,,,,,,,,,,,,,,,,m,,p9,2022_Mar_11_1149,training+cueing,2021.1.4,59.82535776727825,
Stranger.png,Friend,Stranger,m,2.3,17,27,97,,,,,0,0,0,0,0,6,6,7,,,,,,,,,,,,,,,,,,,,,,,,,1.461,1.58,195.14497210015543,None,195.6774838999845,196.17912330012769,196.16244370001368,196.27942560007796,196.16244370001368,196.27942560007796,196.27942560007796,None,None,0,196.27942560007796,None,197.7469287000131,None,,,,,,,,,,,,,,,,,,,,,,,,,m,,p9,2022_Mar_11_1149,training+cueing,2021.1.4,59.82535776727825,
Friend.png,Stranger,Friend,m,3.2,19,29,99,,,,,0,0,0,0,0,7,7,5,,,,,,,,,,,,,,,,,,,,,,,,,1.4,1.616,198.14721570000984,None,198.68040160019882,199.18133440008387,199.16470510000363,199.281379400054,199.16470510000363,199.281379400054,199.2647156000603,None,m,1,199.2647156000603,None,200.11393670015968,None,0.8202061001211405,,,,,,,,,,,,,,,,,,,,,,,,m,,p9,2022_Mar_11_1149,training+cueing,2021.1.4,59.82535776727825,
Friend.png,Friend,Friend,c,2,12,22,92,,,,,0,0,0,0,0,8,8,4,,,,,,,,,,,,,,,,,,,,,,,,,1.471,1.585,200.51559570012614,None,201.0458013000898,201.54965080018155,201.53305890015326,201.64973050006665,201.53305890015326,201.64973050006665,201.63307500001974,None,m,0,201.63307500001974,None,202.50408340012655,None,0.8519760998897254,,,,,,,,,,,,,,,,,,,,,,,,m,,p9,2022_Mar_11_1149,training+cueing,2021.1.4,59.82535776727825,
Self.png,Stranger,Self ,m,3.1,18,28,98,,,,,0,0,0,0,0,9,9,2,,,,,,,,,,,,,,,,,,,,,,,,,1.506,1.539,202.91755730006844,None,203.4555899000261,203.9681775001809,203.9515083001461,204.06820220011286,203.9515083001461,204.06820220011286,204.05151990009472,None,None,0,204.05151990009472,None,205.56935150013305,None,,,,,,,,,,,,,,,,,,,,,,,,,m,,p9,2022_Mar_11_1149,training+cueing,2021.1.4,59.82535776727825,
Stranger.png,Stranger,Stranger,c,3,13,23,93,,,,,0,0,0,0,0,10,10,11,,,,,,,,,,,,,,,,,,,,,,,,,1.453,1.884,205.96960599999875,None,206.49925980018452,207.00371160008945,206.9870619000867,207.1037581001874,206.9870619000867,207.1037581001874,207.0870992001146,None,m,0,207.0870992001146,None,207.83661920018494,None,0.7259569999296218,,,,,,,,,,,,,,,,,,,,,,,,m,,p9,2022_Mar_11_1149,training+cueing,2021.1.4,59.82535776727825,
Friend.png,Friend,Friend,c,2,12,22,92,,,,,0,0,0,0,0,11,11,10,,,,,,,,,,,,,,,,,,,,,,,,,1.537,2.453,208.23795360000804,None,208.76964489999227,209.27201190008782,209.25537150003947,209.3720876001753,209.25537150003947,209.3720876001753,209.35539830010384,None,c,1,209.35539830010384,None,210.58853289997205,None,1.209462699946016,,,,,,,,,,,,,,,,,,,,,,,,m,,p9,2022_Mar_11_1149,training+cueing,2021.1.4,59.82535776727825,
Stranger.png,You,Stranger,m,1.3,15,25,95,,,,,0,0,0,0,,,,,0,0,0,6,,,,,,,,,,,,,,,,,,,239.61118680005893,None,1.58,2.321,243.13224220019765,None,,,,,,,,,,,,,,,,210.99003900005482,None,0.01456288993358612,0.5128250899724662,243.75650870008394,244.2646207001526,0.5043884199112654,1.004612720105797,244.24795130011626,244.34794510016218,244.24795130011626,244.34794510016218,244.34794510016218,None,c,0,1.1129349002148956,244.34794510016218,None,,,,,m,,p9,2022_Mar_11_1149,training+cueing,2021.1.4,59.82535776727825,
Self.png,You,Self ,c,1,11,21,91,,,,,0,0,0,0,,,,,0,1,1,9,,,,,,,,,,,,,,,,,,,,,1.542,1.236,245.5889922999777,None,,,,,,,,,,,,,,,,,,,,246.12732299999334,246.6329727000557,0.511394269997254,1.0116870698984712,246.61628370010294,246.71635160013102,246.61628370010294,246.71635160013102,246.71635160013102,None,c,1,0.5845656001474708,246.71635160013102,None,,,,,m,,p9,2022_Mar_11_1149,training+cueing,2021.1.4,59.82535776727825,
Friend.png,Friend,Friend,c,2,12,22,92,,,,,0,0,0,0,,,,,0,2,2,4,,,,,,,,,,,,,,,,,,,,,1.48,1.395,247.42295090015978,None,,,,,,,,,,,,,,,,,,,,247.96112560015172,248.4676352001261,0.5127667698543519,1.013064970029518,248.45095339999534,248.567678200081,248.45095339999534,248.567678200081,248.55099290004,None,m,0,1.341808500001207,248.55099290004,None,,,,,m,,p9,2022_Mar_11_1149,training+cueing,2021.1.4,59.82535776727825,
Self.png,Friend,Self ,m,2.1,16,26,96,,,,,0,0,0,0,,,,,0,3,3,1,,,,,,,,,,,,,,,,,,,,,1.46,2.443,250.02497140015475,None,,,,,,,,,,,,,,,,,,,,250.55919639999047,251.06951010017656,0.5007234797812998,1.0009969798848033,251.05286650010385,251.16956180008128,251.05286650010385,251.16956180008128,251.16956180008128,None,c,0,1.3313844001386315,251.16956180008128,None,,,,,m,,p9,2022_Mar_11_1149,training+cueing,2021.1.4,59.82535776727825,
Friend.png,You,Friend,m,1.2,14,24,94,,,,,0,0,0,0,,,,,0,4,4,3,,,,,,,,,,,,,,,,,,,,,1.749,1.545,252.62671840004623,None,,,,,,,,,,,,,,,,,,,,253.1641461001709,253.67141980002634,0.51368806976825,1.013978469884023,253.6547522000037,253.7549728001468,253.6547522000037,253.7549728001468,253.7549728001468,None,c,0,0.7619269997812808,253.7549728001468,None,,,,,m,,p9,2022_Mar_11_1149,training+cueing,2021.1.4,59.82535776727825,
Stranger.png,Friend,Stranger,m,2.3,17,27,97,,,,,0,0,0,0,,,,,0,5,5,7,,,,,,,,,,,,,,,,,,,,,1.612,1.756,254.64520680019632,None,,,,,,,,,,,,,,,,,,,,255.184330600081,255.68953249999322,0.5096185696311295,1.009944369783625,255.67285050009377,255.7895822999999,255.67285050009377,255.7895822999999,255.77287930017337,None,m,1,0.6801128999795765,255.77287930017337,None,,,,,m,,p9,2022_Mar_11_1149,training+cueing,2021.1.4,59.82535776727825,
Self.png,Stranger,Self ,m,3.1,18,28,98,,,,,0,0,0,0,,,,,0,6,6,2,,,,,,,,,,,,,,,,,,,,,1.616,1.406,256.5796988999937,None,,,,,,,,,,,,,,,,,,,,257.1335374000482,257.65392710012384,0.5306108598597348,1.0300205599050969,257.64178519998677,257.7410560999997,257.64178519998677,257.7410560999997,257.72431230009533,None,m,1,1.3365684000309557,257.72431230009533,None,,,,,m,,p9,2022_Mar_11_1149,training+cueing,2021.1.4,59.82535776727825,
Friend.png,Friend,Friend,c,2,12,22,92,,,,,0,0,0,0,,,,,0,7,7,10,,,,,,,,,,,,,,,,,,,,,1.729,2.424,259.1982240001671,None,,,,,,,,,,,,,,,,,,,,259.7391791001428,260.2428609000053,0.5062693699728698,1.006549570010975,260.226161000086,260.34288470004685,260.226161000086,260.34288470004685,260.3262042000424,None,None,0,,260.3262042000424,None,,,,,m,,p9,2022_Mar_11_1149,training+cueing,2021.1.4,59.82535776727825,
Friend.png,Stranger,Friend,m,3.2,19,29,99,,,,,0,0,0,0,,,,,0,8,8,5,,,,,,,,,,,,,,,,,,,,,1.496,1.654,262.1645714000333,None,,,,,,,,,,,,,,,,,,,,262.7045674000401,263.21165640000254,0.5113980700261891,1.0116818698588759,263.1949485000223,263.31170350010507,263.1949485000223,263.31170350010507,263.2949769999832,None,c,0,0.6939419999253005,263.2949769999832,None,,,,,m,,p9,2022_Mar_11_1149,training+cueing,2021.1.4,59.82535776727825,
Stranger.png,Stranger,Stranger,c,3,13,23,93,,,,,0,0,0,0,,,,,0,9,9,11,,,,,,,,,,,,,,,,,,,,,1.577,1.428,264.11924010002986,None,,,,,,,,,,,,,,,,,,,,264.6749987001531,265.17991410009563,0.5099029601551592,1.0102506601251662,265.1631454001181,265.27991590020247,265.1631454001181,265.27991590020247,265.2632315000519,None,c,1,0.6777568999677896,265.2632315000519,None,,,,,m,,p9,2022_Mar_11_1149,training+cueing,2021.1.4,59.82535776727825,
Stranger.png,Stranger,Stranger,c,3,13,23,93,,,,,0,0,0,0,,,,,0,10,10,8,,,,,,,,,,,,,,,,,,,,,1.457,2.271,266.0709654001985,None,,,,,,,,,,,,,,,,,,,,266.60633700015023,267.1144521001261,0.5149470700416714,1.0152391700539738,267.09778060019016,267.2145430999808,267.09778060019016,267.2145430999808,267.1977657000534,None,None,0,,267.1977657000534,None,,,,,m,,p9,2022_Mar_11_1149,training+cueing,2021.1.4,59.82535776727825,
Self.png,You,Self ,c,1,11,21,91,,,,,0,0,0,0,,,,,0,11,11,0,,,,,,,,,,,,,,,,,,,,,1.694,2.465,268.77016910002567,None,,,,,,,,,,,,,,,,,,,,269.3119453000836,269.8164334001485,0.5058932700194418,1.0061763699632138,269.79974879999645,269.89982400019653,269.79974879999645,269.89982400019653,269.89982400019653,None,None,0,,269.89982400019653,None,,,,,m,,p9,2022_Mar_11_1149,training+cueing,2021.1.4,59.82535776727825,
Friend.png,Friend,Friend,c,2,12,22,92,,,,,0,0,0,0,,,,,1,0,12,4,,,,,,,,,,,,,,,,,,,,,1.622,1.375,271.7052929000929,None,,,,,,,,,,,,,,,,,,,,272.2450416001957,272.75186239997856,0.5128850699402392,1.013319969875738,272.7351903000381,272.85207450017333,272.7351903000381,272.85207450017333,272.8353733001277,None,m,0,0.6734521000180393,272.8353733001277,None,,,,,m,,p9,2022_Mar_11_1149,training+cueing,2021.1.4,59.82535776727825,
Friend.png,Friend,Friend,c,2,12,22,92,,,,,0,0,0,0,,,,,1,1,13,10,,,,,,,,,,,,,,,,,,,,,1.413,1.231,273.64297410007566,None,,,,,,,,,,,,,,,,,,,,274.1795471999794,274.6866190000437,0.5140460699331015,1.014269369887188,274.6699597002007,274.78667790000327,274.6699597002007,274.78667790000327,274.7699618001934,None,m,0,1.010887200012803,274.7699618001934,None,,,,,m,,p9,2022_Mar_11_1149,training+cueing,2021.1.4,59.82535776727825,
Friend.png,Stranger,Friend,m,3.2,19,29,99,,,,,0,0,0,0,,,,,1,2,14,5,,,,,,,,,,,,,,,,,,,,,1.438,1.446,275.91070420015603,None,,,,,,,,,,,,,,,,,,,,276.4481524999719,276.9548707001377,0.510352169862017,1.010634670034051,276.9382342000026,277.0549523001537,276.9382342000026,277.0549523001537,277.0383011000231,None,None,0,,277.0383011000231,None,,,,,m,,p9,2022_Mar_11_1149,training+cueing,2021.1.4,59.82535776727825,
Stranger.png,Stranger,Stranger,c,3,13,23,93,,,,,0,0,0,0,,,,,1,3,15,11,,,,,,,,,,,,,,,,,,,,,1.555,2.382,278.5935215000063,None,,,,,,,,,,,,,,,,,,,,279.1319681999739,279.64017110015266,0.5156614701263607,1.0159999700263143,279.6234591000248,279.7402292001061,279.6234591000248,279.7402292001061,279.72351590008475,None,c,1,0.8413102999329567,279.72351590008475,None,,,,,m,,p9,2022_Mar_11_1149,training+cueing,2021.1.4,59.82535776727825,
Friend.png,You,Friend,m,1.2,14,24,94,,,,,0,0,0,0,,,,,1,4,16,3,,,,,,,,,,,,,,,,,,,,,1.474,1.951,280.6969119000714,None,,,,,,,,,,,,,,,,,,,,281.23713500006124,281.7417330001481,0.5071602698881179,1.007433369755745,281.7250340001192,281.8250738000497,281.7250340001192,281.8250738000497,281.8250738000497,None,m,1,0.6278222999535501,281.8250738000497,None,,,,,m,,p9,2022_Mar_11_1149,training+cueing,2021.1.4,59.82535776727825,
Stranger.png,You,Stranger,m,1.3,15,25,95,,,,,0,0,0,0,,,,,1,5,17,6,,,,,,,,,,,,,,,,,,,,,1.793,2.157,282.5817823000252,None,,,,,,,,,,,,,,,,,,,,283.1206332000438,283.62636290001683,0.5112222698517144,1.0115231699310243,283.6097018001601,283.70974670001306,283.6097018001601,283.70974670001306,283.70974670001306,None,m,1,0.45522410003468394,283.70974670001306,None,,,,,m,,p9,2022_Mar_11_1149,training+cueing,2021.1.4,59.82535776727825,
Self.png,Friend,Self ,m,2.1,16,26,96,,,,,0,0,0,0,,,,,1,6,18,1,,,,,,,,,,,,,,,,,,,,,1.464,2.348,284.2997500000056,None,,,,,,,,,,,,,,,,,,,,284.83831820008345,285.34427480003797,0.511594969779253,1.011929869884625,285.3275475001428,285.44435230013914,285.3275475001428,285.44435230013914,285.42762560001574,None,None,0,,285.42762560001574,None,,,,,m,,p9,2022_Mar_11_1149,training+cueing,2021.1.4,59.82535776727825,
Self.png,You,Self ,c,1,11,21,91,,,,,0,0,0,0,,,,,1,7,19,9,,,,,,,,,,,,,,,,,,,,,1.798,2.222,286.99921280005947,None,,,,,,,,,,,,,,,,,,,,287.5386962001212,288.04624720010906,0.5131887698080391,1.013418969931081,288.0295792000834,288.12959849997424,288.0295792000834,288.12959849997424,288.12959849997424,None,c,1,0.4672976001165807,288.12959849997424,None,,,,,m,,p9,2022_Mar_11_1149,training+cueing,2021.1.4,59.82535776727825,
Self.png,Stranger,Self ,m,3.1,18,28,98,,,,,0,0,0,0,,,,,1,8,20,2,,,,,,,,,,,,,,,,,,,,,1.566,2.204,288.7195334001444,None,,,,,,,,,,,,,,,,,,,,289.2588657999877,289.7642477999907,0.5100688699167222,1.0103634698316455,289.7474901000969,289.86427720007487,289.7474901000969,289.86427720007487,289.84771980019286,None,m,1,0.7171835000626743,289.84771980019286,None,,,,,m,,p9,2022_Mar_11_1149,training+cueing,2021.1.4,59.82535776727825,
Stranger.png,Stranger,Stranger,c,3,13,23,93,,,,,0,0,0,0,,,,,1,9,21,8,,,,,,,,,,,,,,,,,,,,,1.704,1.324,290.68752500019036,None,,,,,,,,,,,,,,,,,,,,291.2263410000596,291.73221820010804,0.5111730699427426,1.0114230699837208,291.71558770001866,291.83224700018764,291.71558770001866,291.83224700018764,291.8155704000965,None,m,0,1.1813091998919845,291.8155704000965,None,,,,,m,,p9,2022_Mar_11_1149,training+cueing,2021.1.4,59.82535776727825,
Self.png,You,Self ,c,1,11,21,91,,,,,0,0,0,0,,,,,1,10,22,0,,,,,,,,,,,,,,,,,,,,,1.591,2.023,293.1226467001252,None,,,,,,,,,,,,,,,,,,,,293.66184690012597,294.1673540000338,0.5080771697685122,1.008431069785729,294.15066920011304,294.25066200015135,294.15066920011304,294.25066200015135,294.25066200015135,None,c,1,0.5061206000391394,294.25066200015135,None,,,,,m,,p9,2022_Mar_11_1149,training+cueing,2021.1.4,59.82535776727825,
Stranger.png,Friend,Stranger,m,2.3,17,27,97,,,,,0,0,0,0,,,,,1,11,23,7,,,,,,,,,,,,,,,,,,,,,1.674,1.864,294.8907280000858,None,,,,,,,,,,,,,,,,,,,,295.42902659997344,295.93526220018975,0.5126874700654298,1.0129187700804323,295.91860690014437,296.03527160012163,295.91860690014437,296.03527160012163,296.01860690000467,None,m,1,0.7222154000774026,296.01860690000467,None,,,,,m,,p9,2022_Mar_11_1149,training+cueing,2021.1.4,59.82535776727825,
Friend.png,Friend,Friend,c,2,12,22,92,,,,,0,0,0,0,,,,,2,0,24,4,,,,,,,,,,,,,,,,,,,,,1.523,2.354,296.87545400019735,None,,,,,,,,,,,,,,,,,,,,297.41135430010036,297.9200699001085,0.5148586700670421,1.0153259700164199,297.90339430002496,298.0200679001864,297.90339430002496,298.0200679001864,298.00336980004795,None,None,0,,298.00336980004795,None,,,,,m,,p9,2022_Mar_11_1149,training+cueing,2021.1.4,59.82535776727825,
Self.png,You,Self ,c,1,11,21,91,,,,,0,0,0,0,,,,,2,1,25,9,,,,,,,,,,,,,,,,,,,,,1.561,1.704,299.64246600004844,None,,,,,,,,,,,,,,,,,,,,300.1845198001247,300.68867629999295,0.5088687699753791,1.0091305701062083,300.67199910013005,300.77205500006676,300.67199910013005,300.77205500006676,300.77205500006676,None,c,1,0.7847673001233488,300.77205500006676,None,,,,,m,,p9,2022_Mar_11_1149,training+cueing,2021.1.4,59.82535776727825,
Stranger.png,You,Stranger,m,1.3,15,25,95,,,,,0,0,0,0,,,,,2,2,26,6,,,,,,,,,,,,,,,,,,,,,1.767,1.884,301.6791559001431,None,,,,,,,,,,,,,,,,,,,,302.2142290000338,302.7234695001971,0.5010233800858259,1.001342480070889,302.70678950008005,302.8068552999757,302.70678950008005,302.8068552999757,302.8068552999757,None,m,1,0.8300251001492143,302.8068552999757,None,,,,,m,,p9,2022_Mar_11_1149,training+cueing,2021.1.4,59.82535776727825,
Stranger.png,Stranger,Stranger,c,3,13,23,93,,,,,0,0,0,0,,,,,2,3,27,11,,,,,,,,,,,,,,,,,,,,,1.664,1.331,303.763332700124,None,,,,,,,,,,,,,,,,,,,,304.302573800087,304.8083172000479,0.5089111698325723,1.0091894699726254,304.79164339997806,304.90837540011853,304.79164339997806,304.90837540011853,304.8916613999754,None,None,0,,304.8916613999754,None,,,,,m,,p9,2022_Mar_11_1149,training+cueing,2021.1.4,59.82535776727825,
Self.png,Friend,Self ,m,2.1,16,26,96,,,,,0,0,0,0,,,,,2,4,28,1,,,,,,,,,,,,,,,,,,,,,1.582,1.924,306.6641595000401,None,,,,,,,,,,,,,,,,,,,,307.20622489997186,307.7104183000047,0.5081666701007634,1.00841417000629,307.6937302001752,307.81047170003876,307.6937302001752,307.81047170003876,307.79374690004624,None,c,0,1.2511368000414222,307.79374690004624,None,,,,,m,,p9,2022_Mar_11_1149,training+cueing,2021.1.4,59.82535776727825,
Friend.png,You,Friend,m,1.2,14,24,94,,,,,0,0,0,0,,,,,2,5,29,3,,,,,,,,,,,,,,,,,,,,,1.716,1.236,309.16781760007143,None,,,,,,,,,,,,,,,,,,,,309.7206175001338,310.2288824999705,0.5002715699374676,1.00059406994842,310.2121706001926,310.3122250000015,310.2121706001926,310.3122250000015,310.3122250000015,None,m,1,0.8925375000108033,310.3122250000015,None,,,,,m,,p9,2022_Mar_11_1149,training+cueing,2021.1.4,59.82535776727825,
Friend.png,Stranger,Friend,m,3.2,19,29,99,,,,,0,0,0,0,,,,,2,6,30,5,,,,,,,,,,,,,,,,,,,,,1.48,2.443,311.33516460005194,None,,,,,,,,,,,,,,,,,,,,311.87883420009166,312.3804276001174,0.5091922697611153,1.009471169905737,312.3637626999989,312.4804793000221,312.3637626999989,312.4804793000221,312.46379920002073,None,c,0,0.9810746000148356,312.46379920002073,None,,,,,m,,p9,2022_Mar_11_1149,training+cueing,2021.1.4,59.82535776727825,
Self.png,Stranger,Self ,m,3.1,18,28,98,,,,,0,0,0,0,,,,,2,7,31,2,,,,,,,,,,,,,,,,,,,,,1.798,1.807,313.5707454001531,None,,,,,,,,,,,,,,,,,,,,314.10847640014254,314.61539260018617,0.5138062699697912,1.0139810701366514,314.59882100019604,314.71545340004377,314.59882100019604,314.71545340004377,314.69872550014406,None,m,1,1.0181100000627339,314.69872550014406,None,,,,,m,,p9,2022_Mar_11_1149,training+cueing,2021.1.4,59.82535776727825,
Stranger.png,Friend,Stranger,m,2.3,17,27,97,,,,,0,0,0,0,,,,,2,8,32,7,,,,,,,,,,,,,,,,,,,,,1.447,2.007,315.83903410006315,None,,,,,,,,,,,,,,,,,,,,316.3765106999781,316.8836823999882,0.5113762700930238,1.0116012699436396,316.8670250000432,316.9837037001271,316.8670250000432,316.9837037001271,316.967032100074,None,None,0,,316.967032100074,None,,,,,m,,p9,2022_Mar_11_1149,training+cueing,2021.1.4,59.82535776727825,
Stranger.png,Stranger,Stranger,c,3,13,23,93,,,,,0,0,0,0,,,,,2,9,33,8,,,,,,,,,,,,,,,,,,,,,1.507,2.278,318.52205969998613,None,,,,,,,,,,,,,,,,,,,,319.062710700091,319.5689434001688,0.511950169922784,1.0121549698524177,319.5523465999868,319.66901160008274,319.5523465999868,319.66901160008274,319.6523083001375,None,c,1,0.5924470999743789,319.6523083001375,None,,,,,m,,p9,2022_Mar_11_1149,training+cueing,2021.1.4,59.82535776727825,
Self.png,You,Self ,c,1,11,21,91,,,,,0,0,0,0,,,,,2,10,34,0,,,,,,,,,,,,,,,,,,,,,1.756,2.32,320.375395799987,None,,,,,,,,,,,,,,,,,,,,320.914462500019,321.42029330017976,0.5113829697947949,1.0116174698341638,321.4036413000431,321.5036418000236,321.4036413000431,321.5036418000236,321.5036418000236,None,m,0,1.141063200077042,321.5036418000236,None,,,,,m,,p9,2022_Mar_11_1149,training+cueing,2021.1.4,59.82535776727825,
Friend.png,Friend,Friend,c,2,12,22,92,,,,,0,0,0,0,,,,,2,11,35,10,,,,,,,,,,,,,,,,,,,,,1.57,1.418,322.7776300001424,None,,,,,,,,,,,,,,,,,,,,323.3174265001435,323.8220118000172,0.5064584698993713,1.0069511700421572,323.80533730005845,323.92221770016477,323.80533730005845,323.92221770016477,323.90562450001016,None,None,0,,323.90562450001016,None,,,,,m,,p9,2022_Mar_11_1149,training+cueing,2021.1.4,59.82535776727825,
Stranger.png,Stranger,Stranger,c,3,13,23,93,,,,,0,0,0,0,,,,,3,0,36,8,,,,,,,,,,,,,,,,,,,,,1.575,1.89,325.5942353999708,None,,,,,,,,,,,,,,,,,,,,326.1361216001678,326.6408101001289,0.5068221699912101,1.006964169908315,326.6241307000164,326.7410455001518,326.6241307000164,326.7410455001518,326.72407060000114,None,None,0,,326.72407060000114,None,,,,,m,,p9,2022_Mar_11_1149,training+cueing,2021.1.4,59.82535776727825,
Stranger.png,Friend,Stranger,m,2.3,17,27,97,,,,,0,0,0,0,,,,,3,1,37,7,,,,,,,,,,,,,,,,,,,,,1.465,2.316,328.4129086001776,None,,,,,,,,,,,,,,,,,,,,328.9558034001384,329.4594203000888,0.5058676700573415,1.006159669952467,329.44274550001137,329.5594403001014,329.44274550001137,329.5594403001014,329.5427517001517,None,c,0,0.7979447999969125,329.5427517001517,None,,,,,m,,p9,2022_Mar_11_1149,training+cueing,2021.1.4,59.82535776727825,
Self.png,You,Self ,c,1,11,21,91,,,,,0,0,0,0,,,,,3,2,38,0,,,,,,,,,,,,,,,,,,,,,1.716,2.302,330.4657281001564,None,,,,,,,,,,,,,,,,,,,,331.0049430001527,331.5108539001085,0.5106477700173855,1.010937870014459,331.49421550007537,331.59426380018704,331.49421550007537,331.59426380018704,331.59426380018704,None,m,0,0.7785706000868231,331.59426380018704,None,,,,,m,,p9,2022_Mar_11_1149,training+cueing,2021.1.4,59.82535776727825,
Self.png,Friend,Self ,m,2.1,16,26,96,,,,,0,0,0,0,,,,,3,3,39,1,,,,,,,,,,,,,,,,,,,,,1.573,2.423,332.5006140000187,None,,,,,,,,,,,,,,,,,,,,333.04341370007023,333.5457009000238,0.5059662698768079,1.0062414698768407,333.5290296000894,333.64572490006685,333.5290296000894,333.64572490006685,333.62901660008356,None,m,1,0.8399959998205304,333.62901660008356,None,,,,,m,,p9,2022_Mar_11_1149,training+cueing,2021.1.4,59.82535776727825,
Self.png,You,Self ,c,1,11,21,91,,,,,0,0,0,0,,,,,3,4,40,9,,,,,,,,,,,,,,,,,,,,,1.609,2.191,334.6023018001579,None,,,,,,,,,,,,,,,,,,,,335.1407185001299,335.6472120999824,0.5097812700551003,1.0100542700383812,335.63051390019245,335.73051750008017,335.63051390019245,335.73051750008017,335.73051750008017,None,m,0,1.3301882999949157,335.73051750008017,None,,,,,m,,p9,2022_Mar_11_1149,training+cueing,2021.1.4,59.82535776727825,
Stranger.png,Stranger,Stranger,c,3,13,23,93,,,,,0,0,0,0,,,,,3,5,41,11,,,,,,,,,,,,,,,,,,,,,1.749,1.727,337.1871184001211,None,,,,,,,,,,,,,,,,,,,,337.72823560005054,338.2324088001624,0.5087496698834002,1.0090433699078858,338.215710000135,338.33242470002733,338.215710000135,338.33242470002733,338.3157634001691,None,None,0,,338.3157634001691,None,,,,,m,,p9,2022_Mar_11_1149,training+cueing,2021.1.4,59.82535776727825,
Friend.png,Friend,Friend,c,2,12,22,92,,,,,0,0,0,0,,,,,3,6,42,4,,,,,,,,,,,,,,,,,,,,,1.606,1.348,340.1715284001548,None,,,,,,,,,,,,,,,,,,,,340.7123414000962,341.2178882001899,0.510225169826299,1.0105333698447794,341.2012130001094,341.317934300052,341.2012130001094,341.317934300052,341.30122869997285,None,m,0,0.8475246999878436,341.30122869997285,None,,,,,m,,p9,2022_Mar_11_1149,training+cueing,2021.1.4,59.82535776727825,
Friend.png,Stranger,Friend,m,3.2,19,29,99,,,,,0,0,0,0,,,,,3,7,43,5,,,,,,,,,,,,,,,,,,,,,1.69,2.376,342.2746747999918,None,,,,,,,,,,,,,,,,,,,,342.8153447001241,343.3194375000894,0.5052628696430475,1.0055430696811527,343.30277100019157,343.4194531000685,343.30277100019157,343.4194531000685,343.40276930015534,None,m,1,0.4901382999960333,343.40276930015534,None,,,,,m,,p9,2022_Mar_11_1149,training+cueing,2021.1.4,59.82535776727825,
Friend.png,You,Friend,m,1.2,14,24,94,,,,,0,0,0,0,,,,,3,8,44,3,,,,,,,,,,,,,,,,,,,,,1.768,1.647,344.0259102000855,None,,,,,,,,,,,,,,,,,,,,344.5642540000845,345.070706800092,0.5125752699095756,1.0128652697894722,345.05399280018173,345.15405810019,345.05399280018173,345.15405810019,345.15405810019,None,m,1,1.2986439999658614,345.15405810019,None,,,,,m,,p9,2022_Mar_11_1149,training+cueing,2021.1.4,59.82535776727825,
Self.png,Stranger,Self ,m,3.1,18,28,98,,,,,0,0,0,0,,,,,3,9,45,2,,,,,,,,,,,,,,,,,,,,,1.44,2.023,346.5778930000961,None,,,,,,,,,,,,,,,,,,,,347.1171738000121,347.6225000000559,0.5111453696154058,1.0114409697707742,347.60581009997986,347.72254730015993,347.60581009997986,347.72254730015993,347.70585909998044,None,m,1,0.538803500123322,347.70585909998044,None,,,,,m,,p9,2022_Mar_11_1149,training+cueing,2021.1.4,59.82535776727825,
Friend.png,Friend,Friend,c,2,12,22,92,,,,,0,0,0,0,,,,,3,10,46,10,,,,,,,,,,,,,,,,,,,,,1.713,1.253,348.3796118001919,None,,,,,,,,,,,,,,,,,,,,348.91880690003745,349.423799399985,0.507876869989559,1.0081654698587954,349.4071582001634,349.52382420003414,349.4071582001634,349.52382420003414,349.50715630012564,None,m,0,0.4655849998816848,349.50715630012564,None,,,,,m,,p9,2022_Mar_11_1149,training+cueing,2021.1.4,59.82535776727825,
Stranger.png,You,Stranger,m,1.3,15,25,95,,,,,0,0,0,0,,,,,3,11,47,6,,,,,,,,,,,,,,,,,,,,,1.641,1.691,350.0973394999746,None,,,,,,,,,,,,,,,,,,,,350.63821280002594,351.141702900175,0.5078598698601127,1.008118069730699,351.12502990011126,351.22509080008604,351.12502990011126,351.22509080008604,351.22509080008604,None,c,0,1.115595400100574,351.22509080008604,None,,,,,m,,p9,2022_Mar_11_1149,training+cueing,2021.1.4,59.82535776727825,
Friend.png,Friend,Friend,c,2,12,22,92,,,,,0,0,0,0,,,,,4,0,48,4,,,,,,,,,,,,,,,,,,,,,1.511,1.352,352.4654139999766,None,,,,,,,,,,,,,,,,,,,,353.00393330003135,353.51008200016804,0.509848470101133,1.0101503699552268,353.4934322000481,353.61008560005575,353.4934322000481,353.61008560005575,353.5934276001062,None,m,0,0.7152436000760645,353.5934276001062,None,,,,,m,,p9,2022_Mar_11_1149,training+cueing,2021.1.4,59.82535776727825,
Friend.png,Friend,Friend,c,2,12,22,92,,,,,0,0,0,0,,,,,4,1,49,10,,,,,,,,,,,,,,,,,,,,,1.547,1.682,354.4336757999845,None,,,,,,,,,,,,,,,,,,,,354.97269190009683,355.4781955999788,0.511119170114398,1.0113963701296598,355.46148130018264,355.5781967001967,355.46148130018264,355.5781967001967,355.5615125000477,None,m,0,0.5551897999830544,355.5615125000477,None,,,,,m,,p9,2022_Mar_11_1149,training+cueing,2021.1.4,59.82535776727825,
Friend.png,Stranger,Friend,m,3.2,19,29,99,,,,,0,0,0,0,,,,,4,2,50,5,,,,,,,,,,,,,,,,,,,,,1.713,1.926,356.2516838000156,None,,,,,,,,,,,,,,,,,,,,356.7913367000874,357.29613490006886,0.5106686700601131,1.0109817699994892,357.2794645000249,357.3962141000666,357.2794645000249,357.3962141000666,357.37950250017457,None,m,1,0.5612027999013662,357.37950250017457,None,,,,,m,,p9,2022_Mar_11_1149,training+cueing,2021.1.4,59.82535776727825,
Self.png,Stranger,Self ,m,3.1,18,28,98,,,,,0,0,0,0,,,,,4,3,51,2,,,,,,,,,,,,,,,,,,,,,1.756,1.719,358.0697782000061,None,,,,,,,,,,,,,,,,,,,,358.6063984001521,359.11410060012713,0.5135078700259328,1.0137915699742734,359.0974662001245,359.2141330000013,359.0974662001245,359.2141330000013,359.1974543000106,None,m,1,1.7034100000746548,359.1974543000106,None,,,,,m,,p9,2022_Mar_11_1149,training+cueing,2021.1.4,59.82535776727825,
Stranger.png,Friend,Stranger,m,2.3,17,27,97,,,,,0,0,0,0,,,,,4,4,52,7,,,,,,,,,,,,,,,,,,,,,1.64,1.25,361.0385873001069,None,,,,,,,,,,,,,,,,,,,,361.57917809998617,362.08290490019135,0.507221570238471,1.0075100702233613,362.06624060007744,362.182985200081,362.06624060007744,362.182985200081,362.1662912000902,None,c,0,1.134475100087002,362.1662912000902,None,,,,,m,,p9,2022_Mar_11_1149,training+cueing,2021.1.4,59.82535776727825,
Friend.png,You,Friend,m,1.2,14,24,94,,,,,0,0,0,0,,,,,4,5,53,3,,,,,,,,,,,,,,,,,,,,,1.496,1.94,363.42330000014044,None,,,,,,,,,,,,,,,,,,,,363.9623402999714,364.4679813000839,0.5100957700051367,1.0103788699489087,364.45130910002626,364.5513877000194,364.45130910002626,364.5513877000194,364.5513877000194,None,m,1,0.42936310009099543,364.5513877000194,None,,,,,m,,p9,2022_Mar_11_1149,training+cueing,2021.1.4,59.82535776727825,
Self.png,You,Self ,c,1,11,21,91,,,,,0,0,0,0,,,,,4,6,54,9,,,,,,,,,,,,,,,,,,,,,1.62,1.952,365.1079218001105,None,,,,,,,,,,,,,,,,,,,,365.644367699977,366.15250349999405,0.5133667699992657,1.013651269953698,366.1358306000475,366.2359144000802,366.1358306000475,366.2359144000802,366.2359144000802,None,c,1,0.7607959001325071,366.2359144000802,None,,,,,m,,p9,2022_Mar_11_1149,training+cueing,2021.1.4,59.82535776727825,
Stranger.png,You,Stranger,m,1.3,15,25,95,,,,,0,0,0,0,,,,,4,7,55,6,,,,,,,,,,,,,,,,,,,,,1.613,2.236,367.1256715999916,None,,,,,,,,,,,,,,,,,,,,367.6764361001551,368.18734130007215,0.5041648696642369,1.0044013697188348,368.1706771000754,368.27072600019164,368.1706771000754,368.27072600019164,368.27072600019164,None,c,0,0.7903234001714736,368.27072600019164,None,,,,,m,,p9,2022_Mar_11_1149,training+cueing,2021.1.4,59.82535776727825,
Stranger.png,Stranger,Stranger,c,3,13,23,93,,,,,0,0,0,0,,,,,4,8,56,8,,,,,,,,,,,,,,,,,,,,,1.418,2.486,369.1944042001851,None,,,,,,,,,,,,,,,,,,,,369.735044100089,370.2388585000299,0.5051338700577617,None,370.22213020012714,370.3388661001809,370.22213020012714,370.3388661001809,370.3221876001917,None,m,0,0.3384780001360923,370.3221876001917,None,,,,,m,,p9,2022_Mar_11_1149,training+cueing,2021.1.4,59.82535776727825,
Self.png,Friend,Self ,m,2.1,16,26,96,,,,,0,0,0,0,,,,,4,9,57,1,,,,,,,,,,,,,,,,,,,,,1.632,2.083,370.79547470016405,None,,,,,,,,,,,,,,,,,,,,371.33586730016395,371.84002890018746,0.5072271698154509,1.007222370011732,371.82351550017484,371.94002900016494,371.82351550017484,371.94002900016494,371.9233123001177,None,c,0,1.3294736000243574,371.9233123001177,None,,,,,m,,p9,2022_Mar_11_1149,training+cueing,2021.1.4,59.82535776727825,
Self.png,You,Self ,c,1,11,21,91,,,,,0,0,0,0,,,,,4,10,58,0,,,,,,,,,,,,,,,,,,,,,1.634,1.737,373.3807792000007,None,,,,,,,,,,,,,,,,,,,,373.9210729000624,374.4251741000917,0.5072092700283974,1.0074880700558424,374.4084634000901,374.5085100000724,374.4084634000901,374.5085100000724,374.5085100000724,None,c,1,0.6163849998265505,374.5085100000724,None,,,,,m,,p9,2022_Mar_11_1149,training+cueing,2021.1.4,59.82535776727825,
Stranger.png,Stranger,Stranger,c,3,13,23,93,,,,,0,0,0,0,,,,,4,11,59,11,,,,,,,,,,,,,,,,,,,,,1.576,2.476,375.25165030010976,None,,,,,,,,,,,,,,,,,,,,375.7921998000238,376.2932130000554,0.5008068699389696,1.001076070126146,376.2764918000903,376.39324290002696,376.2764918000903,376.39324290002696,376.39324290002696,None,c,1,0.5714410999789834,376.39324290002696,None,,,,,m,,p9,2022_Mar_11_1149,training+cueing,2021.1.4,59.82535776727825,
Friend.png,Friend,Friend,c,2,12,22,92,,,,,0,0,0,0,,,,,5,0,60,10,,,,,,,,,,,,,,,,,,,,,1.482,1.66,377.09963080007583,None,,,,,,,,,,,,,,,,,,,,377.63852580008097,378.144511600025,0.5122030698694289,None,378.12781179999,378.2445327001624,378.12781179999,378.2445327001624,378.2278538001701,None,m,0,0.3208523001521826,378.2278538001701,None,,,,,m,,p9,2022_Mar_11_1149,training+cueing,2021.1.4,59.82535776727825,
Friend.png,Friend,Friend,c,2,12,22,92,,,,,0,0,0,0,,,,,5,1,61,4,,,,,,,,,,,,,,,,,,,,,1.509,1.496,378.68393429997377,None,,,,,,,,,,,,,,,,,,,,379.2273788000457,379.72911239997484,0.5033269701525569,1.0046900701709092,379.7113111000508,379.82932590018027,379.7113111000508,379.82932590018027,379.8124249000102,None,m,0,0.6565280999056995,379.8124249000102,None,,,,,m,,p9,2022_Mar_11_1149,training+cueing,2021.1.4,59.82535776727825,
Self.png,Friend,Self ,m,2.1,16,26,96,,,,,0,0,0,0,,,,,5,2,62,1,,,,,,,,,,,,,,,,,,,,,1.671,1.396,380.6025123000145,None,,,,,,,,,,,,,,,,,,,,381.1426752000116,381.6470153001137,0.5073765700217336,1.0078760699834675,381.630357200047,381.74707829998806,381.630357200047,381.74707829998806,381.7303671000991,None,m,1,0.4664215000811964,381.7303671000991,None,,,,,m,,p9,2022_Mar_11_1149,training+cueing,2021.1.4,59.82535776727825,
Stranger.png,Stranger,Stranger,c,3,13,23,93,,,,,0,0,0,0,,,,,5,3,63,11,,,,,,,,,,,,,,,,,,,,,1.752,2.026,382.3218279001303,None,,,,,,,,,,,,,,,,,,,,382.86340480018407,383.36492720013484,0.5037365700118244,1.0040337699465454,383.34825949999504,383.46497300011106,383.34825949999504,383.46497300011106,383.44827970000915,None,c,1,0.6524036000482738,383.44827970000915,None,,,,,m,,p9,2022_Mar_11_1149,training+cueing,2021.1.4,59.82535776727825,
Stranger.png,Friend,Stranger,m,2.3,17,27,97,,,,,0,0,0,0,,,,,5,4,64,7,,,,,,,,,,,,,,,,,,,,,1.48,1.907,384.2380145001225,None,,,,,,,,,,,,,,,,,,,,384.7785555999726,385.2829582002014,0.5057084700092673,1.006075369892642,385.2663088000845,385.38300080015324,385.2663088000845,385.38300080015324,385.3663205001503,None,c,0,0.558413099963218,385.3663205001503,None,,,,,m,,p9,2022_Mar_11_1149,training+cueing,2021.1.4,59.82535776727825,
Stranger.png,Stranger,Stranger,c,3,13,23,93,,,,,0,0,0,0,,,,,5,5,65,8,,,,,,,,,,,,,,,,,,,,,1.614,1.43,386.0569957001135,None,,,,,,,,,,,,,,,,,,,,386.59940310008824,387.10098440013826,0.5045478697866201,1.0048423698171973,387.08428309997544,387.2009955001995,387.08428309997544,387.2009955001995,387.1843089000322,None,m,0,0.9803782999515533,387.1843089000322,None,,,,,m,,p9,2022_Mar_11_1149,training+cueing,2021.1.4,59.82535776727825,
Self.png,Stranger,Self ,m,3.1,18,28,98,,,,,0,0,0,0,,,,,5,6,66,2,,,,,,,,,,,,,,,,,,,,,1.68,1.704,388.29188150004484,None,,,,,,,,,,,,,,,,,,,,388.83006480010226,389.3358801000286,0.5105570701416582,1.0108470702543855,389.31923820008524,389.43597270012833,389.31923820008524,389.43597270012833,389.4192586001009,None,c,0,0.5854406000580639,389.4192586001009,None,,,,,m,,p9,2022_Mar_11_1149,training+cueing,2021.1.4,59.82535776727825,
Friend.png,You,Friend,m,1.2,14,24,94,,,,,0,0,0,0,,,,,5,7,67,3,,,,,,,,,,,,,,,,,,,,,1.456,1.6,390.14266290003434,None,,,,,,,,,,,,,,,,,,,,390.6833208000753,391.18726749997586,0.5066394698806107,1.006927269976586,391.1705809000414,391.27063100016676,391.1705809000414,391.27063100016676,391.27063100016676,None,m,1,0.9580963999032974,391.27063100016676,None,,,,,m,,p9,2022_Mar_11_1149,training+cueing,2021.1.4,59.82535776727825,
Friend.png,Stranger,Friend,m,3.2,19,29,99,,,,,0,0,0,0,,,,,5,8,68,5,,,,,,,,,,,,,,,,,,,,,1.436,1.305,392.36117950011976,None,,,,,,,,,,,,,,,,,,,,392.90245539997704,393.40548020019196,0.5048672701232135,1.0052789701148868,393.3888220000081,393.5055518001318,393.3888220000081,393.5055518001318,393.4888647000771,None,m,1,1.3798601001035422,393.4888647000771,None,,,,,m,,p9,2022_Mar_11_1149,training+cueing,2021.1.4,59.82535776727825,
Stranger.png,You,Stranger,m,1.3,15,25,95,,,,,0,0,0,0,,,,,5,9,69,6,,,,,,,,,,,,,,,,,,,,,1.769,1.394,394.9957513001282,None,,,,,,,,,,,,,,,,,,,,395.537088500103,396.04071770003065,0.5068016699515283,1.007062470074743,396.0240704000462,396.12410780019127,396.0240704000462,396.12410780019127,396.12410780019127,None,c,0,0.5205441999714822,396.12410780019127,None,,,,,m,,p9,2022_Mar_11_1149,training+cueing,2021.1.4,59.82535776727825,
Self.png,You,Self ,c,1,11,21,91,,,,,0,0,0,0,,,,,5,10,70,9,,,,,,,,,,,,,,,,,,,,,1.694,2.385,396.78031120006926,None,,,,,,,,,,,,,,,,,,,,397.31924930005334,397.82535240007564,0.5101274698972702,1.0104631697759032,397.80865090014413,397.9087496001739,397.80865090014413,397.9087496001739,397.9087496001739,None,m,0,1.3599216998554766,397.9087496001739,None,,,,,m,,p9,2022_Mar_11_1149,training+cueing,2021.1.4,59.82535776727825,
Self.png,You,Self ,c,1,11,21,91,,,,,0,0,0,0,,,,,5,11,71,0,,,,,,,,,,,,,,,,,,,,,1.753,1.701,399.40006190002896,None,,,,,,,,,,,,,,,,,,,,399.93842660007067,400.4438865000848,0.5100638698786497,1.010356169892475,400.42724500014447,400.52729240013286,400.42724500014447,400.52729240013286,400.52729240013286,None,c,1,0.6292574999388307,400.52729240013286,None,,,,,m,,p9,2022_Mar_11_1149,training+cueing,2021.1.4,59.82535776727825,
Stranger.png,You,Stranger,m,1.3,15,25,95,,,,,0,0,0,0,,,,,6,0,72,6,,,,,,,,,,,,,,,,,,,,,1.782,1.941,401.2835349000525,None,,,,,,,,,,,,,,,,,,,,401.8224881000351,402.32868250017054,0.510709669906646,1.0108110699802637,402.3120978001971,402.411987000145,402.3120978001971,402.411987000145,402.411987000145,None,m,1,1.3366556998807937,402.411987000145,None,,,,,m,,p9,2022_Mar_11_1149,training+cueing,2021.1.4,59.82535776727825,
Self.png,You,Self ,c,1,11,21,91,,,,,0,0,0,0,,,,,6,1,73,0,,,,,,,,,,,,,,,,,,,,,1.638,2.357,403.88561210012995,None,,,,,,,,,,,,,,,,,,,,404.4247906000819,404.9304949999787,0.5105305700562894,1.0110279701184481,404.913840000052,405.01384979998693,404.913840000052,405.01384979998693,405.01384979998693,None,m,0,0.6228046999312937,405.01384979998693,None,,,,,m,,p9,2022_Mar_11_1149,training+cueing,2021.1.4,59.82535776727825,
Self.png,Stranger,Self ,m,3.1,18,28,98,,,,,0,0,0,0,,,,,6,2,74,2,,,,,,,,,,,,,,,,,,,,,1.499,2.037,405.772269600071,None,,,,,,,,,,,,,,,,,,,,406.3135288001504,406.81516870018095,0.5038870701100677,1.0041892700828612,406.7984672000166,406.91522280010395,406.7984672000166,406.91522280010395,406.8985135999974,None,m,1,0.9461232998874038,406.8985135999974,None,,,,,m,,p9,2022_Mar_11_1149,training+cueing,2021.1.4,59.82535776727825,
Stranger.png,Friend,Stranger,m,2.3,17,27,97,,,,,0,0,0,0,,,,,6,3,75,7,,,,,,,,,,,,,,,,,,,,,1.44,2.287,407.97210560017265,None,,,,,,,,,,,,,,,,,,,,408.5131910999771,409.016883000033,0.5058513700496405,1.0060926699079573,409.0001178001985,409.11682390002534,409.0001178001985,409.11682390002534,409.1001379999798,None,c,0,1.2405022999737412,409.1001379999798,None,,,,,m,,p9,2022_Mar_11_1149,training+cueing,2021.1.4,59.82535776727825,
Friend.png,You,Friend,m,1.2,14,24,94,,,,,0,0,0,0,,,,,6,4,76,3,,,,,,,,,,,,,,,,,,,,,1.57,1.775,410.47397719998844,None,,,,,,,,,,,,,,,,,,,,411.01504490012303,411.51857620012015,0.5069714698474854,1.0072979698888958,411.50186100020073,411.60191450011916,411.50186100020073,411.60191450011916,411.60191450011916,None,m,1,0.6747763000894338,411.60191450011916,None,,,,,m,,p9,2022_Mar_11_1149,training+cueing,2021.1.4,59.82535776727825,
Friend.png,Stranger,Friend,m,3.2,19,29,99,,,,,0,0,0,0,,,,,6,5,77,5,,,,,,,,,,,,,,,,,,,,,1.569,1.44,412.4086914001964,None,,,,,,,,,,,,,,,,,,,,412.95036280015483,413.4533261000179,0.5053330701775849,1.005620070034638,413.4366312001366,413.55336040002294,413.4366312001366,413.55336040002294,413.536624800181,None,None,0,,413.536624800181,None,,,,,m,,p9,2022_Mar_11_1149,training+cueing,2021.1.4,59.82535776727825,
Friend.png,Friend,Friend,c,2,12,22,92,,,,,0,0,0,0,,,,,6,6,78,4,,,,,,,,,,,,,,,,,,,,,1.597,2.082,415.22597920009866,None,,,,,,,,,,,,,,,,,,,,415.76805020007305,416.2719766001683,0.5055950700771064,1.0059206699952483,416.2553277001716,416.37202090001665,416.2553277001716,416.37202090001665,416.35534010012634,None,m,0,1.2652376999612898,416.35534010012634,None,,,,,m,,p9,2022_Mar_11_1149,training+cueing,2021.1.4,59.82535776727825,
Self.png,Friend,Self ,m,2.1,16,26,96,,,,,0,0,0,0,,,,,6,7,79,1,,,,,,,,,,,,,,,,,,,,,1.523,1.529,417.7458584001288,None,,,,,,,,,,,,,,,,,,,,418.28433340019546,418.7905073000584,0.510871369857341,1.0111537699121982,418.77379260002635,418.8905425001867,418.77379260002635,418.8905425001867,418.873826400144,None,None,0,,418.873826400144,None,,,,,m,,p9,2022_Mar_11_1149,training+cueing,2021.1.4,59.82535776727825,
Stranger.png,Stranger,Stranger,c,3,13,23,93,,,,,0,0,0,0,,,,,6,8,80,11,,,,,,,,,,,,,,,,,,,,,1.618,2.47,420.51283200015314,None,,,,,,,,,,,,,,,,,,,,421.0560793001205,421.55914320005104,0.5046623698435724,1.0050639698747545,421.5424491001759,421.65927130007185,421.5424491001759,421.65927130007185,421.64258350012824,None,m,0,0.5065665000583977,421.64258350012824,None,,,,,m,,p9,2022_Mar_11_1149,training+cueing,2021.1.4,59.82535776727825,
Friend.png,Friend,Friend,c,2,12,22,92,,,,,0,0,0,0,,,,,6,9,81,10,,,,,,,,,,,,,,,,,,,,,1.492,2.41,422.2830780001823,None,,,,,,,,,,,,,,,,,,,,422.8244351001922,423.3271424002014,0.5060659698210657,1.0063550698105246,423.31039410014637,423.4271629001014,423.31039410014637,423.4271629001014,423.4104206999764,None,c,1,1.1064180999528617,423.4104206999764,None,,,,,m,,p9,2022_Mar_11_1149,training+cueing,2021.1.4,59.82535776727825,
Self.png,You,Self ,c,1,11,21,91,,,,,0,0,0,0,,,,,6,10,82,9,,,,,,,,,,,,,,,,,,,,,1.436,2.204,424.65107180015184,None,,,,,,,,,,,,,,,,,,,,425.19756360002793,425.7121825001668,0.513744069961831,1.0146280699409544,425.69547180016525,425.7955056000501,425.69547180016525,425.7955056000501,425.7955056000501,None,m,0,0.6251946999691427,425.7955056000501,None,,,,,m,,p9,2022_Mar_11_1149,training+cueing,2021.1.4,59.82535776727825,
Stranger.png,Stranger,Stranger,c,3,13,23,93,,,,,0,0,0,0,,,,,6,11,83,8,,,,,,,,,,,,,,,,,,,,,1.707,2.131,426.55399210006,None,,,,,,,,,,,,,,,,,,,,427.10494600003585,427.61351300007664,0.51414386020042,1.0146944602020085,427.5968154000584,427.71358079998754,427.5968154000584,427.71358079998754,427.6968855999876,None,c,1,0.5957297999411821,427.6968855999876,None,,,,,m,,p9,2022_Mar_11_1149,training+cueing,2021.1.4,59.82535776727825,
Stranger.png,Stranger,Stranger,c,3,13,23,93,,,,,0,0,0,0,,,,,7,0,84,8,,,,,,,,,,,,,,,,,,,,,1.507,2.452,428.4214451001026,None,,,,,,,,,,,,,,,,,,,,428.96038990002126,429.46489719999954,0.508911769837141,None,429.44818790000863,429.564901500009,429.44818790000863,429.564901500009,429.5481834001839,None,c,1,0.3604676998220384,429.5481834001839,None,,,,,m,,p9,2022_Mar_11_1149,training+cueing,2021.1.4,59.82535776727825,
Friend.png,Friend,Friend,c,2,12,22,92,,,,,0,0,0,0,,,,,7,1,85,10,,,,,,,,,,,,,,,,,,,,,1.491,2.349,430.03777680010535,None,,,,,,,,,,,,,,,,,,,,430.58093990013003,431.0826901001856,0.5054527700413018,None,431.0660195001401,431.18296930007637,431.0660195001401,431.18296930007637,431.1660131001845,None,m,0,0.2144875000230968,431.1660131001845,None,,,,,m,,p9,2022_Mar_11_1149,training+cueing,2021.1.4,59.82535776727825,
Stranger.png,You,Stranger,m,1.3,15,25,95,,,,,0,0,0,0,,,,,7,2,86,6,,,,,,,,,,,,,,,,,,,,,1.637,2.184,431.5057461000979,None,,,,,,,,,,,,,,,,,,,,432.05345690017566,432.56706570019014,0.5084693697281182,None,432.55040860013105,432.6504502000753,432.55040860013105,432.6504502000753,432.6504502000753,None,c,0,0.18620149977505207,432.6504502000753,None,,,,,m,,p9,2022_Mar_11_1149,training+cueing,2021.1.4,59.82535776727825,
Self.png,Stranger,Self ,m,3.1,18,28,98,,,,,0,0,0,0,,,,,7,3,87,2,,,,,,,,,,,,,,,,,,,,,1.408,1.259,432.97360770008527,None,,,,,,,,,,,,,,,,,,,,433.5154957000632,434.0181422000751,0.505072170170024,1.0054181702435017,434.0014621000737,434.1181973000057,434.0014621000737,434.1181973000057,434.1014682999812,None,c,0,0.5112035998608917,434.1014682999812,None,,,,,m,,p9,2022_Mar_11_1149,training+cueing,2021.1.4,59.82535776727825,
Friend.png,Stranger,Friend,m,3.2,19,29,99,,,,,0,0,0,0,,,,,7,4,88,5,,,,,,,,,,,,,,,,,,,,,1.525,1.809,434.7420732001774,None,,,,,,,,,,,,,,,,,,,,435.27956579998136,435.78607570007443,0.5104476697742939,None,435.7693543001078,435.8863302001264,435.7693543001078,435.8863302001264,435.86945900018327,None,m,1,0.311162400059402,435.86945900018327,None,,,,,m,,p9,2022_Mar_11_1149,training+cueing,2021.1.4,59.82535776727825,
Friend.png,You,Friend,m,1.2,14,24,94,,,,,0,0,0,0,,,,,7,5,89,3,,,,,,,,,,,,,,,,,,,,,1.658,1.421,436.3094665000681,None,,,,,,,,,,,,,,,,,,,,436.85495480010286,437.35402890015393,0.5139160696417093,None,437.35402890015393,437.454052900197,437.35402890015393,437.454052900197,437.454052900197,None,m,1,0.3104759000707418,437.454052900197,None,,,,,m,,p9,2022_Mar_11_1149,training+cueing,2021.1.4,59.82535776727825,
Stranger.png,Friend,Stranger,m,2.3,17,27,97,,,,,0,0,0,0,,,,,7,6,90,7,,,,,,,,,,,,,,,,,,,,,1.619,2.215,437.8940616999753,None,,,,,,,,,,,,,,,,,,,,438.4353829000611,438.93837520014495,0.5069623696617782,None,438.92162730009295,439.0385756001342,438.92162730009295,439.0385756001342,439.0216787001118,None,m,1,0.2789292000234127,439.0216787001118,None,,,,,m,,p9,2022_Mar_11_1149,training+cueing,2021.1.4,59.82535776727825,
Friend.png,Friend,Friend,c,2,12,22,92,,,,,0,0,0,0,,,,,7,7,91,4,,,,,,,,,,,,,,,,,,,,,1.72,2.094,439.42720949999057,None,,,,,,,,,,,,,,,,,,,,439.9663172001019,440.47272710013203,0.5102175700012594,1.0105320699512959,440.4561112001538,440.5728221000172,440.4561112001538,440.5728221000172,440.55615960014984,None,m,0,0.7123916998971254,440.55615960014984,None,,,,,m,,p9,2022_Mar_11_1149,training+cueing,2021.1.4,59.82535776727825,
Self.png,Friend,Self ,m,2.1,16,26,96,,,,,0,0,0,0,,,,,7,8,92,1,,,,,,,,,,,,,,,,,,,,,1.631,2.381,441.396723800106,None,,,,,,,,,,,,,,,,,,,,441.9358969000168,442.4408907000907,0.5103894700296223,1.0106170699000359,442.42423160001636,442.5409225001931,442.42423160001636,442.5409225001931,442.52420970005915,None,m,1,0.8883751998655498,442.52420970005915,None,,,,,m,,p9,2022_Mar_11_1149,training+cueing,2021.1.4,59.82535776727825,
Stranger.png,Stranger,Stranger,c,3,13,23,93,,,,,0,0,0,0,,,,,7,9,93,11,,,,,,,,,,,,,,,,,,,,,1.428,1.421,443.5479270000942,None,,,,,,,,,,,,,,,,,,,,444.08895210013725,444.59240690013394,0.5060428699944168,1.0063423700630665,444.5757528000977,444.69247060013004,444.5757528000977,444.69247060013004,444.67577960016206,None,m,0,0.8167904000729322,444.67577960016206,None,,,,,m,,p9,2022_Mar_11_1149,training+cueing,2021.1.4,59.82535776727825,
Self.png,You,Self ,c,1,11,21,91,,,,,0,0,0,0,,,,,7,10,94,0,,,,,,,,,,,,,,,,,,,,,1.632,2.404,445.61516700009815,None,,,,,,,,,,,,,,,,,,,,446.15627630008385,446.66057660011575,0.506404269952327,1.0066503698471934,446.643960500136,446.74406799999997,446.643960500136,446.74406799999997,446.74406799999997,None,m,0,0.6204935000278056,446.74406799999997,None,,,,,m,,p9,2022_Mar_11_1149,training+cueing,2021.1.4,59.82535776727825,
Self.png,You,Self ,c,1,11,21,91,,,,,0,0,0,0,,,,,7,11,95,9,,,,,,,,,,,,,,,,,,,,,1.51,1.635,447.50237650005147,None,,,,,,,,,,,,,,,,,,,,448.0376481001731,448.5452684999909,0.5146318699698895,1.0149369700811803,448.52859750017524,448.62864490016364,448.52859750017524,448.62864490016364,448.62864490016364,None,m,0,0.44786750013008714,448.62864490016364,None,,,,,m,,p9,2022_Mar_11_1149,training+cueing,2021.1.4,59.82535776727825,
Stranger.png,You,Stranger,m,1.3,15,25,95,,,,,0,0,0,0,,,,,8,0,96,6,,,,,,,,,,,,,,,,,,,,,1.58,1.592,449.20210830005817,None,,,,,,,,,,,,,,,,,,,,449.7403011000715,450.2465052001644,0.5110013699159026,None,450.2298564000521,450.3299004000146,450.2298564000521,450.3299004000146,450.3299004000146,None,m,1,0.34665169985964894,450.3299004000146,None,,,,,m,,p9,2022_Mar_11_1149,training+cueing,2021.1.4,59.82535776727825,
Friend.png,Friend,Friend,c,2,12,22,92,,,,,0,0,0,0,,,,,8,1,97,4,,,,,,,,,,,,,,,,,,,,,1.421,2.284,450.8031376001891,None,,,,,,,,,,,,,,,,,,,,451.3445774000138,451.8476824001409,0.5060977698303759,1.0063865699339658,451.8309712000191,451.94770690007135,451.8309712000191,451.94770690007135,451.9309773000423,None,m,0,0.5855643998365849,451.9309773000423,None,,,,,m,,p9,2022_Mar_11_1149,training+cueing,2021.1.4,59.82535776727825,
Stranger.png,Stranger,Stranger,c,3,13,23,93,,,,,0,0,0,0,,,,,8,2,98,8,,,,,,,,,,,,,,,,,,,,,1.507,1.463,452.65406580013223,None,,,,,,,,,,,,,,,,,,,,453.196163300192,453.6989776000846,0.505119769833982,1.0054086700547487,453.6823134000879,453.79900500015356,453.6823134000879,453.79900500015356,453.7823405000381,None,m,0,0.4462347000371665,453.7823405000381,None,,,,,m,,p9,2022_Mar_11_1149,training+cueing,2021.1.4,59.82535776727825,
Self.png,You,Self ,c,1,11,21,91,,,,,0,0,0,0,,,,,8,3,99,9,,,,,,,,,,,,,,,,,,,,,1.724,1.806,454.35568909998983,None,,,,,,,,,,,,,,,,,,,,454.8952801001724,455.40021980018355,0.5083632697351277,1.0089580698404461,455.38348380010575,455.4835874000564,455.38348380010575,455.4835874000564,455.4835874000564,None,c,1,1.2249373998492956,455.4835874000564,None,,,,,m,,p9,2022_Mar_11_1149,training+cueing,2021.1.4,59.82535776727825,
Self.png,Stranger,Self ,m,3.1,18,28,98,,,,,0,0,0,0,,,,,8,4,100,2,,,,,,,,,,,,,,,,,,,,,1.491,1.999,456.8407988001127,None,,,,,,,,,,,,,,,,,,,,457.38233610009775,457.8855252000503,0.5050447699613869,1.0052930698730052,457.8686771001667,457.9853962000925,457.8686771001667,457.9853962000925,457.96867590001784,None,m,1,0.5958618000149727,457.96867590001784,None,,,,,m,,p9,2022_Mar_11_1149,training+cueing,2021.1.4,59.82535776727825,
Friend.png,Friend,Friend,c,2,12,22,92,,,,,0,0,0,0,,,,,8,5,101,10,,,,,,,,,,,,,,,,,,,,,1.677,1.712,458.6915488000959,None,,,,,,,,,,,,,,,,,,,,459.24848900013603,459.75146250007674,0.5094543599989265,1.0098486598581076,459.7366759001743,459.85338070010766,459.7366759001743,459.85338070010766,459.8367031000089,None,m,0,0.5998440000694245,459.8367031000089,None,,,,,m,,p9,2022_Mar_11_1149,training+cueing,2021.1.4,59.82535776727825,
Friend.png,You,Friend,m,1.2,14,24,94,,,,,0,0,0,0,,,,,8,6,102,3,,,,,,,,,,,,,,,,,,,,,1.667,1.67,460.559970700182,None,,,,,,,,,,,,,,,,,,,,461.10055360011756,461.6047787000425,0.5064452700316906,1.0067226700484753,461.5880334000103,461.68806060007773,461.5880334000103,461.68806060007773,461.68806060007773,None,c,0,0.8604955000337213,461.68806060007773,None,,,,,m,,p9,2022_Mar_11_1149,training+cueing,2021.1.4,59.82535776727825,
Friend.png,Stranger,Friend,m,3.2,19,29,99,,,,,0,0,0,0,,,,,8,7,103,5,,,,,,,,,,,,,,,,,,,,,1.735,1.932,462.6787709000055,None,,,,,,,,,,,,,,,,,,,,463.220340100117,463.7228873001877,0.506236569955945,None,463.70620270003565,463.8229181000497,463.70620270003565,463.8229181000497,463.80633649998344,None,m,1,0.18219559988938272,463.80633649998344,None,,,,,m,,p9,2022_Mar_11_1149,training+cueing,2021.1.4,59.82535776727825,
Self.png,You,Self ,c,1,11,21,91,,,,,0,0,0,0,,,,,8,8,104,0,,,,,,,,,,,,,,,,,,,,,1.595,2.105,464.1130352001637,None,,,,,,,,,,,,,,,,,,,,464.6533238000702,465.1572487000376,0.506418369943276,None,465.14059330010787,465.2406399000902,465.14059330010787,465.2406399000902,465.2406399000902,None,c,1,0.23596429987810552,465.2406399000902,None,,,,,m,,p9,2022_Mar_11_1149,training+cueing,2021.1.4,59.82535776727825,
Self.png,Friend,Self ,m,2.1,16,26,96,,,,,0,0,0,0,,,,,8,9,105,1,,,,,,,,,,,,,,,,,,,,,1.496,1.954,465.61350340000354,None,,,,,,,,,,,,,,,,,,,,466.16522850003093,466.6751497001387,0.5026990696787834,None,466.65845950017683,466.77517940010875,466.65845950017683,466.77517940010875,466.75849750009365,None,m,1,0.17408060003072023,466.75849750009365,None,,,,,m,,p9,2022_Mar_11_1149,training+cueing,2021.1.4,59.82535776727825,
Stranger.png,Stranger,Stranger,c,3,13,23,93,,,,,0,0,0,0,,,,,8,10,106,11,,,,,,,,,,,,,,,,,,,,,1.594,2.092,467.0648456001654,None,,,,,,,,,,,,,,,,,,,,467.60672240005806,468.1093828000594,0.5052971700206399,None,468.0927303000353,468.2094157000538,468.0927303000353,468.2094157000538,468.1927237000782,None,c,1,0.33983010007068515,468.1927237000782,None,,,,,m,,p9,2022_Mar_11_1149,training+cueing,2021.1.4,59.82535776727825,
Stranger.png,Friend,Stranger,m,2.3,17,27,97,,,,,0,0,0,0,,,,,8,11,107,7,,,,,,,,,,,,,,,,,,,,,1.449,2.414,468.66603730013594,None,,,,,,,,,,,,,,,,,,,,469.207257400034,469.7105353001971,0.5050965698901564,1.005415870109573,469.6938833000604,469.8105852000881,469.6938833000604,469.8105852000881,469.79389249999076,None,c,0,0.40259029995650053,469.79389249999076,None,,,,,m,,p9,2022_Mar_11_1149,training+cueing,2021.1.4,59.82535776727825,
Stranger.png,Stranger,Stranger,c,3,13,23,93,,,,,0,0,0,0,,,,,9,0,108,8,,,,,,,,,,,,,,,,,,,,,1.631,1.324,470.3342146000359,None,,,,,,,,,,,,,,,,,,,,470.8753661001101,471.3785560000688,0.5059704699087888,None,471.36193210002966,471.4786357001867,471.36193210002966,471.4786357001867,471.4620480001904,None,c,1,0.3184249000623822,471.4620480001904,None,,,,,m,,p9,2022_Mar_11_1149,training+cueing,2021.1.4,59.82535776727825,
Friend.png,You,Friend,m,1.2,14,24,94,,,,,0,0,0,0,,,,,9,1,109,3,,,,,,,,,,,,,,,,,,,,,1.663,1.742,471.91883930005133,None,,,,,,,,,,,,,,,,,,,,472.45966910012066,472.9628451000899,0.505995670100674,1.0062768701463938,472.9462180000264,473.0462342000101,472.9462180000264,473.0462342000101,473.0462342000101,None,m,1,0.5743075001519173,473.0462342000101,None,,,,,m,,p9,2022_Mar_11_1149,training+cueing,2021.1.4,59.82535776727825,
Stranger.png,Stranger,Stranger,c,3,13,23,93,,,,,0,0,0,0,,,,,9,2,110,11,,,,,,,,,,,,,,,,,,,,,1.667,1.331,473.7533003001008,None,,,,,,,,,,,,,,,,,,,,474.29401569999754,474.7975604000967,0.504262869944796,None,474.7808710001409,474.8976179000456,474.7808710001409,474.8976179000456,474.8808873000089,None,c,1,0.30766370007768273,474.8808873000089,None,,,,,m,,p9,2022_Mar_11_1149,training+cueing,2021.1.4,59.82535776727825,
Self.png,You,Self ,c,1,11,21,91,,,,,0,0,0,0,,,,,9,3,111,9,,,,,,,,,,,,,,,,,,,,,1.529,1.782,475.3204067000188,None,,,,,,,,,,,,,,,,,,,,475.8604809001554,476.36532330000773,0.5106898702215403,1.0109822701197118,476.3486625000369,476.44873040006496,476.3486625000369,476.44873040006496,476.44873040006496,None,c,1,0.7079003998078406,476.44873040006496,None,,,,,m,,p9,2022_Mar_11_1149,training+cueing,2021.1.4,59.82535776727825,
Friend.png,Friend,Friend,c,2,12,22,92,,,,,0,0,0,0,,,,,9,4,112,10,,,,,,,,,,,,,,,,,,,,,1.74,1.42,477.28913870011456,None,,,,,,,,,,,,,,,,,,,,477.84333440009505,478.3501073999796,0.5122577601578087,1.0125693599693477,478.3334219001699,478.45015990012325,478.3334219001699,478.45015990012325,478.4334554001689,None,m,0,0.45109190000221133,478.4334554001689,None,,,,,m,,p9,2022_Mar_11_1149,training+cueing,2021.1.4,59.82535776727825,
Friend.png,Stranger,Friend,m,3.2,19,29,99,,,,,0,0,0,0,,,,,9,5,113,5,,,,,,,,,,,,,,,,,,,,,1.547,2.098,479.0061710001901,None,,,,,,,,,,,,,,,,,,,,479.5495971001219,480.0513561000116,0.5052234698086977,None,480.034702999983,480.1514052001294,480.034702999983,480.1514052001294,480.134691900108,None,m,1,0.36592160002328455,480.134691900108,None,,,,,m,,p9,2022_Mar_11_1149,training+cueing,2021.1.4,59.82535776727825,
Self.png,You,Self ,c,1,11,21,91,,,,,0,0,0,0,,,,,9,6,114,0,,,,,,,,,,,,,,,,,,,,,1.548,1.73,480.62789450003766,None,,,,,,,,,,,,,,,,,,,,481.16847730008885,481.66917270002887,0.5020900701638311,1.0023680701851845,481.6525110001676,481.75255169998854,481.6525110001676,481.75255169998854,481.75255169998854,None,c,1,0.5239889998920262,481.75255169998854,None,,,,,m,,p9,2022_Mar_11_1149,training+cueing,2021.1.4,59.82535776727825,
Stranger.png,You,Stranger,m,1.3,15,25,95,,,,,0,0,0,0,,,,,9,7,115,6,,,,,,,,,,,,,,,,,,,,,1.631,1.559,482.40922989998944,None,,,,,,,,,,,,,,,,,,,,482.9547174000181,483.45376910013147,0.5129747700411826,1.0132850699592382,483.45376910013147,483.5538073000498,483.45376910013147,483.5538073000498,483.5538073000498,None,c,0,0.5307616000063717,483.5538073000498,None,,,,,m,,p9,2022_Mar_11_1149,training+cueing,2021.1.4,59.82535776727825,
Stranger.png,Friend,Stranger,m,2.3,17,27,97,,,,,0,0,0,0,,,,,9,8,116,7,,,,,,,,,,,,,,,,,,,,,1.671,1.35,484.2103460000362,None,,,,,,,,,,,,,,,,,,,,484.7523554000072,485.2550653000362,0.5060183701571077,None,485.2384117001202,485.35510720009916,485.2384117001202,485.35510720009916,485.3384462001268,None,c,0,0.330064499983564,485.3384462001268,None,,,,,m,,p9,2022_Mar_11_1149,training+cueing,2021.1.4,59.82535776727825,
Self.png,Friend,Self ,m,2.1,16,26,96,,,,,0,0,0,0,,,,,9,9,117,1,,,,,,,,,,,,,,,,,,,,,1.532,2.456,485.79417850007303,None,,,,,,,,,,,,,,,,,,,,486.33402160019614,486.83956710016355,0.5105252701323479,None,486.8228621999733,486.93967400002293,486.8228621999733,486.93967400002293,486.92290000012144,None,c,0,0.3616531000006944,486.92290000012144,None,,,,,m,,p9,2022_Mar_11_1149,training+cueing,2021.1.4,59.82535776727825,
Friend.png,Friend,Friend,c,2,12,22,92,,,,,0,0,0,0,,,,,9,10,118,4,,,,,,,,,,,,,,,,,,,,,1.72,1.442,487.4123180999886,None,,,,,,,,,,,,,,,,,,,,487.9513677000068,488.45739940018393,0.5106998700648546,1.0109415699262172,488.4407569000032,488.5574541001115,488.4407569000032,488.5574541001115,488.54074329999276,None,m,0,0.43971920013427734,488.54074329999276,None,,,,,m,,p9,2022_Mar_11_1149,training+cueing,2021.1.4,59.82535776727825,
Self.png,Stranger,Self ,m,3.1,18,28,98,,,,,0,0,0,0,,,,,9,11,119,2,,,,,,,,,,,,,,,,,,,,,1.784,2.443,489.1142890001647,None,,,,,,,,,,,,,,,,,,,,489.6560003000777,490.1586027999874,0.5049686697311699,1.0052910698577762,490.14192189997993,490.2587016001344,490.14192189997993,490.2587016001344,490.2420204000082,None,m,1,0.49843610008247197,490.2420204000082,None,,,,,m,,p9,2022_Mar_11_1149,training+cueing,2021.1.4,59.82535776727825,
,,,,,,,,,,,,0,0,0,0,,,,,,,,,,,,,,,,,,,,,,,,,,,,,,,,,,,,,,,,,,,,,,,,,,,,,,,,,,,,,,,,,,,0.0011240302119404078,None,,,m,,p9,2022_Mar_11_1149,training+cueing,2021.1.4,59.82535776727825,
Self.png,Friend,Self ,m,2.1,16,26,96,,,,,1,0,1,0,0,0,0,1,,,,,,,,,,,,,,,,,491.3761903999839,None,space,2.6915076998993754,2.0163871902041137,None,496.0797851001844,None,1.619,2.471,499.097697700141,None,499.6259747000877,500.13247469998896,500.11581700015813,500.2325313000474,500.11581700015813,500.2325313000474,500.21582990000024,None,m,1,500.21582990000024,None,501.3834006001707,None,1.1486028002109379,,,,,,,,,,,,,,,,,,,,,,,,m,,p9,2022_Mar_11_1149,training+cueing,2021.1.4,59.82535776727825,
Stranger.png,You,Stranger,m,1.3,15,25,95,,,,,1,0,1,0,0,1,1,6,,,,,,,,,,,,,,,,,,,,,,,,,1.411,1.372,501.78365300013684,None,502.3161571000237,502.81777200009674,502.8010752000846,502.9011345000472,502.8010752000846,502.9011345000472,502.9011345000472,None,c,0,502.9011345000472,None,503.6185854000505,None,0.6873850000556558,,,,,,,,,,,,,,,,,,,,,,,,m,,p9,2022_Mar_11_1149,training+cueing,2021.1.4,59.82535776727825,
Friend.png,Stranger,Friend,m,3.2,19,29,99,,,,,1,0,1,0,0,2,2,5,,,,,,,,,,,,,,,,,,,,,,,,,1.756,1.501,504.0186125000473,None,504.55177810019813,505.05270300013945,505.0360440001823,505.15274160006084,505.0360440001823,505.15274160006084,505.13604280003347,None,c,0,505.13604280003347,None,506.3203271001112,None,1.1564231000375003,,,,,,,,,,,,,,,,,,,,,,,,m,,p9,2022_Mar_11_1149,training+cueing,2021.1.4,59.82535776727825,
Self.png,You,Self ,c,1,11,21,91,,,,,1,0,1,0,0,3,3,0,,,,,,,,,,,,,,,,,,,,,,,,,1.451,1.595,506.7205648000818,None,507.2513082001824,507.7546511001419,507.7379336000886,507.83800130011514,507.7379336000886,507.83800130011514,507.83800130011514,None,c,1,507.83800130011514,None,508.50413650018163,None,0.6464591999538243,,,,,,,,,,,,,,,,,,,,,,,,m,,p9,2022_Mar_11_1149,training+cueing,2021.1.4,59.82535776727825,
Self.png,You,Self ,c,1,11,21,91,,,,,1,0,1,0,0,4,4,9,,,,,,,,,,,,,,,,,,,,,,,,,1.635,1.703,508.9054961001966,None,509.4565506000072,509.95629120012745,509.95629120012745,510.05628610006534,509.95629120012745,510.05628610006534,510.0396335001569,None,c,1,510.0396335001569,None,511.2238001001533,None,1.1647771999705583,,,,,,,,,,,,,,,,,,,,,,,,m,,p9,2022_Mar_11_1149,training+cueing,2021.1.4,59.82535776727825,
Friend.png,Friend,Friend,c,2,12,22,92,,,,,1,0,1,0,0,5,5,10,,,,,,,,,,,,,,,,,,,,,,,,,1.678,1.675,511.6242516001221,None,512.161784700118,512.6748877000064,512.6581767001189,512.7749714001548,512.6581767001189,512.7749714001548,512.7582388999872,None,c,1,512.7582388999872,None,513.7923355000094,None,1.0062168999575078,,,,,,,,,,,,,,,,,,,,,,,,m,,p9,2022_Mar_11_1149,training+cueing,2021.1.4,59.82535776727825,
Stranger.png,Friend,Stranger,m,2.3,17,27,97,,,,,1,0,1,0,0,6,6,7,,,,,,,,,,,,,,,,,,,,,,,,,1.67,2.001,514.1926157001872,None,514.7228403000627,515.226696100086,515.2100310001988,515.3267757000867,515.2100310001988,515.3267757000867,515.310062300181,None,m,1,515.310062300181,None,516.6260280001443,None,1.2864248000551015,,,,,,,,,,,,,,,,,,,,,,,,m,,p9,2022_Mar_11_1149,training+cueing,2021.1.4,59.82535776727825,
Stranger.png,Stranger,Stranger,c,3,13,23,93,,,,,1,0,1,0,0,7,7,8,,,,,,,,,,,,,,,,,,,,,,,,,1.778,2.411,517.0281051001512,None,517.5635079001077,518.0787774000783,518.0620784000494,518.178858499974,518.0620784000494,518.178858499974,518.1621126001701,None,c,1,518.1621126001701,None,519.8967975000851,None,1.7143290999811143,,,,,,,,,,,,,,,,,,,,,,,,m,,p9,2022_Mar_11_1149,training+cueing,2021.1.4,59.82535776727825,
Stranger.png,Stranger,Stranger,c,3,13,23,93,,,,,1,0,1,0,0,8,8,11,,,,,,,,,,,,,,,,,,,,,,,,,1.496,1.987,520.2975932001136,None,520.8383514999878,521.3478076001629,521.3311211999971,521.4478574001696,521.3311211999971,521.4478574001696,521.4478574001696,None,c,1,521.4478574001696,None,522.4652758999728,None,0.9885925999842584,,,,,,,,,,,,,,,,,,,,,,,,m,,p9,2022_Mar_11_1149,training+cueing,2021.1.4,59.82535776727825,
Self.png,Stranger,Self ,m,3.1,18,28,98,,,,,1,0,1,0,0,9,9,2,,,,,,,,,,,,,,,,,,,,,,,,,1.407,1.544,522.865522300126,None,523.3955081000458,523.8997677001171,523.8829669000115,523.9996778001077,523.8829669000115,523.9996778001077,523.9829532001168,None,m,1,523.9829532001168,None,525.0654819000047,None,1.0615501999855042,,,,,,,,,,,,,,,,,,,,,,,,m,,p9,2022_Mar_11_1149,training+cueing,2021.1.4,59.82535776727825,
Friend.png,Friend,Friend,c,2,12,22,92,,,,,1,0,1,0,0,10,10,4,,,,,,,,,,,,,,,,,,,,,,,,,1.549,2.198,525.4673940001521,None,526.0007674000226,526.5014987001196,526.484810900176,526.6015572000761,526.484810900176,526.6015572000761,526.6015572000761,None,c,1,526.6015572000761,None,527.8524995001499,None,1.2269333999138325,,,,,,,,,,,,,,,,,,,,,,,,m,,p9,2022_Mar_11_1149,training+cueing,2021.1.4,59.82535776727825,
Friend.png,You,Friend,m,1.2,14,24,94,,,,,1,0,1,0,0,11,11,3,,,,,,,,,,,,,,,,,,,,,,,,,1.699,2.131,528.2527705000248,None,528.7832161001861,529.2868755999953,529.2702592001297,529.3702052000444,529.2702592001297,529.3702052000444,529.3702052000444,None,m,1,529.3702052000444,None,530.8713389001787,None,1.4821093999780715,,,,,,,,,,,,,,,,,,,,,,,,m,,p9,2022_Mar_11_1149,training+cueing,2021.1.4,59.82535776727825,
Stranger.png,You,Stranger,m,1.3,15,25,95,,,,,1,0,1,0,,,,,0,0,0,6,,,,,,,,,,,,,,,,,,,534.274105500197,None,1.55,1.834,537.7904915001709,None,,,,,,,,,,,,,,,,531.2715837999713,None,0.014782989863306284,0.513252189848572,538.3240467000287,538.8271288000979,0.5056504698004574,1.0059389697853476,538.8103923001327,538.9104330001865,538.8103923001327,538.9104330001865,538.9104330001865,None,c,0,0.805996699957177,538.9104330001865,None,,,,,m,,p9,2022_Mar_11_1149,training+cueing,2021.1.4,59.82535776727825,
Self.png,Stranger,Self ,m,3.1,18,28,98,,,,,1,0,1,0,,,,,0,1,1,2,,,,,,,,,,,,,,,,,,,,,1.663,1.239,539.851892700186,None,,,,,,,,,,,,,,,,,,,,540.3940840000287,540.8952425001189,0.5012418699916452,1.001508970046416,540.8785511001479,540.9952850001864,540.8785511001479,540.9952850001864,540.9952850001864,None,None,0,,540.9952850001864,None,,,,,m,,p9,2022_Mar_11_1149,training+cueing,2021.1.4,59.82535776727825,
Self.png,Friend,Self ,m,2.1,16,26,96,,,,,1,0,1,0,,,,,0,2,2,1,,,,,,,,,,,,,,,,,,,,,1.744,1.647,542.7671358999796,None,,,,,,,,,,,,,,,,,,,,543.3100714001339,543.814033600036,0.5049577697645873,1.0052079698070884,543.7973841000348,543.9140892000869,543.7973841000348,543.9140892000869,543.8974882999901,None,c,0,0.650941199855879,543.8974882999901,None,,,,,m,,p9,2022_Mar_11_1149,training+cueing,2021.1.4,59.82535776727825,
Stranger.png,Stranger,Stranger,c,3,13,23,93,,,,,1,0,1,0,,,,,0,3,3,11,,,,,,,,,,,,,,,,,,,,,1.701,1.467,544.6708439001814,None,,,,,,,,,,,,,,,,,,,,545.2116110001225,545.7153720001224,0.5068014697171748,1.0070878698024899,545.6986837000586,545.8154283000622,545.6986837000586,545.8154283000622,545.7987333000638,None,m,0,1.357687999960035,545.7987333000638,None,,,,,m,,p9,2022_Mar_11_1149,training+cueing,2021.1.4,59.82535776727825,
Stranger.png,Stranger,Stranger,c,3,13,23,93,,,,,1,0,1,0,,,,,0,4,4,8,,,,,,,,,,,,,,,,,,,,,1.495,2.432,547.2896373001859,None,,,,,,,,,,,,,,,,,,,,547.8289930999745,548.3339311000891,0.5067797699011862,1.0070495698601007,548.3172607000452,548.4339605001733,548.3172607000452,548.4339605001733,548.4172851000912,None,m,0,1.0911260000430048,548.4172851000912,None,,,,,m,,p9,2022_Mar_11_1149,training+cueing,2021.1.4,59.82535776727825,
Friend.png,Friend,Friend,c,2,12,22,92,,,,,1,0,1,0,,,,,0,5,5,10,,,,,,,,,,,,,,,,,,,,,1.539,1.608,549.6406215000898,None,,,,,,,,,,,,,,,,,,,,550.183280600002,550.6856621999759,0.5059972698800266,1.0062720698770136,550.6689337000716,550.7857119000982,550.6689337000716,550.7857119000982,550.7689879999962,None,c,1,1.0594277998898178,550.7689879999962,None,,,,,m,,p9,2022_Mar_11_1149,training+cueing,2021.1.4,59.82535776727825,
Self.png,You,Self ,c,1,11,21,91,,,,,1,0,1,0,,,,,0,6,6,9,,,,,,,,,,,,,,,,,,,,,1.675,1.244,551.9595882000867,None,,,,,,,,,,,,,,,,,,,,552.5002249001991,553.0039701000787,0.5068596699275076,1.0071321700233966,552.9872955000028,553.0873183000367,552.9872955000028,553.0873183000367,553.0873183000367,None,c,1,1.269039399921894,553.0873183000367,None,,,,,m,,p9,2022_Mar_11_1149,training+cueing,2021.1.4,59.82535776727825,
Friend.png,Friend,Friend,c,2,12,22,92,,,,,1,0,1,0,,,,,0,7,7,4,,,,,,,,,,,,,,,,,,,,,1.58,2.292,554.4782345001586,None,,,,,,,,,,,,,,,,,,,,555.0169167001732,555.5224485001527,0.5086804700549692,1.008957769954577,555.5057806000113,555.6225068001077,555.5057806000113,555.6225068001077,555.6058241000865,None,c,1,1.198508100118488,555.6058241000865,None,,,,,m,,p9,2022_Mar_11_1149,training+cueing,2021.1.4,59.82535776727825,
Stranger.png,Friend,Stranger,m,2.3,17,27,97,,,,,1,0,1,0,,,,,0,8,8,7,,,,,,,,,,,,,,,,,,,,,1.575,2.071,556.9300989999902,None,,,,,,,,,,,,,,,,,,,,557.4686461000238,557.9742366999853,0.5106354700401425,1.0109165699686855,557.9575773000252,558.0742579000071,557.9575773000252,558.0742579000071,558.0576148000546,None,m,1,0.6987913998309523,558.0576148000546,None,,,,,m,,p9,2022_Mar_11_1149,training+cueing,2021.1.4,59.82535776727825,
Friend.png,You,Friend,m,1.2,14,24,94,,,,,1,0,1,0,,,,,0,9,9,3,,,,,,,,,,,,,,,,,,,,,1.524,1.739,558.8808666002005,None,,,,,,,,,,,,,,,,,,,,559.4218509001657,559.9256734000519,0.5079459699336439,1.0081153698265553,559.9090559000615,560.0090051000006,559.9090559000615,560.0090051000006,560.0090051000006,None,None,0,,560.0090051000006,None,,,,,m,,p9,2022_Mar_11_1149,training+cueing,2021.1.4,59.82535776727825,
Self.png,You,Self ,c,1,11,21,91,,,,,1,0,1,0,,,,,0,10,10,0,,,,,,,,,,,,,,,,,,,,,1.769,2.225,561.6476336000487,None,,,,,,,,,,,,,,,,,,,,562.193469800055,562.6942907001358,0.4990179699379951,0.9993511701468378,562.6942907001358,562.7943524001166,562.6942907001358,562.7943524001166,562.7777756999712,None,c,1,1.0026079001836479,562.7777756999712,None,,,,,m,,p9,2022_Mar_11_1149,training+cueing,2021.1.4,59.82535776727825,
Friend.png,Stranger,Friend,m,3.2,19,29,99,,,,,1,0,1,0,,,,,0,11,11,5,,,,,,,,,,,,,,,,,,,,,1.798,1.805,563.9182548001409,None,,,,,,,,,,,,,,,,,,,,564.4606495001353,564.9626196001191,0.503752069780603,1.0040017699357122,564.9459413001314,565.0626429000404,564.9459413001314,565.0626429000404,565.0459867001045,None,None,0,,565.0459867001045,None,,,,,m,,p9,2022_Mar_11_1149,training+cueing,2021.1.4,59.82535776727825,
Friend.png,Friend,Friend,c,2,12,22,92,,,,,1,0,1,0,,,,,1,0,12,10,,,,,,,,,,,,,,,,,,,,,1.466,1.303,566.9516157000326,None,,,,,,,,,,,,,,,,,,,,567.4959599000867,567.9981482001022,0.5035327700898051,1.0044297699350864,567.9814576001372,568.0987121001817,567.9814576001372,568.0987121001817,568.0820168000646,None,c,1,1.122603900032118,568.0820168000646,None,,,,,m,,p9,2022_Mar_11_1149,training+cueing,2021.1.4,59.82535776727825,
Self.png,You,Self ,c,1,11,21,91,,,,,1,0,1,0,,,,,1,1,13,9,,,,,,,,,,,,,,,,,,,,,1.587,1.969,569.3408542000689,None,,,,,,,,,,,,,,,,,,,,569.8820117001887,570.3831794001162,0.5015836698003113,1.0018458699341863,570.3665134001058,570.4665391000453,570.3665134001058,570.4665391000453,570.4665391000453,None,m,0,0.7061412998009473,570.4665391000453,None,,,,,m,,p9,2022_Mar_11_1149,training+cueing,2021.1.4,59.82535776727825,
Self.png,Friend,Self ,m,2.1,16,26,96,,,,,1,0,1,0,,,,,1,2,14,1,,,,,,,,,,,,,,,,,,,,,1.622,2.297,571.3068417999893,None,,,,,,,,,,,,,,,,,,,,571.8495006000157,572.3512450000271,0.5055907699279487,1.0058736698701978,572.3345964001492,572.4512950000353,572.3345964001492,572.4512950000353,572.4346310000401,None,c,0,0.9297839000355452,572.4346310000401,None,,,,,m,,p9,2022_Mar_11_1149,training+cueing,2021.1.4,59.82535776727825,
Self.png,You,Self ,c,1,11,21,91,,,,,1,0,1,0,,,,,1,3,15,0,,,,,,,,,,,,,,,,,,,,,1.477,1.968,573.4916093000211,None,,,,,,,,,,,,,,,,,,,,574.0371318000834,574.5362381001469,0.512469070032239,1.0126326698809862,574.5362381001469,574.6362089000177,574.5362381001469,574.6362089000177,574.6362089000177,None,c,1,0.936198600102216,574.6362089000177,None,,,,,m,,p9,2022_Mar_11_1149,training+cueing,2021.1.4,59.82535776727825,
Friend.png,You,Friend,m,1.2,14,24,94,,,,,1,0,1,0,,,,,1,4,16,3,,,,,,,,,,,,,,,,,,,,,1.445,1.71,575.7099501001649,None,,,,,,,,,,,,,,,,,,,,576.2495512000751,576.7544450999703,0.5093706699553877,1.0096436699386686,576.7377693001181,576.8377871001139,576.7377693001181,576.8377871001139,576.8377871001139,None,m,1,0.9426506001036614,576.8377871001139,None,,,,,m,,p9,2022_Mar_11_1149,training+cueing,2021.1.4,59.82535776727825,
Friend.png,Stranger,Friend,m,3.2,19,29,99,,,,,1,0,1,0,,,,,1,5,17,5,,,,,,,,,,,,,,,,,,,,,1.444,1.844,577.9119285000488,None,,,,,,,,,,,,,,,,,,,,578.4538812001701,578.9560244001914,0.503678270149976,1.0039346700068563,578.9393549000379,579.0560497001279,578.9393549000379,579.0560497001279,579.0393747000489,None,m,1,1.2049569999799132,579.0393747000489,None,,,,,m,,p9,2022_Mar_11_1149,training+cueing,2021.1.4,59.82535776727825,
Stranger.png,Stranger,Stranger,c,3,13,23,93,,,,,1,0,1,0,,,,,1,6,18,11,,,,,,,,,,,,,,,,,,,,,1.772,1.689,580.3800535001792,None,,,,,,,,,,,,,,,,,,,,580.9186954000033,581.4244880001061,0.509836670011282,1.0103316700551659,581.4077826000284,581.5245316000655,581.4077826000284,581.5245316000655,581.5077907000668,None,c,1,0.7526086999569088,581.5077907000668,None,,,,,m,,p9,2022_Mar_11_1149,training+cueing,2021.1.4,59.82535776727825,
Stranger.png,You,Stranger,m,1.3,15,25,95,,,,,1,0,1,0,,,,,1,7,19,6,,,,,,,,,,,,,,,,,,,,,1.733,1.504,582.3979814001359,None,,,,,,,,,,,,,,,,,,,,582.9391081000213,583.4426421001554,0.506448769941926,1.0067648701369762,583.4259085000958,583.5259565000888,583.4259085000958,583.5259565000888,583.5259565000888,None,m,1,0.6864854001905769,583.5259565000888,None,,,,,m,,p9,2022_Mar_11_1149,training+cueing,2021.1.4,59.82535776727825,
Friend.png,Friend,Friend,c,2,12,22,92,,,,,1,0,1,0,,,,,1,8,20,4,,,,,,,,,,,,,,,,,,,,,1.678,1.582,584.3492664000951,None,,,,,,,,,,,,,,,,,,,,584.8901264001615,585.3939735000022,0.5045645700301975,1.005127470009029,585.3772995001636,585.4941002000123,585.3772995001636,585.4941002000123,585.4773844999727,None,m,0,0.6869763000868261,585.4773844999727,None,,,,,m,,p9,2022_Mar_11_1149,training+cueing,2021.1.4,59.82535776727825,
Stranger.png,Friend,Stranger,m,2.3,17,27,97,,,,,1,0,1,0,,,,,1,9,21,7,,,,,,,,,,,,,,,,,,,,,1.466,2.377,586.3010425001848,None,,,,,,,,,,,,,,,,,,,,586.8395299999975,587.3454228001647,0.5119485699106008,1.0122945697512478,587.3286814000458,587.4454918000847,587.3286814000458,587.4454918000847,587.4287662999704,None,m,1,0.6075711001176387,587.4287662999704,None,,,,,m,,p9,2022_Mar_11_1149,training+cueing,2021.1.4,59.82535776727825,
Self.png,Stranger,Self ,m,3.1,18,28,98,,,,,1,0,1,0,,,,,1,10,22,2,,,,,,,,,,,,,,,,,,,,,1.486,2.231,588.1689345000777,None,,,,,,,,,,,,,,,,,,,,588.7115294001997,589.2134519000538,0.5044837701134384,1.0048330700956285,589.1967315000948,589.3135138000362,589.1967315000948,589.3135138000362,589.2969417001586,None,c,0,0.6433836999349296,589.2969417001586,None,,,,,m,,p9,2022_Mar_11_1149,training+cueing,2021.1.4,59.82535776727825,
Stranger.png,Stranger,Stranger,c,3,13,23,93,,,,,1,0,1,0,,,,,1,11,23,8,,,,,,,,,,,,,,,,,,,,,1.762,2.186,590.07019460015,None,,,,,,,,,,,,,,,,,,,,590.6070896000601,591.114814599976,0.5139676698017865,1.0142764698248357,591.0981018000748,591.2148773001973,591.0981018000748,591.2148773001973,591.1981713999994,None,c,1,0.7901552000548691,591.1981713999994,None,,,,,m,,p9,2022_Mar_11_1149,training+cueing,2021.1.4,59.82535776727825,
Self.png,You,Self ,c,1,11,21,91,,,,,1,0,1,0,,,,,2,0,24,0,,,,,,,,,,,,,,,,,,,,,1.447,2.166,592.1218161999714,None,,,,,,,,,,,,,,,,,,,,592.6631311001256,593.1662697000429,0.5053430700208992,1.0056224700529128,593.1496149001177,593.249670300167,593.1496149001177,593.249670300167,593.249670300167,None,c,1,0.4506343000102788,593.249670300167,None,,,,,m,,p9,2022_Mar_11_1149,training+cueing,2021.1.4,59.82535776727825,
Self.png,Stranger,Self ,m,3.1,18,28,98,,,,,1,0,1,0,,,,,2,1,25,2,,,,,,,,,,,,,,,,,,,,,1.478,2.347,593.8229948000517,None,,,,,,,,,,,,,,,,,,,,594.3771067000926,594.8842172001023,0.5138228598516434,None,594.8675708000083,594.9842354001012,594.8675708000083,594.9842354001012,594.967569099972,None,c,0,0.3168754999060184,594.967569099972,None,,,,,m,,p9,2022_Mar_11_1149,training+cueing,2021.1.4,59.82535776727825,
Friend.png,Stranger,Friend,m,3.2,19,29,99,,,,,1,0,1,0,,,,,2,2,26,5,,,,,,,,,,,,,,,,,,,,,1.406,2.271,595.4074666001834,None,,,,,,,,,,,,,,,,,,,,595.9460829000454,596.4520223001018,0.5098285700660199,1.0101116700097919,596.4353118999861,596.5520346001722,596.4353118999861,596.5520346001722,596.5353428001981,None,m,1,0.8769570000004023,596.5353428001981,None,,,,,m,,p9,2022_Mar_11_1149,training+cueing,2021.1.4,59.82535776727825,
Stranger.png,Stranger,Stranger,c,3,13,23,93,,,,,1,0,1,0,,,,,2,3,27,11,,,,,,,,,,,,,,,,,,,,,1.772,1.205,597.5427347000223,None,,,,,,,,,,,,,,,,,,,,598.0870783000719,598.5869851000607,0.4999591698870063,1.000432669883594,598.5702702000272,598.6869723000564,598.5702702000272,598.6869723000564,598.6869723000564,None,m,0,0.48545049992389977,598.6869723000564,None,,,,,m,,p9,2022_Mar_11_1149,training+cueing,2021.1.4,59.82535776727825,
Stranger.png,You,Stranger,m,1.3,15,25,95,,,,,1,0,1,0,,,,,2,4,28,6,,,,,,,,,,,,,,,,,,,,,1.553,2.417,599.3119032999966,None,,,,,,,,,,,,,,,,,,,,599.8531831,600.3548055000138,0.5023056701757014,1.0025883701164275,600.3381571001373,600.4382067001425,600.3381571001373,600.4382067001425,600.4382067001425,None,m,1,0.4461185000836849,600.4382067001425,None,,,,,m,,p9,2022_Mar_11_1149,training+cueing,2021.1.4,59.82535776727825,
Stranger.png,Stranger,Stranger,c,3,13,23,93,,,,,1,0,1,0,,,,,2,5,29,8,,,,,,,,,,,,,,,,,,,,,1.518,1.737,601.0108634000644,None,,,,,,,,,,,,,,,,,,,,601.5545175999869,602.0560682001524,0.5037182699888945,1.0039944699965417,602.0393558000214,602.1561137000099,602.0393558000214,602.1561137000099,602.1393748000264,None,m,0,0.42497200006619096,602.1393748000264,None,,,,,m,,p9,2022_Mar_11_1149,training+cueing,2021.1.4,59.82535776727825,
Friend.png,Friend,Friend,c,2,12,22,92,,,,,1,0,1,0,,,,,2,6,30,4,,,,,,,,,,,,,,,,,,,,,1.74,1.806,602.6959725001361,None,,,,,,,,,,,,,,,,,,,,603.2367101002019,603.7405621001963,0.5082928698975593,1.0086294698994607,603.7238794001751,603.8406327001285,603.7238794001751,603.8406327001285,603.8239510001149,None,c,1,0.660476699937135,603.8239510001149,None,,,,,m,,p9,2022_Mar_11_1149,training+cueing,2021.1.4,59.82535776727825,
Friend.png,Friend,Friend,c,2,12,22,92,,,,,1,0,1,0,,,,,2,7,31,10,,,,,,,,,,,,,,,,,,,,,1.792,2.031,604.6145044001751,None,,,,,,,,,,,,,,,,,,,,605.152872200124,605.6586671001278,0.5102443697396666,1.0105714697856456,605.6419238001108,605.7587115999777,605.6419238001108,605.7587115999777,605.7419710000977,None,c,1,0.8063507999759167,605.7419710000977,None,,,,,m,,p9,2022_Mar_11_1149,training+cueing,2021.1.4,59.82535776727825,
Friend.png,You,Friend,m,1.2,14,24,94,,,,,1,0,1,0,,,,,2,8,32,3,,,,,,,,,,,,,,,,,,,,,1.43,2.428,606.6822065000888,None,,,,,,,,,,,,,,,,,,,,607.2215431001969,607.7268209001049,0.5098111699335277,1.0100114699453115,607.7102008999791,607.8101845001802,607.7102008999791,607.8101845001802,607.8101845001802,None,c,0,0.4661426998209208,607.8101845001802,None,,,,,m,,p9,2022_Mar_11_1149,training+cueing,2021.1.4,59.82535776727825,
Self.png,Friend,Self ,m,2.1,16,26,96,,,,,1,0,1,0,,,,,2,9,33,1,,,,,,,,,,,,,,,,,,,,,1.454,1.577,608.3995901001617,None,,,,,,,,,,,,,,,,,,,,608.9428084001411,609.4447094001807,0.5054115699604154,1.0057102700229734,609.4280489000957,609.5447740000673,609.4280489000957,609.5447740000673,609.5280597000383,None,m,1,0.42827280005440116,609.5280597000383,None,,,,,m,,p9,2022_Mar_11_1149,training+cueing,2021.1.4,59.82535776727825,
Stranger.png,Friend,Stranger,m,2.3,17,27,97,,,,,1,0,1,0,,,,,2,10,34,7,,,,,,,,,,,,,,,,,,,,,1.552,2.036,610.08466160018,None,,,,,,,,,,,,,,,,,,,,610.6232919001486,611.1293085999787,0.5099609699100256,1.010254570050165,611.1125543001108,611.2293325001374,611.1125543001108,611.2293325001374,611.212579500163,None,m,1,0.47173379990272224,611.212579500163,None,,,,,m,,p9,2022_Mar_11_1149,training+cueing,2021.1.4,59.82535776727825,
Self.png,You,Self ,c,1,11,21,91,,,,,1,0,1,0,,,,,2,11,35,9,,,,,,,,,,,,,,,,,,,,,1.574,1.387,611.8190270001069,None,,,,,,,,,,,,,,,,,,,,612.3607322999742,612.8638613000512,0.506271569756791,1.006534269778058,612.8472037001047,612.9472285001539,612.8472037001047,612.9472285001539,612.9472285001539,None,m,0,0.40114879980683327,612.9472285001539,None,,,,,m,,p9,2022_Mar_11_1149,training+cueing,2021.1.4,59.82535776727825,
Friend.png,Stranger,Friend,m,3.2,19,29,99,,,,,1,0,1,0,,,,,3,0,36,5,,,,,,,,,,,,,,,,,,,,,1.542,1.941,613.4706445001066,None,,,,,,,,,,,,,,,,,,,,614.012305600103,614.5150482000317,0.5039866701699793,1.0042536701075733,614.498350400012,614.6150791000109,614.498350400012,614.6150791000109,614.598339300137,None,m,1,1.0860202999319881,614.598339300137,None,,,,,m,,p9,2022_Mar_11_1149,training+cueing,2021.1.4,59.82535776727825,
Friend.png,Friend,Friend,c,2,12,22,92,,,,,1,0,1,0,,,,,3,1,37,10,,,,,,,,,,,,,,,,,,,,,1.605,1.979,615.8220530000981,None,,,,,,,,,,,,,,,,,,,,616.3635882001836,616.8667119001038,0.5049504698254168,1.0053957698401064,616.850076999981,616.9667937001213,616.850076999981,616.9667937001213,616.9500800000969,None,c,1,0.5581775999162346,616.9500800000969,None,,,,,m,,p9,2022_Mar_11_1149,training+cueing,2021.1.4,59.82535776727825,
Stranger.png,You,Stranger,m,1.3,15,25,95,,,,,1,0,1,0,,,,,3,2,38,6,,,,,,,,,,,,,,,,,,,,,1.763,1.231,617.6402879001107,None,,,,,,,,,,,,,,,,,,,,618.182441300014,618.6847044001333,0.5051117702387273,1.0054145702160895,618.6680290000513,618.7680814000778,618.6680290000513,618.7680814000778,618.7680814000778,None,c,0,0.6442004002165049,618.7680814000778,None,,,,,m,,p9,2022_Mar_11_1149,training+cueing,2021.1.4,59.82535776727825,
Friend.png,You,Friend,m,1.2,14,24,94,,,,,1,0,1,0,,,,,3,3,39,3,,,,,,,,,,,,,,,,,,,,,1.646,1.975,619.5412521001417,None,,,,,,,,,,,,,,,,,,,,620.0801244999748,620.5860666001681,0.509331869892776,1.0098139699548483,620.5693791999947,620.6694542001933,620.5693791999947,620.6694542001933,620.6694542001933,None,m,1,1.0631532999686897,620.6694542001933,None,,,,,m,,p9,2022_Mar_11_1149,training+cueing,2021.1.4,59.82535776727825,
Stranger.png,Stranger,Stranger,c,3,13,23,93,,,,,1,0,1,0,,,,,3,4,40,11,,,,,,,,,,,,,,,,,,,,,1.439,1.595,621.8635617000982,None,,,,,,,,,,,,,,,,,,,,622.4035223000683,622.9044197001494,0.5022100699134171,1.0025021696928889,622.8877459000796,623.0044611000922,622.8877459000796,623.0044611000922,622.9877936001867,None,c,1,0.5685253001283854,622.9877936001867,None,,,,,m,,p9,2022_Mar_11_1149,training+cueing,2021.1.4,59.82535776727825,
Stranger.png,Friend,Stranger,m,2.3,17,27,97,,,,,1,0,1,0,,,,,3,5,41,7,,,,,,,,,,,,,,,,,,,,,1.563,1.386,623.694820899982,None,,,,,,,,,,,,,,,,,,,,624.2359673001338,624.739084900124,0.5049705700948834,1.0052438699640334,624.7223924000282,624.8391572001856,624.7223924000282,624.8391572001856,624.822497199988,None,c,0,0.477790700038895,624.822497199988,None,,,,,m,,p9,2022_Mar_11_1149,training+cueing,2021.1.4,59.82535776727825,
Self.png,You,Self ,c,1,11,21,91,,,,,1,0,1,0,,,,,3,6,42,9,,,,,,,,,,,,,,,,,,,,,1.405,1.513,625.4287904000375,None,,,,,,,,,,,,,,,,,,,,625.9700520001352,626.4736831001937,0.5055325699504465,None,626.4570308001712,626.5570958000608,626.4570308001712,626.5570958000608,626.5570958000608,None,c,1,0.3591448001097888,626.5570958000608,None,,,,,m,,p9,2022_Mar_11_1149,training+cueing,2021.1.4,59.82535776727825,
Self.png,You,Self ,c,1,11,21,91,,,,,1,0,1,0,,,,,3,7,43,0,,,,,,,,,,,,,,,,,,,,,1.524,1.688,627.0470243999735,None,,,,,,,,,,,,,,,,,,,,627.5866400001105,628.0914793000557,0.509652269538492,None,628.0748207001016,628.174848300172,628.0748207001016,628.174848300172,628.174848300172,None,c,1,0.3094565998762846,628.174848300172,None,,,,,m,,p9,2022_Mar_11_1149,training+cueing,2021.1.4,59.82535776727825,
Friend.png,Friend,Friend,c,2,12,22,92,,,,,1,0,1,0,,,,,3,8,44,4,,,,,,,,,,,,,,,,,,,,,1.718,2.456,628.6145214000717,None,,,,,,,,,,,,,,,,,,,,629.1541406000033,629.6592966001481,0.5082315697800368,1.008526069810614,629.6426046001725,629.7593386000954,629.6426046001725,629.7593386000954,629.7426571000833,None,c,1,0.8536791999358684,629.7426571000833,None,,,,,m,,p9,2022_Mar_11_1149,training+cueing,2021.1.4,59.82535776727825,
Self.png,Stranger,Self ,m,3.1,18,28,98,,,,,1,0,1,0,,,,,3,9,45,2,,,,,,,,,,,,,,,,,,,,,1.769,1.798,630.7330064000562,None,,,,,,,,,,,,,,,,,,,,631.2757427000906,631.7775082001463,0.5045938699040562,1.0048420699313283,631.7608404001221,631.877809900092,631.7608404001221,631.877809900092,631.8608299000189,None,m,1,0.43134260014630854,631.8608299000189,None,,,,,m,,p9,2022_Mar_11_1149,training+cueing,2021.1.4,59.82535776727825,
Stranger.png,Stranger,Stranger,c,3,13,23,93,,,,,1,0,1,0,,,,,3,10,46,8,,,,,,,,,,,,,,,,,,,,,1.735,1.74,632.417422400089,None,,,,,,,,,,,,,,,,,,,,632.9576867001597,633.4620164001826,0.5095266699790955,1.009867169894278,633.4453540001996,633.5620662001893,633.4453540001996,633.5620662001893,633.5453429000918,None,m,0,0.394944200059399,633.5453429000918,None,,,,,m,,p9,2022_Mar_11_1149,training+cueing,2021.1.4,59.82535776727825,
Self.png,Friend,Self ,m,2.1,16,26,96,,,,,1,0,1,0,,,,,3,11,47,1,,,,,,,,,,,,,,,,,,,,,1.576,1.937,634.0686584999785,None,,,,,,,,,,,,,,,,,,,,634.6082603000104,635.1132182001602,0.5081343697384,1.008413169765845,635.0965507000219,635.2133033000864,635.0965507000219,635.2133033000864,635.1965753000695,None,c,0,0.4877188999671489,635.1965753000695,None,,,,,m,,p9,2022_Mar_11_1149,training+cueing,2021.1.4,59.82535776727825,
Self.png,Stranger,Self ,m,3.1,18,28,98,,,,,1,0,1,0,,,,,4,0,48,2,,,,,,,,,,,,,,,,,,,,,1.675,2.029,635.8196323001757,None,,,,,,,,,,,,,,,,,,,,636.3618005001917,636.8644930999726,0.5052378699183464,None,636.84783470002,636.964669900015,636.84783470002,636.964669900015,636.9479656000622,None,m,1,0.3523727001156658,636.9479656000622,None,,,,,m,,p9,2022_Mar_11_1149,training+cueing,2021.1.4,59.82535776727825,
Friend.png,Stranger,Friend,m,3.2,19,29,99,,,,,1,0,1,0,,,,,4,1,49,5,,,,,,,,,,,,,,,,,,,,,1.516,1.84,637.4380055000074,None,,,,,,,,,,,,,,,,,,,,637.9772512000054,638.4823158001527,0.5099243698641658,1.0102910697460175,638.465658799978,638.5823840000667,638.465658799978,638.5823840000667,638.5656801001169,None,m,1,0.5266098000574857,638.5656801001169,None,,,,,m,,p9,2022_Mar_11_1149,training+cueing,2021.1.4,59.82535776727825,
Stranger.png,Stranger,Stranger,c,3,13,23,93,,,,,1,0,1,0,,,,,4,2,50,8,,,,,,,,,,,,,,,,,,,,,1.531,1.372,639.2217443000991,None,,,,,,,,,,,,,,,,,,,,639.7648035001475,640.2669779001735,0.5091770698782057,1.009396469919011,640.2502934001386,640.3670002000872,640.2502934001386,640.3670002000872,640.3503109000158,None,c,1,0.5979023999534547,640.3503109000158,None,,,,,m,,p9,2022_Mar_11_1149,training+cueing,2021.1.4,59.82535776727825,
Self.png,You,Self ,c,1,11,21,91,,,,,1,0,1,0,,,,,4,3,51,0,,,,,,,,,,,,,,,,,,,,,1.666,2.12,641.0746520999819,None,,,,,,,,,,,,,,,,,,,,641.6142392000183,642.1183078000322,0.5084168699104339,1.0086663700640202,642.1016100000124,642.2016945001669,642.1016100000124,642.2016945001669,642.2016945001669,None,m,0,0.41054599988274276,642.2016945001669,None,,,,,m,,p9,2022_Mar_11_1149,training+cueing,2021.1.4,59.82535776727825,
Friend.png,Friend,Friend,c,2,12,22,92,,,,,1,0,1,0,,,,,4,4,52,4,,,,,,,,,,,,,,,,,,,,,1.491,2.196,642.7415089001879,None,,,,,,,,,,,,,,,,,,,,643.2814827000257,643.7862143001985,0.5062406698707491,1.0065615698695183,643.7694640001282,643.886386499973,643.7694640001282,643.886386499973,643.8696426001843,None,c,1,0.7584726000204682,643.8696426001843,None,,,,,m,,p9,2022_Mar_11_1149,training+cueing,2021.1.4,59.82535776727825,
Stranger.png,Stranger,Stranger,c,3,13,23,93,,,,,1,0,1,0,,,,,4,5,53,11,,,,,,,,,,,,,,,,,,,,,1.431,1.455,644.7594349000137,None,,,,,,,,,,,,,,,,,,,,645.3026391000021,645.8043275000528,0.5043499700259417,1.0045299699995667,645.7876771001611,645.9043370001018,645.7876771001611,645.9043370001018,645.8878862999845,None,m,0,0.5803348999470472,645.8878862999845,None,,,,,m,,p9,2022_Mar_11_1149,training+cueing,2021.1.4,59.82535776727825,
Friend.png,Friend,Friend,c,2,12,22,92,,,,,1,0,1,0,,,,,4,6,54,10,,,,,,,,,,,,,,,,,,,,,1.663,2.081,646.5938678001985,None,,,,,,,,,,,,,,,,,,,,647.1346393001731,647.6389499001671,0.5085566698107868,1.0088930698111653,647.6222137000877,647.7390070999973,647.6222137000877,647.7390070999973,647.7222730000503,None,c,1,0.6820208998396993,647.7222730000503,None,,,,,m,,p9,2022_Mar_11_1149,training+cueing,2021.1.4,59.82535776727825,
Friend.png,You,Friend,m,1.2,14,24,94,,,,,1,0,1,0,,,,,4,7,55,3,,,,,,,,,,,,,,,,,,,,,1.614,1.519,648.5294327000156,None,,,,,,,,,,,,,,,,,,,,649.0697411000729,649.573659799993,0.5056121698580682,1.0058452698867768,649.5570580000058,649.657029800117,649.5570580000058,649.657029800117,649.657029800117,None,m,1,0.8751760001759976,649.657029800117,None,,,,,m,,p9,2022_Mar_11_1149,training+cueing,2021.1.4,59.82535776727825,
Self.png,You,Self ,c,1,11,21,91,,,,,1,0,1,0,,,,,4,8,56,9,,,,,,,,,,,,,,,,,,,,,1.694,2.288,650.6636883001775,None,,,,,,,,,,,,,,,,,,,,651.2041182999965,651.708547900198,0.50970976985991,1.0099960698280483,651.6918812000658,651.7919086001348,651.6918812000658,651.7919086001348,651.7919086001348,None,m,0,0.86828269995749,651.7919086001348,None,,,,,m,,p9,2022_Mar_11_1149,training+cueing,2021.1.4,59.82535776727825,
Stranger.png,Friend,Stranger,m,2.3,17,27,97,,,,,1,0,1,0,,,,,4,9,57,7,,,,,,,,,,,,,,,,,,,,,1.578,2.058,652.7818638000172,None,,,,,,,,,,,,,,,,,,,,653.3864210001193,653.8936858000234,0.5144435297697783,1.0147174298763275,653.8769595001359,653.9937074000482,653.8769595001359,653.9937074000482,653.9770085001364,None,m,1,0.7790872999466956,653.9770085001364,None,,,,,m,,p9,2022_Mar_11_1149,training+cueing,2021.1.4,59.82535776727825,
Stranger.png,You,Stranger,m,1.3,15,25,95,,,,,1,0,1,0,,,,,4,10,58,6,,,,,,,,,,,,,,,,,,,,,1.634,2.253,654.8834310001694,None,,,,,,,,,,,,,,,,,,,,655.4256476000883,655.9283482001629,0.5039333701133728,None,655.9117674001027,656.0117254001088,655.9117674001027,656.0117254001088,656.0117254001088,None,c,0,0.34453350002877414,656.0117254001088,None,,,,,m,,p9,2022_Mar_11_1149,training+cueing,2021.1.4,59.82535776727825,
Self.png,Friend,Self ,m,2.1,16,26,96,,,,,1,0,1,0,,,,,4,11,59,1,,,,,,,,,,,,,,,,,,,,,1.605,2.143,656.4854743999895,None,,,,,,,,,,,,,,,,,,,,657.024643599987,657.5294154000003,0.509492670185864,1.0099465700332075,657.5127534000203,657.6296334001236,657.5127534000203,657.6296334001236,657.6129549001344,None,m,1,0.5031403999309987,657.6129549001344,None,,,,,m,,p9,2022_Mar_11_1149,training+cueing,2021.1.4,59.82535776727825,
Friend.png,Stranger,Friend,m,3.2,19,29,99,,,,,1,0,1,0,,,,,5,0,60,5,,,,,,,,,,,,,,,,,,,,,1.587,2.451,658.2526559000835,None,,,,,,,,,,,,,,,,,,,,658.7958441001829,659.2974025001749,0.5022431698162109,1.0026412699371576,659.2807370000519,659.3975204001181,659.2807370000519,659.3975204001181,659.380734300008,None,m,1,1.0397604000754654,659.380734300008,None,,,,,m,,p9,2022_Mar_11_1149,training+cueing,2021.1.4,59.82535776727825,
Stranger.png,Friend,Stranger,m,2.3,17,27,97,,,,,1,0,1,0,,,,,5,1,61,7,,,,,,,,,,,,,,,,,,,,,1.423,1.953,660.5548657001927,None,,,,,,,,,,,,,,,,,,,,661.096751900157,661.5990155001637,0.5060089698527008,1.0063129698392004,661.5823557002004,661.6990681001917,661.5823557002004,661.6990681001917,661.6823766999878,None,m,1,0.5777879999950528,661.6823766999878,None,,,,,m,,p9,2022_Mar_11_1149,training+cueing,2021.1.4,59.82535776727825,
Friend.png,Friend,Friend,c,2,12,22,92,,,,,1,0,1,0,,,,,5,2,62,10,,,,,,,,,,,,,,,,,,,,,1.472,1.87,662.3888479000889,None,,,,,,,,,,,,,,,,,,,,662.9426614001859,663.4503425001167,0.5001258698757738,1.0004331697709858,663.4336428001989,663.5504060001113,663.4336428001989,663.5504060001113,663.5504060001113,None,c,1,0.6938245999626815,663.5504060001113,None,,,,,m,,p9,2022_Mar_11_1149,training+cueing,2021.1.4,59.82535776727825,
Self.png,Stranger,Self ,m,3.1,18,28,98,,,,,1,0,1,0,,,,,5,3,63,2,,,,,,,,,,,,,,,,,,,,,1.744,1.27,664.3745103999972,None,,,,,,,,,,,,,,,,,,,,664.9157963001635,665.4184287001844,0.5037953699938953,1.0043444701004773,665.4017403000034,665.5185041001532,665.4017403000034,665.5185041001532,665.5017352001742,None,m,1,0.39043359993956983,665.5017352001742,None,,,,,m,,p9,2022_Mar_11_1149,training+cueing,2021.1.4,59.82535776727825,
Stranger.png,You,Stranger,m,1.3,15,25,95,,,,,1,0,1,0,,,,,5,4,64,6,,,,,,,,,,,,,,,,,,,,,1.799,1.255,666.0252514001913,None,,,,,,,,,,,,,,,,,,,,666.5657642001752,667.0695960000157,0.5070778699591756,1.007395870052278,667.0529134999961,667.1529896000866,667.0529134999961,667.1529896000866,667.1529896000866,None,m,1,0.40332129993475974,667.1529896000866,None,,,,,m,,p9,2022_Mar_11_1149,training+cueing,2021.1.4,59.82535776727825,
Self.png,You,Self ,c,1,11,21,91,,,,,1,0,1,0,,,,,5,5,65,0,,,,,,,,,,,,,,,,,,,,,1.421,2.24,667.692649600096,None,,,,,,,,,,,,,,,,,,,,668.2317104001995,668.7375038000755,0.5106495697982609,None,668.7208970000502,668.8209112000186,668.7208970000502,668.8209112000186,668.8209112000186,None,m,0,0.3672956000082195,668.8209112000186,None,,,,,m,,p9,2022_Mar_11_1149,training+cueing,2021.1.4,59.82535776727825,
Stranger.png,Stranger,Stranger,c,3,13,23,93,,,,,1,0,1,0,,,,,5,6,66,11,,,,,,,,,,,,,,,,,,,,,1.587,1.324,669.3107857001014,None,,,,,,,,,,,,,,,,,,,,669.8702197000384,670.3720309999771,0.50190155999735,None,670.3553471001796,670.4720619001891,670.3553471001796,670.4720619001891,670.4553561999928,None,m,0,0.380806100089103,670.4553561999928,None,,,,,m,,p9,2022_Mar_11_1149,training+cueing,2021.1.4,59.82535776727825,
Stranger.png,Stranger,Stranger,c,3,13,23,93,,,,,1,0,1,0,,,,,5,7,67,8,,,,,,,,,,,,,,,,,,,,,1.659,2.312,670.9613948001061,None,,,,,,,,,,,,,,,,,,,,671.499190100003,672.0065964001697,0.5153887697961181,1.0156793699134141,671.9898342001252,672.1065858001821,671.9898342001252,672.1065858001821,672.0898704000283,None,m,0,0.394338000100106,672.0898704000283,None,,,,,m,,p9,2022_Mar_11_1149,training+cueing,2021.1.4,59.82535776727825,
Self.png,You,Self ,c,1,11,21,91,,,,,1,0,1,0,,,,,5,8,68,9,,,,,,,,,,,,,,,,,,,,,1.421,1.701,672.6132844001986,None,,,,,,,,,,,,,,,,,,,,673.1520283001009,673.6578478000592,0.5083611698355526,None,673.6411564999726,673.7411877000704,673.6411564999726,673.7411877000704,673.7411877000704,None,m,0,0.34315550001338124,673.7411877000704,None,,,,,m,,p9,2022_Mar_11_1149,training+cueing,2021.1.4,59.82535776727825,
Friend.png,Friend,Friend,c,2,12,22,92,,,,,1,0,1,0,,,,,5,9,69,4,,,,,,,,,,,,,,,,,,,,,1.586,1.652,674.2142468001693,None,,,,,,,,,,,,,,,,,,,,674.7562687001191,675.2588534001261,0.5059063700027764,1.0062118698842824,675.2421931000426,675.3588943001814,675.2421931000426,675.3588943001814,675.3422319001984,None,c,1,0.6459093999583274,675.3422319001984,None,,,,,m,,p9,2022_Mar_11_1149,training+cueing,2021.1.4,59.82535776727825,
Self.png,Friend,Self ,m,2.1,16,26,96,,,,,1,0,1,0,,,,,5,10,70,1,,,,,,,,,,,,,,,,,,,,,1.67,2.117,676.1155803999864,None,,,,,,,,,,,,,,,,,,,,676.6541785001755,677.1602762001567,0.5111970698926598,None,677.1436130001675,677.2602761001326,677.1436130001675,677.2602761001326,677.2435973000247,None,m,1,0.3446316998451948,677.2435973000247,None,,,,,m,,p9,2022_Mar_11_1149,training+cueing,2021.1.4,59.82535776727825,
Friend.png,You,Friend,m,1.2,14,24,94,,,,,1,0,1,0,,,,,5,11,71,3,,,,,,,,,,,,,,,,,,,,,1.534,1.235,677.7171597999986,None,,,,,,,,,,,,,,,,,,,,678.2570258001797,678.7614081001375,0.5069972700439394,1.0072776700835675,678.7447448000312,678.8447857000865,678.7447448000312,678.8447857000865,678.8447857000865,None,m,1,0.8714164001867175,678.8447857000865,None,,,,,m,,p9,2022_Mar_11_1149,training+cueing,2021.1.4,59.82535776727825,
Friend.png,Friend,Friend,c,2,12,22,92,,,,,1,0,1,0,,,,,6,0,72,4,,,,,,,,,,,,,,,,,,,,,1.467,1.278,679.8516420000233,None,,,,,,,,,,,,,,,,,,,,680.3927194999997,680.8963079000823,0.5063236700370908,1.006596569903195,680.8796039000154,680.9963250001892,680.8796039000154,680.9963250001892,680.9796178999823,None,c,1,0.688712699804455,680.9796178999823,None,,,,,m,,p9,2022_Mar_11_1149,training+cueing,2021.1.4,59.82535776727825,
Self.png,Stranger,Self ,m,3.1,18,28,98,,,,,1,0,1,0,,,,,6,1,73,2,,,,,,,,,,,,,,,,,,,,,1.587,2.455,681.8032271000557,None,,,,,,,,,,,,,,,,,,,,682.3447305001318,682.8478000999894,0.505063169868663,None,682.8311038000975,682.9477490000427,682.8311038000975,682.9477490000427,682.9310326999985,None,m,1,0.28912150021642447,682.9310326999985,None,,,,,m,,p9,2022_Mar_11_1149,training+cueing,2021.1.4,59.82535776727825,
Stranger.png,Friend,Stranger,m,2.3,17,27,97,,,,,1,0,1,0,,,,,6,2,74,7,,,,,,,,,,,,,,,,,,,,,1.507,1.637,683.3543466001283,None,,,,,,,,,,,,,,,,,,,,683.8920822001528,684.3988040001132,0.5108728699851781,None,684.3821096001193,684.4988494000863,684.3821096001193,684.4988494000863,684.4821703999769,None,c,0,0.2260028999298811,684.4821703999769,None,,,,,m,,p9,2022_Mar_11_1149,training+cueing,2021.1.4,59.82535776727825,
Friend.png,Stranger,Friend,m,3.2,19,29,99,,,,,1,0,1,0,,,,,6,3,75,5,,,,,,,,,,,,,,,,,,,,,1.664,1.55,684.8389035,None,,,,,,,,,,,,,,,,,,,,685.3784345001914,685.8834198000841,0.5104446699842811,None,685.8665092000738,685.9832437001169,685.8665092000738,685.9832437001169,685.9665787999984,None,c,0,0.22966419998556376,685.9665787999984,None,,,,,m,,p9,2022_Mar_11_1149,training+cueing,2021.1.4,59.82535776727825,
Friend.png,You,Friend,m,1.2,14,24,94,,,,,1,0,1,0,,,,,6,4,76,3,,,,,,,,,,,,,,,,,,,,,1.68,1.725,686.3231250001118,None,,,,,,,,,,,,,,,,,,,,686.8619976001792,687.3676832001656,0.5088722698856145,1.009127469966188,687.3509409001563,687.4509795000777,687.3509409001563,687.4509795000777,687.4509795000777,None,m,1,0.4092052998021245,687.4509795000777,None,,,,,m,,p9,2022_Mar_11_1149,training+cueing,2021.1.4,59.82535776727825,
Self.png,Friend,Self ,m,2.1,16,26,96,,,,,1,0,1,0,,,,,6,5,77,1,,,,,,,,,,,,,,,,,,,,,1.761,1.867,687.991178400116,None,,,,,,,,,,,,,,,,,,,,688.5323818000033,689.0355041001458,0.5072471699677408,1.007608369924128,689.0187946001533,689.1355572000612,689.0187946001533,689.1355572000612,689.1188161000609,None,m,1,0.5493878000415862,689.1188161000609,None,,,,,m,,p9,2022_Mar_11_1149,training+cueing,2021.1.4,59.82535776727825,
Stranger.png,Stranger,Stranger,c,3,13,23,93,,,,,1,0,1,0,,,,,6,6,78,8,,,,,,,,,,,,,,,,,,,,,1.765,1.958,689.791447600117,None,,,,,,,,,,,,,,,,,,,,690.3345239001792,690.8367610001005,0.5046745699364692,1.0049084699712694,690.8201380001847,690.9368219000753,690.8201380001847,690.9368219000753,690.9201524001546,None,m,0,0.7320242999121547,690.9201524001546,None,,,,,m,,p9,2022_Mar_11_1149,training+cueing,2021.1.4,59.82535776727825,
Stranger.png,Stranger,Stranger,c,3,13,23,93,,,,,1,0,1,0,,,,,6,7,79,11,,,,,,,,,,,,,,,,,,,,,1.602,1.868,691.7768342001364,None,,,,,,,,,,,,,,,,,,,,692.3117641999852,692.8215189999901,0.4998533697798848,None,692.7881987001747,692.888419700088,692.7881987001747,692.888419700088,692.888419700088,None,m,0,0.3638160000555217,692.888419700088,None,,,,,m,,p9,2022_Mar_11_1149,training+cueing,2021.1.4,59.82535776727825,
Friend.png,Friend,Friend,c,2,12,22,92,,,,,1,0,1,0,,,,,6,8,80,10,,,,,,,,,,,,,,,,,,,,,1.474,1.561,693.3778035000432,None,,,,,,,,,,,,,,,,,,,,693.9204639000818,694.4228821001016,0.5046449699439108,None,694.4062404001597,694.5227630999871,694.4062404001597,694.5227630999871,694.5060398001224,None,m,0,0.15417320001870394,694.5060398001224,None,,,,,m,,p9,2022_Mar_11_1149,training+cueing,2021.1.4,59.82535776727825,
Self.png,You,Self ,c,1,11,21,91,,,,,1,0,1,0,,,,,6,9,81,9,,,,,,,,,,,,,,,,,,,,,1.644,1.224,694.7960151999723,None,,,,,,,,,,,,,,,,,,,,695.3376134000719,695.8404085000511,0.5058422698639333,1.0061703699175268,695.8237030000892,695.9238134000916,695.8237030000892,695.9238134000916,695.9238134000916,None,c,1,0.6403528000228107,695.9238134000916,None,,,,,m,,p9,2022_Mar_11_1149,training+cueing,2021.1.4,59.82535776727825,
Self.png,You,Self ,c,1,11,21,91,,,,,1,0,1,0,,,,,6,10,82,0,,,,,,,,,,,,,,,,,,,,,1.431,2.232,696.6971756999847,None,,,,,,,,,,,,,,,,,,,,697.2353022000752,697.7417915000115,0.5103038696106523,1.0105741696897894,697.7250781001057,697.8251118999906,697.7250781001057,697.8251118999906,697.8251118999906,None,c,1,0.7871168998535722,697.8251118999906,None,,,,,m,,p9,2022_Mar_11_1149,training+cueing,2021.1.4,59.82535776727825,
Stranger.png,You,Stranger,m,1.3,15,25,95,,,,,1,0,1,0,,,,,6,11,83,6,,,,,,,,,,,,,,,,,,,,,1.523,1.605,698.7499323000666,None,,,,,,,,,,,,,,,,,,,,699.2874704001006,699.793257100042,0.5111637699883431,1.0114865698851645,699.7765728000086,699.8767417001072,699.7765728000086,699.8767417001072,699.8767417001072,None,m,1,0.3994079998228699,699.8767417001072,None,,,,,m,,p9,2022_Mar_11_1149,training+cueing,2021.1.4,59.82535776727825,
Friend.png,You,Friend,m,1.2,14,24,94,,,,,1,0,1,0,,,,,7,0,84,3,,,,,,,,,,,,,,,,,,,,,1.792,1.799,700.4001821000129,None,,,,,,,,,,,,,,,,,,,,700.9382425001822,701.4444487001747,0.5106568697374314,None,701.4277594999876,701.5277980000246,701.4277594999876,701.5277980000246,701.5277980000246,None,c,0,0.3163541001267731,701.5277980000246,None,,,,,m,,p9,2022_Mar_11_1149,training+cueing,2021.1.4,59.82535776727825,
Self.png,Stranger,Self ,m,3.1,18,28,98,,,,,1,0,1,0,,,,,7,1,85,2,,,,,,,,,,,,,,,,,,,,,1.575,2.203,701.9674553000368,None,,,,,,,,,,,,,,,,,,,,702.5105757000856,703.0123381000012,0.5048478699754924,None,702.9955734000541,703.1122988001443,702.9955734000541,703.1122988001443,703.0955837999936,None,m,1,0.26864479994401336,703.0955837999936,None,,,,,m,,p9,2022_Mar_11_1149,training+cueing,2021.1.4,59.82535776727825,
Friend.png,Friend,Friend,c,2,12,22,92,,,,,1,0,1,0,,,,,7,2,86,10,,,,,,,,,,,,,,,,,,,,,1.62,1.612,703.4856210001744,None,,,,,,,,,,,,,,,,,,,,704.0273672000039,704.5300211000722,0.5062459700275213,1.006492970045656,704.5133511000313,704.6300688001793,704.5133511000313,704.6300688001793,704.6133379000239,None,c,1,0.4468404999934137,704.6133379000239,None,,,,,m,,p9,2022_Mar_11_1149,training+cueing,2021.1.4,59.82535776727825,
