Image,Name,Face,CorrAns,Match,Face_onset,CResponse_onset,IResponse_onset,Match.thisRepN,Match.thisTrialN,Match.thisN,Match.thisIndex,Blocks.thisRepN,Blocks.thisTrialN,Blocks.thisN,Blocks.thisIndex,trials.thisRepN,trials.thisTrialN,trials.thisN,trials.thisIndex,trials_2.thisRepN,trials_2.thisTrialN,trials_2.thisN,trials_2.thisIndex,text.started,text.stopped,p1.started,p1.stopped,MatchInstructions.started,MatchInstructions.stopped,Name1.started,Name1.stopped,Face_Relevance.started,Face_Relevance.stopped,MismatchInstructions.started,MismatchInstructions.stopped,Rest_trainingInstruct.started,Rest_trainingInstruct.stopped,next8.keys,next8.rt,next8.started,next8.stopped,Ready.started,Ready.stopped,delay_one_picked,delay_two_picked,blank0.started,blank0.stopped,FixationCross1.started,FixationCross1.stopped,Name3.started,Name3.stopped,Face_Relevance3.started,Face_Relevance3.stopped,responseTime.started,responseTime.stopped,resp.keys,resp.corr,resp.rt,resp.started,resp.stopped,Accuracy.started,Accuracy.stopped,questions.started,questions.stopped,p2.started,p2.stopped,FixationCross3.started,FixationCross3.stopped,port_Face_onset.started,port_Face_onset.stopped,Name4.started,Name4.stopped,Face_Relevance4.started,Face_Relevance4.stopped,responseTime2.started,responseTime2.stopped,Response.keys,Response.corr,Response.rt,Response.started,Response.stopped,p3.started,p3.stopped,Finish.started,Finish.stopped,gender,age,participant,date,expName,psychopyVersion,frameRate,
Self.png,You,,,,,,,0,0,0,0,,,,,,,,,,,,,17.2942902000068,None,0.01088702998822555,0.5366301299800398,27.545482700006687,None,40.63956949999556,None,40.63956949999556,None,,,,,,,,,,,,,,,,,,,,,,,,,,,,,,,,,,,,,,,,,,,,,,,,,,,,,,,pd,2022_Apr_14_1406,training+cueing,2021.1.4,59.64042786322572,
Friend.png,Friend,,,,,,,0,1,1,1,,,,,,,,,,,,,,,,,,,60.538755300003686,None,60.538755300003686,None,,,,,,,,,,,,,,,,,,,,,,,,,,,,,,,,,,,,,,,,,,,,,,,,,,,,,,,pd,2022_Apr_14_1406,training+cueing,2021.1.4,59.64042786322572,
Stranger.png,Stranger,,,,,,,0,2,2,2,,,,,,,,,,,,,,,,,,,80.55855760000122,None,80.55855760000122,None,,,,,,,,,,,,,,,,,,,,,,,,,,,,,,,,,,,,,,,,,,,,,,,,,,,,,,,pd,2022_Apr_14_1406,training+cueing,2021.1.4,59.64042786322572,
Stranger.png,Stranger,Stranger,c,3,13,23,93,,,,,0,0,0,0,0,0,0,8,,,,,,,,,,,,,,,100.49852039999678,None,143.84624949999852,None,space,0.7412051999999676,2.008111769988318,None,146.59841360000428,None,1.469,1.846,149.61174730000494,None,150.2419108000031,150.7512779999961,150.73462060000747,150.85192869999446,150.73462060000747,150.85192869999446,150.85192869999446,None,m,0,1.0965983999922173,150.85192869999446,None,151.9813015999971,None,,,,,,,,,,,,,,,,,,,,,,,,,,pd,2022_Apr_14_1406,training+cueing,2021.1.4,59.64042786322572,
Friend.png,You,Friend,m,1.2,14,24,94,,,,,0,0,0,0,0,1,1,3,,,,,,,,,,,,,,,,,,,,,,,,,1.711,2.223,152.38581950000662,None,152.91871369999717,153.4198488999973,153.40324309999414,153.50324289999844,153.40324309999414,153.50324289999844,153.50324289999844,None,m,1,1.3252963999984786,153.50324289999844,None,154.85455459999503,None,,,,,,,,,,,,,,,,,,,,,,,,,,pd,2022_Apr_14_1406,training+cueing,2021.1.4,59.64042786322572,
Friend.png,Friend,Friend,c,2,12,22,92,,,,,0,0,0,0,0,2,2,10,,,,,,,,,,,,,,,,,,,,,,,,,1.712,2.411,155.25461550000182,None,155.78879170000437,156.28862399999343,156.27194910000253,156.38883530000749,156.27194910000253,156.38883530000749,156.38883530000749,None,c,1,1.5275857000087854,156.38883530000749,None,157.93811560000177,None,,,,,,,,,,,,,,,,,,,,,,,,,,pd,2022_Apr_14_1406,training+cueing,2021.1.4,59.64042786322572,
Self.png,Stranger,Self ,m,3.1,18,28,98,,,,,0,0,0,0,0,3,3,2,,,,,,,,,,,,,,,,,,,,,,,,,1.504,1.813,158.34021049999865,None,158.87619059999997,159.39086230000248,159.3741602999944,159.4909156000067,159.3741602999944,159.4909156000067,159.47420820000116,None,m,1,0.9862156000017421,159.47420820000116,None,160.49014480000187,None,,,,,,,,,,,,,,,,,,,,,,,,,,pd,2022_Apr_14_1406,training+cueing,2021.1.4,59.64042786322572,
Self.png,You,Self ,c,1,11,21,91,,,,,0,0,0,0,0,4,4,9,,,,,,,,,,,,,,,,,,,,,,,,,1.724,2.271,160.8920860000071,None,161.42789239999547,161.94271820000722,161.92598529999668,162.02611970000726,161.92598529999668,162.02611970000726,162.02611970000726,None,c,1,0.8661610999988625,162.02611970000726,None,162.9100935000024,None,,,,,,,,,,,,,,,,,,,,,,,,,,pd,2022_Apr_14_1406,training+cueing,2021.1.4,59.64042786322572,
Friend.png,Friend,Friend,c,2,12,22,92,,,,,0,0,0,0,0,5,5,4,,,,,,,,,,,,,,,,,,,,,,,,,1.57,1.329,163.3103534999973,None,163.84305799999856,164.34443949999695,164.32777360000182,164.44447780000337,164.32777360000182,164.44447780000337,164.42776580000645,None,m,0,1.0564879000012297,164.42776580000645,None,165.51261499999964,None,,,,,,,,,,,,,,,,,,,,,,,,,,pd,2022_Apr_14_1406,training+cueing,2021.1.4,59.64042786322572,
Stranger.png,Stranger,Stranger,c,3,13,23,93,,,,,0,0,0,0,0,6,6,11,,,,,,,,,,,,,,,,,,,,,,,,,1.791,2.242,165.9127409000066,None,166.45830660000502,166.9629752000037,166.94632780000393,167.062986799996,166.94632780000393,167.062986799996,167.04636769999343,None,c,1,0.8219299999909708,167.04636769999343,None,167.8951861999958,None,,,,,,,,,,,,,,,,,,,,,,,,,,pd,2022_Apr_14_1406,training+cueing,2021.1.4,59.64042786322572,
Stranger.png,Friend,Stranger,m,2.3,17,27,97,,,,,0,0,0,0,0,7,7,7,,,,,,,,,,,,,,,,,,,,,,,,,1.488,2.103,168.29736520000733,None,168.83479930000613,169.34807000000728,169.33140910000657,169.44807509999373,169.33140910000657,169.44807509999373,169.43140190000122,None,m,1,1.3488556999946013,169.43140190000122,None,170.79741749999812,None,,,,,,,,,,,,,,,,,,,,,,,,,,pd,2022_Apr_14_1406,training+cueing,2021.1.4,59.64042786322572,
Self.png,You,Self ,c,1,11,21,91,,,,,0,0,0,0,0,8,8,0,,,,,,,,,,,,,,,,,,,,,,,,,1.782,1.328,171.19950820000668,None,171.7389159000013,172.2501254999952,172.23345480000717,172.3335294999997,172.23345480000717,172.3335294999997,172.3335294999997,None,c,1,1.023012200006633,172.3335294999997,None,173.3843443000078,None,,,,,,,,,,,,,,,,,,,,,,,,,,pd,2022_Apr_14_1406,training+cueing,2021.1.4,59.64042786322572,
Stranger.png,You,Stranger,m,1.3,15,25,95,,,,,0,0,0,0,0,9,9,6,,,,,,,,,,,,,,,,,,,,,,,,,1.42,2.079,173.78458350000437,None,174.31447620000108,174.8186776000075,174.80199770000763,174.9019821999973,174.80199770000763,174.9019821999973,174.9019821999973,None,m,1,1.1262884000025224,174.9019821999973,None,176.05285320000257,None,,,,,,,,,,,,,,,,,,,,,,,,,,pd,2022_Apr_14_1406,training+cueing,2021.1.4,59.64042786322572,
Friend.png,Stranger,Friend,m,3.2,19,29,99,,,,,0,0,0,0,0,10,10,5,,,,,,,,,,,,,,,,,,,,,,,,,1.54,1.815,176.4533020999952,None,176.9945052999974,177.50394369999412,177.48727620000136,177.60446170000068,177.48727620000136,177.60446170000068,177.5872842999961,None,c,0,1.0331000000005588,177.5872842999961,None,178.64194190000126,None,,,,,,,,,,,,,,,,,,,,,,,,,,pd,2022_Apr_14_1406,training+cueing,2021.1.4,59.64042786322572,
Self.png,Friend,Self ,m,2.1,16,26,96,,,,,0,0,0,0,0,11,11,1,,,,,,,,,,,,,,,,,,,,,,,,,1.768,1.942,179.05499899999995,None,179.58497280000302,180.08912040000723,180.07244340000034,180.1891406000068,180.07244340000034,180.1891406000068,180.17249620000075,None,None,0,,180.17249620000075,None,181.94068960000004,None,,,,,,,,,,,,,,,,,,,,,,,,,,pd,2022_Apr_14_1406,training+cueing,2021.1.4,59.64042786322572,
Self.png,You,Self ,c,1,11,21,91,,,,,0,0,0,0,,,,,0,0,0,0,,,,,,,,,,,,,,,,,,,185.34319990000222,None,1.621,2.301,188.85338390000106,None,,,,,,,,,,,,,,,,182.34096230000432,None,0.014928270000382327,0.5135171699948842,189.48366529999475,189.99626670000725,0.5054602599993814,1.005763159992057,189.9795698999951,190.07961179999984,189.9795698999951,190.07961179999984,190.07961179999984,None,m,0,1.0529086000024108,190.07961179999984,None,,,,,,,pd,2022_Apr_14_1406,training+cueing,2021.1.4,59.64042786322572,
Stranger.png,Friend,Stranger,m,2.3,17,27,97,,,,,0,0,0,0,,,,,0,1,1,7,,,,,,,,,,,,,,,,,,,,,1.436,1.367,191.27560160000576,None,,,,,,,,,,,,,,,,,,,,191.81270270000095,192.314589600006,0.5040444099868182,1.0042866099975072,192.29792549999547,192.414663500007,192.29792549999547,192.414663500007,192.39794330000586,None,None,0,,192.39794330000586,None,,,,,,,pd,2022_Apr_14_1406,training+cueing,2021.1.4,59.64042786322572,
Friend.png,Stranger,Friend,m,3.2,19,29,99,,,,,0,0,0,0,,,,,0,2,2,5,,,,,,,,,,,,,,,,,,,,,1.48,1.94,193.95336400000087,None,,,,,,,,,,,,,,,,,,,,194.4973949999985,194.99986720000743,0.5058118099987041,1.006119409998064,194.9832105999958,195.09991530000116,194.9832105999958,195.09991530000116,195.08322580000095,None,m,1,1.345104199994239,195.08322580000095,None,,,,,,,pd,2022_Apr_14_1406,training+cueing,2021.1.4,59.64042786322572,
Self.png,Friend,Self ,m,2.1,16,26,96,,,,,0,0,0,0,,,,,0,3,3,1,,,,,,,,,,,,,,,,,,,,,1.742,2.224,196.55755009999848,None,,,,,,,,,,,,,,,,,,,,197.09755849999783,197.60176469999715,0.5059060099883936,1.0061627099930774,197.58509950000735,197.70180059999984,197.58509950000735,197.70180059999984,197.68511370000488,None,m,1,0.8071625000011409,197.68511370000488,None,,,,,,,pd,2022_Apr_14_1406,training+cueing,2021.1.4,59.64042786322572,
Self.png,You,Self ,c,1,11,21,91,,,,,0,0,0,0,,,,,0,4,4,9,,,,,,,,,,,,,,,,,,,,,1.514,2.066,198.6257201999979,None,,,,,,,,,,,,,,,,,,,,199.16541260000668,199.6699110000045,0.5076644100045087,1.0079412100021727,199.65322999999626,199.75326969999878,199.65322999999626,199.75326969999878,199.75326969999878,None,c,1,0.8510574000101769,199.75326969999878,None,,,,,,,pd,2022_Apr_14_1406,training+cueing,2021.1.4,59.64042786322572,
Friend.png,Friend,Friend,c,2,12,22,92,,,,,0,0,0,0,,,,,0,5,5,4,,,,,,,,,,,,,,,,,,,,,1.563,2.168,200.72681049999665,None,,,,,,,,,,,,,,,,,,,,201.27392960000725,201.788103400002,0.5122756100026891,1.0124839100026293,201.77150830000755,201.88814969999657,201.77150830000755,201.88814969999657,201.8714331999945,None,c,1,0.9730367000011029,201.8714331999945,None,,,,,,,pd,2022_Apr_14_1406,training+cueing,2021.1.4,59.64042786322572,
Stranger.png,Stranger,Stranger,c,3,13,23,93,,,,,0,0,0,0,,,,,0,6,6,11,,,,,,,,,,,,,,,,,,,,,1.624,1.342,202.97840360000555,None,,,,,,,,,,,,,,,,,,,,203.51813219999894,204.0230389000062,0.5076361099781934,1.00810940998781,204.00638489999983,204.123642999999,204.00638489999983,204.123642999999,204.10695790000318,None,m,0,0.8972687999921618,204.10695790000318,None,,,,,,,pd,2022_Apr_14_1406,training+cueing,2021.1.4,59.64042786322572,
Stranger.png,Stranger,Stranger,c,3,13,23,93,,,,,0,0,0,0,,,,,0,7,7,8,,,,,,,,,,,,,,,,,,,,,1.441,1.696,205.1316608000052,None,,,,,,,,,,,,,,,,,,,,205.67075679999834,206.1745937999949,0.5077935099980095,1.0080686099972809,206.15794659999665,206.2746582999971,206.15794659999665,206.2746582999971,206.2579662000062,None,m,0,1.4183492000011029,206.2579662000062,None,,,,,,,pd,2022_Apr_14_1406,training+cueing,2021.1.4,59.64042786322572,
Friend.png,Friend,Friend,c,2,12,22,92,,,,,0,0,0,0,,,,,0,8,8,10,,,,,,,,,,,,,,,,,,,,,1.417,1.801,207.79852330000722,None,,,,,,,,,,,,,,,,,,,,208.33876050000254,208.8431991999969,0.5064105100173037,1.0067147100053262,208.8265470000042,208.9432397000055,208.8265470000042,208.9432397000055,208.9265529999975,None,m,0,0.9257490000018151,208.9265529999975,None,,,,,,,pd,2022_Apr_14_1406,training+cueing,2021.1.4,59.64042786322572,
Stranger.png,You,Stranger,m,1.3,15,25,95,,,,,0,0,0,0,,,,,0,9,9,6,,,,,,,,,,,,,,,,,,,,,1.609,2.045,209.98323890000756,None,,,,,,,,,,,,,,,,,,,,210.5239564999938,211.0281290999992,0.5073147099901689,1.0074028099916177,211.01162010000553,211.1114927000017,211.01162010000553,211.1114927000017,211.1114927000017,None,c,0,0.5166899000032572,211.1114927000017,None,,,,,,,pd,2022_Apr_14_1406,training+cueing,2021.1.4,59.64042786322572,
Friend.png,You,Friend,m,1.2,14,24,94,,,,,0,0,0,0,,,,,0,10,10,3,,,,,,,,,,,,,,,,,,,,,1.712,2.113,211.75142499999492,None,,,,,,,,,,,,,,,,,,,,212.2877862000023,212.79606009999407,0.5003804100124398,1.0006643100059591,212.7627155999944,212.862761700002,212.7627155999944,212.862761700002,212.862761700002,None,m,1,0.8134953999979189,212.862761700002,None,,,,,,,pd,2022_Apr_14_1406,training+cueing,2021.1.4,59.64042786322572,
Self.png,Stranger,Self ,m,3.1,18,28,98,,,,,0,0,0,0,,,,,0,11,11,2,,,,,,,,,,,,,,,,,,,,,1.642,1.872,213.80323439999484,None,,,,,,,,,,,,,,,,,,,,214.34357230000023,214.84757260000333,0.5048971100040944,1.0057626100024208,214.83088710000447,214.94775160000427,214.83088710000447,214.94775160000427,214.93093849999423,None,m,1,1.2573299999930896,214.93093849999423,None,,,,,,,pd,2022_Apr_14_1406,training+cueing,2021.1.4,59.64042786322572,
Friend.png,Friend,Friend,c,2,12,22,92,,,,,0,0,0,0,,,,,1,0,12,4,,,,,,,,,,,,,,,,,,,,,1.707,2.123,216.32353259999945,None,,,,,,,,,,,,,,,,,,,,216.8646149999986,217.3659917000041,0.5038823100039735,1.004694710005424,217.3493393999961,217.46603999999934,217.3493393999961,217.46603999999934,217.44936980000057,None,c,1,1.251024299999699,217.44936980000057,None,,,,,,,pd,2022_Apr_14_1406,training+cueing,2021.1.4,59.64042786322572,
Self.png,You,Self ,c,1,11,21,91,,,,,0,0,0,0,,,,,1,1,13,9,,,,,,,,,,,,,,,,,,,,,1.634,1.534,218.82341650000308,None,,,,,,,,,,,,,,,,,,,,219.36445310000272,219.8679104000039,0.5073028100014199,1.0076664099906338,219.85121730000537,219.9512104000023,219.85121730000537,219.9512104000023,219.9512104000023,None,c,1,0.7650505000056,219.9512104000023,None,,,,,,,pd,2022_Apr_14_1406,training+cueing,2021.1.4,59.64042786322572,
Stranger.png,Stranger,Stranger,c,3,13,23,93,,,,,0,0,0,0,,,,,1,2,14,8,,,,,,,,,,,,,,,,,,,,,1.679,1.62,220.84239980000712,None,,,,,,,,,,,,,,,,,,,,221.38179119999404,221.8860008000047,0.5056549099972472,1.0057687099906616,221.8694664000068,221.98596890000044,221.8694664000068,221.98596890000044,221.96933510000235,None,m,0,0.8909892000083346,221.96933510000235,None,,,,,,,pd,2022_Apr_14_1406,training+cueing,2021.1.4,59.64042786322572,
Stranger.png,Stranger,Stranger,c,3,13,23,93,,,,,0,0,0,0,,,,,1,3,15,11,,,,,,,,,,,,,,,,,,,,,1.674,2.22,222.9927985999966,None,,,,,,,,,,,,,,,,,,,,223.55290340000647,224.05421000000206,0.5028705799923046,1.003161779983202,224.0374649000005,224.15422670000407,224.0374649000005,224.15422670000407,224.1375393000053,None,None,0,,224.1375393000053,None,,,,,,,pd,2022_Apr_14_1406,training+cueing,2021.1.4,59.64042786322572,
Friend.png,You,Friend,m,1.2,14,24,94,,,,,0,0,0,0,,,,,1,4,16,3,,,,,,,,,,,,,,,,,,,,,1.542,2.046,225.92770319999545,None,,,,,,,,,,,,,,,,,,,,226.4667244000011,226.97293740000168,0.5097828100115294,1.0100632100075018,226.95629109999572,227.05634350000764,226.95629109999572,227.05634350000764,227.05634350000764,None,m,1,0.9398818999907235,227.05634350000764,None,,,,,,,pd,2022_Apr_14_1406,training+cueing,2021.1.4,59.64042786322572,
Stranger.png,You,Stranger,m,1.3,15,25,95,,,,,0,0,0,0,,,,,1,5,17,6,,,,,,,,,,,,,,,,,,,,,1.726,1.391,228.12998149999476,None,,,,,,,,,,,,,,,,,,,,228.66898820000642,229.17452960000082,0.5116079099971103,1.0120977100013988,229.1578498000017,229.25791509999544,229.1578498000017,229.25791509999544,229.25791509999544,None,c,0,0.9623823000001721,229.25791509999544,None,,,,,,,pd,2022_Apr_14_1406,training+cueing,2021.1.4,59.64042786322572,
Friend.png,Friend,Friend,c,2,12,22,92,,,,,0,0,0,0,,,,,1,6,18,10,,,,,,,,,,,,,,,,,,,,,1.743,1.951,230.34890320000704,None,,,,,,,,,,,,,,,,,,,,230.8908214999974,231.39278999999806,0.5047335099952761,1.0051789099961752,231.3761419999937,231.49336599999515,231.3761419999937,231.49336599999515,231.4766915000073,None,m,0,0.7596467999974266,231.4766915000073,None,,,,,,,pd,2022_Apr_14_1406,training+cueing,2021.1.4,59.64042786322572,
Self.png,Stranger,Self ,m,3.1,18,28,98,,,,,0,0,0,0,,,,,1,7,19,2,,,,,,,,,,,,,,,,,,,,,1.622,1.642,232.36759609999717,None,,,,,,,,,,,,,,,,,,,,232.90933070000028,233.41093670000555,0.5018488100031391,1.0022022100019967,233.3942670999968,233.51108149999345,233.3942670999968,233.51108149999345,233.49439140000322,None,c,0,1.0938232999906177,233.49439140000322,None,,,,,,,pd,2022_Apr_14_1406,training+cueing,2021.1.4,59.64042786322572,
Self.png,Friend,Self ,m,2.1,16,26,96,,,,,0,0,0,0,,,,,1,8,20,1,,,,,,,,,,,,,,,,,,,,,1.496,1.626,234.71810719999485,None,,,,,,,,,,,,,,,,,,,,235.25864670000738,235.76262670000142,0.5066496100043878,1.00714791000064,235.74595229999977,235.86287729999458,235.74595229999977,235.86287729999458,235.84611670000595,None,m,1,1.3980386000039289,235.84611670000595,None,,,,,,,pd,2022_Apr_14_1406,training+cueing,2021.1.4,59.64042786322572,
Self.png,You,Self ,c,1,11,21,91,,,,,0,0,0,0,,,,,1,9,21,0,,,,,,,,,,,,,,,,,,,,,1.578,2.443,237.3711930999998,None,,,,,,,,,,,,,,,,,,,,237.91259900000296,238.4145489000075,0.5045980099966982,1.004876509992755,238.39790530000755,238.49793019999925,238.39790530000755,238.49793019999925,238.49793019999925,None,c,1,1.386287600005744,238.49793019999925,None,,,,,,,pd,2022_Apr_14_1406,training+cueing,2021.1.4,59.64042786322572,
Stranger.png,Friend,Stranger,m,2.3,17,27,97,,,,,0,0,0,0,,,,,1,10,22,7,,,,,,,,,,,,,,,,,,,,,1.534,2.346,240.02212389999477,None,,,,,,,,,,,,,,,,,,,,240.56226390000666,241.0664708999975,0.506587509997189,1.007377509988146,241.04980619999697,241.16653000000224,241.04980619999697,241.16653000000224,241.14983629999915,None,m,1,1.1346861000056379,241.14983629999915,None,,,,,,,pd,2022_Apr_14_1406,training+cueing,2021.1.4,59.64042786322572,
Friend.png,Stranger,Friend,m,3.2,19,29,99,,,,,0,0,0,0,,,,,1,11,23,5,,,,,,,,,,,,,,,,,,,,,1.427,1.521,242.40695829999459,None,,,,,,,,,,,,,,,,,,,,242.94891500000085,243.4515284999943,0.5057727100065676,1.0059928100090474,243.4348980000068,243.55151429999387,243.4348980000068,243.55151429999387,243.53486200000043,None,c,0,0.9894257000123616,243.53486200000043,None,,,,,,,pd,2022_Apr_14_1406,training+cueing,2021.1.4,59.64042786322572,
Friend.png,Friend,Friend,c,2,12,22,92,,,,,0,0,0,0,,,,,2,0,24,4,,,,,,,,,,,,,,,,,,,,,1.597,1.422,244.65892529999837,None,,,,,,,,,,,,,,,,,,,,245.23346060000767,245.73652730000322,0.504779149996466,1.0048532499931753,245.7200259999954,245.83656120000524,245.7200259999954,245.83656120000524,245.8198965000047,None,None,0,,245.8198965000047,None,,,,,,,pd,2022_Apr_14_1406,training+cueing,2021.1.4,59.64042786322572,
Self.png,Stranger,Self ,m,3.1,18,28,98,,,,,0,0,0,0,,,,,2,1,25,2,,,,,,,,,,,,,,,,,,,,,1.743,1.419,247.52461849999963,None,,,,,,,,,,,,,,,,,,,,248.06752199999755,248.57189580000704,0.5080841099988902,1.0084125099965604,248.55519610000192,248.6719490999967,248.55519610000192,248.6719490999967,248.65522820000479,None,c,0,1.4210316999960924,248.65522820000479,None,,,,,,,pd,2022_Apr_14_1406,training+cueing,2021.1.4,59.64042786322572,
Stranger.png,You,Stranger,m,1.3,15,25,95,,,,,0,0,0,0,,,,,2,2,26,6,,,,,,,,,,,,,,,,,,,,,1.505,1.747,250.21290529999533,None,,,,,,,,,,,,,,,,,,,,250.75057269999525,251.25713440000254,0.5132105100055924,1.0135252100008074,251.24046240000462,251.34050999999454,251.24046240000462,251.34050999999454,251.34050999999454,None,None,0,,251.34050999999454,None,,,,,,,pd,2022_Apr_14_1406,training+cueing,2021.1.4,59.64042786322572,
Self.png,You,Self ,c,1,11,21,91,,,,,0,0,0,0,,,,,2,3,27,0,,,,,,,,,,,,,,,,,,,,,1.555,2.377,252.96189360000426,None,,,,,,,,,,,,,,,,,,,,253.49970010000106,254.00916780000261,0.4994982100033667,1.0002322099899175,253.97594430000754,254.07586539999465,253.97594430000754,254.07586539999465,254.07586539999465,None,c,1,0.7523377999896184,254.07586539999465,None,,,,,,,pd,2022_Apr_14_1406,training+cueing,2021.1.4,59.64042786322572,
Self.png,Friend,Self ,m,2.1,16,26,96,,,,,0,0,0,0,,,,,2,4,28,1,,,,,,,,,,,,,,,,,,,,,1.743,1.272,254.96694610000122,None,,,,,,,,,,,,,,,,,,,,255.53415170000517,256.0439561999956,0.5042856799991569,1.0045238800084917,256.0272926000034,256.14399799999956,256.0272926000034,256.14399799999956,256.127301600005,None,m,1,0.8128717000072356,256.127301600005,None,,,,,,,pd,2022_Apr_14_1406,training+cueing,2021.1.4,59.64042786322572,
Friend.png,Friend,Friend,c,2,12,22,92,,,,,0,0,0,0,,,,,2,5,29,10,,,,,,,,,,,,,,,,,,,,,1.401,1.931,257.0676281000051,None,,,,,,,,,,,,,,,,,,,,257.6063712000032,258.11211560000083,0.5122662100038724,1.0126277100061998,258.0954001000064,258.21216959999583,258.0954001000064,258.21216959999583,258.1954562000028,None,m,0,0.8407071999972686,258.1954562000028,None,,,,,,,pd,2022_Apr_14_1406,training+cueing,2021.1.4,59.64042786322572,
Stranger.png,Friend,Stranger,m,2.3,17,27,97,,,,,0,0,0,0,,,,,2,6,30,7,,,,,,,,,,,,,,,,,,,,,1.595,2.367,259.16949139999633,None,,,,,,,,,,,,,,,,,,,,259.71226869999373,260.2136380000011,0.5019251099874964,1.0021724099933635,260.1969809000002,260.3136519999971,260.1969809000002,260.3136519999971,260.29697910000687,None,c,0,0.6592712999990908,260.29697910000687,None,,,,,,,pd,2022_Apr_14_1406,training+cueing,2021.1.4,59.64042786322572,
Friend.png,Stranger,Friend,m,3.2,19,29,99,,,,,0,0,0,0,,,,,2,7,31,5,,,,,,,,,,,,,,,,,,,,,1.733,2.104,261.08713569999964,None,,,,,,,,,,,,,,,,,,,,261.6291433000006,262.1316564000008,0.5062495099991793,1.0065735100070015,262.11500419999356,262.23171710000315,262.11500419999356,262.23171710000315,262.2150251999992,None,m,1,0.6611631999985548,262.2150251999992,None,,,,,,,pd,2022_Apr_14_1406,training+cueing,2021.1.4,59.64042786322572,
Stranger.png,Stranger,Stranger,c,3,13,23,93,,,,,0,0,0,0,,,,,2,8,32,11,,,,,,,,,,,,,,,,,,,,,1.604,2.153,263.0052020000003,None,,,,,,,,,,,,,,,,,,,,263.5431910000043,264.0497507999971,0.5115315099974396,1.0117454099963652,264.0330702000065,264.14978930000507,264.0330702000065,264.14978930000507,264.133081699998,None,m,0,1.0471036000089953,264.133081699998,None,,,,,,,pd,2022_Apr_14_1406,training+cueing,2021.1.4,59.64042786322572,
Stranger.png,Stranger,Stranger,c,3,13,23,93,,,,,0,0,0,0,,,,,2,9,33,8,,,,,,,,,,,,,,,,,,,,,1.573,2.107,265.30754599999636,None,,,,,,,,,,,,,,,,,,,,265.84554670000216,266.3513963000005,0.5119372100016335,1.0122012099891435,266.3347298000008,266.4516436999984,266.3347298000008,266.4516436999984,266.4347629999975,None,None,0,,266.4347629999975,None,,,,,,,pd,2022_Apr_14_1406,training+cueing,2021.1.4,59.64042786322572,
Friend.png,You,Friend,m,1.2,14,24,94,,,,,0,0,0,0,,,,,2,10,34,3,,,,,,,,,,,,,,,,,,,,,1.614,1.881,268.12378850000096,None,,,,,,,,,,,,,,,,,,,,268.6665107000008,269.17017840000335,0.507441910012858,1.0076630100084003,269.15346699999645,269.2534735999943,269.15346699999645,269.2534735999943,269.2534735999943,None,c,0,1.1426537000079406,269.2534735999943,None,,,,,,,pd,2022_Apr_14_1406,training+cueing,2021.1.4,59.64042786322572,
Self.png,You,Self ,c,1,11,21,91,,,,,0,0,0,0,,,,,2,11,35,9,,,,,,,,,,,,,,,,,,,,,1.711,1.606,270.52685460000066,None,,,,,,,,,,,,,,,,,,,,271.0651527000009,271.5718412999995,0.5111371099919779,1.0114328099880368,271.55513110000174,271.655184999996,271.55513110000174,271.655184999996,271.655184999996,None,m,0,1.2049594999989495,271.655184999996,None,,,,,,,pd,2022_Apr_14_1406,training+cueing,2021.1.4,59.64042786322572,
Friend.png,Friend,Friend,c,2,12,22,92,,,,,0,0,0,0,,,,,3,0,36,4,,,,,,,,,,,,,,,,,,,,,1.666,1.369,272.99583529999654,None,,,,,,,,,,,,,,,,,,,,273.55272449999757,274.05695600000035,0.5080505800142419,1.0081900800141739,274.0404387000017,274.15700500000094,274.0404387000017,274.15700500000094,274.14032400000724,None,m,0,0.9277918000007048,274.14032400000724,None,,,,,,,pd,2022_Apr_14_1406,training+cueing,2021.1.4,59.64042786322572,
Self.png,Stranger,Self ,m,3.1,18,28,98,,,,,0,0,0,0,,,,,3,1,37,2,,,,,,,,,,,,,,,,,,,,,1.602,1.202,275.1972400999948,None,,,,,,,,,,,,,,,,,,,,275.73696599999676,276.24190579999413,0.5091678099997807,1.0094812099996489,276.22520339999755,276.3419286999997,276.22520339999755,276.3419286999997,276.3252233999956,None,m,1,1.01483630000439,276.3252233999956,None,,,,,,,pd,2022_Apr_14_1406,training+cueing,2021.1.4,59.64042786322572,
Friend.png,Friend,Friend,c,2,12,22,92,,,,,0,0,0,0,,,,,3,2,38,10,,,,,,,,,,,,,,,,,,,,,1.709,1.269,277.46517189999577,None,,,,,,,,,,,,,,,,,,,,278.0063058999949,278.51035820000106,0.506272810001974,1.0065534099994693,278.4935151999962,278.6102166000055,278.4935151999962,278.6102166000055,278.59351970000716,None,m,0,1.242703600000823,278.59351970000716,None,,,,,,,pd,2022_Apr_14_1406,training+cueing,2021.1.4,59.64042786322572,
Stranger.png,Stranger,Stranger,c,3,13,23,93,,,,,0,0,0,0,,,,,3,3,39,8,,,,,,,,,,,,,,,,,,,,,1.521,1.771,279.9668054000067,None,,,,,,,,,,,,,,,,,,,,280.50979820000066,281.0119782999973,0.5050152100011474,1.0053109099972062,280.99528960000316,281.1120469000016,280.99528960000316,281.1120469000016,281.09533369999554,None,c,1,0.8688319000066258,281.09533369999554,None,,,,,,,pd,2022_Apr_14_1406,training+cueing,2021.1.4,59.64042786322572,
Self.png,You,Self ,c,1,11,21,91,,,,,0,0,0,0,,,,,3,4,40,9,,,,,,,,,,,,,,,,,,,,,1.504,2.043,282.08901630000037,None,,,,,,,,,,,,,,,,,,,,282.63097169999673,283.1302354000072,0.5125445099984063,1.0130130100005772,283.1302354000072,283.2302189000038,283.1302354000072,283.2302189000038,283.2302189000038,None,c,1,0.7020726000046125,283.2302189000038,None,,,,,,,pd,2022_Apr_14_1406,training+cueing,2021.1.4,59.64042786322572,
Friend.png,You,Friend,m,1.2,14,24,94,,,,,0,0,0,0,,,,,3,5,41,3,,,,,,,,,,,,,,,,,,,,,1.785,1.997,284.05422390000604,None,,,,,,,,,,,,,,,,,,,,284.59187910000037,285.0982476000063,0.5137057100073434,1.0140207100048428,285.0815978000028,285.18161970000074,285.0815978000028,285.18161970000074,285.18161970000074,None,m,1,0.9425542000099085,285.18161970000074,None,,,,,,,pd,2022_Apr_14_1406,training+cueing,2021.1.4,59.64042786322572,
Friend.png,Stranger,Friend,m,3.2,19,29,99,,,,,0,0,0,0,,,,,3,6,42,5,,,,,,,,,,,,,,,,,,,,,1.429,1.941,286.2557536999957,None,,,,,,,,,,,,,,,,,,,,286.7988855000003,287.2999046000041,0.502318210012163,1.0025572099984856,287.28322019999905,287.39993040000263,287.28322019999905,287.39993040000263,287.3832165000058,None,m,1,0.7092066000041086,287.3832165000058,None,,,,,,,pd,2022_Apr_14_1406,training+cueing,2021.1.4,59.64042786322572,
Stranger.png,Friend,Stranger,m,2.3,17,27,97,,,,,0,0,0,0,,,,,3,7,43,7,,,,,,,,,,,,,,,,,,,,,1.785,1.215,288.2269154999958,None,,,,,,,,,,,,,,,,,,,,288.76405939999677,289.2679960999958,0.5063761100027477,1.006676509990939,289.25129050000396,289.3679900999996,289.25129050000396,289.3679900999996,289.3512711000076,None,c,0,0.8209486999985529,289.3512711000076,None,,,,,,,pd,2022_Apr_14_1406,training+cueing,2021.1.4,59.64042786322572,
Stranger.png,Stranger,Stranger,c,3,13,23,93,,,,,0,0,0,0,,,,,3,8,44,11,,,,,,,,,,,,,,,,,,,,,1.426,1.777,290.30824589999975,None,,,,,,,,,,,,,,,,,,,,290.85117320000427,291.35279000000446,0.5050018099864246,1.0053762099996675,291.33613320000586,291.452933499997,291.33613320000586,291.452933499997,291.43623910000315,None,None,0,,291.43623910000315,None,,,,,,,pd,2022_Apr_14_1406,training+cueing,2021.1.4,59.64042786322572,
Self.png,Friend,Self ,m,2.1,16,26,96,,,,,0,0,0,0,,,,,3,9,45,1,,,,,,,,,,,,,,,,,,,,,1.663,1.277,292.9745147000067,None,,,,,,,,,,,,,,,,,,,,293.51515089999884,294.02139409999654,0.5120127099944511,1.012302709990763,294.0046954999998,294.1214298999985,294.0046954999998,294.1214298999985,294.10473649999767,None,c,0,1.4116434999887133,294.10473649999767,None,,,,,,,pd,2022_Apr_14_1406,training+cueing,2021.1.4,59.64042786322572,
Stranger.png,You,Stranger,m,1.3,15,25,95,,,,,0,0,0,0,,,,,3,10,46,6,,,,,,,,,,,,,,,,,,,,,1.77,2.438,295.6495095999999,None,,,,,,,,,,,,,,,,,,,,296.1863252000039,296.6899657000031,0.5053316099947551,1.0056270100030815,296.67330599999696,296.77332570000726,296.67330599999696,296.77332570000726,296.77332570000726,None,c,0,1.190758900003857,296.77332570000726,None,,,,,,,pd,2022_Apr_14_1406,training+cueing,2021.1.4,59.64042786322572,
Self.png,You,Self ,c,1,11,21,91,,,,,0,0,0,0,,,,,3,11,47,0,,,,,,,,,,,,,,,,,,,,,1.572,1.489,298.09722019999754,None,,,,,,,,,,,,,,,,,,,,298.63376840000274,299.1417361000058,0.49945791000209283,0.9997787100001005,299.1083854000026,299.2084503000078,299.1083854000026,299.2084503000078,299.2084503000078,None,m,0,1.1876626000012038,299.2084503000078,None,,,,,,,pd,2022_Apr_14_1406,training+cueing,2021.1.4,59.64042786322572,
Stranger.png,Friend,Stranger,m,2.3,17,27,97,,,,,0,0,0,0,,,,,4,0,48,7,,,,,,,,,,,,,,,,,,,,,1.431,2.004,300.5320735999994,None,,,,,,,,,,,,,,,,,,,,301.0982694999984,301.61026099999435,0.5049257799837505,1.0052195799944457,301.59358509999583,301.71031799999764,301.59358509999583,301.71031799999764,301.6936076999991,None,c,0,0.6865203000052134,301.6936076999991,None,,,,,,,pd,2022_Apr_14_1406,training+cueing,2021.1.4,59.64042786322572,
Friend.png,Stranger,Friend,m,3.2,19,29,99,,,,,0,0,0,0,,,,,4,1,49,5,,,,,,,,,,,,,,,,,,,,,1.608,1.86,302.517096399999,None,,,,,,,,,,,,,,,,,,,,303.06001669999387,303.5616250000021,0.5045257100136951,1.0048084100126289,303.54492780000146,303.661640499995,303.54492780000146,303.661640499995,303.64497560000746,None,m,1,0.7516038000030676,303.64497560000746,None,,,,,,,pd,2022_Apr_14_1406,training+cueing,2021.1.4,59.64042786322572,
Stranger.png,Stranger,Stranger,c,3,13,23,93,,,,,0,0,0,0,,,,,4,2,50,11,,,,,,,,,,,,,,,,,,,,,1.707,2.28,304.5221872999973,None,,,,,,,,,,,,,,,,,,,,305.05824500000745,305.5630552999937,0.5087585099827265,1.0090382099879207,305.5463713000063,305.6631252000079,305.5463713000063,305.6631252000079,305.64640870000585,None,m,0,0.7816317999968305,305.64640870000585,None,,,,,,,pd,2022_Apr_14_1406,training+cueing,2021.1.4,59.64042786322572,
Friend.png,You,Friend,m,1.2,14,24,94,,,,,0,0,0,0,,,,,4,3,51,3,,,,,,,,,,,,,,,,,,,,,1.414,2.041,306.5535416000057,None,,,,,,,,,,,,,,,,,,,,307.0897696000029,307.597846100005,0.5137968100025319,1.0139494100003503,307.58125620000646,307.6812406999961,307.58125620000646,307.6812406999961,307.6812406999961,None,c,0,0.9868367000017315,307.6812406999961,None,,,,,,,pd,2022_Apr_14_1406,training+cueing,2021.1.4,59.64042786322572,
Friend.png,Friend,Friend,c,2,12,22,92,,,,,0,0,0,0,,,,,4,4,52,10,,,,,,,,,,,,,,,,,,,,,1.722,1.629,308.8056979999965,None,,,,,,,,,,,,,,,,,,,,309.3498891000054,309.849529500003,0.4995285100012552,0.9998471099970629,309.83280629999354,309.94975729999715,309.83280629999354,309.94975729999715,309.94975729999715,None,m,0,0.6224185999890324,309.94975729999715,None,,,,,,,pd,2022_Apr_14_1406,training+cueing,2021.1.4,59.64042786322572,
Self.png,Friend,Self ,m,2.1,16,26,96,,,,,0,0,0,0,,,,,4,5,53,1,,,,,,,,,,,,,,,,,,,,,1.471,1.537,310.70609289999993,None,,,,,,,,,,,,,,,,,,,,311.24530049999885,311.7508583000017,0.5115679099835688,1.0118678099970566,311.7341910999967,311.85089549999975,311.7341910999967,311.85089549999975,311.8342350000021,None,m,1,0.8339592999982415,311.8342350000021,None,,,,,,,pd,2022_Apr_14_1406,training+cueing,2021.1.4,59.64042786322572,
Self.png,You,Self ,c,1,11,21,91,,,,,0,0,0,0,,,,,4,6,54,0,,,,,,,,,,,,,,,,,,,,,1.6,1.831,312.79066800000146,None,,,,,,,,,,,,,,,,,,,,313.3308158,313.8357160000014,0.5068952100118622,1.0071859100135043,313.81901859999925,313.919074999998,313.81901859999925,313.919074999998,313.919074999998,None,c,1,0.8130399999936344,313.919074999998,None,,,,,,,pd,2022_Apr_14_1406,training+cueing,2021.1.4,59.64042786322572,
Self.png,You,Self ,c,1,11,21,91,,,,,0,0,0,0,,,,,4,7,55,9,,,,,,,,,,,,,,,,,,,,,1.737,1.278,314.85871689999476,None,,,,,,,,,,,,,,,,,,,,315.39542460000666,315.9038642999949,0.5003772399941226,1.0006160399934743,315.88724910000747,315.98725799999374,315.88724910000747,315.98725799999374,315.98725799999374,None,m,0,1.2731128000013996,315.98725799999374,None,,,,,,,pd,2022_Apr_14_1406,training+cueing,2021.1.4,59.64042786322572,
Self.png,Stranger,Self ,m,3.1,18,28,98,,,,,0,0,0,0,,,,,4,8,56,2,,,,,,,,,,,,,,,,,,,,,1.581,1.491,317.39449649999733,None,,,,,,,,,,,,,,,,,,,,317.9339101000078,318.4390532999969,0.5088044099829858,1.0093179099931149,318.42233610000403,318.5390883999935,318.42233610000403,318.5390883999935,318.5223777000065,None,m,1,0.7860614999954123,318.5223777000065,None,,,,,,,pd,2022_Apr_14_1406,training+cueing,2021.1.4,59.64042786322572,
Stranger.png,You,Stranger,m,1.3,15,25,95,,,,,0,0,0,0,,,,,4,9,57,6,,,,,,,,,,,,,,,,,,,,,1.678,1.665,319.4326082000043,None,,,,,,,,,,,,,,,,,,,,319.97246180000366,320.47382719999587,0.5035410099953879,1.0038294099940686,320.4571708000003,320.5572086000029,320.4571708000003,320.5572086000029,320.5572086000029,None,m,1,1.342889899999136,320.5572086000029,None,,,,,,,pd,2022_Apr_14_1406,training+cueing,2021.1.4,59.64042786322572,
Stranger.png,Stranger,Stranger,c,3,13,23,93,,,,,0,0,0,0,,,,,4,10,58,8,,,,,,,,,,,,,,,,,,,,,1.496,1.988,322.0315702999942,None,,,,,,,,,,,,,,,,,,,,322.5727610000031,323.07572629999777,0.5056237099925056,1.0058855099923676,323.05904320000263,323.17578469999717,323.05904320000263,323.17578469999717,323.15904070000397,None,c,1,0.709085700000287,323.15904070000397,None,,,,,,,pd,2022_Apr_14_1406,training+cueing,2021.1.4,59.64042786322572,
Friend.png,Friend,Friend,c,2,12,22,92,,,,,0,0,0,0,,,,,4,11,59,4,,,,,,,,,,,,,,,,,,,,,1.595,1.413,323.9996772000013,None,,,,,,,,,,,,,,,,,,,,324.53685360000236,325.04379110000446,0.5115646100020967,1.011831509997137,325.02715189999435,325.14385039999615,325.02715189999435,325.14385039999615,325.12715640000533,None,m,0,1.4769990999920992,325.12715640000533,None,,,,,,,pd,2022_Apr_14_1406,training+cueing,2021.1.4,59.64042786322572,
Self.png,Stranger,Self ,m,3.1,18,28,98,,,,,0,0,0,0,,,,,5,0,60,2,,,,,,,,,,,,,,,,,,,,,1.701,1.552,326.7345389999973,None,,,,,,,,,,,,,,,,,,,,327.2849734000047,327.79575239999394,0.504508909987635,1.0048135099932551,327.7790784999961,327.89585200000147,327.7790784999961,327.89585200000147,327.8791387999954,None,None,0,,327.8791387999954,None,,,,,,,pd,2022_Apr_14_1406,training+cueing,2021.1.4,59.64042786322572,
Friend.png,You,Friend,m,1.2,14,24,94,,,,,0,0,0,0,,,,,5,1,61,3,,,,,,,,,,,,,,,,,,,,,1.447,1.919,329.68533029999526,None,,,,,,,,,,,,,,,,,,,,330.2270417999971,330.7312310999987,0.5079523099848302,1.008250409984612,330.71455160000187,330.81466220000584,330.71455160000187,330.81466220000584,330.81466220000584,None,m,1,1.0214275000034831,330.81466220000584,None,,,,,,,pd,2022_Apr_14_1406,training+cueing,2021.1.4,59.64042786322572,
Self.png,Friend,Self ,m,2.1,16,26,96,,,,,0,0,0,0,,,,,5,2,62,1,,,,,,,,,,,,,,,,,,,,,1.492,2.113,331.97179330000654,None,,,,,,,,,,,,,,,,,,,,332.51133920000575,333.016209399997,0.5078151100024115,1.0081650100037223,332.9995306000055,333.1162699999986,332.9995306000055,333.1162699999986,333.09959349999554,None,m,1,1.0725125999888405,333.09959349999554,None,,,,,,,pd,2022_Apr_14_1406,training+cueing,2021.1.4,59.64042786322572,
Stranger.png,Stranger,Stranger,c,3,13,23,93,,,,,0,0,0,0,,,,,5,3,63,8,,,,,,,,,,,,,,,,,,,,,1.718,1.605,334.30769289999444,None,,,,,,,,,,,,,,,,,,,,334.8473696000001,335.35128400000394,0.508399210011703,1.0091751100117108,335.3346221999964,335.45127469999716,335.3346221999964,335.45127469999716,335.4345997000055,None,c,1,1.153622700003325,335.4345997000055,None,,,,,,,pd,2022_Apr_14_1406,training+cueing,2021.1.4,59.64042786322572,
Friend.png,Stranger,Friend,m,3.2,19,29,99,,,,,0,0,0,0,,,,,5,4,64,5,,,,,,,,,,,,,,,,,,,,,1.456,2.485,336.7263820999942,None,,,,,,,,,,,,,,,,,,,,337.27410369999416,337.7863379000046,0.5056882100034272,1.0059842100017704,337.7696624999953,337.88640390000364,337.7696624999953,337.88640390000364,337.8702736999985,None,None,0,,337.8702736999985,None,,,,,,,pd,2022_Apr_14_1406,training+cueing,2021.1.4,59.64042786322572,
Stranger.png,Friend,Stranger,m,2.3,17,27,97,,,,,0,0,0,0,,,,,5,5,65,7,,,,,,,,,,,,,,,,,,,,,1.547,1.71,339.44112859999586,None,,,,,,,,,,,,,,,,,,,,339.98210769999423,340.48829029999615,0.5120739099947968,1.0125287099945126,340.47163129999535,340.58850769999844,340.47163129999535,340.58850769999844,340.571666200005,None,m,1,1.0404439999983879,340.571666200005,None,,,,,,,pd,2022_Apr_14_1406,training+cueing,2021.1.4,59.64042786322572,
Friend.png,Friend,Friend,c,2,12,22,92,,,,,0,0,0,0,,,,,5,6,66,10,,,,,,,,,,,,,,,,,,,,,1.57,1.933,341.7464642999985,None,,,,,,,,,,,,,,,,,,,,342.2996309000009,342.8066508000047,0.5140898799872957,1.0143604799959576,342.7899916000024,342.9066734999942,342.7899916000024,342.9066734999942,342.8900050999946,None,c,1,0.7379872999881627,342.8900050999946,None,,,,,,,pd,2022_Apr_14_1406,training+cueing,2021.1.4,59.64042786322572,
Self.png,You,Self ,c,1,11,21,91,,,,,0,0,0,0,,,,,5,7,67,9,,,,,,,,,,,,,,,,,,,,,1.558,2.222,343.76380850000714,None,,,,,,,,,,,,,,,,,,,,344.3020472000062,344.80807549999736,0.5096728100033943,1.0099842100025853,344.7914110999991,344.89145959999587,344.7914110999991,344.89145959999587,344.89145959999587,None,m,0,0.8325298999989172,344.89145959999587,None,,,,,,,pd,2022_Apr_14_1406,training+cueing,2021.1.4,59.64042786322572,
Friend.png,Friend,Friend,c,2,12,22,92,,,,,0,0,0,0,,,,,5,8,68,4,,,,,,,,,,,,,,,,,,,,,1.564,1.348,345.847709099995,None,,,,,,,,,,,,,,,,,,,,346.38928410000517,346.8929092000035,0.506770409992896,1.0070473100058734,346.87623870000243,346.99298169999383,346.87623870000243,346.99298169999383,346.97626730000775,None,m,0,0.6838011999934679,346.97626730000775,None,,,,,,,pd,2022_Apr_14_1406,training+cueing,2021.1.4,59.64042786322572,
Stranger.png,You,Stranger,m,1.3,15,25,95,,,,,0,0,0,0,,,,,5,9,69,6,,,,,,,,,,,,,,,,,,,,,1.441,1.557,347.78337819999433,None,,,,,,,,,,,,,,,,,,,,348.32294870000624,348.82764479999605,0.5090960100060329,1.0093807100056438,348.81099359999644,348.9110348999966,348.81099359999644,348.9110348999966,348.9110348999966,None,c,0,0.7490063000004739,348.9110348999966,None,,,,,,,pd,2022_Apr_14_1406,training+cueing,2021.1.4,59.64042786322572,
Self.png,You,Self ,c,1,11,21,91,,,,,0,0,0,0,,,,,5,10,70,0,,,,,,,,,,,,,,,,,,,,,1.612,1.212,349.785243499995,None,,,,,,,,,,,,,,,,,,,,350.32113820000086,350.8290829000034,0.5131532100058394,1.0134611099929316,350.8124303999939,350.91249360000074,350.8124303999939,350.91249360000074,350.91249360000074,None,c,1,0.7637830000021495,350.91249360000074,None,,,,,,,pd,2022_Apr_14_1406,training+cueing,2021.1.4,59.64042786322572,
Stranger.png,Stranger,Stranger,c,3,13,23,93,,,,,0,0,0,0,,,,,5,11,71,11,,,,,,,,,,,,,,,,,,,,,1.644,1.998,351.80639260000316,None,,,,,,,,,,,,,,,,,,,,352.3462642999948,352.847219400006,0.5017771099956008,1.002143209989299,352.8305606000067,352.9472749999986,352.8305606000067,352.9472749999986,352.9472749999986,None,None,0,,352.9472749999986,None,,,,,,,pd,2022_Apr_14_1406,training+cueing,2021.1.4,59.64042786322572,
Friend.png,Friend,Friend,c,2,12,22,92,,,,,0,0,0,0,,,,,6,0,72,10,,,,,,,,,,,,,,,,,,,,,1.523,1.517,354.7025718000077,None,,,,,,,,,,,,,,,,,,,,355.2435567000066,355.74932519999857,0.5091839099914068,1.0094866099971114,355.73265200000606,355.84936199999356,355.73265200000606,355.84936199999356,355.8326817000052,None,m,0,0.8832809000014095,355.8326817000052,None,,,,,,,pd,2022_Apr_14_1406,training+cueing,2021.1.4,59.64042786322572,
Self.png,You,Self ,c,1,11,21,91,,,,,0,0,0,0,,,,,6,1,73,9,,,,,,,,,,,,,,,,,,,,,1.604,2.325,356.8396672999952,None,,,,,,,,,,,,,,,,,,,,357.3974587999983,357.900939500003,0.5066881800012197,1.00895717999083,357.88232449999487,357.9842592000059,357.88232449999487,357.9842592000059,357.9842592000059,None,c,1,0.8278343999991193,357.9842592000059,None,,,,,,,pd,2022_Apr_14_1406,training+cueing,2021.1.4,59.64042786322572,
Stranger.png,Friend,Stranger,m,2.3,17,27,97,,,,,0,0,0,0,,,,,6,2,74,7,,,,,,,,,,,,,,,,,,,,,1.637,1.957,358.9408545000042,None,,,,,,,,,,,,,,,,,,,,359.4796095000056,359.9857415000006,0.5128669099940453,1.013125109995599,359.9690617000015,360.085774399995,359.9690617000015,360.085774399995,360.069072600003,None,m,1,0.6629676000011386,360.069072600003,None,,,,,,,pd,2022_Apr_14_1406,training+cueing,2021.1.4,59.64042786322572,
Self.png,Friend,Self ,m,2.1,16,26,96,,,,,0,0,0,0,,,,,6,3,75,1,,,,,,,,,,,,,,,,,,,,,1.549,1.311,360.85898940000334,None,,,,,,,,,,,,,,,,,,,,361.39631409999856,361.9037549000059,0.5126593099994352,1.0129525099910097,361.887100699998,362.00376900000265,361.887100699998,362.00376900000265,361.98714710000786,None,m,1,0.8570507999975234,361.98714710000786,None,,,,,,,pd,2022_Apr_14_1406,training+cueing,2021.1.4,59.64042786322572,
Stranger.png,You,Stranger,m,1.3,15,25,95,,,,,0,0,0,0,,,,,6,4,76,6,,,,,,,,,,,,,,,,,,,,,1.625,2.031,362.98023739999917,None,,,,,,,,,,,,,,,,,,,,363.5172954000009,364.0219727000076,0.5088845099962782,1.0092797099932795,364.00526429999445,364.1053554999962,364.00526429999445,364.1053554999962,364.1053554999962,None,c,0,0.8028659999981755,364.1053554999962,None,,,,,,,pd,2022_Apr_14_1406,training+cueing,2021.1.4,59.64042786322572,
Stranger.png,Stranger,Stranger,c,3,13,23,93,,,,,0,0,0,0,,,,,6,5,77,11,,,,,,,,,,,,,,,,,,,,,1.407,2.178,365.04858820000663,None,,,,,,,,,,,,,,,,,,,,365.58928780000133,366.0901414999971,0.5024666100071045,1.0033423100103391,366.07344609999564,366.19069899999886,366.07344609999564,366.19069899999886,366.17349970000214,None,None,0,,366.17349970000214,None,,,,,,,pd,2022_Apr_14_1406,training+cueing,2021.1.4,59.64042786322572,
Stranger.png,Stranger,Stranger,c,3,13,23,93,,,,,0,0,0,0,,,,,6,6,78,8,,,,,,,,,,,,,,,,,,,,,1.493,1.347,367.69532980000076,None,,,,,,,,,,,,,,,,,,,,368.2351264000026,368.7420495999977,0.5114610100135906,1.0117739100096514,368.7253606000013,368.84209360000386,368.7253606000013,368.84209360000386,368.82541380000475,None,m,0,0.8825476999918465,368.82541380000475,None,,,,,,,pd,2022_Apr_14_1406,training+cueing,2021.1.4,59.64042786322572,
Friend.png,Friend,Friend,c,2,12,22,92,,,,,0,0,0,0,,,,,6,7,79,4,,,,,,,,,,,,,,,,,,,,,1.416,2.297,369.83187170000747,None,,,,,,,,,,,,,,,,,,,,370.37302640000416,370.8769708000036,0.5075333099957788,1.007800210005371,370.8602506000025,370.9769879999949,370.8602506000025,370.9769879999949,370.9602414999972,None,None,0,,370.9602414999972,None,,,,,,,pd,2022_Apr_14_1406,training+cueing,2021.1.4,59.64042786322572,
Self.png,You,Self ,c,1,11,21,91,,,,,0,0,0,0,,,,,6,8,80,0,,,,,,,,,,,,,,,,,,,,,1.51,2.433,372.4816778999957,None,,,,,,,,,,,,,,,,,,,,373.0237812999985,373.52885329999845,0.507168409996666,1.0074279099935666,373.5121717000002,373.6121892999945,373.5121717000002,373.6121892999945,373.6121892999945,None,c,1,0.8799782999994932,373.6121892999945,None,,,,,,,pd,2022_Apr_14_1406,training+cueing,2021.1.4,59.64042786322572,
Friend.png,Stranger,Friend,m,3.2,19,29,99,,,,,0,0,0,0,,,,,6,9,81,5,,,,,,,,,,,,,,,,,,,,,1.453,2.477,374.6204685999983,None,,,,,,,,,,,,,,,,,,,,375.17207970000163,375.68034920000355,0.4999777799966978,1.0002696799929254,375.64705450000474,375.7471011000016,375.64705450000474,375.7471011000016,375.7471011000016,None,None,0,,375.7471011000016,None,,,,,,,pd,2022_Apr_14_1406,training+cueing,2021.1.4,59.64042786322572,
Self.png,Stranger,Self ,m,3.1,18,28,98,,,,,0,0,0,0,,,,,6,10,82,2,,,,,,,,,,,,,,,,,,,,,1.562,2.436,377.3194977999956,None,,,,,,,,,,,,,,,,,,,,377.859523799998,378.36572180000076,0.5118632099911338,1.0123189099977026,378.3490374999965,378.4657131999993,378.3490374999965,378.4657131999993,378.4490475000057,None,c,0,1.1470140000019455,378.4490475000057,None,,,,,,,pd,2022_Apr_14_1406,training+cueing,2021.1.4,59.64042786322572,
Friend.png,You,Friend,m,1.2,14,24,94,,,,,0,0,0,0,,,,,6,11,83,3,,,,,,,,,,,,,,,,,,,,,1.501,2.131,379.72244460000366,None,,,,,,,,,,,,,,,,,,,,380.26282360000187,380.76737570000114,0.5078515099885408,1.0081617099931464,380.7507317999989,380.85082380000676,380.7507317999989,380.85082380000676,380.85082380000676,None,None,0,,380.85082380000676,None,,,,,,,pd,2022_Apr_14_1406,training+cueing,2021.1.4,59.64042786322572,
Stranger.png,You,Stranger,m,1.3,15,25,95,,,,,0,0,0,0,,,,,7,0,84,6,,,,,,,,,,,,,,,,,,,,,1.681,1.636,382.4566286000045,None,,,,,,,,,,,,,,,,,,,,382.9971038000076,383.50274369999534,0.5116967099893373,1.011975209985394,383.48604550000164,383.58609440000146,383.48604550000164,383.58609440000146,383.58609440000146,None,c,0,1.258154299997841,383.58609440000146,None,,,,,,,pd,2022_Apr_14_1406,training+cueing,2021.1.4,59.64042786322572,
Friend.png,Friend,Friend,c,2,12,22,92,,,,,0,0,0,0,,,,,7,1,85,4,,,,,,,,,,,,,,,,,,,,,1.763,1.434,384.9776717000059,None,,,,,,,,,,,,,,,,,,,,385.5195604000037,386.02123149999534,0.5034458099980839,1.0037380099965958,386.00453689999995,386.121444000004,386.00453689999995,386.121444000004,386.10454640000535,None,c,1,1.4754644999920856,386.10454640000535,None,,,,,,,pd,2022_Apr_14_1406,training+cueing,2021.1.4,59.64042786322572,
Stranger.png,Stranger,Stranger,c,3,13,23,93,,,,,0,0,0,0,,,,,7,2,86,11,,,,,,,,,,,,,,,,,,,,,1.497,2.251,387.71213590000116,None,,,,,,,,,,,,,,,,,,,,388.2533487000037,388.75648520000686,0.5053833099955227,1.005641009993269,388.73987320000015,388.85654649999924,388.73987320000015,388.85654649999924,388.8398908999952,None,c,1,0.6920922999997856,388.8398908999952,None,,,,,,,pd,2022_Apr_14_1406,training+cueing,2021.1.4,59.64042786322572,
Self.png,You,Self ,c,1,11,21,91,,,,,0,0,0,0,,,,,7,3,87,0,,,,,,,,,,,,,,,,,,,,,1.402,1.837,389.6636925000057,None,,,,,,,,,,,,,,,,,,,,390.2018390000012,390.70789170000353,0.5119989100057865,1.0122980099986307,390.6912630000006,390.7913023000001,390.6912630000006,390.7913023000001,390.7913023000001,None,m,0,1.0127051000017673,390.7913023000001,None,,,,,,,pd,2022_Apr_14_1406,training+cueing,2021.1.4,59.64042786322572,
Friend.png,Stranger,Friend,m,3.2,19,29,99,,,,,0,0,0,0,,,,,7,4,88,5,,,,,,,,,,,,,,,,,,,,,1.582,1.596,391.93165680000675,None,,,,,,,,,,,,,,,,,,,,392.4691848999937,392.97622409999894,0.5120559100032551,1.012365710004815,392.9595560000016,393.07628199999453,392.9595560000016,393.07628199999453,393.05957579999813,None,m,1,0.8404281999974046,393.05957579999813,None,,,,,,,pd,2022_Apr_14_1406,training+cueing,2021.1.4,59.64042786322572,
Self.png,You,Self ,c,1,11,21,91,,,,,0,0,0,0,,,,,7,5,89,9,,,,,,,,,,,,,,,,,,,,,1.788,2.416,394.03477980000025,None,,,,,,,,,,,,,,,,,,,,394.5755793999997,395.07776050000393,0.5051945100130979,1.0056954100145958,395.06108810000296,395.1611586000072,395.06108810000296,395.1611586000072,395.1611586000072,None,c,1,0.85083239999949,395.1611586000072,None,,,,,,,pd,2022_Apr_14_1406,training+cueing,2021.1.4,59.64042786322572,
Self.png,Stranger,Self ,m,3.1,18,28,98,,,,,0,0,0,0,,,,,7,6,90,2,,,,,,,,,,,,,,,,,,,,,1.448,1.349,396.1343545999989,None,,,,,,,,,,,,,,,,,,,,396.6914364999975,397.19594420000794,0.510366479982622,1.0106235799903516,397.17928490000486,397.296004200005,397.17928490000486,397.296004200005,397.27930340000603,None,None,0,,397.27930340000603,None,,,,,,,pd,2022_Apr_14_1406,training+cueing,2021.1.4,59.64042786322572,
Self.png,Friend,Self ,m,2.1,16,26,96,,,,,0,0,0,0,,,,,7,7,91,1,,,,,,,,,,,,,,,,,,,,,1.73,1.902,398.83449189999374,None,,,,,,,,,,,,,,,,,,,,399.38107760000275,399.88121380000666,0.5152844099939102,1.015566409987514,399.88121380000666,399.98128000000725,399.88121380000666,399.98128000000725,399.98128000000725,None,m,1,0.44671309999830555,399.98128000000725,None,,,,,,,pd,2022_Apr_14_1406,training+cueing,2021.1.4,59.64042786322572,
Stranger.png,Friend,Stranger,m,2.3,17,27,97,,,,,0,0,0,0,,,,,7,8,92,7,,,,,,,,,,,,,,,,,,,,,1.573,2.213,400.5545039999997,None,,,,,,,,,,,,,,,,,,,,401.0929848999949,401.59912579999946,0.5115810099960072,1.0123746099998243,401.582531299995,401.69918310000503,401.582531299995,401.69918310000503,401.682487500002,None,None,0,,401.682487500002,None,,,,,,,pd,2022_Apr_14_1406,training+cueing,2021.1.4,59.64042786322572,
Friend.png,You,Friend,m,1.2,14,24,94,,,,,0,0,0,0,,,,,7,9,93,3,,,,,,,,,,,,,,,,,,,,,1.737,1.887,403.3723469999968,None,,,,,,,,,,,,,,,,,,,,403.91370439999446,404.4268655000051,0.5241288100078236,1.0244010099995648,404.41794420000224,404.51800179999555,404.41794420000224,404.51800179999555,404.50131190000684,None,None,0,,404.50131190000684,None,,,,,,,pd,2022_Apr_14_1406,training+cueing,2021.1.4,59.64042786322572,
Stranger.png,Stranger,Stranger,c,3,13,23,93,,,,,0,0,0,0,,,,,7,10,94,8,,,,,,,,,,,,,,,,,,,,,1.714,1.657,406.3595977000077,None,,,,,,,,,,,,,,,,,,,,406.9004263999959,407.4033477000048,0.5041273100068793,1.0044278100103838,407.386656600007,407.503389000005,407.386656600007,407.503389000005,407.4866711000068,None,c,1,1.277346300004865,407.4866711000068,None,,,,,,,pd,2022_Apr_14_1406,training+cueing,2021.1.4,59.64042786322572,
Friend.png,Friend,Friend,c,2,12,22,92,,,,,0,0,0,0,,,,,7,11,95,10,,,,,,,,,,,,,,,,,,,,,1.442,2.01,408.8943250000011,None,,,,,,,,,,,,,,,,,,,,409.4334063999995,409.9386746999953,0.5090971099998569,1.0093676099932054,409.92198420000204,410.0387111000018,409.92198420000204,410.0387111000018,410.0220025000017,None,m,0,1.2060218999977224,410.0220025000017,None,,,,,,,pd,2022_Apr_14_1406,training+cueing,2021.1.4,59.64042786322572,
Self.png,You,Self ,c,1,11,21,91,,,,,0,0,0,0,,,,,8,0,96,0,,,,,,,,,,,,,,,,,,,,,1.417,2.106,411.36348899999575,None,,,,,,,,,,,,,,,,,,,,411.8997992000077,412.40695560000313,0.5115442100068321,1.0118367099930765,412.3902584000025,412.49031759999343,412.3902584000025,412.49031759999343,412.49031759999343,None,c,1,1.1856346999993548,412.49031759999343,None,,,,,,,pd,2022_Apr_14_1406,training+cueing,2021.1.4,59.64042786322572,
Friend.png,You,Friend,m,1.2,14,24,94,,,,,0,0,0,0,,,,,8,1,97,3,,,,,,,,,,,,,,,,,,,,,1.646,1.49,413.81428200000664,None,,,,,,,,,,,,,,,,,,,,414.3549100999953,414.85872489999747,0.5064312100003008,1.006753010005923,414.8420358000003,414.9420831000025,414.8420358000003,414.9420831000025,414.9420831000025,None,m,1,0.7338557000039145,414.9420831000025,None,,,,,,,pd,2022_Apr_14_1406,training+cueing,2021.1.4,59.64042786322572,
Stranger.png,Stranger,Stranger,c,3,13,23,93,,,,,0,0,0,0,,,,,8,2,98,8,,,,,,,,,,,,,,,,,,,,,1.667,1.405,415.79938130000664,None,,,,,,,,,,,,,,,,,,,,416.344397199995,416.84356750000734,0.5140545100002782,1.014366709991009,416.84356750000734,416.9435574999952,416.84356750000734,416.9435574999952,416.9435574999952,None,c,1,0.972471700006281,416.9435574999952,None,,,,,,,pd,2022_Apr_14_1406,training+cueing,2021.1.4,59.64042786322572,
Friend.png,Friend,Friend,c,2,12,22,92,,,,,0,0,0,0,,,,,8,3,99,10,,,,,,,,,,,,,,,,,,,,,1.471,2.303,418.05189810000593,None,,,,,,,,,,,,,,,,,,,,418.5896444999962,419.09511969999585,0.5082160099991597,1.0085005099972477,419.0784691000008,419.1951523000025,419.0784691000008,419.1951523000025,419.17848879999656,None,None,0,,419.17848879999656,None,,,,,,,pd,2022_Apr_14_1406,training+cueing,2021.1.4,59.64042786322572,
Stranger.png,You,Stranger,m,1.3,15,25,95,,,,,0,0,0,0,,,,,8,4,100,6,,,,,,,,,,,,,,,,,,,,,1.629,2.118,420.76672480000707,None,,,,,,,,,,,,,,,,,,,,421.3090047000005,421.81371899999795,0.5087838099861983,1.0096773099940037,421.7970556000073,421.89713029999984,421.7970556000073,421.89713029999984,421.89713029999984,None,c,0,1.506899699990754,421.89713029999984,None,,,,,,,pd,2022_Apr_14_1406,training+cueing,2021.1.4,59.64042786322572,
Self.png,Stranger,Self ,m,3.1,18,28,98,,,,,0,0,0,0,,,,,8,5,101,2,,,,,,,,,,,,,,,,,,,,,1.694,1.635,423.5385271999985,None,,,,,,,,,,,,,,,,,,,,424.07956379999814,424.58242520000204,0.5053706100006821,1.0056325100013055,424.5657621999999,424.6824634999939,424.5657621999999,424.6824634999939,424.6657819999964,None,m,1,1.1381985999905737,424.6657819999964,None,,,,,,,pd,2022_Apr_14_1406,training+cueing,2021.1.4,59.64042786322572,
Self.png,You,Self ,c,1,11,21,91,,,,,0,0,0,0,,,,,8,6,102,9,,,,,,,,,,,,,,,,,,,,,1.488,1.371,425.9399856999953,None,,,,,,,,,,,,,,,,,,,,426.47921390000556,426.98417860000336,0.5075952100014547,1.007827309993445,426.9675200000056,427.0675138999941,426.9675200000056,427.0675138999941,427.0675138999941,None,c,1,0.6723579000099562,427.0675138999941,None,,,,,,,pd,2022_Apr_14_1406,training+cueing,2021.1.4,59.64042786322572,
Friend.png,Stranger,Friend,m,3.2,19,29,99,,,,,0,0,0,0,,,,,8,7,103,5,,,,,,,,,,,,,,,,,,,,,1.462,1.714,427.8740445000003,None,,,,,,,,,,,,,,,,,,,,428.4298176000011,428.93553849999444,0.5117862799961586,1.0121104800055036,428.9188957000006,429.0356252000056,428.9188957000006,429.0356252000056,429.01893600000767,None,m,1,1.0249265999882482,429.01893600000767,None,,,,,,,pd,2022_Apr_14_1406,training+cueing,2021.1.4,59.64042786322572,
Friend.png,Friend,Friend,c,2,12,22,92,,,,,0,0,0,0,,,,,8,8,104,4,,,,,,,,,,,,,,,,,,,,,1.766,1.458,430.1762335999956,None,,,,,,,,,,,,,,,,,,,,430.7130857000011,431.2205408000009,0.5116851100028725,1.0119636100134812,431.2038701999991,431.32063509999716,431.2038701999991,431.32063509999716,431.30390250000346,None,m,0,1.0120102999935625,431.30390250000346,None,,,,,,,pd,2022_Apr_14_1406,training+cueing,2021.1.4,59.64042786322572,
Self.png,Friend,Self ,m,2.1,16,26,96,,,,,0,0,0,0,,,,,8,9,105,1,,,,,,,,,,,,,,,,,,,,,1.597,2.467,432.4438557999965,None,,,,,,,,,,,,,,,,,,,,432.9835311000061,433.48886800000037,0.5112437100178795,1.0120989100105362,433.4722127999994,433.588874699999,433.4722127999994,433.588874699999,433.5722229999956,None,None,0,,433.5722229999956,None,,,,,,,pd,2022_Apr_14_1406,training+cueing,2021.1.4,59.64042786322572,
Stranger.png,Stranger,Stranger,c,3,13,23,93,,,,,0,0,0,0,,,,,8,10,106,11,,,,,,,,,,,,,,,,,,,,,1.637,1.661,435.2789522999956,None,,,,,,,,,,,,,,,,,,,,435.8180743999983,436.32420839999395,0.5115233100077603,1.01182800999959,436.3075356000045,436.4243057999993,436.3075356000045,436.4243057999993,436.40759940000135,None,None,0,,436.40759940000135,None,,,,,,,pd,2022_Apr_14_1406,training+cueing,2021.1.4,59.64042786322572,
Stranger.png,Friend,Stranger,m,2.3,17,27,97,,,,,0,0,0,0,,,,,8,11,107,7,,,,,,,,,,,,,,,,,,,,,1.506,2.441,438.16300509999564,None,,,,,,,,,,,,,,,,,,,,438.7038173000037,439.2096584999963,0.5098695099877659,1.0101880099973641,439.1929930000042,439.30971119999595,439.1929930000042,439.30971119999595,439.2930061000079,None,None,0,,439.2930061000079,None,,,,,,,pd,2022_Apr_14_1406,training+cueing,2021.1.4,59.64042786322572,
Self.png,You,Self ,c,1,11,21,91,,,,,0,0,0,0,,,,,9,0,108,0,,,,,,,,,,,,,,,,,,,,,1.595,1.994,440.91508970000723,None,,,,,,,,,,,,,,,,,,,,441.47723309999856,441.97849690000294,0.5034500799956731,1.0037489800015464,441.96183709999605,442.06187600000703,441.96183709999605,442.06187600000703,442.06187600000703,None,m,0,1.1979969999956666,442.06187600000703,None,,,,,,,pd,2022_Apr_14_1406,training+cueing,2021.1.4,59.64042786322572,
Friend.png,Stranger,Friend,m,3.2,19,29,99,,,,,0,0,0,0,,,,,9,1,109,5,,,,,,,,,,,,,,,,,,,,,1.44,1.578,443.3875352000032,None,,,,,,,,,,,,,,,,,,,,443.9284214999934,444.43011139999726,0.5049766099982662,1.0052893099928042,444.4134238999977,444.5301674000075,444.4134238999977,444.5301674000075,444.51343979999365,None,None,0,,444.51343979999365,None,,,,,,,pd,2022_Apr_14_1406,training+cueing,2021.1.4,59.64042786322572,
Self.png,Stranger,Self ,m,3.1,18,28,98,,,,,0,0,0,0,,,,,9,2,110,2,,,,,,,,,,,,,,,,,,,,,1.557,1.247,446.06977849999384,None,,,,,,,,,,,,,,,,,,,,446.60758510000596,447.1153740000009,0.5135820099967532,1.0139113099867245,447.0986719000066,447.2154220999946,447.0986719000066,447.2154220999946,447.19873350000125,None,c,0,0.9251514000061434,447.19873350000125,None,,,,,,,pd,2022_Apr_14_1406,training+cueing,2021.1.4,59.64042786322572,
Self.png,You,Self ,c,1,11,21,91,,,,,0,0,0,0,,,,,9,3,111,9,,,,,,,,,,,,,,,,,,,,,1.554,2.21,448.255797100006,None,,,,,,,,,,,,,,,,,,,,448.7931093000079,449.3003203999979,0.5134873099887045,1.0137844099808717,449.28362250000646,449.38366200000746,449.28362250000646,449.38366200000746,449.38366200000746,None,c,1,1.4281908999982988,449.38366200000746,None,,,,,,,pd,2022_Apr_14_1406,training+cueing,2021.1.4,59.64042786322572,
Stranger.png,Friend,Stranger,m,2.3,17,27,97,,,,,0,0,0,0,,,,,9,4,112,7,,,,,,,,,,,,,,,,,,,,,1.534,2.485,450.9409789000056,None,,,,,,,,,,,,,,,,,,,,451.47940660000313,451.98558979999507,0.5098268099973211,1.0102022100036265,451.96886809999705,452.08562569999776,451.96886809999705,452.08562569999776,452.0689201000059,None,None,0,,452.0689201000059,None,,,,,,,pd,2022_Apr_14_1406,training+cueing,2021.1.4,59.64042786322572,
Self.png,Friend,Self ,m,2.1,16,26,96,,,,,0,0,0,0,,,,,9,5,113,1,,,,,,,,,,,,,,,,,,,,,1.75,2.28,453.70889379999426,None,,,,,,,,,,,,,,,,,,,,454.2471525000001,454.75423330000194,0.5138112099957652,1.0140667099913117,454.73756409999623,454.8542824000033,454.73756409999623,454.8542824000033,454.83759749999444,None,m,1,1.4302707000024384,454.83759749999444,None,,,,,,,pd,2022_Apr_14_1406,training+cueing,2021.1.4,59.64042786322572,
Stranger.png,Stranger,Stranger,c,3,13,23,93,,,,,0,0,0,0,,,,,9,6,114,8,,,,,,,,,,,,,,,,,,,,,1.648,2.003,456.39495679999527,None,,,,,,,,,,,,,,,,,,,,456.94870350000565,457.4562117000023,0.5156191799906082,1.0159511800011387,457.43949900000007,457.5562523999979,457.43949900000007,457.5562523999979,457.53958290000446,None,m,0,1.1602947000064887,457.53958290000446,None,,,,,,,pd,2022_Apr_14_1406,training+cueing,2021.1.4,59.64042786322572,
Friend.png,Friend,Friend,c,2,12,22,92,,,,,0,0,0,0,,,,,9,7,115,10,,,,,,,,,,,,,,,,,,,,,1.42,2.034,458.8296401999978,None,,,,,,,,,,,,,,,,,,,,459.3689202999958,459.8746026000008,0.5092255100025795,1.009520910010906,459.8579444000061,459.9746581000072,459.8579444000061,459.9746581000072,459.9579955999943,None,m,0,1.1739607999916188,459.9579955999943,None,,,,,,,pd,2022_Apr_14_1406,training+cueing,2021.1.4,59.64042786322572,
Friend.png,You,Friend,m,1.2,14,24,94,,,,,0,0,0,0,,,,,9,8,116,3,,,,,,,,,,,,,,,,,,,,,1.427,1.705,461.26413749999483,None,,,,,,,,,,,,,,,,,,,,461.8026086000027,462.3097110999952,0.5130440099892439,1.0135924099886324,462.29302050000115,462.39306610000494,462.29302050000115,462.39306610000494,462.39306610000494,None,m,1,0.978881500006537,462.39306610000494,None,,,,,,,pd,2022_Apr_14_1406,training+cueing,2021.1.4,59.64042786322572,
Stranger.png,You,Stranger,m,1.3,15,25,95,,,,,0,0,0,0,,,,,9,9,117,6,,,,,,,,,,,,,,,,,,,,,1.495,1.651,463.50091450000764,None,,,,,,,,,,,,,,,,,,,,464.03746720000345,464.5446595999965,0.5138884100015275,1.01414061000105,464.5280010999995,464.62800860000425,464.5280010999995,464.62800860000425,464.62800860000425,None,m,1,1.2079075000074226,464.62800860000425,None,,,,,,,pd,2022_Apr_14_1406,training+cueing,2021.1.4,59.64042786322572,
Stranger.png,Stranger,Stranger,c,3,13,23,93,,,,,0,0,0,0,,,,,9,10,118,11,,,,,,,,,,,,,,,,,,,,,1.43,1.468,465.96841349999886,None,,,,,,,,,,,,,,,,,,,,466.50946410000324,467.0131012000056,0.5050986100104637,1.0053829100070288,466.9964198999951,467.1131403000036,466.9964198999951,467.1131403000036,467.0964332000003,None,m,0,1.267518699998618,467.0964332000003,None,,,,,,,pd,2022_Apr_14_1406,training+cueing,2021.1.4,59.64042786322572,
Friend.png,Friend,Friend,c,2,12,22,92,,,,,0,0,0,0,,,,,9,11,119,4,,,,,,,,,,,,,,,,,,,,,1.559,1.206,468.4868340999965,None,,,,,,,,,,,,,,,,,,,,469.0285214000032,469.5315941000008,0.5065949100098806,1.0070448100013891,469.5149221000029,469.6318084999948,469.5149221000029,469.6318084999948,469.61509540000407,None,m,0,0.8127947000029963,469.61509540000407,None,,,,,,,pd,2022_Apr_14_1406,training+cueing,2021.1.4,59.64042786322572,
,,,,,,,,,,,,0,0,0,0,,,,,,,,,,,,,,,,,,,,,,,,,,,,,,,,,,,,,,,,,,,,,,,,,,,,,,,,,,,,,,,,,,,0.016683359994203784,None,,,,,pd,2022_Apr_14_1406,training+cueing,2021.1.4,59.64042786322572,
Self.png,Friend,Self ,m,2.1,16,26,96,,,,,1,0,1,0,0,0,0,1,,,,,,,,,,,,,,,,,471.06659620000573,None,space,-0.7030559999984689,2.0135709699970903,None,473.0674982000055,None,1.567,1.928,476.0812883000035,None,476.61280960000295,477.12043280000216,477.1037254999974,477.22049039999547,477.1037254999974,477.22049039999547,477.2037569999957,None,None,0,,477.2037569999957,None,478.771671399998,None,,,,,,,,,,,,,,,,,,,,,,,,,,pd,2022_Apr_14_1406,training+cueing,2021.1.4,59.64042786322572,
Friend.png,You,Friend,m,1.2,14,24,94,,,,,1,0,1,0,0,1,1,3,,,,,,,,,,,,,,,,,,,,,,,,,1.574,2.074,479.17212960000325,None,479.7068656000047,480.20599400000356,480.20599400000356,480.30599570000777,480.20599400000356,480.30599570000777,480.30599570000777,None,c,0,0.8259469000040554,480.30599570000777,None,481.1566668000014,None,,,,,,,,,,,,,,,,,,,,,,,,,,pd,2022_Apr_14_1406,training+cueing,2021.1.4,59.64042786322572,
Stranger.png,Stranger,Stranger,c,3,13,23,93,,,,,1,0,1,0,0,2,2,8,,,,,,,,,,,,,,,,,,,,,,,,,1.455,2.327,481.5569187999936,None,482.0899875000032,482.59100610000314,482.5743489000015,482.691098299998,482.5743489000015,482.691098299998,482.67441010000766,None,m,0,0.6175478000077419,482.67441010000766,None,483.3082265999983,None,,,,,,,,,,,,,,,,,,,,,,,,,,pd,2022_Apr_14_1406,training+cueing,2021.1.4,59.64042786322572,
Self.png,Stranger,Self ,m,3.1,18,28,98,,,,,1,0,1,0,0,3,3,2,,,,,,,,,,,,,,,,,,,,,,,,,1.602,2.102,483.7085831000004,None,484.23393940000096,484.7426637000026,484.72599289999926,484.8427445999987,484.72599289999926,484.8427445999987,484.8260339999979,None,m,1,0.5617907999985619,484.8260339999979,None,485.4098193999962,None,,,,,,,,,,,,,,,,,,,,,,,,,,pd,2022_Apr_14_1406,training+cueing,2021.1.4,59.64042786322572,
Self.png,You,Self ,c,1,11,21,91,,,,,1,0,1,0,0,4,4,0,,,,,,,,,,,,,,,,,,,,,,,,,1.7,2.046,485.81017620000057,None,486.3500303000037,486.8607991000026,486.8441229000018,486.9441525000002,486.8441229000018,486.9441525000002,486.9441525000002,None,c,1,0.539665000003879,486.9441525000002,None,487.511233600002,None,,,,,,,,,,,,,,,,,,,,,,,,,,pd,2022_Apr_14_1406,training+cueing,2021.1.4,59.64042786322572,
Friend.png,Stranger,Friend,m,3.2,19,29,99,,,,,1,0,1,0,0,5,5,5,,,,,,,,,,,,,,,,,,,,,,,,,1.468,1.392,487.91169049999735,None,488.4514957000065,488.96229409999796,488.9456286000059,489.0623668000044,488.9456286000059,489.0623668000044,489.0456539000006,None,m,1,0.43817789999593515,489.0456539000006,None,489.5127111000038,None,,,,,,,,,,,,,,,,,,,,,,,,,,pd,2022_Apr_14_1406,training+cueing,2021.1.4,59.64042786322572,
Friend.png,Friend,Friend,c,2,12,22,92,,,,,1,0,1,0,0,6,6,4,,,,,,,,,,,,,,,,,,,,,,,,,1.496,1.999,489.91296169999987,None,490.4442928000062,490.94708369999717,490.93046669999603,491.0471244999935,490.93046669999603,491.0471244999935,491.03041819999635,None,c,1,0.5812978000030853,491.03041819999635,None,491.6309324000031,None,,,,,,,,,,,,,,,,,,,,,,,,,,pd,2022_Apr_14_1406,training+cueing,2021.1.4,59.64042786322572,
Self.png,You,Self ,c,1,11,21,91,,,,,1,0,1,0,0,7,7,9,,,,,,,,,,,,,,,,,,,,,,,,,1.755,1.701,492.0312033999944,None,492.56167310000455,493.06525470000634,493.0485797000001,493.1486317999952,493.0485797000001,493.1486317999952,493.1486317999952,None,m,0,0.4151389000035124,493.1486317999952,None,493.5828312999947,None,,,,,,,,,,,,,,,,,,,,,,,,,,pd,2022_Apr_14_1406,training+cueing,2021.1.4,59.64042786322572,
Stranger.png,You,Stranger,m,1.3,15,25,95,,,,,1,0,1,0,0,8,8,6,,,,,,,,,,,,,,,,,,,,,,,,,1.65,1.213,493.98258630000055,None,494.5111595000053,495.01669659999607,495.0000100000034,495.1000736999995,495.0000100000034,495.1000736999995,495.1000736999995,None,m,1,0.7837658999924315,495.1000736999995,None,495.9015647000051,None,,,,,,,,,,,,,,,,,,,,,,,,,,pd,2022_Apr_14_1406,training+cueing,2021.1.4,59.64042786322572,
Stranger.png,Friend,Stranger,m,2.3,17,27,97,,,,,1,0,1,0,0,9,9,7,,,,,,,,,,,,,,,,,,,,,,,,,1.44,1.375,496.30107190000126,None,496.8348876999953,497.33505819999846,497.3183401999995,497.43506669999624,497.3183401999995,497.43506669999624,497.43506669999624,None,c,0,0.560756399994716,497.43506669999624,None,498.0189448000019,None,,,,,,,,,,,,,,,,,,,,,,,,,,pd,2022_Apr_14_1406,training+cueing,2021.1.4,59.64042786322572,
Stranger.png,Stranger,Stranger,c,3,13,23,93,,,,,1,0,1,0,0,10,10,11,,,,,,,,,,,,,,,,,,,,,,,,,1.499,2.024,498.4191393000074,None,498.9486834999989,499.45323559999815,499.43656410000403,499.55325480000465,499.43656410000403,499.55325480000465,499.53656330000376,None,c,1,0.5711925999930827,499.53656330000376,None,500.1360194000008,None,,,,,,,,,,,,,,,,,,,,,,,,,,pd,2022_Apr_14_1406,training+cueing,2021.1.4,59.64042786322572,
Friend.png,Friend,Friend,c,2,12,22,92,,,,,1,0,1,0,0,11,11,10,,,,,,,,,,,,,,,,,,,,,,,,,1.574,2.446,500.5378672000079,None,501.07823149999604,501.5881272999977,501.5714728000021,501.6881546000077,501.5714728000021,501.6881546000077,501.6881546000077,None,m,0,0.6116541999945184,501.6881546000077,None,502.3225444999989,None,,,,,,,,,,,,,,,,,,,,,,,,,,pd,2022_Apr_14_1406,training+cueing,2021.1.4,59.64042786322572,
Friend.png,Friend,Friend,c,2,12,22,92,,,,,1,0,1,0,,,,,0,0,0,4,,,,,,,,,,,,,,,,,,,513.6636235000042,None,1.682,1.41,517.1842609000014,None,,,,,,,,,,,,,,,,502.7228174000047,None,0.014017869994859211,None,517.6923657000007,518.2000642000057,0.4990848099987488,0.9993655099970056,518.1667706000007,518.2668259000056,518.1667706000007,518.2668259000056,518.2668259000056,None,m,0,0.736919000002672,518.2668259000056,None,,,,,,,pd,2022_Apr_14_1406,training+cueing,2021.1.4,59.64042786322572,
Self.png,Stranger,Self ,m,3.1,18,28,98,,,,,1,0,1,0,,,,,0,1,1,2,,,,,,,,,,,,,,,,,,,,,1.785,1.692,519.1418823999993,None,,,,,,,,,,,,,,,,,,,,519.6836699999985,520.1850082000019,0.5037885100027779,1.0041137099906337,520.1683654999943,520.2849791000044,520.1683654999943,520.2849791000044,520.268261300007,None,m,1,1.0715255000104662,520.268261300007,None,,,,,,,pd,2022_Apr_14_1406,training+cueing,2021.1.4,59.64042786322572,
Self.png,You,Self ,c,1,11,21,91,,,,,1,0,1,0,,,,,0,2,2,9,,,,,,,,,,,,,,,,,,,,,1.463,1.735,521.4749821000005,None,,,,,,,,,,,,,,,,,,,,522.0149483999994,522.5198970000056,0.5081549099850236,1.0083753099897876,522.5032573000062,522.6032852000062,522.5032573000062,522.6032852000062,522.6032852000062,None,c,1,0.8643802000005962,522.6032852000062,None,,,,,,,pd,2022_Apr_14_1406,training+cueing,2021.1.4,59.64042786322572,
Stranger.png,Stranger,Stranger,c,3,13,23,93,,,,,1,0,1,0,,,,,0,3,3,11,,,,,,,,,,,,,,,,,,,,,1.483,2.42,523.5936172000074,None,,,,,,,,,,,,,,,,,,,,524.1339855999977,524.6381045000016,0.5087129099993035,1.0090586099977372,524.6213999000029,524.7381770000065,524.6213999000029,524.7381770000065,524.7214362999948,None,None,0,,524.7214362999948,None,,,,,,,pd,2022_Apr_14_1406,training+cueing,2021.1.4,59.64042786322572,
Stranger.png,You,Stranger,m,1.3,15,25,95,,,,,1,0,1,0,,,,,0,4,4,6,,,,,,,,,,,,,,,,,,,,,1.457,1.326,526.3100798999949,None,,,,,,,,,,,,,,,,,,,,526.8511375999951,527.3567220999976,0.5094734099984635,1.010481709992746,527.3400560000009,527.4401193999947,527.3400560000009,527.4401193999947,527.4401193999947,None,m,1,1.0517940999998245,527.4401193999947,None,,,,,,,pd,2022_Apr_14_1406,training+cueing,2021.1.4,59.64042786322572,
Friend.png,Friend,Friend,c,2,12,22,92,,,,,1,0,1,0,,,,,0,5,5,10,,,,,,,,,,,,,,,,,,,,,1.577,1.25,528.6152566999954,None,,,,,,,,,,,,,,,,,,,,529.1545368999941,529.6583970000065,0.507319809999899,1.00760741000704,529.6417382999934,529.7584446999972,529.6417382999934,529.7584446999972,529.7417792000051,None,c,1,1.0059310999931768,529.7417792000051,None,,,,,,,pd,2022_Apr_14_1406,training+cueing,2021.1.4,59.64042786322572,
Stranger.png,Stranger,Stranger,c,3,13,23,93,,,,,1,0,1,0,,,,,0,6,6,8,,,,,,,,,,,,,,,,,,,,,1.566,1.325,530.8818572000018,None,,,,,,,,,,,,,,,,,,,,531.4240378999966,531.9267171999963,0.5051613099931274,1.0060194099933142,531.9100636999938,532.0267539000051,531.9100636999938,532.0267539000051,532.0100788999989,None,m,0,0.9456570000038482,532.0100788999989,None,,,,,,,pd,2022_Apr_14_1406,training+cueing,2021.1.4,59.64042786322572,
Stranger.png,Friend,Stranger,m,2.3,17,27,97,,,,,1,0,1,0,,,,,0,7,7,7,,,,,,,,,,,,,,,,,,,,,1.788,2.293,533.0836028000049,None,,,,,,,,,,,,,,,,,,,,533.6312468999968,534.1450452999998,0.5078994099894771,1.008252209998318,534.1283438999963,534.2451296999934,534.1283438999963,534.2451296999934,534.228465799999,None,m,1,0.8873785000032512,534.228465799999,None,,,,,,,pd,2022_Apr_14_1406,training+cueing,2021.1.4,59.64042786322572,
Friend.png,You,Friend,m,1.2,14,24,94,,,,,1,0,1,0,,,,,0,8,8,3,,,,,,,,,,,,,,,,,,,,,1.562,2.226,535.2522238999954,None,,,,,,,,,,,,,,,,,,,,535.7915015000035,536.2965269999986,0.5099346100032562,1.0102392099943245,536.2798761000013,536.3799151999992,536.2798761000013,536.3799151999992,536.3799151999992,None,m,1,0.6878285999991931,536.3799151999992,None,,,,,,,pd,2022_Apr_14_1406,training+cueing,2021.1.4,59.64042786322572,
Self.png,You,Self ,c,1,11,21,91,,,,,1,0,1,0,,,,,0,9,9,0,,,,,,,,,,,,,,,,,,,,,1.443,2.344,537.2032255999948,None,,,,,,,,,,,,,,,,,,,,537.7570785999997,538.2646485000005,0.49912888000835665,0.9994311800110154,538.2312612999958,538.3313245000027,538.2312612999958,538.3313245000027,538.3313245000027,None,c,1,0.7203999000048498,538.3313245000027,None,,,,,,,pd,2022_Apr_14_1406,training+cueing,2021.1.4,59.64042786322572,
Self.png,Friend,Self ,m,2.1,16,26,96,,,,,1,0,1,0,,,,,0,10,10,1,,,,,,,,,,,,,,,,,,,,,1.594,1.536,539.1879247000034,None,,,,,,,,,,,,,,,,,,,,539.7269962999999,540.232715399994,0.5090670100034913,1.0095141100027831,540.2160394999955,540.332908299999,540.2160394999955,540.332908299999,540.3162264999992,None,m,1,1.423574300002656,540.3162264999992,None,,,,,,,pd,2022_Apr_14_1406,training+cueing,2021.1.4,59.64042786322572,
Friend.png,Stranger,Friend,m,3.2,19,29,99,,,,,1,0,1,0,,,,,0,11,11,5,,,,,,,,,,,,,,,,,,,,,1.781,1.349,541.8753246999986,None,,,,,,,,,,,,,,,,,,,,542.4163224999938,542.9180048999988,0.5042002099944511,1.004490409992286,542.9013141000032,543.0180624000059,542.9013141000032,543.0180624000059,543.0013310000068,None,m,1,0.8982964000024367,543.0013310000068,None,,,,,,,pd,2022_Apr_14_1406,training+cueing,2021.1.4,59.64042786322572,
Friend.png,Stranger,Friend,m,3.2,19,29,99,,,,,1,0,1,0,,,,,1,0,12,5,,,,,,,,,,,,,,,,,,,,,1.708,2.186,544.0246603999985,None,,,,,,,,,,,,,,,,,,,,544.5678562999965,545.069533899994,0.5026169099874096,1.0029495099879568,545.0528713999956,545.1695906999958,545.0528713999956,545.1695906999958,545.1529059000022,None,c,0,0.9388303000014275,545.1529059000022,None,,,,,,,pd,2022_Apr_14_1406,training+cueing,2021.1.4,59.64042786322572,
Friend.png,Friend,Friend,c,2,12,22,92,,,,,1,0,1,0,,,,,1,1,13,4,,,,,,,,,,,,,,,,,,,,,1.651,1.741,546.2267769000027,None,,,,,,,,,,,,,,,,,,,,546.767963899998,547.2711605999939,0.5067285100085428,1.0070109100051923,547.2544839000038,547.3711820000026,547.2544839000038,547.3711820000026,547.354499699999,None,m,0,0.6412349000020185,547.354499699999,None,,,,,,,pd,2022_Apr_14_1406,training+cueing,2021.1.4,59.64042786322572,
Self.png,Friend,Self ,m,2.1,16,26,96,,,,,1,0,1,0,,,,,1,2,14,1,,,,,,,,,,,,,,,,,,,,,1.648,1.987,548.1274850000045,None,,,,,,,,,,,,,,,,,,,,548.6659096999938,549.1725313000061,0.5143962099973578,1.0148734100075671,549.1558671999956,549.2727218000073,549.1558671999956,549.2727218000073,549.2560713999992,None,None,0,,549.2560713999992,None,,,,,,,pd,2022_Apr_14_1406,training+cueing,2021.1.4,59.64042786322572,
Friend.png,Friend,Friend,c,2,12,22,92,,,,,1,0,1,0,,,,,1,3,15,10,,,,,,,,,,,,,,,,,,,,,1.569,1.893,551.012317700006,None,,,,,,,,,,,,,,,,,,,,551.5510000000068,552.0579455999978,0.5115917100047227,1.0119142100011231,552.0412249000074,552.1580202000041,552.0412249000074,552.1580202000041,552.1413092000003,None,None,0,,552.1413092000003,None,,,,,,,pd,2022_Apr_14_1406,training+cueing,2021.1.4,59.64042786322572,
Self.png,You,Self ,c,1,11,21,91,,,,,1,0,1,0,,,,,1,4,16,0,,,,,,,,,,,,,,,,,,,,,1.766,2.011,553.8306278999953,None,,,,,,,,,,,,,,,,,,,,554.3725509000069,554.8766366000054,0.5073591099935584,1.0076489100028994,554.8599806999991,554.9600079999946,554.8599806999991,554.9600079999946,554.9600079999946,None,m,0,0.843698199998471,554.9600079999946,None,,,,,,,pd,2022_Apr_14_1406,training+cueing,2021.1.4,59.64042786322572,
Self.png,Stranger,Self ,m,3.1,18,28,98,,,,,1,0,1,0,,,,,1,5,17,2,,,,,,,,,,,,,,,,,,,,,1.762,1.77,555.9338299999945,None,,,,,,,,,,,,,,,,,,,,556.4735823999945,556.9782503000024,0.5080453099944862,1.0080815099936444,556.9616804999969,557.0782256999955,556.9616804999969,557.0782256999955,557.0615171999962,None,m,1,0.8542058999883011,557.0615171999962,None,,,,,,,pd,2022_Apr_14_1406,training+cueing,2021.1.4,59.64042786322572,
Self.png,You,Self ,c,1,11,21,91,,,,,1,0,1,0,,,,,1,6,18,9,,,,,,,,,,,,,,,,,,,,,1.493,1.873,558.0513953000045,None,,,,,,,,,,,,,,,,,,,,558.5894732000015,559.0963729000068,0.5120933099969989,1.0123791099904338,559.0796984000044,559.1797439999937,559.0796984000044,559.1797439999937,559.1797439999937,None,c,1,0.6719098000030499,559.1797439999937,None,,,,,,,pd,2022_Apr_14_1406,training+cueing,2021.1.4,59.64042786322572,
Stranger.png,Friend,Stranger,m,2.3,17,27,97,,,,,1,0,1,0,,,,,1,7,19,7,,,,,,,,,,,,,,,,,,,,,1.589,2.467,559.9869775999978,None,,,,,,,,,,,,,,,,,,,,560.5272151999961,561.0311110000039,0.5069351100100903,1.0072051099996315,561.0144386000029,561.1311281999951,561.0144386000029,561.1311281999951,561.1144764000055,None,m,1,1.1052750000089873,561.1144764000055,None,,,,,,,pd,2022_Apr_14_1406,training+cueing,2021.1.4,59.64042786322572,
Stranger.png,Stranger,Stranger,c,3,13,23,93,,,,,1,0,1,0,,,,,1,8,20,8,,,,,,,,,,,,,,,,,,,,,1.508,1.571,562.3544181000034,None,,,,,,,,,,,,,,,,,,,,562.8949290000019,563.399493799996,0.5072020099905785,1.0079338099894812,563.3829145000054,563.4995920000074,563.3829145000054,563.4995920000074,563.4828281999944,None,m,0,0.9130645999975968,563.4828281999944,None,,,,,,,pd,2022_Apr_14_1406,training+cueing,2021.1.4,59.64042786322572,
Stranger.png,You,Stranger,m,1.3,15,25,95,,,,,1,0,1,0,,,,,1,9,21,6,,,,,,,,,,,,,,,,,,,,,1.574,2.013,564.5238547000044,None,,,,,,,,,,,,,,,,,,,,565.0621720000054,565.5677222999948,0.5103779099881649,1.010652509983629,565.5510454000032,565.6510725999979,565.5510454000032,565.6510725999979,565.6510725999979,None,c,0,0.728695499987225,565.6510725999979,None,,,,,,,pd,2022_Apr_14_1406,training+cueing,2021.1.4,59.64042786322572,
Friend.png,You,Friend,m,1.2,14,24,94,,,,,1,0,1,0,,,,,1,10,22,3,,,,,,,,,,,,,,,,,,,,,1.508,1.792,566.5080512999994,None,,,,,,,,,,,,,,,,,,,,567.0459950000077,567.5525022999936,0.511577009994653,1.0117396099958569,567.5358795000066,567.6358577000065,567.5358795000066,567.6358577000065,567.6358577000065,None,c,0,1.2240013999980874,567.6358577000065,None,,,,,,,pd,2022_Apr_14_1406,training+cueing,2021.1.4,59.64042786322572,
Stranger.png,Stranger,Stranger,c,3,13,23,93,,,,,1,0,1,0,,,,,1,11,23,11,,,,,,,,,,,,,,,,,,,,,1.455,2.479,568.9925917000073,None,,,,,,,,,,,,,,,,,,,,569.5335243000009,570.0376331000007,0.5055650100111961,1.0059292100049788,570.0209608000005,570.1376758999977,570.0209608000005,570.1376758999977,570.1209885999997,None,m,0,0.6747295000095619,570.1209885999997,None,,,,,,,pd,2022_Apr_14_1406,training+cueing,2021.1.4,59.64042786322572,
Stranger.png,Stranger,Stranger,c,3,13,23,93,,,,,1,0,1,0,,,,,2,0,24,11,,,,,,,,,,,,,,,,,,,,,1.548,2.259,570.9273878999957,None,,,,,,,,,,,,,,,,,,,,571.4634556999954,571.9723089000036,0.5000774100044509,1.0007880100165494,571.9389732999989,572.0390315999975,571.9389732999989,572.0390315999975,572.0390315999975,None,c,1,1.380843899998581,572.0390315999975,None,,,,,,,pd,2022_Apr_14_1406,training+cueing,2021.1.4,59.64042786322572,
Self.png,Friend,Self ,m,2.1,16,26,96,,,,,1,0,1,0,,,,,2,1,25,1,,,,,,,,,,,,,,,,,,,,,1.772,1.373,573.5477320000064,None,,,,,,,,,,,,,,,,,,,,574.0878165000031,574.5909362999955,0.5054798100027256,1.0058548100059852,574.5741503000027,574.6909616000048,574.5741503000027,574.6909616000048,574.6742117999966,None,c,0,0.7295084999932442,574.6742117999966,None,,,,,,,pd,2022_Apr_14_1406,training+cueing,2021.1.4,59.64042786322572,
Friend.png,You,Friend,m,1.2,14,24,94,,,,,1,0,1,0,,,,,2,2,26,3,,,,,,,,,,,,,,,,,,,,,1.695,1.41,575.531238800002,None,,,,,,,,,,,,,,,,,,,,576.0723628999986,576.5756802999967,0.5055185099918162,1.0063654099940322,576.5590238000004,576.6590718999942,576.5590238000004,576.6590718999942,576.6590718999942,None,m,1,0.8246500000095693,576.6590718999942,None,,,,,,,pd,2022_Apr_14_1406,training+cueing,2021.1.4,59.64042786322572,
Stranger.png,Stranger,Stranger,c,3,13,23,93,,,,,1,0,1,0,,,,,2,3,27,8,,,,,,,,,,,,,,,,,,,,,1.489,1.398,577.6158890999941,None,,,,,,,,,,,,,,,,,,,,578.1577261000057,578.6604708999948,0.5059238100075163,1.0062408100056928,578.6438214999944,578.7607271000015,578.6438214999944,578.7607271000015,578.7438771000016,None,c,1,1.25182049999421,578.7438771000016,None,,,,,,,pd,2022_Apr_14_1406,training+cueing,2021.1.4,59.64042786322572,
Self.png,You,Self ,c,1,11,21,91,,,,,1,0,1,0,,,,,2,4,28,0,,,,,,,,,,,,,,,,,,,,,1.474,1.891,580.1180276999949,None,,,,,,,,,,,,,,,,,,,,580.656485200001,581.1623140000011,0.5092313100030879,1.0095476099959342,581.145626700003,581.245685899994,581.145626700003,581.245685899994,581.245685899994,None,m,0,0.7500205999967875,581.245685899994,None,,,,,,,pd,2022_Apr_14_1406,training+cueing,2021.1.4,59.64042786322572,
Self.png,You,Self ,c,1,11,21,91,,,,,1,0,1,0,,,,,2,5,29,9,,,,,,,,,,,,,,,,,,,,,1.593,1.73,582.1191486000025,None,,,,,,,,,,,,,,,,,,,,582.6579016000032,583.1637832999986,0.5113574099959806,1.0116529100050684,583.1470866000018,583.2471523999993,583.1470866000018,583.2471523999993,583.2471523999993,None,c,1,0.7644291999895358,583.2471523999993,None,,,,,,,pd,2022_Apr_14_1406,training+cueing,2021.1.4,59.64042786322572,
Friend.png,Friend,Friend,c,2,12,22,92,,,,,1,0,1,0,,,,,2,6,30,4,,,,,,,,,,,,,,,,,,,,,1.444,2.382,584.1375095999974,None,,,,,,,,,,,,,,,,,,,,584.6770440999971,585.1819093999948,0.509125109994784,1.0095202099910239,585.165230300001,585.2825089999969,585.165230300001,585.2825089999969,585.2652411000017,None,c,1,0.938539499999024,585.2652411000017,None,,,,,,,pd,2022_Apr_14_1406,training+cueing,2021.1.4,59.64042786322572,
Friend.png,Stranger,Friend,m,3.2,19,29,99,,,,,1,0,1,0,,,,,2,7,31,5,,,,,,,,,,,,,,,,,,,,,1.546,1.956,586.340226100001,None,,,,,,,,,,,,,,,,,,,,586.8770804999949,587.3835067000036,0.5111322099983227,1.012005210010102,587.366815500005,587.4835748000041,587.366815500005,587.4835748000041,587.4668278000026,None,m,1,0.9449320999992779,587.4668278000026,None,,,,,,,pd,2022_Apr_14_1406,training+cueing,2021.1.4,59.64042786322572,
Self.png,Stranger,Self ,m,3.1,18,28,98,,,,,1,0,1,0,,,,,2,8,32,2,,,,,,,,,,,,,,,,,,,,,1.527,1.552,588.5410474999953,None,,,,,,,,,,,,,,,,,,,,589.078657799997,589.5851079999993,0.5115453099861043,1.0118248099897755,589.5684102999949,589.6851599999936,589.5684102999949,589.6851599999936,589.6684565000032,None,m,1,0.8073231000016676,589.6684565000032,None,,,,,,,pd,2022_Apr_14_1406,training+cueing,2021.1.4,59.64042786322572,
Stranger.png,You,Stranger,m,1.3,15,25,95,,,,,1,0,1,0,,,,,2,9,33,6,,,,,,,,,,,,,,,,,,,,,1.402,2.207,590.6082687000016,None,,,,,,,,,,,,,,,,,,,,591.1491035000072,591.6534168000071,0.5087501100060763,1.009011410002131,591.6365793000004,591.7366249000042,591.6365793000004,591.7366249000042,591.7366249000042,None,c,0,1.043105500008096,591.7366249000042,None,,,,,,,pd,2022_Apr_14_1406,training+cueing,2021.1.4,59.64042786322572,
Stranger.png,Friend,Stranger,m,2.3,17,27,97,,,,,1,0,1,0,,,,,2,10,34,7,,,,,,,,,,,,,,,,,,,,,1.462,1.547,592.9121250000026,None,,,,,,,,,,,,,,,,,,,,593.4670158999943,593.9715747000009,0.506875979990582,1.0071794799878262,593.9549165000062,594.0716568000062,593.9549165000062,594.0716568000062,594.0549656000076,None,m,1,1.0446910000027856,594.0549656000076,None,,,,,,,pd,2022_Apr_14_1406,training+cueing,2021.1.4,59.64042786322572,
Friend.png,Friend,Friend,c,2,12,22,92,,,,,1,0,1,0,,,,,2,11,35,10,,,,,,,,,,,,,,,,,,,,,1.698,2.341,595.2285371000035,None,,,,,,,,,,,,,,,,,,,,595.7641631000006,596.2732568000065,0.500731239997549,1.0011271399998805,596.2565964999958,596.3734056999965,596.2565964999958,596.3734056999965,596.3734056999965,None,c,1,0.4863386999932118,596.3734056999965,None,,,,,,,pd,2022_Apr_14_1406,training+cueing,2021.1.4,59.64042786322572,
Stranger.png,Friend,Stranger,m,2.3,17,27,97,,,,,1,0,1,0,,,,,3,0,36,7,,,,,,,,,,,,,,,,,,,,,1.567,1.694,596.9974872000021,None,,,,,,,,,,,,,,,,,,,,597.5328083000059,598.0412023999961,0.5135339099942939,1.0138153099978808,598.0245373000071,598.1412099000008,598.0245373000071,598.1412099000008,598.1245544999983,None,c,0,0.79923739998776,598.1245544999983,None,,,,,,,pd,2022_Apr_14_1406,training+cueing,2021.1.4,59.64042786322572,
Stranger.png,Stranger,Stranger,c,3,13,23,93,,,,,1,0,1,0,,,,,3,1,37,11,,,,,,,,,,,,,,,,,,,,,1.709,1.916,599.0516512000031,None,,,,,,,,,,,,,,,,,,,,599.5887755000003,600.0926668000029,0.507141509995563,1.0075462100066943,600.0759994999971,600.1927103000053,600.0759994999971,600.1927103000053,600.1760324000061,None,m,0,0.6675526999897556,600.1760324000061,None,,,,,,,pd,2022_Apr_14_1406,training+cueing,2021.1.4,59.64042786322572,
Self.png,You,Self ,c,1,11,21,91,,,,,1,0,1,0,,,,,3,2,38,0,,,,,,,,,,,,,,,,,,,,,1.548,2.429,600.9660755999939,None,,,,,,,,,,,,,,,,,,,,601.5071660999965,602.010741399994,0.5072028099966701,1.0074525099917082,601.9941001999978,602.094127400007,601.9941001999978,602.094127400007,602.094127400007,None,c,1,0.9096152999991318,602.094127400007,None,,,,,,,pd,2022_Apr_14_1406,training+cueing,2021.1.4,59.64042786322572,
Stranger.png,You,Stranger,m,1.3,15,25,95,,,,,1,0,1,0,,,,,3,3,39,6,,,,,,,,,,,,,,,,,,,,,1.668,2.484,603.1348046000057,None,,,,,,,,,,,,,,,,,,,,603.670959199997,604.1789725999988,0.5130389100086177,1.0136057100025937,604.1622669000062,604.2623448999948,604.1622669000062,604.2623448999948,604.2623448999948,None,c,0,0.46946330000355374,604.2623448999948,None,,,,,,,pd,2022_Apr_14_1406,training+cueing,2021.1.4,59.64042786322572,
Friend.png,Stranger,Friend,m,3.2,19,29,99,,,,,1,0,1,0,,,,,3,4,40,5,,,,,,,,,,,,,,,,,,,,,1.692,1.847,604.8709157999983,None,,,,,,,,,,,,,,,,,,,,605.4239998999983,605.9304888000042,0.5128721799992491,1.0131387800065568,605.9137293999956,606.0304348000063,605.9137293999956,606.0304348000063,606.0137402999972,None,m,1,0.5419773000030546,606.0137402999972,None,,,,,,,pd,2022_Apr_14_1406,training+cueing,2021.1.4,59.64042786322572,
Friend.png,You,Friend,m,1.2,14,24,94,,,,,1,0,1,0,,,,,3,5,41,3,,,,,,,,,,,,,,,,,,,,,1.778,1.541,606.6863386000041,None,,,,,,,,,,,,,,,,,,,,607.2255688000005,607.7315388999996,0.5118879100045888,1.0121844100067392,607.7148600999935,607.8149158000015,607.7148600999935,607.8149158000015,607.8149158000015,None,c,0,0.5487616999889724,607.8149158000015,None,,,,,,,pd,2022_Apr_14_1406,training+cueing,2021.1.4,59.64042786322572,
Self.png,Friend,Self ,m,2.1,16,26,96,,,,,1,0,1,0,,,,,3,6,42,1,,,,,,,,,,,,,,,,,,,,,1.456,1.666,608.487959399994,None,,,,,,,,,,,,,,,,,,,,609.0278822999971,609.5328270000027,0.5071900099865161,1.0074230099853594,609.5161667000066,609.6329306999978,609.5161667000066,609.6329306999978,609.6162286000035,None,None,0,,609.6162286000035,None,,,,,,,pd,2022_Apr_14_1406,training+cueing,2021.1.4,59.64042786322572,
Self.png,Stranger,Self ,m,3.1,18,28,98,,,,,1,0,1,0,,,,,3,7,43,2,,,,,,,,,,,,,,,,,,,,,1.65,1.304,611.1882904000086,None,,,,,,,,,,,,,,,,,,,,611.7310243999964,612.2348320000019,0.5070792099868413,1.0074305099842604,612.218257000015,612.3348620000033,612.218257000015,612.3348620000033,612.3181320000003,None,c,0,1.4055462999967858,612.3181320000003,None,,,,,,,pd,2022_Apr_14_1406,training+cueing,2021.1.4,59.64042786322572,
Stranger.png,Stranger,Stranger,c,3,13,23,93,,,,,1,0,1,0,,,,,3,8,44,8,,,,,,,,,,,,,,,,,,,,,1.432,2.106,613.8585134000023,None,,,,,,,,,,,,,,,,,,,,614.3968392000097,614.9033987999865,0.5111084100208245,1.011543510016054,614.8867495999875,615.0034484999924,614.8867495999875,615.0034484999924,614.9867500999972,None,None,0,,614.9867500999972,None,,,,,,,pd,2022_Apr_14_1406,training+cueing,2021.1.4,59.64042786322572,
Self.png,You,Self ,c,1,11,21,91,,,,,1,0,1,0,,,,,3,9,45,9,,,,,,,,,,,,,,,,,,,,,1.723,1.386,616.5268252999958,None,,,,,,,,,,,,,,,,,,,,617.0682956999954,617.5720015000115,0.507153910031775,1.0074456100119278,617.5553112999914,617.655350800007,617.5553112999914,617.655350800007,617.655350800007,None,c,1,0.8203318000014406,617.655350800007,None,,,,,,,pd,2022_Apr_14_1406,training+cueing,2021.1.4,59.64042786322572,
Friend.png,Friend,Friend,c,2,12,22,92,,,,,1,0,1,0,,,,,3,10,46,4,,,,,,,,,,,,,,,,,,,,,1.428,2.269,618.611837199991,None,,,,,,,,,,,,,,,,,,,,619.1532762000134,619.6570200999995,0.5070171100378502,1.0074225100397598,619.6401403999917,619.7569201000006,619.6401403999917,619.7569201000006,619.7401944000012,None,m,0,1.1354463000025135,619.7401944000012,None,,,,,,,pd,2022_Apr_14_1406,training+cueing,2021.1.4,59.64042786322572,
Friend.png,Friend,Friend,c,2,12,22,92,,,,,1,0,1,0,,,,,3,11,47,10,,,,,,,,,,,,,,,,,,,,,1.757,2.333,621.0146762000077,None,,,,,,,,,,,,,,,,,,,,621.5677953999984,622.0753562000027,0.5138770800258499,1.0141844800091349,622.0586668999895,622.1754116999946,622.0586668999895,622.1754116999946,622.1586996000115,None,m,0,0.9089899000246078,622.1586996000115,None,,,,,,,pd,2022_Apr_14_1406,training+cueing,2021.1.4,59.64042786322572,
Friend.png,Stranger,Friend,m,3.2,19,29,99,,,,,1,0,1,0,,,,,4,0,48,5,,,,,,,,,,,,,,,,,,,,,1.649,2.447,623.2560801000072,None,,,,,,,,,,,,,,,,,,,,623.738611599998,624.2436631999881,0.5101572100247722,1.0102821100444999,624.2269573999947,624.3436917000072,624.2269573999947,624.3436917000072,624.3269595999882,None,m,1,0.9646332999982405,624.3269595999882,None,,,,,,,pd,2022_Apr_14_1406,training+cueing,2021.1.4,59.64042786322572,
Friend.png,Friend,Friend,c,2,12,22,92,,,,,1,0,1,0,,,,,4,1,49,10,,,,,,,,,,,,,,,,,,,,,1.408,1.278,625.417240099996,None,,,,,,,,,,,,,,,,,,,,625.9590911000123,626.4617792999925,0.5062918099865783,1.0066042100079358,626.4450642999873,626.5618282999931,626.4450642999873,626.5618282999931,626.5451152000023,None,c,1,0.7945185000135098,626.5451152000023,None,,,,,,,pd,2022_Apr_14_1406,training+cueing,2021.1.4,59.64042786322572,
Stranger.png,You,Stranger,m,1.3,15,25,95,,,,,1,0,1,0,,,,,4,2,50,6,,,,,,,,,,,,,,,,,,,,,1.492,1.83,627.4685330999928,None,,,,,,,,,,,,,,,,,,,,628.0084294999979,628.5132529999973,0.5083779100095853,1.0088738100021146,628.4965246000065,628.5966233000072,628.4965246000065,628.5966233000072,628.5966233000072,None,c,0,0.9350907999905758,628.5966233000072,None,,,,,,,pd,2022_Apr_14_1406,training+cueing,2021.1.4,59.64042786322572,
Self.png,You,Self ,c,1,11,21,91,,,,,1,0,1,0,,,,,4,3,51,9,,,,,,,,,,,,,,,,,,,,,1.684,1.848,629.6541844000021,None,,,,,,,,,,,,,,,,,,,,630.1910039000068,630.6981216000131,0.5138568099937402,1.014174109994201,630.6814630000008,630.781513000009,630.6814630000008,630.781513000009,630.781513000009,None,c,1,0.9581019000033848,630.781513000009,None,,,,,,,pd,2022_Apr_14_1406,training+cueing,2021.1.4,59.64042786322572,
Friend.png,Friend,Friend,c,2,12,22,92,,,,,1,0,1,0,,,,,4,4,52,4,,,,,,,,,,,,,,,,,,,,,1.684,1.407,631.8713144000067,None,,,,,,,,,,,,,,,,,,,,632.4100553000026,632.9164568999986,0.5103116100362968,1.0105852100241464,632.8997646999924,633.0164825999964,632.8997646999924,633.0164825999964,632.9997973000136,None,c,1,0.980163200001698,632.9997973000136,None,,,,,,,pd,2022_Apr_14_1406,training+cueing,2021.1.4,59.64042786322572,
Self.png,You,Self ,c,1,11,21,91,,,,,1,0,1,0,,,,,4,5,53,0,,,,,,,,,,,,,,,,,,,,,1.669,2.349,634.1098522000102,None,,,,,,,,,,,,,,,,,,,,634.6467383999989,635.1514970999997,0.5091296099999454,1.0094653099949937,635.134751199992,635.2348953999899,635.134751199992,635.2348953999899,635.2348953999899,None,m,0,0.712686200015014,635.2348953999899,None,,,,,,,pd,2022_Apr_14_1406,training+cueing,2021.1.4,59.64042786322572,
Self.png,Friend,Self ,m,2.1,16,26,96,,,,,1,0,1,0,,,,,4,6,54,1,,,,,,,,,,,,,,,,,,,,,1.452,1.355,636.0751199000078,None,,,,,,,,,,,,,,,,,,,,636.616171799993,637.1194522000005,0.5062021100020502,1.0064943099860102,637.1027957000042,637.2195984000136,637.1027957000042,637.2195984000136,637.2028426999896,None,c,0,1.0007616999791935,637.2028426999896,None,,,,,,,pd,2022_Apr_14_1406,training+cueing,2021.1.4,59.64042786322572,
Self.png,Stranger,Self ,m,3.1,18,28,98,,,,,1,0,1,0,,,,,4,7,55,2,,,,,,,,,,,,,,,,,,,,,1.476,1.275,638.3267053000018,None,,,,,,,,,,,,,,,,,,,,638.8669392999873,639.3711013000138,0.5067030099744443,1.0069828099804,639.3544416999939,639.4711235000141,639.3544416999939,639.4711235000141,639.4544622000103,None,m,1,1.1012188000022434,639.4544622000103,None,,,,,,,pd,2022_Apr_14_1406,training+cueing,2021.1.4,59.64042786322572,
Friend.png,You,Friend,m,1.2,14,24,94,,,,,1,0,1,0,,,,,4,8,56,3,,,,,,,,,,,,,,,,,,,,,1.457,1.715,640.6782783999952,None,,,,,,,,,,,,,,,,,,,,641.2236304000107,641.722800100004,0.5154598099761643,1.0157778099819552,641.722800100004,641.8228598999995,641.722800100004,641.8228598999995,641.8228598999995,None,m,1,1.0847517999936827,641.8228598999995,None,,,,,,,pd,2022_Apr_14_1406,training+cueing,2021.1.4,59.64042786322572,
Stranger.png,Stranger,Stranger,c,3,13,23,93,,,,,1,0,1,0,,,,,4,9,57,8,,,,,,,,,,,,,,,,,,,,,1.6,2.183,643.0299099999975,None,,,,,,,,,,,,,,,,,,,,643.5705608000135,644.0745588000136,0.5076348100265022,1.0079812100157142,644.057813300009,644.1745372000005,644.057813300009,644.1745372000005,644.1578540000046,None,m,0,0.9097179000091273,644.1578540000046,None,,,,,,,pd,2022_Apr_14_1406,training+cueing,2021.1.4,59.64042786322572,
Stranger.png,Stranger,Stranger,c,3,13,23,93,,,,,1,0,1,0,,,,,4,10,58,11,,,,,,,,,,,,,,,,,,,,,1.422,2.154,645.1975795999897,None,,,,,,,,,,,,,,,,,,,,645.7328717000055,646.2427271999914,0.500744439981645,1.0010584399860818,646.226066999996,646.3428008000046,646.226066999996,646.3428008000046,646.3428008000046,None,c,1,0.7887726000044495,646.3428008000046,None,,,,,,,pd,2022_Apr_14_1406,training+cueing,2021.1.4,59.64042786322572,
Stranger.png,Friend,Stranger,m,2.3,17,27,97,,,,,1,0,1,0,,,,,4,11,59,7,,,,,,,,,,,,,,,,,,,,,1.699,2.229,647.2659211999999,None,,,,,,,,,,,,,,,,,,,,647.8074622000131,648.3109014000074,0.5064267099951394,1.0067161100159865,648.2942428999959,648.4109390000085,648.2942428999959,648.4109390000085,648.3942954999948,None,m,1,1.1372496999974828,648.3942954999948,None,,,,,,,pd,2022_Apr_14_1406,training+cueing,2021.1.4,59.64042786322572,
Self.png,Stranger,Self ,m,3.1,18,28,98,,,,,1,0,1,0,,,,,5,0,60,2,,,,,,,,,,,,,,,,,,,,,1.793,1.464,649.6677427000104,None,,,,,,,,,,,,,,,,,,,,650.2090156999911,650.7127875000151,0.50561010997626,1.0059306099719834,650.695939000012,650.8127015000064,650.695939000012,650.8127015000064,650.7959737999918,None,m,1,1.551718600007007,650.7959737999918,None,,,,,,,pd,2022_Apr_14_1406,training+cueing,2021.1.4,59.64042786322572,
Friend.png,Stranger,Friend,m,3.2,19,29,99,,,,,1,0,1,0,,,,,5,1,61,5,,,,,,,,,,,,,,,,,,,,,1.713,1.207,652.470436699994,None,,,,,,,,,,,,,,,,,,,,653.0087205000018,653.5146630999952,0.5116539100417867,1.0119503100286238,653.4979980999924,653.6146971999988,653.4979980999924,653.6146971999988,653.5980161999905,None,m,1,1.197722499986412,653.5980161999905,None,,,,,,,pd,2022_Apr_14_1406,training+cueing,2021.1.4,59.64042786322572,
Friend.png,Friend,Friend,c,2,12,22,92,,,,,1,0,1,0,,,,,5,2,62,10,,,,,,,,,,,,,,,,,,,,,1.494,1.869,654.9210835000122,None,,,,,,,,,,,,,,,,,,,,655.4780047999957,655.9831142999901,0.5106391799927223,1.010975179990055,655.9664282000012,656.0831704999873,655.9664282000012,656.0831704999873,656.066502799993,None,c,1,0.5370782999962103,656.066502799993,None,,,,,,,pd,2022_Apr_14_1406,training+cueing,2021.1.4,59.64042786322572,
Stranger.png,Friend,Stranger,m,2.3,17,27,97,,,,,1,0,1,0,,,,,5,3,63,7,,,,,,,,,,,,,,,,,,,,,1.799,1.794,656.7398312000005,None,,,,,,,,,,,,,,,,,,,,657.2744469999889,657.7843757000082,0.5001985100097954,1.000489110010676,657.7510601999966,657.8510971999931,657.7510601999966,657.8510971999931,657.8510971999931,None,m,1,0.9125401000201236,657.8510971999931,None,,,,,,,pd,2022_Apr_14_1406,training+cueing,2021.1.4,59.64042786322572,
Stranger.png,Stranger,Stranger,c,3,13,23,93,,,,,1,0,1,0,,,,,5,4,64,11,,,,,,,,,,,,,,,,,,,,,1.771,1.83,658.8926273000106,None,,,,,,,,,,,,,,,,,,,,659.434840899994,659.9359882999997,0.5016594100161456,1.001905409997562,659.919338199994,660.0360401999933,659.919338199994,660.0360401999933,660.0360401999933,None,m,0,0.9834863000141922,660.0360401999933,None,,,,,,,pd,2022_Apr_14_1406,training+cueing,2021.1.4,59.64042786322572,
Stranger.png,Stranger,Stranger,c,3,13,23,93,,,,,1,0,1,0,,,,,5,5,65,8,,,,,,,,,,,,,,,,,,,,,1.454,1.455,661.1432914000034,None,,,,,,,,,,,,,,,,,,,,661.6811997000041,662.1875830000063,0.5125669100088999,1.0128797100041993,662.1709367000003,662.2876423999987,662.1709367000003,662.2876423999987,662.2709640000103,None,c,1,0.6045718000095803,662.2709640000103,None,,,,,,,pd,2022_Apr_14_1406,training+cueing,2021.1.4,59.64042786322572,
Self.png,You,Self ,c,1,11,21,91,,,,,1,0,1,0,,,,,5,6,66,9,,,,,,,,,,,,,,,,,,,,,1.754,2.198,663.0110605000082,None,,,,,,,,,,,,,,,,,,,,663.5506757999974,664.0556138999964,0.5076235099986661,1.0085201099864207,664.0389240000077,664.1395252999937,664.0389240000077,664.1395252999937,664.1395252999937,None,c,1,0.8960426000121515,664.1395252999937,None,,,,,,,pd,2022_Apr_14_1406,training+cueing,2021.1.4,59.64042786322572,
Friend.png,You,Friend,m,1.2,14,24,94,,,,,1,0,1,0,,,,,5,7,67,3,,,,,,,,,,,,,,,,,,,,,1.524,2.183,665.1622990000033,None,,,,,,,,,,,,,,,,,,,,665.7013650000008,666.2071736999933,0.5112470099702477,1.0115057099901605,666.1905209999968,666.2905501999921,666.1905209999968,666.2905501999921,666.2905501999921,None,m,1,0.8733599999977741,666.2905501999921,None,,,,,,,pd,2022_Apr_14_1406,training+cueing,2021.1.4,59.64042786322572,
Stranger.png,You,Stranger,m,1.3,15,25,95,,,,,1,0,1,0,,,,,5,8,68,6,,,,,,,,,,,,,,,,,,,,,1.535,1.913,667.2981810000056,None,,,,,,,,,,,,,,,,,,,,667.8345735999901,668.3420577999932,0.513621609978145,1.0139110099698883,668.3254073000135,668.4254426999978,668.3254073000135,668.4254426999978,668.4254426999978,None,m,1,0.706403100019088,668.4254426999978,None,,,,,,,pd,2022_Apr_14_1406,training+cueing,2021.1.4,59.64042786322572,
Self.png,You,Self ,c,1,11,21,91,,,,,1,0,1,0,,,,,5,9,69,0,,,,,,,,,,,,,,,,,,,,,1.726,1.36,669.2659678000055,None,,,,,,,,,,,,,,,,,,,,669.8042333999911,670.3103276000038,0.5097427100408822,1.011967310012551,670.2916505999892,670.3936235000001,670.2916505999892,670.3936235000001,670.3936235000001,None,m,0,1.105958300002385,670.3936235000001,None,,,,,,,pd,2022_Apr_14_1406,training+cueing,2021.1.4,59.64042786322572,
Friend.png,Friend,Friend,c,2,12,22,92,,,,,1,0,1,0,,,,,5,10,70,4,,,,,,,,,,,,,,,,,,,,,1.72,2.261,671.6346169999888,None,,,,,,,,,,,,,,,,,,,,672.1749525999912,672.6785361000075,0.5067700099898502,1.007313609996345,672.6618727999885,672.7785726000002,672.6618727999885,672.7785726000002,672.7618961999979,None,c,1,1.0097412999894004,672.7618961999979,None,,,,,,,pd,2022_Apr_14_1406,training+cueing,2021.1.4,59.64042786322572,
Self.png,Friend,Self ,m,2.1,16,26,96,,,,,1,0,1,0,,,,,5,11,71,1,,,,,,,,,,,,,,,,,,,,,1.416,2.212,673.9021920999949,None,,,,,,,,,,,,,,,,,,,,674.4393331000028,674.9468151999899,0.5123326100292616,1.0126556100149173,674.9301272999874,675.0468942999869,674.9301272999874,675.0468942999869,675.0302041999967,None,None,0,,675.0302041999967,None,,,,,,,pd,2022_Apr_14_1406,training+cueing,2021.1.4,59.64042786322572,
Stranger.png,Stranger,Stranger,c,3,13,23,93,,,,,1,0,1,0,,,,,6,0,72,8,,,,,,,,,,,,,,,,,,,,,1.559,1.281,676.5533858999988,None,,,,,,,,,,,,,,,,,,,,677.0948536000069,677.5987277999957,0.5073580099851824,1.0076475099776872,677.5820750999992,677.6987795999885,677.5820750999992,677.6987795999885,677.6820859,None,None,0,,677.6820859,None,,,,,,,pd,2022_Apr_14_1406,training+cueing,2021.1.4,59.64042786322572,
Friend.png,Friend,Friend,c,2,12,22,92,,,,,1,0,1,0,,,,,6,1,73,4,,,,,,,,,,,,,,,,,,,,,1.487,1.448,679.354230699988,None,,,,,,,,,,,,,,,,,,,,679.8966709000088,680.4009522000124,0.5076956099946983,1.00797980997595,680.3841069000046,680.5007895000017,680.3841069000046,680.5007895000017,680.4841620999941,None,c,1,0.8553645999927539,680.4841620999941,None,,,,,,,pd,2022_Apr_14_1406,training+cueing,2021.1.4,59.64042786322572,
Friend.png,Friend,Friend,c,2,12,22,92,,,,,1,0,1,0,,,,,6,2,74,10,,,,,,,,,,,,,,,,,,,,,1.412,2.315,681.4740034999995,None,,,,,,,,,,,,,,,,,,,,682.0103575000103,682.5189710999985,0.5149032099870965,1.0151796099671628,682.5022881000041,682.6190236999973,682.5022881000041,682.6190236999973,682.6023401999992,None,c,1,0.6411513000202831,682.6023401999992,None,,,,,,,pd,2022_Apr_14_1406,training+cueing,2021.1.4,59.64042786322572,
Friend.png,Stranger,Friend,m,3.2,19,29,99,,,,,1,0,1,0,,,,,6,3,75,5,,,,,,,,,,,,,,,,,,,,,1.46,1.622,683.3756076000136,None,,,,,,,,,,,,,,,,,,,,683.9173359999986,684.4204866000073,0.5059077100013383,1.0061795100045856,684.4037014999922,684.5203911000135,684.4037014999922,684.5203911000135,684.5037266999861,None,m,1,0.8197734999994282,684.5037266999861,None,,,,,,,pd,2022_Apr_14_1406,training+cueing,2021.1.4,59.64042786322572,
Self.png,Friend,Self ,m,2.1,16,26,96,,,,,1,0,1,0,,,,,6,4,76,1,,,,,,,,,,,,,,,,,,,,,1.486,1.622,685.4605187999987,None,,,,,,,,,,,,,,,,,,,,685.9994919999881,686.505198200015,0.5083755099913105,1.0086787099717185,686.4885321000038,686.6052289999934,686.4885321000038,686.6052289999934,686.5885831999913,None,m,1,0.9428919999918435,686.5885831999913,None,,,,,,,pd,2022_Apr_14_1406,training+cueing,2021.1.4,59.64042786322572,
Stranger.png,Stranger,Stranger,c,3,13,23,93,,,,,1,0,1,0,,,,,6,5,77,11,,,,,,,,,,,,,,,,,,,,,1.57,2.389,687.6625151999906,None,,,,,,,,,,,,,,,,,,,,688.2051704999903,688.7068099999888,0.5044170100009069,1.0046954099962022,688.6901130000042,688.8068466000113,688.6901130000042,688.8068466000113,688.7901366000151,None,c,1,0.7574897000158671,688.7901366000151,None,,,,,,,pd,2022_Apr_14_1406,training+cueing,2021.1.4,59.64042786322572,
Self.png,You,Self ,c,1,11,21,91,,,,,1,0,1,0,,,,,6,6,78,9,,,,,,,,,,,,,,,,,,,,,1.52,2.166,689.6807936999976,None,,,,,,,,,,,,,,,,,,,,690.2206090999971,690.7249269999884,0.5083141099603381,1.0085593099647667,690.7082916000072,690.8083203999995,690.7082916000072,690.8083203999995,690.8083203999995,None,c,1,0.7874350000056438,690.8083203999995,None,,,,,,,pd,2022_Apr_14_1406,training+cueing,2021.1.4,59.64042786322572,
Friend.png,You,Friend,m,1.2,14,24,94,,,,,1,0,1,0,,,,,6,7,79,3,,,,,,,,,,,,,,,,,,,,,1.769,1.59,691.7353797000105,None,,,,,,,,,,,,,,,,,,,,692.2693650000001,692.7763879000122,0.5116175099974498,1.0120305099990219,692.7597274000145,692.859798400008,692.7597274000145,692.859798400008,692.859798400008,None,m,1,0.6077055000059772,692.859798400008,None,,,,,,,pd,2022_Apr_14_1406,training+cueing,2021.1.4,59.64042786322572,
Self.png,Stranger,Self ,m,3.1,18,28,98,,,,,1,0,1,0,,,,,6,8,80,2,,,,,,,,,,,,,,,,,,,,,1.548,1.248,693.5999740999978,None,,,,,,,,,,,,,,,,,,,,694.1417537999951,694.6444267000043,0.505044010002166,1.00533181001083,694.6277265999961,694.7444999000145,694.6277265999961,694.7444999000145,694.7277641999972,None,None,0,,694.7277641999972,None,,,,,,,pd,2022_Apr_14_1406,training+cueing,2021.1.4,59.64042786322572,
Stranger.png,Friend,Stranger,m,2.3,17,27,97,,,,,1,0,1,0,,,,,6,9,81,7,,,,,,,,,,,,,,,,,,,,,1.744,1.877,696.3832798999938,None,,,,,,,,,,,,,,,,,,,,696.9227488000033,697.429762300002,0.5128208099922631,1.0131574099941645,697.413038499988,697.5298246999882,697.413038499988,697.5298246999882,697.5131093000091,None,m,1,1.6025211999949533,697.5131093000091,None,,,,,,,pd,2022_Apr_14_1406,training+cueing,2021.1.4,59.64042786322572,
Stranger.png,You,Stranger,m,1.3,15,25,95,,,,,1,0,1,0,,,,,6,10,82,6,,,,,,,,,,,,,,,,,,,,,1.637,2.313,699.2383947000053,None,,,,,,,,,,,,,,,,,,,,699.7758073999867,700.2818220000045,0.5090265100297984,1.0093349100206979,700.2651210999902,700.3651877000084,700.2651210999902,700.3651877000084,700.3651877000084,None,None,0,,700.3651877000084,None,,,,,,,pd,2022_Apr_14_1406,training+cueing,2021.1.4,59.64042786322572,
Self.png,You,Self ,c,1,11,21,91,,,,,1,0,1,0,,,,,6,11,83,0,,,,,,,,,,,,,,,,,,,,,1.472,1.341,702.1224581000133,None,,,,,,,,,,,,,,,,,,,,702.6603341000009,703.1672641000041,0.5131087100016885,1.0134221100015566,703.1505781999876,703.2506200999924,703.1505781999876,703.2506200999924,703.2506200999924,None,c,1,0.6488890000036918,703.2506200999924,None,,,,,,,pd,2022_Apr_14_1406,training+cueing,2021.1.4,59.64042786322572,
Self.png,You,Self ,c,1,11,21,91,,,,,1,0,1,0,,,,,7,0,84,0,,,,,,,,,,,,,,,,,,,,,1.678,2.191,704.0241303999937,None,,,,,,,,,,,,,,,,,,,,704.5790169999964,705.0852985000092,0.5117893800197635,1.012665679998463,705.0686566000077,705.1686863000068,705.0686566000077,705.1686863000068,705.1686863000068,None,c,1,0.8108774999855086,705.1686863000068,None,,,,,,,pd,2022_Apr_14_1406,training+cueing,2021.1.4,59.64042786322572,
Friend.png,You,Friend,m,1.2,14,24,94,,,,,1,0,1,0,,,,,7,1,85,3,,,,,,,,,,,,,,,,,,,,,1.644,1.884,706.1103486000065,None,,,,,,,,,,,,,,,,,,,,706.6496034999873,707.1534941000136,0.5084952100005466,1.0087442100048065,707.136814100013,707.2368343999988,707.136814100013,707.2368343999988,707.2368343999988,None,m,1,0.758701699989615,707.2368343999988,None,,,,,,,pd,2022_Apr_14_1406,training+cueing,2021.1.4,59.64042786322572,
Friend.png,Friend,Friend,c,2,12,22,92,,,,,1,0,1,0,,,,,7,2,86,4,,,,,,,,,,,,,,,,,,,,,1.515,1.965,708.1265626000095,None,,,,,,,,,,,,,,,,,,,,708.666638700015,709.1716163999954,0.5100519100087695,1.0104432099906262,709.1549580000137,709.2716435000038,709.1549580000137,709.2716435000038,709.2549132999993,None,c,1,1.3325525999825913,709.2549132999993,None,,,,,,,pd,2022_Apr_14_1406,training+cueing,2021.1.4,59.64042786322572,
