Image,Name,Face,CorrAns,Match,Face_onset,CResponse_onset,IResponse_onset,Match.thisRepN,Match.thisTrialN,Match.thisN,Match.thisIndex,Blocks.thisRepN,Blocks.thisTrialN,Blocks.thisN,Blocks.thisIndex,trials.thisRepN,trials.thisTrialN,trials.thisN,trials.thisIndex,trials_2.thisRepN,trials_2.thisTrialN,trials_2.thisN,trials_2.thisIndex,text.started,text.stopped,p1.started,p1.stopped,MatchInstructions.started,MatchInstructions.stopped,Name1.started,Name1.stopped,Face_Relevance.started,Face_Relevance.stopped,MismatchInstructions.started,MismatchInstructions.stopped,Rest_trainingInstruct.started,Rest_trainingInstruct.stopped,next8.keys,next8.rt,next8.started,next8.stopped,Ready.started,Ready.stopped,delay_one_picked,delay_two_picked,blank0.started,blank0.stopped,FixationCross1.started,FixationCross1.stopped,Name3.started,Name3.stopped,Face_Relevance3.started,Face_Relevance3.stopped,responseTime.started,responseTime.stopped,resp.keys,resp.corr,resp.started,resp.stopped,Accuracy.started,Accuracy.stopped,resp.rt,questions.started,questions.stopped,p2.started,p2.stopped,FixationCross3.started,FixationCross3.stopped,port_Face_onset.started,port_Face_onset.stopped,Name4.started,Name4.stopped,Face_Relevance4.started,Face_Relevance4.stopped,responseTime2.started,responseTime2.stopped,Response.keys,Response.corr,Response.rt,Response.started,Response.stopped,p3.started,p3.stopped,Finish.started,Finish.stopped,gender,age,participant,date,expName,psychopyVersion,frameRate,
Self.png,You,,,,,,,0,0,0,0,,,,,,,,,,,,,19.884135199943557,None,0.004575969651341438,0.5218266695737839,28.339544099988416,None,46.220439499942586,None,46.220439499942586,None,,,,,,,,,,,,,,,,,,,,,,,,,,,,,,,,,,,,,,,,,,,,,,,,,,,,,M,,pE,2022_Mar_07_1253,training+cueing,2021.1.4,60.00063599761446,
Stranger.png,Stranger,,,,,,,0,1,1,2,,,,,,,,,,,,,,,,,,,66.1238655000925,None,66.1238655000925,None,,,,,,,,,,,,,,,,,,,,,,,,,,,,,,,,,,,,,,,,,,,,,,,,,,,,,M,,pE,2022_Mar_07_1253,training+cueing,2021.1.4,60.00063599761446,
Friend.png,Friend,,,,,,,0,2,2,1,,,,,,,,,,,,,,,,,,,86.149598200107,None,86.149598200107,None,,,,,,,,,,,,,,,,,,,,,,,,,,,,,,,,,,,,,,,,,,,,,,,,,,,,,M,,pE,2022_Mar_07_1253,training+cueing,2021.1.4,60.00063599761446,
Self.png,Stranger,Self ,m,3.1,18,28,98,,,,,0,0,0,0,0,0,0,2,,,,,,,,,,,,,,,106.08203839999624,None,154.1841552001424,None,space,0.3995260000228882,2.0079769296571612,None,156.58584610000253,None,1.492,1.98,159.61376400012523,None,160.2389708000701,160.73885600012727,160.73885600012727,160.838816100033,160.73885600012727,160.838816100033,160.838816100033,None,None,0,160.838816100033,None,162.3389822000172,None,,,,,,,,,,,,,,,,,,,,,,,,,M,,pE,2022_Mar_07_1253,training+cueing,2021.1.4,60.00063599761446,
Stranger.png,Stranger,Stranger,c,3,13,23,93,,,,,0,0,0,0,0,1,1,8,,,,,,,,,,,,,,,,,,,,,,,,,1.683,2.356,162.74021479999647,None,163.2713403000962,163.77427410008386,163.75773259997368,163.87431699992158,163.75773259997368,163.87431699992158,163.85766800004058,None,None,0,163.85766800004058,None,165.5423737000674,None,,,,,,,,,,,,,,,,,,,,,,,,,M,,pE,2022_Mar_07_1253,training+cueing,2021.1.4,60.00063599761446,
Stranger.png,Stranger,Stranger,c,3,13,23,93,,,,,0,0,0,0,0,2,2,11,,,,,,,,,,,,,,,,,,,,,,,,,1.541,1.406,165.94254870014265,None,166.472534700064,166.9766677999869,166.96009290008806,167.0766998999752,166.96009290008806,167.0766998999752,167.05996440001763,None,m,0,167.05996440001763,None,168.14312210003845,None,1.0604685998987406,,,,,,,,,,,,,,,,,,,,,,,,M,,pE,2022_Mar_07_1253,training+cueing,2021.1.4,60.00063599761446,
Friend.png,Friend,Friend,c,2,12,22,92,,,,,0,0,0,0,0,3,3,4,,,,,,,,,,,,,,,,,,,,,,,,,1.455,2.187,168.54469070001505,None,169.08878130000085,169.59522249992006,169.57864500000142,169.69525719992816,169.57864500000142,169.69525719992816,169.67856090003625,None,None,0,169.67856090003625,None,171.14644020004198,None,,,,,,,,,,,,,,,,,,,,,,,,,M,,pE,2022_Mar_07_1253,training+cueing,2021.1.4,60.00063599761446,
Friend.png,You,Friend,m,1.2,14,24,94,,,,,0,0,0,0,0,4,4,3,,,,,,,,,,,,,,,,,,,,,,,,,1.651,1.583,171.54665179993026,None,172.0791593999602,172.5806982999202,172.5641904999502,172.66411900008097,172.5641904999502,172.66411900008097,172.66411900008097,None,c,0,172.66411900008097,None,173.98184820008464,None,1.2961999999824911,,,,,,,,,,,,,,,,,,,,,,,,M,,pE,2022_Mar_07_1253,training+cueing,2021.1.4,60.00063599761446,
Self.png,You,Self ,c,1,11,21,91,,,,,0,0,0,0,0,5,5,9,,,,,,,,,,,,,,,,,,,,,,,,,1.422,1.569,174.38202070002444,None,174.91206549992785,175.41615599999204,175.3996018001344,175.49952169996686,175.3996018001344,175.49952169996686,175.49952169996686,None,c,1,175.49952169996686,None,176.41600730014034,None,0.8928094001021236,,,,,,,,,,,,,,,,,,,,,,,,M,,pE,2022_Mar_07_1253,training+cueing,2021.1.4,60.00063599761446,
Friend.png,Stranger,Friend,m,3.2,19,29,99,,,,,0,0,0,0,0,6,6,5,,,,,,,,,,,,,,,,,,,,,,,,,1.512,2.45,176.81735639995895,None,177.35855749994516,177.86793350009248,177.85138000012375,177.9680381999351,177.85138000012375,177.9680381999351,177.95133730000816,None,m,1,177.95133730000816,None,178.86894339998253,None,0.873195799998939,,,,,,,,,,,,,,,,,,,,,,,,M,,pE,2022_Mar_07_1253,training+cueing,2021.1.4,60.00063599761446,
Stranger.png,You,Stranger,m,1.3,15,25,95,,,,,0,0,0,0,0,7,7,6,,,,,,,,,,,,,,,,,,,,,,,,,1.795,1.789,179.26916819997132,None,179.80518950009719,180.31972760008648,180.30315860011615,180.4031251000706,180.30315860011615,180.4031251000706,180.4031251000706,None,c,0,180.4031251000706,None,181.47147629992105,None,1.045178199885413,,,,,,,,,,,,,,,,,,,,,,,,M,,pE,2022_Mar_07_1253,training+cueing,2021.1.4,60.00063599761446,
Stranger.png,Friend,Stranger,m,2.3,17,27,97,,,,,0,0,0,0,0,8,8,7,,,,,,,,,,,,,,,,,,,,,,,,,1.606,2.386,181.87094640010037,None,182.40191500005312,182.90494229993783,182.88837629999034,183.00498500000685,182.88837629999034,183.00498500000685,182.9883135999553,None,m,1,182.9883135999553,None,184.10440300009213,None,1.09997049998492,,,,,,,,,,,,,,,,,,,,,,,,M,,pE,2022_Mar_07_1253,training+cueing,2021.1.4,60.00063599761446,
Self.png,You,Self ,c,1,11,21,91,,,,,0,0,0,0,0,9,9,0,,,,,,,,,,,,,,,,,,,,,,,,,1.451,2.181,184.5061612999998,None,185.03808229998685,185.54016630002297,185.5237102000974,185.6235545000527,185.5237102000974,185.6235545000527,185.6235545000527,None,c,1,185.6235545000527,None,186.72448289999738,None,1.0727229001931846,,,,,,,,,,,,,,,,,,,,,,,,M,,pE,2022_Mar_07_1253,training+cueing,2021.1.4,60.00063599761446,
Self.png,Friend,Self ,m,2.1,16,26,96,,,,,0,0,0,0,0,10,10,1,,,,,,,,,,,,,,,,,,,,,,,,,1.479,2.244,187.12488040002063,None,187.6575059001334,188.15896410006098,188.14221179997548,188.25883039995097,188.14221179997548,188.25883039995097,188.24208880006336,None,c,0,188.24208880006336,None,188.8267970001325,None,0.5661752999294549,,,,,,,,,,,,,,,,,,,,,,,,M,,pE,2022_Mar_07_1253,training+cueing,2021.1.4,60.00063599761446,
Friend.png,Friend,Friend,c,2,12,22,92,,,,,0,0,0,0,0,11,11,10,,,,,,,,,,,,,,,,,,,,,,,,,1.768,1.772,189.22694650013,None,189.76075930008665,190.26039599999785,190.26039599999785,190.36033429997042,190.26039599999785,190.36033429997042,190.36033429997042,None,c,1,190.36033429997042,None,190.96012980001979,None,0.5759909998159856,,,,,,,,,,,,,,,,,,,,,,,,M,,pE,2022_Mar_07_1253,training+cueing,2021.1.4,60.00063599761446,
Friend.png,You,Friend,m,1.2,14,24,94,,,,,0,0,0,0,,,,,0,0,0,3,,,,,,,,,,,,,,,,,,,240.5467829001136,None,1.705,2.464,244.07553740008734,None,,,,,,,,,,,,,,,,191.36133010010235,None,0.01440982986241579,0.5134465298615396,244.6883608000353,245.20018110005185,0.5052951397374272,1.0055712398607284,245.18355790013447,245.28348150011152,245.18355790013447,245.28348150011152,245.28348150011152,None,c,0,1.0287160999141634,245.28348150011152,None,,,,,M,,pE,2022_Mar_07_1253,training+cueing,2021.1.4,60.00063599761446,
Self.png,You,Self ,c,1,11,21,91,,,,,0,0,0,0,,,,,0,1,1,9,,,,,,,,,,,,,,,,,,,,,1.773,1.551,246.4418206999544,None,,,,,,,,,,,,,,,,,,,,246.98110800003633,247.48498519998975,0.5077392898965627,1.0081776899751276,247.46845329995267,247.56836959999055,247.46845329995267,247.56836959999055,247.56836959999055,None,c,1,0.7758598998188972,247.56836959999055,None,,,,,M,,pE,2022_Mar_07_1253,training+cueing,2021.1.4,60.00063599761446,
Stranger.png,You,Stranger,m,1.3,15,25,95,,,,,0,0,0,0,,,,,0,2,2,6,,,,,,,,,,,,,,,,,,,,,1.748,1.721,248.47673350013793,None,,,,,,,,,,,,,,,,,,,,249.01614239998162,249.51976309996098,0.5075279900338501,1.0079919900745153,249.50320619996637,249.6031510999892,249.50320619996637,249.6031510999892,249.6031510999892,None,m,1,0.7410145998001099,249.6031510999892,None,,,,,M,,pE,2022_Mar_07_1253,training+cueing,2021.1.4,60.00063599761446,
Self.png,Friend,Self ,m,2.1,16,26,96,,,,,0,0,0,0,,,,,0,3,3,1,,,,,,,,,,,,,,,,,,,,,1.718,2.456,250.47722190013155,None,,,,,,,,,,,,,,,,,,,,251.0169963000808,251.52125010010786,0.50609559006989,1.0063734902068973,251.5046804000158,251.62128380010836,251.5046804000158,251.62128380010836,251.60458020004444,None,m,1,1.0756204999051988,251.60458020004444,None,,,,,M,,pE,2022_Mar_07_1253,training+cueing,2021.1.4,60.00063599761446,
Friend.png,Friend,Friend,c,2,12,22,92,,,,,0,0,0,0,,,,,0,4,4,10,,,,,,,,,,,,,,,,,,,,,1.543,2.494,252.8116457001306,None,,,,,,,,,,,,,,,,,,,,253.35010750009678,253.856249100063,0.5122706899419427,1.012643889989704,253.83965330012143,253.95625480008312,253.83965330012143,253.95625480008312,253.93953120009974,None,c,1,0.7246773999650031,253.93953120009974,None,,,,,M,,pE,2022_Mar_07_1253,training+cueing,2021.1.4,60.00063599761446,
Self.png,You,Self ,c,1,11,21,91,,,,,0,0,0,0,,,,,0,5,5,0,,,,,,,,,,,,,,,,,,,,,1.758,1.718,254.79669530014507,None,,,,,,,,,,,,,,,,,,,,255.33735150005668,255.8409776999615,0.5075362902134657,1.007864790270105,255.82446780009195,255.9244136000052,255.82446780009195,255.9244136000052,255.9244136000052,None,c,1,0.6437127001117915,255.9244136000052,None,,,,,M,,pE,2022_Mar_07_1253,training+cueing,2021.1.4,60.00063599761446,
Stranger.png,Stranger,Stranger,c,3,13,23,93,,,,,0,0,0,0,,,,,0,6,6,11,,,,,,,,,,,,,,,,,,,,,1.68,2.182,256.69819119991735,None,,,,,,,,,,,,,,,,,,,,257.2387520999182,257.74233589996584,0.506158190080896,1.0064098900184035,257.72583150002174,257.84237810014747,257.72583150002174,257.84237810014747,257.8257780999411,None,c,1,1.206553100142628,257.8257780999411,None,,,,,M,,pE,2022_Mar_07_1253,training+cueing,2021.1.4,60.00063599761446,
Self.png,Stranger,Self ,m,3.1,18,28,98,,,,,0,0,0,0,,,,,0,7,7,2,,,,,,,,,,,,,,,,,,,,,1.593,1.827,259.1665531999897,None,,,,,,,,,,,,,,,,,,,,259.70264860009775,260.21077949996106,0.4997803899459541,1.000066990032792,260.1775805000216,260.277520700125,260.1775805000216,260.277520700125,260.277520700125,None,m,1,0.9466494999360293,260.277520700125,None,,,,,M,,pE,2022_Mar_07_1253,training+cueing,2021.1.4,60.00063599761446,
Friend.png,Stranger,Friend,m,3.2,19,29,99,,,,,0,0,0,0,,,,,0,8,8,5,,,,,,,,,,,,,,,,,,,,,1.479,2.097,261.3509472999722,None,,,,,,,,,,,,,,,,,,,,261.9207027000375,262.4290138001088,0.499616950051859,0.9999207500368357,262.39582219999284,262.49579380010255,262.39582219999284,262.49579380010255,262.49579380010255,None,m,1,1.2565250000916421,262.49579380010255,None,,,,,M,,pE,2022_Mar_07_1253,training+cueing,2021.1.4,60.00063599761446,
Stranger.png,Friend,Stranger,m,2.3,17,27,97,,,,,0,0,0,0,,,,,0,9,9,7,,,,,,,,,,,,,,,,,,,,,1.58,1.479,263.8864909999538,None,,,,,,,,,,,,,,,,,,,,264.42700979998335,264.93090520007536,0.5070651897694916,1.007478489773348,264.91437879996374,265.0309154000133,264.91437879996374,265.0309154000133,265.0142431999557,None,c,0,0.9780095000751317,265.0142431999557,None,,,,,M,,pE,2022_Mar_07_1253,training+cueing,2021.1.4,60.00063599761446,
Stranger.png,Stranger,Stranger,c,3,13,23,93,,,,,0,0,0,0,,,,,0,10,10,8,,,,,,,,,,,,,,,,,,,,,1.757,2.316,266.1215359000489,None,,,,,,,,,,,,,,,,,,,,266.6610465000849,267.1658276000526,0.5099511898588389,1.0103917899541557,267.1492584999651,267.2660612000618,267.1492584999651,267.2660612000618,267.2493434001226,None,m,0,0.8227687000762671,267.2493434001226,None,,,,,M,,pE,2022_Mar_07_1253,training+cueing,2021.1.4,60.00063599761446,
Friend.png,Friend,Friend,c,2,12,22,92,,,,,0,0,0,0,,,,,0,11,11,4,,,,,,,,,,,,,,,,,,,,,1.593,1.651,268.20741969998926,None,,,,,,,,,,,,,,,,,,,,268.7481768000871,269.250618299935,0.5030015902593732,1.003301690099761,269.23410330014303,269.3506841000635,269.23410330014303,269.3506841000635,269.3340305001475,None,c,1,0.9781119998078793,269.3340305001475,None,,,,,M,,pE,2022_Mar_07_1253,training+cueing,2021.1.4,60.00063599761446,
Friend.png,Friend,Friend,c,2,12,22,92,,,,,0,0,0,0,,,,,1,0,12,10,,,,,,,,,,,,,,,,,,,,,1.754,1.863,270.44103590003215,None,,,,,,,,,,,,,,,,,,,,270.978735800134,271.48560949997045,0.5136389897670597,1.0139325899071991,271.46904839994386,271.5856773001142,271.46904839994386,271.5856773001142,271.5689636999741,None,c,1,0.6952460999600589,271.5689636999741,None,,,,,M,,pE,2022_Mar_07_1253,training+cueing,2021.1.4,60.00063599761446,
Friend.png,Stranger,Friend,m,3.2,19,29,99,,,,,0,0,0,0,,,,,1,1,13,5,,,,,,,,,,,,,,,,,,,,,1.718,1.855,272.3928573001176,None,,,,,,,,,,,,,,,,,,,,272.93495170003735,273.4369650001172,0.5059388901572675,1.0064501899760216,273.42040740000084,273.53707620012574,273.42040740000084,273.53707620012574,273.5203154999763,None,m,1,0.95180179993622,273.5203154999763,None,,,,,M,,pE,2022_Mar_07_1253,training+cueing,2021.1.4,60.00063599761446,
Self.png,You,Self ,c,1,11,21,91,,,,,0,0,0,0,,,,,1,2,14,9,,,,,,,,,,,,,,,,,,,,,1.5,1.653,274.5942709001247,None,,,,,,,,,,,,,,,,,,,,275.1419349000789,275.6552836999763,0.5078486900310963,1.0081638898700476,275.6386835000012,275.7386590000242,275.6386835000012,275.7386590000242,275.7386590000242,None,c,1,1.0054697999730706,275.7386590000242,None,,,,,M,,pE,2022_Mar_07_1253,training+cueing,2021.1.4,60.00063599761446,
Stranger.png,Friend,Stranger,m,2.3,17,27,97,,,,,0,0,0,0,,,,,1,3,15,7,,,,,,,,,,,,,,,,,,,,,1.721,1.265,276.8793275000062,None,,,,,,,,,,,,,,,,,,,,277.4200404000003,277.9236034001224,0.5072190898936242,1.007514389930293,277.90704630012624,278.0236319999676,277.90704630012624,278.0236319999676,278.0069504000712,None,m,1,1.2491470000240952,278.0069504000712,None,,,,,M,,pE,2022_Mar_07_1253,training+cueing,2021.1.4,60.00063599761446,
Stranger.png,Stranger,Stranger,c,3,13,23,93,,,,,0,0,0,0,,,,,1,4,16,11,,,,,,,,,,,,,,,,,,,,,1.709,2.095,279.3807602999732,None,,,,,,,,,,,,,,,,,,,,279.9214803001378,280.42556350002997,0.5052800900302827,1.0055971900001168,280.4088533001486,280.52540110005066,280.4088533001486,280.52540110005066,280.5087618001271,None,c,1,1.2753577998373657,280.5087618001271,None,,,,,M,,pE,2022_Mar_07_1253,training+cueing,2021.1.4,60.00063599761446,
Self.png,Stranger,Self ,m,3.1,18,28,98,,,,,0,0,0,0,,,,,1,5,17,2,,,,,,,,,,,,,,,,,,,,,1.561,1.907,281.9162510000169,None,,,,,,,,,,,,,,,,,,,,282.45468239998445,282.9605469000526,0.5119863897562027,1.0123096897732466,282.9439660999924,283.0606108000502,282.9439660999924,283.0606108000502,283.0438681000378,None,m,1,1.3803230999037623,283.0438681000378,None,,,,,M,,pE,2022_Mar_07_1253,training+cueing,2021.1.4,60.00063599761446,
Self.png,Friend,Self ,m,2.1,16,26,96,,,,,0,0,0,0,,,,,1,6,18,1,,,,,,,,,,,,,,,,,,,,,1.744,1.811,284.5512457001023,None,,,,,,,,,,,,,,,,,,,,285.09295379999094,285.59580080001615,0.5060810898430645,1.0063068899326026,285.57926980010234,285.69583550002426,285.57926980010234,285.69583550002426,285.67914850008674,None,m,1,1.145070199854672,285.67914850008674,None,,,,,M,,pE,2022_Mar_07_1253,training+cueing,2021.1.4,60.00063599761446,
Stranger.png,You,Stranger,m,1.3,15,25,95,,,,,0,0,0,0,,,,,1,7,19,6,,,,,,,,,,,,,,,,,,,,,1.674,2.104,286.9532805001363,None,,,,,,,,,,,,,,,,,,,,287.4926170001272,287.99751690006815,0.5087077899370342,1.0090247900225222,287.9809518000111,288.0809037000872,287.9809518000111,288.0809037000872,288.0809037000872,None,m,1,0.8072055999655277,288.0809037000872,None,,,,,M,,pE,2022_Mar_07_1253,training+cueing,2021.1.4,60.00063599761446,
Friend.png,Friend,Friend,c,2,12,22,92,,,,,0,0,0,0,,,,,1,8,20,4,,,,,,,,,,,,,,,,,,,,,1.597,1.252,289.021671500057,None,,,,,,,,,,,,,,,,,,,,289.562898500124,290.0656858999282,0.5066083902493119,1.0068224901333451,290.04918120009825,290.16568770003505,290.04918120009825,290.16568770003505,290.14904669998214,None,c,1,1.1233101999387145,290.14904669998214,None,,,,,M,,pE,2022_Mar_07_1253,training+cueing,2021.1.4,60.00063599761446,
Stranger.png,Stranger,Stranger,c,3,13,23,93,,,,,0,0,0,0,,,,,1,9,21,8,,,,,,,,,,,,,,,,,,,,,1.423,1.26,291.4055556000676,None,,,,,,,,,,,,,,,,,,,,291.9468882000074,292.450729199918,0.5080669899471104,1.0083274899516255,292.4341452999506,292.5507684000768,292.4341452999506,292.5507684000768,292.53405010001734,None,c,1,1.058011599816382,292.53405010001734,None,,,,,M,,pE,2022_Mar_07_1253,training+cueing,2021.1.4,60.00063599761446,
Friend.png,You,Friend,m,1.2,14,24,94,,,,,0,0,0,0,,,,,1,10,22,3,,,,,,,,,,,,,,,,,,,,,1.61,1.44,293.7242004000582,None,,,,,,,,,,,,,,,,,,,,294.2643911000341,294.7690501001198,0.5070285899564624,1.007415289990604,294.75251260004006,294.85243610013276,294.75251260004006,294.85243610013276,294.85243610013276,None,m,1,1.1397935000713915,294.85243610013276,None,,,,,M,,pE,2022_Mar_07_1253,training+cueing,2021.1.4,60.00063599761446,
Self.png,You,Self ,c,1,11,21,91,,,,,0,0,0,0,,,,,1,11,23,0,,,,,,,,,,,,,,,,,,,,,1.443,2.126,296.12775139999576,None,,,,,,,,,,,,,,,,,,,,296.66675550001673,297.17079730005935,0.5084502899553627,1.0087455899920315,297.15422639995813,297.254162899917,297.15422639995813,297.254162899917,297.254162899917,None,c,1,1.057982100173831,297.254162899917,None,,,,,M,,pE,2022_Mar_07_1253,training+cueing,2021.1.4,60.00063599761446,
Stranger.png,Friend,Stranger,m,2.3,17,27,97,,,,,0,0,0,0,,,,,2,0,24,7,,,,,,,,,,,,,,,,,,,,,1.619,1.412,298.4448218999896,None,,,,,,,,,,,,,,,,,,,,298.9847363999579,299.48909349995665,0.5068172900937498,1.0070797901134938,299.4725887000095,299.58913960005157,299.4725887000095,299.58913960005157,299.5724687001202,None,m,1,1.283585400087759,299.5724687001202,None,,,,,M,,pE,2022_Mar_07_1253,training+cueing,2021.1.4,60.00063599761446,
Self.png,You,Self ,c,1,11,21,91,,,,,0,0,0,0,,,,,2,1,25,9,,,,,,,,,,,,,,,,,,,,,1.665,1.91,300.9793922000099,None,,,,,,,,,,,,,,,,,,,,301.52001600014046,302.0243103001267,0.5077342898584902,1.0082228898536414,302.00772290001623,302.1076796001289,302.00772290001623,302.1076796001289,302.1076796001289,None,None,0,,302.1076796001289,None,,,,,M,,pE,2022_Mar_07_1253,training+cueing,2021.1.4,60.00063599761446,
Friend.png,You,Friend,m,1.2,14,24,94,,,,,0,0,0,0,,,,,2,2,26,3,,,,,,,,,,,,,,,,,,,,,1.79,1.79,303.8806620000396,None,,,,,,,,,,,,,,,,,,,,304.42067359993234,304.92638220009394,0.5114338900893927,1.0118282900657505,304.90980889997445,305.00974790006876,304.90980889997445,305.00974790006876,305.00974790006876,None,m,1,0.7903517000377178,305.00974790006876,None,,,,,M,,pE,2022_Mar_07_1253,training+cueing,2021.1.4,60.00063599761446,
Self.png,Stranger,Self ,m,3.1,18,28,98,,,,,0,0,0,0,,,,,2,3,27,2,,,,,,,,,,,,,,,,,,,,,1.796,1.455,305.9333405001089,None,,,,,,,,,,,,,,,,,,,,306.4742362999823,306.9778579000849,0.5055809901095927,1.005918089998886,306.9612998999655,307.0779073999729,306.9612998999655,307.0779073999729,307.061196600087,None,None,0,,307.061196600087,None,,,,,M,,pE,2022_Mar_07_1253,training+cueing,2021.1.4,60.00063599761446,
Friend.png,Stranger,Friend,m,3.2,19,29,99,,,,,0,0,0,0,,,,,2,4,28,5,,,,,,,,,,,,,,,,,,,,,1.759,1.752,308.96649150014855,None,,,,,,,,,,,,,,,,,,,,309.5081960000098,310.0132935999427,0.5107568900566548,1.0110746899154037,309.9967758001294,310.1134427001234,309.9967758001294,310.1134427001234,310.096701500006,None,m,1,0.8073259999509901,310.096701500006,None,,,,,M,,pE,2022_Mar_07_1253,training+cueing,2021.1.4,60.00063599761446,
Stranger.png,Stranger,Stranger,c,3,13,23,93,,,,,0,0,0,0,,,,,2,5,29,11,,,,,,,,,,,,,,,,,,,,,1.404,2.092,311.03685329994187,None,,,,,,,,,,,,,,,,,,,,311.57566160010174,312.08158900006674,0.5117470899131149,1.0119788898155093,312.06502009998076,312.181576800067,312.06502009998076,312.181576800067,312.16488720010966,None,c,1,0.6912191000301391,312.16488720010966,None,,,,,M,,pE,2022_Mar_07_1253,training+cueing,2021.1.4,60.00063599761446,
Stranger.png,You,Stranger,m,1.3,15,25,95,,,,,0,0,0,0,,,,,2,6,30,6,,,,,,,,,,,,,,,,,,,,,1.554,1.949,312.98848480009474,None,,,,,,,,,,,,,,,,,,,,313.52928299992345,314.0331794000231,0.5065759900026023,1.0069080898538232,314.01637240010314,314.1163149001077,314.01637240010314,314.1163149001077,314.1163149001077,None,m,1,0.9797686000820249,314.1163149001077,None,,,,,M,,pE,2022_Mar_07_1253,training+cueing,2021.1.4,60.00063599761446,
Self.png,You,Self ,c,1,11,21,91,,,,,0,0,0,0,,,,,2,7,31,0,,,,,,,,,,,,,,,,,,,,,1.777,1.389,315.22257640003227,None,,,,,,,,,,,,,,,,,,,,315.7605566000566,316.26781699992716,0.5152575899846852,1.0155811901204288,316.2512572000269,316.3512224999722,316.2512572000269,316.3512224999722,316.3512224999722,None,m,0,1.2408847999759018,316.3512224999722,None,,,,,M,,pE,2022_Mar_07_1253,training+cueing,2021.1.4,60.00063599761446,
Self.png,Friend,Self ,m,2.1,16,26,96,,,,,0,0,0,0,,,,,2,8,32,1,,,,,,,,,,,,,,,,,,,,,1.747,2.499,317.72452639997937,None,,,,,,,,,,,,,,,,,,,,318.26570560014807,318.7696895999834,0.5055997900199145,1.0059380901511759,318.75305310008116,318.86974210012704,318.75305310008116,318.86974210012704,318.8529950999655,None,m,1,1.139018699992448,318.8529950999655,None,,,,,M,,pE,2022_Mar_07_1253,training+cueing,2021.1.4,60.00063599761446,
Stranger.png,Stranger,Stranger,c,3,13,23,93,,,,,0,0,0,0,,,,,2,9,33,8,,,,,,,,,,,,,,,,,,,,,1.44,2.237,320.1274061999284,None,,,,,,,,,,,,,,,,,,,,320.6690805000253,321.1714127000887,0.5052556898444891,1.00556078995578,321.15483459993266,321.2715712999925,321.15483459993266,321.2715712999925,321.25493120006286,None,c,1,1.0091476999223232,321.25493120006286,None,,,,,M,,pE,2022_Mar_07_1253,training+cueing,2021.1.4,60.00063599761446,
Friend.png,Friend,Friend,c,2,12,22,92,,,,,0,0,0,0,,,,,2,10,34,10,,,,,,,,,,,,,,,,,,,,,1.617,1.236,322.3956832999829,None,,,,,,,,,,,,,,,,,,,,322.938166399952,323.43968790001236,0.5039550899527967,1.0042377901263535,323.4231678999495,323.5397119000554,323.4231678999495,323.5397119000554,323.523088300135,None,c,1,0.9971222998574376,323.523088300135,None,,,,,M,,pE,2022_Mar_07_1253,training+cueing,2021.1.4,60.00063599761446,
Friend.png,Friend,Friend,c,2,12,22,92,,,,,0,0,0,0,,,,,2,11,35,4,,,,,,,,,,,,,,,,,,,,,1.522,2.203,324.64859599992633,None,,,,,,,,,,,,,,,,,,,,325.18711569998413,325.6912955001462,0.5065209898166358,1.006829589838162,325.67476999992505,325.79138600011356,325.67476999992505,325.79138600011356,325.7747102000285,None,c,1,0.633226600009948,325.7747102000285,None,,,,,M,,pE,2022_Mar_07_1253,training+cueing,2021.1.4,60.00063599761446,
Friend.png,You,Friend,m,1.2,14,24,94,,,,,0,0,0,0,,,,,3,0,36,3,,,,,,,,,,,,,,,,,,,,,1.737,1.567,326.5319163000677,None,,,,,,,,,,,,,,,,,,,,327.07305030012503,327.57604179996997,0.5064393898937851,1.0068009898532182,327.5594524999615,327.659368700115,327.5594524999615,327.659368700115,327.659368700115,None,m,1,0.5886440000031143,327.659368700115,None,,,,,M,,pE,2022_Mar_07_1253,training+cueing,2021.1.4,60.00063599761446,
Self.png,You,Self ,c,1,11,21,91,,,,,0,0,0,0,,,,,3,1,37,9,,,,,,,,,,,,,,,,,,,,,1.606,2.323,328.3826276999898,None,,,,,,,,,,,,,,,,,,,,328.92227590014227,329.4273749999702,0.510718289995566,1.011019289959222,329.4107657999266,329.5107332000043,329.4107657999266,329.5107332000043,329.5107332000043,None,None,0,,329.5107332000043,None,,,,,M,,pE,2022_Mar_07_1253,training+cueing,2021.1.4,60.00063599761446,
Self.png,Friend,Self ,m,2.1,16,26,96,,,,,0,0,0,0,,,,,3,2,38,1,,,,,,,,,,,,,,,,,,,,,1.611,2.428,331.2327583001461,None,,,,,,,,,,,,,,,,,,,,331.775712300092,332.2794272999745,0.5051085900049657,1.0059943899977952,332.26287440001033,332.37947269994766,332.26287440001033,332.37947269994766,332.3627365999855,None,m,1,0.98940149997361,332.3627365999855,None,,,,,M,,pE,2022_Mar_07_1253,training+cueing,2021.1.4,60.00063599761446,
Stranger.png,You,Stranger,m,1.3,15,25,95,,,,,0,0,0,0,,,,,3,3,39,6,,,,,,,,,,,,,,,,,,,,,1.715,1.389,333.4878291999921,None,,,,,,,,,,,,,,,,,,,,334.04282300011255,334.54777500010096,0.5112215199042112,1.0115821198560297,334.5310806001071,334.63106909999624,334.5310806001071,334.63106909999624,334.63106909999624,None,m,1,1.3931171000003815,334.63106909999624,None,,,,,M,,pE,2022_Mar_07_1253,training+cueing,2021.1.4,60.00063599761446,
Self.png,You,Self ,c,1,11,21,91,,,,,0,0,0,0,,,,,3,4,40,0,,,,,,,,,,,,,,,,,,,,,1.793,1.998,336.16294130007736,None,,,,,,,,,,,,,,,,,,,,336.6965686001349,337.19970480003394,0.5052907899953425,1.0055604900699109,337.1830800001044,337.28303100005724,337.1830800001044,337.28303100005724,337.28303100005724,None,c,1,0.9970448999665678,337.28303100005724,None,,,,,M,,pE,2022_Mar_07_1253,training+cueing,2021.1.4,60.00063599761446,
Friend.png,Stranger,Friend,m,3.2,19,29,99,,,,,0,0,0,0,,,,,3,5,41,5,,,,,,,,,,,,,,,,,,,,,1.531,1.236,338.4070917000063,None,,,,,,,,,,,,,,,,,,,,338.95190760004334,339.45137739996426,0.5147478901781142,1.015098090050742,339.45137739996426,339.55131929996423,339.45137739996426,339.55131929996423,339.55131929996423,None,m,1,0.8247801000252366,339.55131929996423,None,,,,,M,,pE,2022_Mar_07_1253,training+cueing,2021.1.4,60.00063599761446,
Self.png,Stranger,Self ,m,3.1,18,28,98,,,,,0,0,0,0,,,,,3,6,42,2,,,,,,,,,,,,,,,,,,,,,1.769,1.739,340.50789100001566,None,,,,,,,,,,,,,,,,,,,,341.04837030009367,341.5527717000805,0.5096274903044105,1.0103727902751416,341.536188099999,341.6529948001262,341.536188099999,341.6529948001262,341.6362554000225,None,m,1,1.12419019988738,341.6362554000225,None,,,,,M,,pE,2022_Mar_07_1253,training+cueing,2021.1.4,60.00063599761446,
Stranger.png,Stranger,Stranger,c,3,13,23,93,,,,,0,0,0,0,,,,,3,7,43,11,,,,,,,,,,,,,,,,,,,,,1.544,1.316,342.8945500999689,None,,,,,,,,,,,,,,,,,,,,343.4342579001095,343.9377828000579,0.5053727901540697,1.0056772900279611,343.92127360007726,344.0378036000766,343.92127360007726,344.0378036000766,344.02118990011513,None,c,1,1.0108883001375943,344.02118990011513,None,,,,,M,,pE,2022_Mar_07_1253,training+cueing,2021.1.4,60.00063599761446,
Friend.png,Friend,Friend,c,2,12,22,92,,,,,0,0,0,0,,,,,3,8,44,10,,,,,,,,,,,,,,,,,,,,,1.697,1.82,345.1614097999409,None,,,,,,,,,,,,,,,,,,,,345.708828400122,346.2227875001263,0.5112690899986774,1.0115744899958372,346.2061999000143,346.3228532001376,346.2061999000143,346.3228532001376,346.30613159993663,None,None,0,,346.30613159993663,None,,,,,M,,pE,2022_Mar_07_1253,training+cueing,2021.1.4,60.00063599761446,
Stranger.png,Friend,Stranger,m,2.3,17,27,97,,,,,0,0,0,0,,,,,3,9,45,7,,,,,,,,,,,,,,,,,,,,,1.425,2.21,348.11280200001784,None,,,,,,,,,,,,,,,,,,,,348.65271569998004,349.15822790004313,0.5105114898178726,1.010811589891091,349.1416937999893,349.2582652999554,349.1416937999893,349.2582652999554,349.24161579995416,None,m,1,0.6704212001059204,349.24161579995416,None,,,,,M,,pE,2022_Mar_07_1253,training+cueing,2021.1.4,60.00063599761446,
Stranger.png,Stranger,Stranger,c,3,13,23,93,,,,,0,0,0,0,,,,,3,10,46,8,,,,,,,,,,,,,,,,,,,,,1.6,1.73,350.0503287001047,None,,,,,,,,,,,,,,,,,,,,350.59044960001484,351.0930063999258,0.5031123899389058,1.0034104899968952,351.0763819999993,351.1930939001031,351.0763819999993,351.1930939001031,351.17628249991685,None,c,1,1.0560175001155585,351.17628249991685,None,,,,,M,,pE,2022_Mar_07_1253,training+cueing,2021.1.4,60.00063599761446,
Friend.png,Friend,Friend,c,2,12,22,92,,,,,0,0,0,0,,,,,3,11,47,4,,,,,,,,,,,,,,,,,,,,,1.562,2.331,352.36844510002993,None,,,,,,,,,,,,,,,,,,,,352.91165719996206,353.4113112001214,0.5002179900184274,1.000444590114057,353.3947479000781,353.51137850014493,353.3947479000781,353.51137850014493,353.51137850014493,None,c,1,0.9446423000190407,353.51137850014493,None,,,,,M,,pE,2022_Mar_07_1253,training+cueing,2021.1.4,60.00063599761446,
Friend.png,Friend,Friend,c,2,12,22,92,,,,,0,0,0,0,,,,,4,0,48,10,,,,,,,,,,,,,,,,,,,,,1.573,2.123,354.58526490000077,None,,,,,,,,,,,,,,,,,,,,355.1237244999502,355.6296016999986,0.5096686901524663,1.0099739900324494,355.6130073000677,355.72968619992025,355.6130073000677,355.72968619992025,355.7129532999825,None,c,1,0.7593986000865698,355.7129532999825,None,,,,,M,,pE,2022_Mar_07_1253,training+cueing,2021.1.4,60.00063599761446,
Stranger.png,Stranger,Stranger,c,3,13,23,93,,,,,0,0,0,0,,,,,4,1,49,11,,,,,,,,,,,,,,,,,,,,,1.454,1.239,356.60437429999,None,,,,,,,,,,,,,,,,,,,,357.14848630013876,357.64775120001286,0.4997774900402874,1.0000480902381241,357.63115160004236,357.7477732000407,357.63115160004236,357.7477732000407,357.7477732000407,None,m,0,0.6282443001400679,357.7477732000407,None,,,,,M,,pE,2022_Mar_07_1253,training+cueing,2021.1.4,60.00063599761446,
Self.png,You,Self ,c,1,11,21,91,,,,,0,0,0,0,,,,,4,2,50,0,,,,,,,,,,,,,,,,,,,,,1.445,1.924,358.5047557000071,None,,,,,,,,,,,,,,,,,,,,359.0469583000522,359.5490856000688,0.5052493901457638,1.0058108901139349,359.5325019999873,359.632430100115,359.5325019999873,359.632430100115,359.632430100115,None,c,1,0.9196532999631017,359.632430100115,None,,,,,M,,pE,2022_Mar_07_1253,training+cueing,2021.1.4,60.00063599761446,
Stranger.png,You,Stranger,m,1.3,15,25,95,,,,,0,0,0,0,,,,,4,3,51,6,,,,,,,,,,,,,,,,,,,,,1.554,1.206,360.6894211000763,None,,,,,,,,,,,,,,,,,,,,361.2277619999368,361.7339725999627,0.5098790901247412,1.010198889998719,361.7173953000456,361.81742989993654,361.7173953000456,361.81742989993654,361.81742989993654,None,m,1,0.8305556001141667,361.81742989993654,None,,,,,M,,pE,2022_Mar_07_1253,training+cueing,2021.1.4,60.00063599761446,
Stranger.png,Stranger,Stranger,c,3,13,23,93,,,,,0,0,0,0,,,,,4,4,52,8,,,,,,,,,,,,,,,,,,,,,1.568,1.482,362.7746747999918,None,,,,,,,,,,,,,,,,,,,,363.3161651000846,363.81881329999305,0.5071343898307532,1.0073950898367912,363.802221900085,363.9188870000653,363.802221900085,363.9188870000653,363.90215170010924,None,m,0,0.8579178999643773,363.90215170010924,None,,,,,M,,pE,2022_Mar_07_1253,training+cueing,2021.1.4,60.00063599761446,
Friend.png,Friend,Friend,c,2,12,22,92,,,,,0,0,0,0,,,,,4,5,53,4,,,,,,,,,,,,,,,,,,,,,1.548,1.491,364.89255550014786,None,,,,,,,,,,,,,,,,,,,,365.4354326000903,365.9370307000354,0.5046348897740245,1.00477688992396,365.92050649994053,366.03730230010115,365.92050649994053,366.03730230010115,366.0203295999672,None,c,1,0.7076891001779586,366.0203295999672,None,,,,,M,,pE,2022_Mar_07_1253,training+cueing,2021.1.4,60.00063599761446,
Friend.png,Stranger,Friend,m,3.2,19,29,99,,,,,0,0,0,0,,,,,4,6,54,5,,,,,,,,,,,,,,,,,,,,,1.654,1.325,366.86368970014155,None,,,,,,,,,,,,,,,,,,,,367.4034090000205,367.9051099999342,0.5021357899531722,1.0025523898657411,367.88850739994086,368.0058121001348,367.88850739994086,368.0058121001348,367.9884733001236,None,m,1,0.9475405998528004,367.9884733001236,None,,,,,M,,pE,2022_Mar_07_1253,training+cueing,2021.1.4,60.00063599761446,
Stranger.png,Friend,Stranger,m,2.3,17,27,97,,,,,0,0,0,0,,,,,4,7,55,7,,,,,,,,,,,,,,,,,,,,,1.499,2.275,369.063020600006,None,,,,,,,,,,,,,,,,,,,,369.6051606000401,370.10667839995585,0.5042450898326933,1.0045019898097962,370.09015020006336,370.2067040000111,370.09015020006336,370.2067040000111,370.1900480000768,None,None,0,,370.1900480000768,None,,,,,M,,pE,2022_Mar_07_1253,training+cueing,2021.1.4,60.00063599761446,
Self.png,Friend,Self ,m,2.1,16,26,96,,,,,0,0,0,0,,,,,4,8,56,1,,,,,,,,,,,,,,,,,,,,,1.432,2.118,371.79553929995745,None,,,,,,,,,,,,,,,,,,,,372.3362243999727,372.84199000010267,0.5096806900110096,1.0099516899790615,372.8254122999497,372.94202760001644,372.8254122999497,372.94202760001644,372.92535759997554,None,None,0,,372.92535759997554,None,,,,,M,,pE,2022_Mar_07_1253,training+cueing,2021.1.4,60.00063599761446,
Self.png,Stranger,Self ,m,3.1,18,28,98,,,,,0,0,0,0,,,,,4,9,57,2,,,,,,,,,,,,,,,,,,,,,1.632,2.051,374.4642428001389,None,,,,,,,,,,,,,,,,,,,,375.00890110014006,375.51059340010397,0.503463190048933,1.0037845899350941,375.4940071001183,375.6108258999884,375.4940071001183,375.6108258999884,375.59395710006356,None,m,1,0.9742296999320388,375.59395710006356,None,,,,,M,,pE,2022_Mar_07_1253,training+cueing,2021.1.4,60.00063599761446,
Friend.png,You,Friend,m,1.2,14,24,94,,,,,0,0,0,0,,,,,4,10,58,3,,,,,,,,,,,,,,,,,,,,,1.671,2.336,376.7046837999951,None,,,,,,,,,,,,,,,,,,,,377.24525930010714,377.74550450011156,0.5014501898549497,1.0017657899297774,377.72898120013997,377.8289046001155,377.72898120013997,377.8289046001155,377.8289046001155,None,m,1,0.8990080999210477,377.8289046001155,None,,,,,M,,pE,2022_Mar_07_1253,training+cueing,2021.1.4,60.00063599761446,
Self.png,You,Self ,c,1,11,21,91,,,,,0,0,0,0,,,,,4,11,59,9,,,,,,,,,,,,,,,,,,,,,1.799,1.707,378.8528879999649,None,,,,,,,,,,,,,,,,,,,,379.39041920006275,379.8970399000682,0.5106987901963294,1.011006390210241,379.88048509997316,379.9804591999855,379.88048509997316,379.9804591999855,379.9804591999855,None,c,1,0.9878213000483811,379.9804591999855,None,,,,,M,,pE,2022_Mar_07_1253,training+cueing,2021.1.4,60.00063599761446,
Self.png,You,Self ,c,1,11,21,91,,,,,0,0,0,0,,,,,5,0,60,9,,,,,,,,,,,,,,,,,,,,,1.591,1.491,381.10862690000795,None,,,,,,,,,,,,,,,,,,,,381.6599046001211,382.16536139999516,0.5119552197866142,1.012406119843945,382.1488207001239,382.2487743999809,382.1488207001239,382.2487743999809,382.2487743999809,None,c,1,0.8632384999655187,382.2487743999809,None,,,,,M,,pE,2022_Mar_07_1253,training+cueing,2021.1.4,60.00063599761446,
Self.png,Friend,Self ,m,2.1,16,26,96,,,,,0,0,0,0,,,,,5,1,61,1,,,,,,,,,,,,,,,,,,,,,1.646,2.381,383.23980320012197,None,,,,,,,,,,,,,,,,,,,,383.7815519000869,384.2836378000211,0.5059169898740947,1.0060560898855329,384.2671485999599,384.3835964000318,384.2671485999599,384.3835964000318,384.366936000064,None,m,1,1.1292071000207216,384.366936000064,None,,,,,M,,pE,2022_Mar_07_1253,training+cueing,2021.1.4,60.00063599761446,
Stranger.png,Stranger,Stranger,c,3,13,23,93,,,,,0,0,0,0,,,,,5,2,62,8,,,,,,,,,,,,,,,,,,,,,1.65,2.263,385.6255741000641,None,,,,,,,,,,,,,,,,,,,,386.16767210001126,386.66862890007906,0.5000327900052071,1.000299490056932,386.6520424000919,386.76868490013294,386.6520424000919,386.76868490013294,386.76868490013294,None,c,1,0.9352732999250293,386.76868490013294,None,,,,,M,,pE,2022_Mar_07_1253,training+cueing,2021.1.4,60.00063599761446,
Friend.png,You,Friend,m,1.2,14,24,94,,,,,0,0,0,0,,,,,5,3,63,3,,,,,,,,,,,,,,,,,,,,,1.475,1.556,387.8258257000707,None,,,,,,,,,,,,,,,,,,,,388.3729660001118,388.88688220013864,0.5116812898777425,1.0120042900089175,388.8703046999872,388.970229400089,388.8703046999872,388.970229400089,388.970229400089,None,None,0,,388.970229400089,None,,,,,M,,pE,2022_Mar_07_1253,training+cueing,2021.1.4,60.00063599761446,
Friend.png,Friend,Friend,c,2,12,22,92,,,,,0,0,0,0,,,,,5,4,64,4,,,,,,,,,,,,,,,,,,,,,1.537,1.305,390.5588112999685,None,,,,,,,,,,,,,,,,,,,,391.1027113001328,391.6062276000157,0.5043329899199307,1.004954989766702,391.58868140005507,391.7056412000675,391.58868140005507,391.7056412000675,391.6889835000038,None,c,1,0.9431014999281615,391.6889835000038,None,,,,,M,,pE,2022_Mar_07_1253,training+cueing,2021.1.4,60.00063599761446,
Self.png,You,Self ,c,1,11,21,91,,,,,0,0,0,0,,,,,5,5,65,0,,,,,,,,,,,,,,,,,,,,,1.418,1.404,392.76295180013403,None,,,,,,,,,,,,,,,,,,,,393.30566429998726,393.8071085999254,0.5044178899843246,1.0047157898079604,393.7905236999504,393.8904969000723,393.7905236999504,393.8904969000723,393.8904969000723,None,c,1,1.109543199883774,393.8904969000723,None,,,,,M,,pE,2022_Mar_07_1253,training+cueing,2021.1.4,60.00063599761446,
Stranger.png,Stranger,Stranger,c,3,13,23,93,,,,,0,0,0,0,,,,,5,6,66,11,,,,,,,,,,,,,,,,,,,,,1.527,2.077,395.13183160009794,None,,,,,,,,,,,,,,,,,,,,395.6741504999809,396.17544579994865,0.5034907900262624,1.0037576898466796,396.1589345000684,396.2755396000575,396.1589345000684,396.2755396000575,396.2588289999403,None,m,0,0.5650536001194268,396.2588289999403,None,,,,,M,,pE,2022_Mar_07_1253,training+cueing,2021.1.4,60.00063599761446,
Stranger.png,You,Stranger,m,1.3,15,25,95,,,,,0,0,0,0,,,,,5,7,67,6,,,,,,,,,,,,,,,,,,,,,1.492,2.428,396.94923750008456,None,,,,,,,,,,,,,,,,,,,,397.4896774000954,397.9934503000695,0.5050000899937004,1.0052921900060028,397.9768932000734,398.07686150004156,397.9768932000734,398.07686150004156,398.07686150004156,None,c,0,0.9871368000749499,398.07686150004156,None,,,,,M,,pE,2022_Mar_07_1253,training+cueing,2021.1.4,60.00063599761446,
Friend.png,Stranger,Friend,m,3.2,19,29,99,,,,,0,0,0,0,,,,,5,8,68,5,,,,,,,,,,,,,,,,,,,,,1.464,2.255,399.20080849993974,None,,,,,,,,,,,,,,,,,,,,399.7551214999985,400.26172069995664,0.513543319888413,1.0138574200682342,400.24517460004427,400.36177620012313,400.24517460004427,400.36177620012313,400.3451251001097,None,None,0,,400.3451251001097,None,,,,,M,,pE,2022_Mar_07_1253,training+cueing,2021.1.4,60.00063599761446,
Self.png,Stranger,Self ,m,3.1,18,28,98,,,,,0,0,0,0,,,,,5,9,69,2,,,,,,,,,,,,,,,,,,,,,1.553,1.706,401.91731330007315,None,,,,,,,,,,,,,,,,,,,,402.45898090000264,402.96367030008696,0.5098038900177926,1.010127890156582,402.947136499919,403.06369159999304,402.947136499919,403.06369159999304,403.0470706000924,None,m,1,1.3608955999370664,403.0470706000924,None,,,,,M,,pE,2022_Mar_07_1253,training+cueing,2021.1.4,60.00063599761446,
Friend.png,Friend,Friend,c,2,12,22,92,,,,,0,0,0,0,,,,,5,10,70,10,,,,,,,,,,,,,,,,,,,,,1.44,2.174,404.53864399995655,None,,,,,,,,,,,,,,,,,,,,405.09139800001867,405.59897299995646,0.5141025197226554,1.01417021965608,405.58252330007963,405.6989601000678,405.58252330007963,405.6989601000678,405.682270700112,None,c,1,0.8536788001656532,405.682270700112,None,,,,,M,,pE,2022_Mar_07_1253,training+cueing,2021.1.4,60.00063599761446,
Stranger.png,Friend,Stranger,m,2.3,17,27,97,,,,,0,0,0,0,,,,,5,11,71,7,,,,,,,,,,,,,,,,,,,,,1.794,1.59,406.6727806001436,None,,,,,,,,,,,,,,,,,,,,407.2119098000694,407.7171684000641,0.511468089884147,1.0117671897169203,407.70056629995815,407.81715100002475,407.70056629995815,407.81715100002475,407.8004964001011,None,m,1,1.3437170998658985,407.8004964001011,None,,,,,M,,pE,2022_Mar_07_1253,training+cueing,2021.1.4,60.00063599761446,
Friend.png,Friend,Friend,c,2,12,22,92,,,,,0,0,0,0,,,,,6,0,72,4,,,,,,,,,,,,,,,,,,,,,1.696,1.949,409.27851149998605,None,,,,,,,,,,,,,,,,,,,,409.8141598000657,410.31900110002607,0.5074088899418712,1.0077094899024814,410.3024544999935,410.4190762999933,410.3024544999935,410.4190762999933,410.4023627000861,None,c,1,0.7575560000259429,410.4023627000861,None,,,,,M,,pE,2022_Mar_07_1253,training+cueing,2021.1.4,60.00063599761446,
Friend.png,Stranger,Friend,m,3.2,19,29,99,,,,,0,0,0,0,,,,,6,1,73,5,,,,,,,,,,,,,,,,,,,,,1.718,2.143,411.29244270012714,None,,,,,,,,,,,,,,,,,,,,411.83461660007015,412.3371391999535,0.5061415899544954,1.0064248898997903,412.32058770000003,412.43718419992365,412.32058770000003,412.43718419992365,412.42052980000153,None,m,1,0.8833099999465048,412.42052980000153,None,,,,,M,,pE,2022_Mar_07_1253,training+cueing,2021.1.4,60.00063599761446,
Self.png,Stranger,Self ,m,3.1,18,28,98,,,,,0,0,0,0,,,,,6,2,74,2,,,,,,,,,,,,,,,,,,,,,1.533,1.622,413.4283195999451,None,,,,,,,,,,,,,,,,,,,,413.96610910003074,414.4720143999439,0.5115669898223132,1.0118482899852097,414.4554234999232,414.5720590001438,414.4554234999232,414.5720590001438,414.5553454000037,None,m,1,1.3246821998618543,414.5553454000037,None,,,,,M,,pE,2022_Mar_07_1253,training+cueing,2021.1.4,60.00063599761446,
Stranger.png,Stranger,Stranger,c,3,13,23,93,,,,,0,0,0,0,,,,,6,3,75,8,,,,,,,,,,,,,,,,,,,,,1.695,1.685,416.0134074999951,None,,,,,,,,,,,,,,,,,,,,416.5520377000794,417.057170700049,0.508134389994666,1.0085764899849892,417.04061320004985,417.1571975001134,417.04061320004985,417.1571975001134,417.14057180006057,None,c,1,1.1234156000427902,417.14057180006057,None,,,,,M,,pE,2022_Mar_07_1253,training+cueing,2021.1.4,60.00063599761446,
Self.png,Friend,Self ,m,2.1,16,26,96,,,,,0,0,0,0,,,,,6,4,76,1,,,,,,,,,,,,,,,,,,,,,1.593,2.355,418.3985395000782,None,,,,,,,,,,,,,,,,,,,,418.95277510001324,419.4589376000222,0.5133778199087828,1.01367061981,419.44232330005616,419.5590188000351,419.44232330005616,419.5590188000351,419.54221910005435,None,m,1,1.2015645001083612,419.54221910005435,None,,,,,M,,pE,2022_Mar_07_1253,training+cueing,2021.1.4,60.00063599761446,
Stranger.png,Friend,Stranger,m,2.3,17,27,97,,,,,0,0,0,0,,,,,6,5,77,7,,,,,,,,,,,,,,,,,,,,,1.654,1.644,420.86526630003937,None,,,,,,,,,,,,,,,,,,,,421.4044836999383,421.91068420000374,0.5126428897492588,1.0129523898940533,421.8940918999724,422.01074120006524,421.8940918999724,422.01074120006524,421.9940635000821,None,m,1,0.9258648999966681,421.9940635000821,None,,,,,M,,pE,2022_Mar_07_1253,training+cueing,2021.1.4,60.00063599761446,
Stranger.png,Stranger,Stranger,c,3,13,23,93,,,,,0,0,0,0,,,,,6,6,78,11,,,,,,,,,,,,,,,,,,,,,1.732,1.267,423.05138109996915,None,,,,,,,,,,,,,,,,,,,,423.5921788001433,424.0956170000136,0.5053354897536337,1.0056298896670341,424.07908029993996,424.1956565999426,424.07908029993996,424.1956565999426,424.1789647999685,None,None,0,,424.1789647999685,None,,,,,M,,pE,2022_Mar_07_1253,training+cueing,2021.1.4,60.00063599761446,
Self.png,You,Self ,c,1,11,21,91,,,,,0,0,0,0,,,,,6,7,79,9,,,,,,,,,,,,,,,,,,,,,1.719,1.476,426.01767059997655,None,,,,,,,,,,,,,,,,,,,,426.559093600139,427.06435290002264,0.5100424899719656,1.0103108901530504,427.04786009993404,427.14778460003436,427.04786009993404,427.14778460003436,427.14778460003436,None,c,1,1.1961781999561936,427.14778460003436,None,,,,,M,,pE,2022_Mar_07_1253,training+cueing,2021.1.4,60.00063599761446,
Stranger.png,You,Stranger,m,1.3,15,25,95,,,,,0,0,0,0,,,,,6,8,80,6,,,,,,,,,,,,,,,,,,,,,1.438,1.537,428.4718865000177,None,,,,,,,,,,,,,,,,,,,,429.00973489996977,429.51612320006825,0.5111266903113574,1.0114164901897311,429.49961860012263,429.599563700147,429.49961860012263,429.599563700147,429.599563700147,None,m,1,1.2085769001860172,429.599563700147,None,,,,,M,,pE,2022_Mar_07_1253,training+cueing,2021.1.4,60.00063599761446,
Self.png,You,Self ,c,1,11,21,91,,,,,0,0,0,0,,,,,6,9,81,0,,,,,,,,,,,,,,,,,,,,,1.609,1.658,430.9443095000461,None,,,,,,,,,,,,,,,,,,,,431.4802407999523,431.9847705999855,0.5089094899594784,1.0091766898985952,431.96819799998775,432.0683899000287,431.96819799998775,432.0683899000287,432.0683899000287,None,c,1,1.1075174999423325,432.0683899000287,None,,,,,M,,pE,2022_Mar_07_1253,training+cueing,2021.1.4,60.00063599761446,
Friend.png,You,Friend,m,1.2,14,24,94,,,,,0,0,0,0,,,,,6,10,82,3,,,,,,,,,,,,,,,,,,,,,1.467,1.708,433.30983610008843,None,,,,,,,,,,,,,,,,,,,,433.8488350000698,434.35300810006447,0.5081525899004191,1.00845428975299,434.3364264999982,434.43637110013515,434.3364264999982,434.43637110013515,434.43637110013515,None,m,1,0.9475214001722634,434.43637110013515,None,,,,,M,,pE,2022_Mar_07_1253,training+cueing,2021.1.4,60.00063599761446,
Friend.png,Friend,Friend,c,2,12,22,92,,,,,0,0,0,0,,,,,6,11,83,10,,,,,,,,,,,,,,,,,,,,,1.478,1.726,435.5100259000901,None,,,,,,,,,,,,,,,,,,,,436.06280800001696,436.5712266000919,0.49989901995286345,1.0001937199849635,436.53799049998634,436.6379263000563,436.53799049998634,436.6379263000563,436.6379263000563,None,c,1,1.401950699975714,436.6379263000563,None,,,,,M,,pE,2022_Mar_07_1253,training+cueing,2021.1.4,60.00063599761446,
Friend.png,Friend,Friend,c,2,12,22,92,,,,,0,0,0,0,,,,,7,0,84,4,,,,,,,,,,,,,,,,,,,,,1.473,1.856,438.161931599956,None,,,,,,,,,,,,,,,,,,,,438.6993227999192,439.2064962000586,0.5134519902057946,1.0140063900034875,439.1898715000134,439.3065325000789,439.1898715000134,439.3065325000789,439.28982100007124,None,c,1,1.0541751000564545,439.28982100007124,None,,,,,M,,pE,2022_Mar_07_1253,training+cueing,2021.1.4,60.00063599761446,
Stranger.png,Friend,Stranger,m,2.3,17,27,97,,,,,0,0,0,0,,,,,7,1,85,7,,,,,,,,,,,,,,,,,,,,,1.708,1.814,440.48154700011946,None,,,,,,,,,,,,,,,,,,,,441.02099859993905,441.524877600139,0.5073140899185091,1.007633789908141,441.5082696999889,441.624887800077,441.5082696999889,441.624887800077,441.60818989994004,None,m,1,1.0399363001342863,441.60818989994004,None,,,,,M,,pE,2022_Mar_07_1253,training+cueing,2021.1.4,60.00063599761446,
Friend.png,Stranger,Friend,m,3.2,19,29,99,,,,,0,0,0,0,,,,,7,2,86,5,,,,,,,,,,,,,,,,,,,,,1.782,1.407,442.7818485000171,None,,,,,,,,,,,,,,,,,,,,443.3229493999388,443.826504800003,0.5053688900079578,1.0055720899254084,443.8099754001014,443.9265576999169,443.8099754001014,443.9265576999169,443.9098610000219,None,m,1,1.1539626999292523,443.9098610000219,None,,,,,M,,pE,2022_Mar_07_1253,training+cueing,2021.1.4,60.00063599761446,
Stranger.png,You,Stranger,m,1.3,15,25,95,,,,,0,0,0,0,,,,,7,3,87,6,,,,,,,,,,,,,,,,,,,,,1.49,1.866,445.2006850000471,None,,,,,,,,,,,,,,,,,,,,445.74998670001514,446.2615527000744,0.5074240898247808,1.0077277899254113,446.24500440014526,446.344954600092,446.24500440014526,446.344954600092,446.344954600092,None,m,1,1.1349792999681085,446.344954600092,None,,,,,M,,pE,2022_Mar_07_1253,training+cueing,2021.1.4,60.00063599761446,
Friend.png,Friend,Friend,c,2,12,22,92,,,,,0,0,0,0,,,,,7,4,88,10,,,,,,,,,,,,,,,,,,,,,1.729,1.664,447.6025763999205,None,,,,,,,,,,,,,,,,,,,,448.14110379992053,448.64663530001417,0.5088773898314685,1.0091192899271846,448.6300801001489,448.74666259996593,448.6300801001489,448.74666259996593,448.7299941999372,None,c,1,0.8938651999924332,448.7299941999372,None,,,,,M,,pE,2022_Mar_07_1253,training+cueing,2021.1.4,60.00063599761446,
Stranger.png,Stranger,Stranger,c,3,13,23,93,,,,,0,0,0,0,,,,,7,5,89,8,,,,,,,,,,,,,,,,,,,,,1.645,1.813,449.75390819995664,None,,,,,,,,,,,,,,,,,,,,450.2964499001391,450.7982479999773,0.5053743899334222,1.0056427898816764,450.78161599999294,450.89824329991825,450.78161599999294,450.89824329991825,450.8814932999667,None,c,1,1.3663689999375492,450.8814932999667,None,,,,,M,,pE,2022_Mar_07_1253,training+cueing,2021.1.4,60.00063599761446,
Friend.png,You,Friend,m,1.2,14,24,94,,,,,0,0,0,0,,,,,7,6,90,3,,,,,,,,,,,,,,,,,,,,,1.635,1.465,452.3739304000046,None,,,,,,,,,,,,,,,,,,,,452.9151691000443,453.41676139994524,0.5033211901318282,1.0036075902171433,453.40013490011916,453.5000347001478,453.40013490011916,453.5000347001478,453.5000347001478,None,m,1,1.275932699907571,453.5000347001478,None,,,,,M,,pE,2022_Mar_07_1253,training+cueing,2021.1.4,60.00063599761446,
Self.png,You,Self ,c,1,11,21,91,,,,,0,0,0,0,,,,,7,7,91,0,,,,,,,,,,,,,,,,,,,,,1.511,2.302,454.9069942999631,None,,,,,,,,,,,,,,,,,,,,455.44584279996343,455.9518820999656,0.5109556901734322,1.0112156900577247,455.9353581001051,456.0355777000077,455.9353581001051,456.0355777000077,456.0355777000077,None,c,1,1.2203329000622034,456.0355777000077,None,,,,,M,,pE,2022_Mar_07_1253,training+cueing,2021.1.4,60.00063599761446,
Stranger.png,Stranger,Stranger,c,3,13,23,93,,,,,0,0,0,0,,,,,7,8,92,11,,,,,,,,,,,,,,,,,,,,,1.62,1.465,457.3919969999697,None,,,,,,,,,,,,,,,,,,,,457.9344860999845,458.43702380009927,0.5060427899006754,1.0066002898383886,458.4204490999691,458.53706580004655,458.4204490999691,458.53706580004655,458.5203682000283,None,None,0,,458.5203682000283,None,,,,,M,,pE,2022_Mar_07_1253,training+cueing,2021.1.4,60.00063599761446,
Self.png,You,Self ,c,1,11,21,91,,,,,0,0,0,0,,,,,7,9,93,9,,,,,,,,,,,,,,,,,,,,,1.491,2.442,460.25875160004944,None,,,,,,,,,,,,,,,,,,,,460.80882650008425,461.32242899993435,0.5099712898954749,1.0102933899033815,461.30581649998203,461.40582039998844,461.30581649998203,461.40582039998844,461.40582039998844,None,m,0,1.3539013001136482,461.40582039998844,None,,,,,M,,pE,2022_Mar_07_1253,training+cueing,2021.1.4,60.00063599761446,
Self.png,Stranger,Self ,m,3.1,18,28,98,,,,,0,0,0,0,,,,,7,10,94,2,,,,,,,,,,,,,,,,,,,,,1.646,1.414,462.8970868999604,None,,,,,,,,,,,,,,,,,,,,463.44304260006174,463.9576524000149,0.5105338899884373,1.0107913899701089,463.94117509992793,464.05783400009386,463.94117509992793,464.05783400009386,464.04123229999095,None,m,1,0.9105291001033038,464.04123229999095,None,,,,,M,,pE,2022_Mar_07_1253,training+cueing,2021.1.4,60.00063599761446,
Self.png,Friend,Self ,m,2.1,16,26,96,,,,,0,0,0,0,,,,,7,11,95,1,,,,,,,,,,,,,,,,,,,,,1.692,2.285,465.08197530009784,None,,,,,,,,,,,,,,,,,,,,465.6335044000298,466.142533400096,0.5003771898336709,1.0006327899172902,466.12597319995984,466.24257680005394,466.12597319995984,466.24257680005394,466.24257680005394,None,m,1,1.0773076999466866,466.24257680005394,None,,,,,M,,pE,2022_Mar_07_1253,training+cueing,2021.1.4,60.00063599761446,
Stranger.png,You,Stranger,m,1.3,15,25,95,,,,,0,0,0,0,,,,,8,0,96,6,,,,,,,,,,,,,,,,,,,,,1.591,2.193,467.44943240005523,None,,,,,,,,,,,,,,,,,,,,467.9952438999899,468.4943373000715,0.5125266900286078,1.0129931902047247,468.4943373000715,468.594331700122,468.4943373000715,468.594331700122,468.594331700122,None,m,1,1.3013901999220252,468.594331700122,None,,,,,M,,pE,2022_Mar_07_1253,training+cueing,2021.1.4,60.00063599761446,
Friend.png,Stranger,Friend,m,3.2,19,29,99,,,,,0,0,0,0,,,,,8,1,97,5,,,,,,,,,,,,,,,,,,,,,1.72,1.933,470.0180786999408,None,,,,,,,,,,,,,,,,,,,,470.56484730006196,471.0794160000514,0.5136734896805137,1.0138863897882402,471.0629750001244,471.1794994000811,471.0629750001244,471.1794994000811,471.16290380014107,None,m,1,0.9248238999862224,471.16290380014107,None,,,,,M,,pE,2022_Mar_07_1253,training+cueing,2021.1.4,60.00063599761446,
Stranger.png,Friend,Stranger,m,2.3,17,27,97,,,,,0,0,0,0,,,,,8,2,98,7,,,,,,,,,,,,,,,,,,,,,1.505,1.293,472.2200736999512,None,,,,,,,,,,,,,,,,,,,,472.7629261999391,473.2643192000687,0.5037955902516842,1.0041679902933538,473.24772310000844,473.3644266000483,473.24772310000844,473.3644266000483,473.3477390999906,None,m,1,0.9159686998464167,473.3477390999906,None,,,,,M,,pE,2022_Mar_07_1253,training+cueing,2021.1.4,60.00063599761446,
Stranger.png,Stranger,Stranger,c,3,13,23,93,,,,,0,0,0,0,,,,,8,3,99,8,,,,,,,,,,,,,,,,,,,,,1.591,1.571,474.3885177001357,None,,,,,,,,,,,,,,,,,,,,474.9304633999709,475.4326283999253,0.5034583902452141,1.003731390228495,475.4159921000246,475.53260169993155,475.4159921000246,475.53260169993155,475.5159094000701,None,None,0,,475.5159094000701,None,,,,,M,,pE,2022_Mar_07_1253,training+cueing,2021.1.4,60.00063599761446,
Friend.png,Friend,Friend,c,2,12,22,92,,,,,0,0,0,0,,,,,8,4,100,4,,,,,,,,,,,,,,,,,,,,,1.789,1.399,477.22221889998764,None,,,,,,,,,,,,,,,,,,,,477.76703010010533,478.2680045000743,0.5024776898790151,1.0028251900803298,478.25137399998493,478.36804120009765,478.25137399998493,478.36804120009765,478.3513319999911,None,c,1,0.9683893998153508,478.3513319999911,None,,,,,M,,pE,2022_Mar_07_1253,training+cueing,2021.1.4,60.00063599761446,
Stranger.png,Stranger,Stranger,c,3,13,23,93,,,,,0,0,0,0,,,,,8,5,101,11,,,,,,,,,,,,,,,,,,,,,1.799,1.557,479.4420954999514,None,,,,,,,,,,,,,,,,,,,,479.9850027000066,480.48620719998144,0.5030421901028603,1.0033169900998473,480.4697054999415,480.5862390000839,480.4697054999415,480.5862390000839,480.56955250003375,None,c,1,1.6141962001565844,480.56955250003375,None,,,,,M,,pE,2022_Mar_07_1253,training+cueing,2021.1.4,60.00063599761446,
Self.png,Friend,Self ,m,2.1,16,26,96,,,,,0,0,0,0,,,,,8,6,102,1,,,,,,,,,,,,,,,,,,,,,1.707,1.969,482.31134389992803,None,,,,,,,,,,,,,,,,,,,,482.8541162000038,483.35497370013036,0.5009785899892449,1.0011728899553418,483.3384422000963,483.45507439994253,483.3384422000963,483.45507439994253,483.45507439994253,None,m,1,1.3366435000207275,483.45507439994253,None,,,,,M,,pE,2022_Mar_07_1253,training+cueing,2021.1.4,60.00063599761446,
Self.png,You,Self ,c,1,11,21,91,,,,,0,0,0,0,,,,,8,7,103,9,,,,,,,,,,,,,,,,,,,,,1.754,2.333,484.9288463999983,None,,,,,,,,,,,,,,,,,,,,485.4706526999362,485.97352700005285,0.5056442900095135,1.0059722899459302,485.9569554000627,486.0569883999415,485.9569554000627,486.0569883999415,486.0569883999415,None,c,1,1.4068225999362767,486.0569883999415,None,,,,,M,,pE,2022_Mar_07_1253,training+cueing,2021.1.4,60.00063599761446,
Self.png,Stranger,Self ,m,3.1,18,28,98,,,,,0,0,0,0,,,,,8,8,104,2,,,,,,,,,,,,,,,,,,,,,1.574,1.51,487.5980972000398,None,,,,,,,,,,,,,,,,,,,,488.140866599977,488.64212730014697,0.5016708900220692,1.0020613898523152,488.625514900079,488.74213050003164,488.625514900079,488.74213050003164,488.7254202000331,None,None,0,,488.7254202000331,None,,,,,M,,pE,2022_Mar_07_1253,training+cueing,2021.1.4,60.00063599761446,
Self.png,You,Self ,c,1,11,21,91,,,,,0,0,0,0,,,,,8,9,105,0,,,,,,,,,,,,,,,,,,,,,1.74,2.25,490.4151439999696,None,,,,,,,,,,,,,,,,,,,,490.9579819000792,491.4607939000707,0.506945590255782,1.0073164901696146,491.44422470009886,491.54414100013673,491.44422470009886,491.54414100013673,491.54414100013673,None,c,1,0.9596941000781953,491.54414100013673,None,,,,,M,,pE,2022_Mar_07_1253,training+cueing,2021.1.4,60.00063599761446,
Friend.png,You,Friend,m,1.2,14,24,94,,,,,0,0,0,0,,,,,8,10,106,3,,,,,,,,,,,,,,,,,,,,,1.538,1.379,492.63497140002437,None,,,,,,,,,,,,,,,,,,,,493.17625180003233,493.67918110010214,0.5074706899467856,1.007787189912051,493.6625431999564,493.7624896999914,493.6625431999564,493.7624896999914,493.7624896999914,None,m,1,1.493308899924159,493.7624896999914,None,,,,,M,,pE,2022_Mar_07_1253,training+cueing,2021.1.4,60.00063599761446,
Friend.png,Friend,Friend,c,2,12,22,92,,,,,0,0,0,0,,,,,8,11,107,10,,,,,,,,,,,,,,,,,,,,,1.478,2.456,495.3870057000313,None,,,,,,,,,,,,,,,,,,,,495.9310666001402,496.43121489998884,0.5152867899741977,1.0154611901380122,496.43121489998884,496.5311286000069,496.43121489998884,496.5311286000069,496.5311286000069,None,None,0,,496.5311286000069,None,,,,,M,,pE,2022_Mar_07_1253,training+cueing,2021.1.4,60.00063599761446,
Friend.png,Friend,Friend,c,2,12,22,92,,,,,0,0,0,0,,,,,9,0,108,10,,,,,,,,,,,,,,,,,,,,,1.472,1.7,498.1204949999228,None,,,,,,,,,,,,,,,,,,,,498.66035509994254,499.16628640005365,0.5119370899628848,1.0123637900687754,499.1497746000532,499.26635810011066,499.1497746000532,499.26635810011066,499.24968030001037,None,c,1,0.8700898000970483,499.24968030001037,None,,,,,M,,pE,2022_Mar_07_1253,training+cueing,2021.1.4,60.00063599761446,
Stranger.png,Stranger,Stranger,c,3,13,23,93,,,,,0,0,0,0,,,,,9,1,109,11,,,,,,,,,,,,,,,,,,,,,1.636,2.339,500.2565641000401,None,,,,,,,,,,,,,,,,,,,,500.7998252999969,501.30120390001684,0.504015089944005,1.0041935900226235,501.28467650013044,501.40124120004475,501.28467650013044,501.40124120004475,501.3845160000492,None,c,1,0.9272560998797417,501.3845160000492,None,,,,,M,,pE,2022_Mar_07_1253,training+cueing,2021.1.4,60.00063599761446,
Stranger.png,You,Stranger,m,1.3,15,25,95,,,,,0,0,0,0,,,,,9,2,110,6,,,,,,,,,,,,,,,,,,,,,1.77,2.445,502.4415211000014,None,,,,,,,,,,,,,,,,,,,,502.9835963000078,503.4861785999965,0.5035683901514858,1.0038769899401814,503.46955500007607,503.56947019998915,503.46955500007607,503.56947019998915,503.56947019998915,None,m,1,1.4622639999724925,503.56947019998915,None,,,,,M,,pE,2022_Mar_07_1253,training+cueing,2021.1.4,60.00063599761446,
Self.png,You,Self ,c,1,11,21,91,,,,,0,0,0,0,,,,,9,3,111,0,,,,,,,,,,,,,,,,,,,,,1.496,1.712,505.16016259999014,None,,,,,,,,,,,,,,,,,,,,505.7025328001473,506.20475949998945,0.5048021897673607,1.0051137898117304,506.18821300007403,506.28817650000565,506.18821300007403,506.28817650000565,506.28817650000565,None,None,0,,506.28817650000565,None,,,,,M,,pE,2022_Mar_07_1253,training+cueing,2021.1.4,60.00063599761446,
Stranger.png,Stranger,Stranger,c,3,13,23,93,,,,,0,0,0,0,,,,,9,4,112,8,,,,,,,,,,,,,,,,,,,,,1.742,1.773,507.893078800058,None,,,,,,,,,,,,,,,,,,,,508.43678699992597,508.9402185000945,0.5042479899711907,1.004521690076217,508.9237083001062,509.04027760005556,508.9237083001062,509.04027760005556,509.02361800009385,None,None,0,,509.02361800009385,None,,,,,M,,pE,2022_Mar_07_1253,training+cueing,2021.1.4,60.00063599761446,
Self.png,Stranger,Self ,m,3.1,18,28,98,,,,,0,0,0,0,,,,,9,5,113,2,,,,,,,,,,,,,,,,,,,,,1.52,2.073,510.88047989993356,None,,,,,,,,,,,,,,,,,,,,511.4214113999624,511.92556180013344,0.5088217898737639,1.0093888898845762,511.9090517000295,512.0260626000818,511.9090517000295,512.0260626000818,512.0089547999669,None,m,1,1.4070836000610143,512.0089547999669,None,,,,,M,,pE,2022_Mar_07_1253,training+cueing,2021.1.4,60.00063599761446,
Stranger.png,Friend,Stranger,m,2.3,17,27,97,,,,,0,0,0,0,,,,,9,6,114,7,,,,,,,,,,,,,,,,,,,,,1.404,1.598,513.5510921000969,None,,,,,,,,,,,,,,,,,,,,514.0916701999959,514.5942098000087,0.5047013896983117,1.0056547897402197,514.5776230001356,514.6942354000639,514.5776230001356,514.6942354000639,514.6775485000107,None,m,1,1.0267904999200255,514.6775485000107,None,,,,,M,,pE,2022_Mar_07_1253,training+cueing,2021.1.4,60.00063599761446,
Friend.png,Friend,Friend,c,2,12,22,92,,,,,0,0,0,0,,,,,9,7,115,4,,,,,,,,,,,,,,,,,,,,,1.691,1.989,515.8378628001083,None,,,,,,,,,,,,,,,,,,,,516.3749506000895,516.8791509999428,0.5069249898660928,1.0072254897095263,516.8625483999494,516.9792078000028,516.8625483999494,516.9792078000028,516.9625419999938,None,c,1,0.7731256000697613,516.9625419999938,None,,,,,M,,pE,2022_Mar_07_1253,training+cueing,2021.1.4,60.00063599761446,
Friend.png,You,Friend,m,1.2,14,24,94,,,,,0,0,0,0,,,,,9,8,116,3,,,,,,,,,,,,,,,,,,,,,1.749,1.228,517.869680200005,None,,,,,,,,,,,,,,,,,,,,518.4123861000407,518.9139400999993,0.5046869900543243,1.0050823900382966,518.8973834000062,518.9973234999925,518.8973834000062,518.9973234999925,518.9973234999925,None,m,1,1.0263926999177784,518.9973234999925,None,,,,,M,,pE,2022_Mar_07_1253,training+cueing,2021.1.4,60.00063599761446,
Self.png,Friend,Self ,m,2.1,16,26,96,,,,,0,0,0,0,,,,,9,9,117,1,,,,,,,,,,,,,,,,,,,,,1.6,1.662,520.1545758999418,None,,,,,,,,,,,,,,,,,,,,520.7021260999609,521.2156170001253,0.5107795901130885,1.0110802899580449,521.1990134001244,521.3156586000696,521.1990134001244,521.3156586000696,521.298952500103,None,m,1,1.2367958000395447,521.298952500103,None,,,,,M,,pE,2022_Mar_07_1253,training+cueing,2021.1.4,60.00063599761446,
Self.png,You,Self ,c,1,11,21,91,,,,,0,0,0,0,,,,,9,10,118,9,,,,,,,,,,,,,,,,,,,,,1.454,2.394,522.6743946000934,None,,,,,,,,,,,,,,,,,,,,523.2150107999332,523.7173441001214,0.5043618900235742,1.004657689947635,523.7008563999552,523.8007956000511,523.7008563999552,523.8007956000511,523.8007956000511,None,c,1,0.7669506999664009,523.8007956000511,None,,,,,M,,pE,2022_Mar_07_1253,training+cueing,2021.1.4,60.00063599761446,
Friend.png,Stranger,Friend,m,3.2,19,29,99,,,,,0,0,0,0,,,,,9,11,119,5,,,,,,,,,,,,,,,,,,,,,1.734,1.715,524.691208000062,None,,,,,,,,,,,,,,,,,,,,525.2331356001087,525.7354761001188,0.5052602898795158,1.00577049003914,525.7189702999312,525.8363552999217,525.7189702999312,525.8363552999217,525.819632000057,None,m,1,0.8441645998973399,525.819632000057,None,,,,,M,,pE,2022_Mar_07_1253,training+cueing,2021.1.4,60.00063599761446,
,,,,,,,,,,,,0,0,0,0,,,,,,,,,,,,,,,,,,,,,,,,,,,,,,,,,,,,,,,,,,,,,,,,,,,,,,,,,,,,,,,,,,,0.0166244397405535,0.5164315397851169,,,M,,pE,2022_Mar_07_1253,training+cueing,2021.1.4,60.00063599761446,
Friend.png,Stranger,Friend,m,3.2,19,29,99,,,,,1,0,1,0,0,0,0,5,,,,,,,,,,,,,,,,,527.302956999978,None,space,65.11955259996466,2.010019029956311,None,594.4352094000205,None,1.408,1.376,597.4461644999683,None,597.9735306000803,598.487991400063,598.471387000056,598.5880635001231,598.471387000056,598.5880635001231,598.5712711999658,None,m,1,598.5712711999658,None,599.6055823001079,None,1.004408499924466,,,,,,,,,,,,,,,,,,,,,,,,M,,pE,2022_Mar_07_1253,training+cueing,2021.1.4,60.00063599761446,
Stranger.png,Stranger,Stranger,c,3,13,23,93,,,,,1,0,1,0,0,1,1,11,,,,,,,,,,,,,,,,,,,,,,,,,1.773,1.339,600.0057882000692,None,600.5366855000611,601.0398401999846,601.0232446000446,601.1398827999365,601.0232446000446,601.1398827999365,601.1231722000521,None,c,1,601.1231722000521,None,601.9072324000299,None,0.7564538998994976,,,,,,,,,,,,,,,,,,,,,,,,M,,pE,2022_Mar_07_1253,training+cueing,2021.1.4,60.00063599761446,
Friend.png,You,Friend,m,1.2,14,24,94,,,,,1,0,1,0,0,2,2,3,,,,,,,,,,,,,,,,,,,,,,,,,1.481,2.158,602.3074571001343,None,602.8578431999777,603.3584436001256,603.3418044000864,603.4417598000728,603.3418044000864,603.4417598000728,603.4417598000728,None,m,1,603.4417598000728,None,604.591233999934,None,1.1260359000880271,,,,,,,,,,,,,,,,,,,,,,,,M,,pE,2022_Mar_07_1253,training+cueing,2021.1.4,60.00063599761446,
Self.png,You,Self ,c,1,11,21,91,,,,,1,0,1,0,0,3,3,0,,,,,,,,,,,,,,,,,,,,,,,,,1.733,1.837,604.9929542001337,None,605.5215126001276,606.0268365999218,606.0102192999329,606.110121600097,606.0102192999329,606.110121600097,606.110121600097,None,c,1,606.110121600097,None,606.677353200037,None,0.5374869001097977,,,,,,,,,,,,,,,,,,,,,,,,M,,pE,2022_Mar_07_1253,training+cueing,2021.1.4,60.00063599761446,
Self.png,You,Self ,c,1,11,21,91,,,,,1,0,1,0,0,4,4,9,,,,,,,,,,,,,,,,,,,,,,,,,1.503,1.231,607.0775671999436,None,607.6070095999166,608.111607400002,608.0950496001169,608.1949714999646,608.0950496001169,608.1949714999646,608.1949714999646,None,c,1,608.1949714999646,None,609.0610462999903,None,0.8367434998508543,,,,,,,,,,,,,,,,,,,,,,,,M,,pE,2022_Mar_07_1253,training+cueing,2021.1.4,60.00063599761446,
Stranger.png,Friend,Stranger,m,2.3,17,27,97,,,,,1,0,1,0,0,5,5,7,,,,,,,,,,,,,,,,,,,,,,,,,1.446,1.733,609.4627285001334,None,610.0029277000576,610.5132915999275,610.4967793000396,610.613344399957,610.4967793000396,610.613344399957,610.5966839001048,None,m,1,610.5966839001048,None,611.6309305999894,None,1.0109604999888688,,,,,,,,,,,,,,,,,,,,,,,,M,,pE,2022_Mar_07_1253,training+cueing,2021.1.4,60.00063599761446,
Self.png,Friend,Self ,m,2.1,16,26,96,,,,,1,0,1,0,0,6,6,1,,,,,,,,,,,,,,,,,,,,,,,,,1.638,1.602,612.0314905999694,None,612.57031560014,613.0818495999556,613.0652541001327,613.181930599967,613.0652541001327,613.181930599967,613.1651840999257,None,m,1,613.1651840999257,None,614.3829235001467,None,1.1944163001608104,,,,,,,,,,,,,,,,,,,,,,,,M,,pE,2022_Mar_07_1253,training+cueing,2021.1.4,60.00063599761446,
Friend.png,Friend,Friend,c,2,12,22,92,,,,,1,0,1,0,0,7,7,10,,,,,,,,,,,,,,,,,,,,,,,,,1.635,1.508,614.7831286001019,None,615.3191812001169,615.8338530000765,615.8172861000057,615.934064200148,615.8172861000057,615.934064200148,615.9172795000486,None,c,1,615.9172795000486,None,616.5177230001427,None,0.5702813998796046,,,,,,,,,,,,,,,,,,,,,,,,M,,pE,2022_Mar_07_1253,training+cueing,2021.1.4,60.00063599761446,
Stranger.png,Stranger,Stranger,c,3,13,23,93,,,,,1,0,1,0,0,8,8,8,,,,,,,,,,,,,,,,,,,,,,,,,1.78,1.789,616.9179525000509,None,617.4504629999865,617.9520282000303,617.9354346001055,618.0523343000095,617.9354346001055,618.0523343000095,618.0354345999658,None,c,1,618.0354345999658,None,618.8361192999873,None,0.7723298999480903,,,,,,,,,,,,,,,,,,,,,,,,M,,pE,2022_Mar_07_1253,training+cueing,2021.1.4,60.00063599761446,
Self.png,Stranger,Self ,m,3.1,18,28,98,,,,,1,0,1,0,0,9,9,2,,,,,,,,,,,,,,,,,,,,,,,,,1.42,2.261,619.2364871001337,None,619.775630600052,620.2870507999323,620.2704652999528,620.387099100044,620.2704652999528,620.387099100044,620.3703523001168,None,None,0,620.3703523001168,None,621.8177636999171,None,,,,,,,,,,,,,,,,,,,,,,,,,M,,pE,2022_Mar_07_1253,training+cueing,2021.1.4,60.00063599761446,
Friend.png,Friend,Friend,c,2,12,22,92,,,,,1,0,1,0,0,10,10,4,,,,,,,,,,,,,,,,,,,,,,,,,1.575,2.142,622.2218049999792,None,622.7673561000265,623.27251229994,623.2559658000246,623.3725833001081,623.2559658000246,623.3725833001081,623.3558861000929,None,None,0,623.3558861000929,None,624.9411647000816,None,,,,,,,,,,,,,,,,,,,,,,,,,M,,pE,2022_Mar_07_1253,training+cueing,2021.1.4,60.00063599761446,
Stranger.png,You,Stranger,m,1.3,15,25,95,,,,,1,0,1,0,0,11,11,6,,,,,,,,,,,,,,,,,,,,,,,,,1.693,1.623,625.3407952999696,None,625.8747684999835,626.3748745000921,626.3748745000921,626.4748098000418,626.3748745000921,626.4748098000418,626.4748098000418,None,m,1,626.4748098000418,None,627.2240273000207,None,0.7327709998935461,,,,,,,,,,,,,,,,,,,,,,,,M,,pE,2022_Mar_07_1253,training+cueing,2021.1.4,60.00063599761446,
Stranger.png,Stranger,Stranger,c,3,13,23,93,,,,,1,0,1,0,,,,,0,0,0,11,,,,,,,,,,,,,,,,,,,637.6832030001096,None,1.477,2.163,641.2143163001165,None,,,,,,,,,,,,,,,,627.6257650000043,None,0.014437829609960318,0.51326072961092,641.7386100001168,642.2528779001441,0.5114234900102019,1.0117052900604904,642.236332600005,642.3529356999788,642.236332600005,642.3529356999788,642.3362851000857,None,c,1,0.9192598001100123,642.3362851000857,None,,,,,M,,pE,2022_Mar_07_1253,training+cueing,2021.1.4,60.00063599761446,
Self.png,You,Self ,c,1,11,21,91,,,,,1,0,1,0,,,,,0,1,1,9,,,,,,,,,,,,,,,,,,,,,1.519,1.716,643.3948542000726,None,,,,,,,,,,,,,,,,,,,,643.9362220000476,644.4377548999619,0.5030181899201125,1.003352589905262,644.421191399917,644.521180999931,644.421191399917,644.521180999931,644.521180999931,None,c,1,0.6543743000365794,644.521180999931,None,,,,,M,,pE,2022_Mar_07_1253,training+cueing,2021.1.4,60.00063599761446,
Self.png,Friend,Self ,m,2.1,16,26,96,,,,,1,0,1,0,,,,,0,2,2,1,,,,,,,,,,,,,,,,,,,,,1.604,1.805,645.3111666000914,None,,,,,,,,,,,,,,,,,,,,645.8519890001044,646.3559072001372,0.5066667899955064,1.006972490111366,646.3392411000095,646.4558886000887,646.3392411000095,646.4558886000887,646.4391554000322,None,m,1,0.8003986000549048,646.4391554000322,None,,,,,M,,pE,2022_Mar_07_1253,training+cueing,2021.1.4,60.00063599761446,
Self.png,You,Self ,c,1,11,21,91,,,,,1,0,1,0,,,,,0,3,3,0,,,,,,,,,,,,,,,,,,,,,1.466,2.279,647.3617996999528,None,,,,,,,,,,,,,,,,,,,,647.904936300125,648.4072605001274,0.5067718899808824,1.0077281899284571,648.3907683999278,648.4906993999612,648.3907683999278,648.4906993999612,648.4906993999612,None,c,1,0.653172800084576,648.4906993999612,None,,,,,M,,pE,2022_Mar_07_1253,training+cueing,2021.1.4,60.00063599761446,
Friend.png,Friend,Friend,c,2,12,22,92,,,,,1,0,1,0,,,,,0,4,4,10,,,,,,,,,,,,,,,,,,,,,1.781,1.5,649.2840317999944,None,,,,,,,,,,,,,,,,,,,,649.8237896000501,650.3253333000466,0.5025869896635413,1.0028747897595167,650.3088036000263,650.4253543999512,650.3088036000263,650.4253543999512,650.4087571001146,None,c,1,0.6707811998203397,650.4087571001146,None,,,,,M,,pE,2022_Mar_07_1253,training+cueing,2021.1.4,60.00063599761446,
Friend.png,Friend,Friend,c,2,12,22,92,,,,,1,0,1,0,,,,,0,5,5,4,,,,,,,,,,,,,,,,,,,,,1.685,1.987,651.2157211999875,None,,,,,,,,,,,,,,,,,,,,651.7551893000491,652.2601014999673,0.5106489900499582,1.010966190136969,652.2435022001155,652.3601675999817,652.2435022001155,652.3601675999817,652.3434482000303,None,c,1,0.8641095999628305,652.3434482000303,None,,,,,M,,pE,2022_Mar_07_1253,training+cueing,2021.1.4,60.00063599761446,
Self.png,Stranger,Self ,m,3.1,18,28,98,,,,,1,0,1,0,,,,,0,6,6,2,,,,,,,,,,,,,,,,,,,,,1.58,2.181,653.3340122001246,None,,,,,,,,,,,,,,,,,,,,653.8858720001299,654.3949249000289,0.5024487902410328,1.0027429901529104,654.3784046999644,654.4950036001392,654.3784046999644,654.4950036001392,654.4783262999263,None,m,1,0.7932857000268996,654.4783262999263,None,,,,,M,,pE,2022_Mar_07_1253,training+cueing,2021.1.4,60.00063599761446,
Stranger.png,Friend,Stranger,m,2.3,17,27,97,,,,,1,0,1,0,,,,,0,7,7,7,,,,,,,,,,,,,,,,,,,,,1.562,2.235,655.4022174000274,None,,,,,,,,,,,,,,,,,,,,655.9429989000782,656.4464762001298,0.5063293902203441,1.0065758901182562,656.429924499942,656.5465144000482,656.429924499942,656.5465144000482,656.5297777000815,None,m,1,1.0777743000071496,656.5297777000815,None,,,,,M,,pE,2022_Mar_07_1253,training+cueing,2021.1.4,60.00063599761446,
Friend.png,You,Friend,m,1.2,14,24,94,,,,,1,0,1,0,,,,,0,8,8,3,,,,,,,,,,,,,,,,,,,,,1.66,2.382,657.7374098999426,None,,,,,,,,,,,,,,,,,,,,658.2781299999915,658.7814176999964,0.5077476901933551,1.008049090160057,658.7649018999655,658.8648405999411,658.7649018999655,658.8648405999411,658.8648405999411,None,m,1,0.902778800111264,658.8648405999411,None,,,,,M,,pE,2022_Mar_07_1253,training+cueing,2021.1.4,60.00063599761446,
Stranger.png,Stranger,Stranger,c,3,13,23,93,,,,,1,0,1,0,,,,,0,9,9,8,,,,,,,,,,,,,,,,,,,,,1.48,1.426,659.9049555000383,None,,,,,,,,,,,,,,,,,,,,660.4453785000369,660.9496697001159,0.5087666898034513,1.0090670899953693,660.9330995001364,661.0497425000649,660.9330995001364,661.0497425000649,661.0330199000891,None,c,1,1.0704487999901175,661.0330199000891,None,,,,,M,,pE,2022_Mar_07_1253,training+cueing,2021.1.4,60.00063599761446,
Stranger.png,You,Stranger,m,1.3,15,25,95,,,,,1,0,1,0,,,,,0,10,10,6,,,,,,,,,,,,,,,,,,,,,1.481,1.521,662.2404030000325,None,,,,,,,,,,,,,,,,,,,,662.7804304999299,663.2846995000727,0.5075652899686247,1.0078142897691578,663.2681756000966,663.3681059000082,663.2681756000966,663.3681059000082,663.3681059000082,None,m,1,0.8794473998714238,663.3681059000082,None,,,,,M,,pE,2022_Mar_07_1253,training+cueing,2021.1.4,60.00063599761446,
Friend.png,Stranger,Friend,m,3.2,19,29,99,,,,,1,0,1,0,,,,,0,11,11,5,,,,,,,,,,,,,,,,,,,,,1.587,2.191,664.375578599982,None,,,,,,,,,,,,,,,,,,,,664.9167120000347,665.419608599972,0.5063051898032427,1.006561089772731,665.4030125001445,665.5196140001062,665.4030125001445,665.5196140001062,665.5028965999372,None,m,1,0.8405987999867648,665.5028965999372,None,,,,,M,,pE,2022_Mar_07_1253,training+cueing,2021.1.4,60.00063599761446,
Self.png,You,Self ,c,1,11,21,91,,,,,1,0,1,0,,,,,1,0,12,9,,,,,,,,,,,,,,,,,,,,,1.672,1.531,666.4763017001096,None,,,,,,,,,,,,,,,,,,,,667.0167487000581,667.5211189999245,0.5069727897644043,1.0073246897663921,667.5045233001001,667.6044640999753,667.5045233001001,667.6044640999753,667.6044640999753,None,c,1,0.7070468999445438,667.6044640999753,None,,,,,M,,pE,2022_Mar_07_1253,training+cueing,2021.1.4,60.00063599761446,
Friend.png,You,Friend,m,1.2,14,24,94,,,,,1,0,1,0,,,,,1,1,13,3,,,,,,,,,,,,,,,,,,,,,1.732,1.555,668.44450530014,None,,,,,,,,,,,,,,,,,,,,668.9835274000652,669.4891858999617,0.5128269901033491,1.013043490005657,669.4726669001393,669.5725263999775,669.4726669001393,669.5725263999775,669.5725263999775,None,m,1,1.314968700055033,669.5725263999775,None,,,,,M,,pE,2022_Mar_07_1253,training+cueing,2021.1.4,60.00063599761446,
Self.png,You,Self ,c,1,11,21,91,,,,,1,0,1,0,,,,,1,2,14,0,,,,,,,,,,,,,,,,,,,,,1.557,1.324,671.0133436999749,None,,,,,,,,,,,,,,,,,,,,671.5498808000702,672.057685200125,0.5153014902025461,1.0156117901206017,672.0413361000828,672.1410702001303,672.0413361000828,672.1410702001303,672.1410702001303,None,c,1,1.0985158998519182,672.1410702001303,None,,,,,M,,pE,2022_Mar_07_1253,training+cueing,2021.1.4,60.00063599761446,
Self.png,Stranger,Self ,m,3.1,18,28,98,,,,,1,0,1,0,,,,,1,3,15,2,,,,,,,,,,,,,,,,,,,,,1.461,2.492,673.3662271001376,None,,,,,,,,,,,,,,,,,,,,673.9078838999849,674.4093927999493,0.5013349899090827,1.0017940900288522,674.392824599985,674.5102202999406,674.392824599985,674.5102202999406,674.5102202999406,None,m,1,1.0813446000684053,674.5102202999406,None,,,,,M,,pE,2022_Mar_07_1253,training+cueing,2021.1.4,60.00063599761446,
Friend.png,Friend,Friend,c,2,12,22,92,,,,,1,0,1,0,,,,,1,4,16,10,,,,,,,,,,,,,,,,,,,,,1.512,1.755,675.717732799938,None,,,,,,,,,,,,,,,,,,,,676.2594030001201,676.7610967000946,0.5040677902288735,1.004357890225947,676.7444984000176,676.8611459999811,676.7444984000176,676.8611459999811,676.8444052000996,None,c,1,1.0351445998530835,676.8444052000996,None,,,,,M,,pE,2022_Mar_07_1253,training+cueing,2021.1.4,60.00063599761446,
Stranger.png,Stranger,Stranger,c,3,13,23,93,,,,,1,0,1,0,,,,,1,5,17,8,,,,,,,,,,,,,,,,,,,,,1.466,2.472,678.0011754001025,None,,,,,,,,,,,,,,,,,,,,678.5436644000001,679.0460755000822,0.5056781899183989,1.0059821899048984,679.0295021000784,679.1461241999641,679.0295021000784,679.1461241999641,679.1294226001482,None,c,1,1.0540406999643892,679.1294226001482,None,,,,,M,,pE,2022_Mar_07_1253,training+cueing,2021.1.4,60.00063599761446,
Self.png,Friend,Self ,m,2.1,16,26,96,,,,,1,0,1,0,,,,,1,6,18,1,,,,,,,,,,,,,,,,,,,,,1.473,1.946,680.3201602001209,None,,,,,,,,,,,,,,,,,,,,680.860714700073,681.3644787999801,0.5052809899207205,1.0055724899284542,681.3479365000967,681.464532900136,681.3479365000967,681.464532900136,681.44789760001,None,m,1,1.0395541000179946,681.44789760001,None,,,,,M,,pE,2022_Mar_07_1253,training+cueing,2021.1.4,60.00063599761446,
Stranger.png,You,Stranger,m,1.3,15,25,95,,,,,1,0,1,0,,,,,1,7,19,6,,,,,,,,,,,,,,,,,,,,,1.434,1.558,682.6224297001027,None,,,,,,,,,,,,,,,,,,,,683.1624036000576,683.6660533000249,0.507582490099594,1.0079088900238276,683.6494774001185,683.7494624000974,683.6494774001185,683.7494624000974,683.7494624000974,None,m,1,1.0260572000406682,683.7494624000974,None,,,,,M,,pE,2022_Mar_07_1253,training+cueing,2021.1.4,60.00063599761446,
Stranger.png,Stranger,Stranger,c,3,13,23,93,,,,,1,0,1,0,,,,,1,8,20,11,,,,,,,,,,,,,,,,,,,,,1.612,2.199,684.9066673000343,None,,,,,,,,,,,,,,,,,,,,685.4616149999201,685.9677391999867,0.5115279199089855,1.0118083199486136,685.9511625999585,686.0677950999234,685.9511625999585,686.0677950999234,686.0513194000814,None,c,1,0.9640912998002023,686.0513194000814,None,,,,,M,,pE,2022_Mar_07_1253,training+cueing,2021.1.4,60.00063599761446,
Stranger.png,Friend,Stranger,m,2.3,17,27,97,,,,,1,0,1,0,,,,,1,9,21,7,,,,,,,,,,,,,,,,,,,,,1.492,1.25,687.1408840999939,None,,,,,,,,,,,,,,,,,,,,687.682287100004,688.1859643999487,0.5073258897755295,1.007605489809066,688.1694468001369,688.2860371000133,688.1694468001369,688.2860371000133,688.269363099942,None,m,1,1.1301486999727786,688.269363099942,None,,,,,M,,pE,2022_Mar_07_1253,training+cueing,2021.1.4,60.00063599761446,
Friend.png,Friend,Friend,c,2,12,22,92,,,,,1,0,1,0,,,,,1,10,22,4,,,,,,,,,,,,,,,,,,,,,1.445,2.479,689.5267360000871,None,,,,,,,,,,,,,,,,,,,,690.0748783999588,690.5877638999373,0.5096025897655636,1.0099340898450464,690.5711366999894,690.6877886001021,690.5711366999894,690.6877886001021,690.6710882999469,None,c,1,0.7123397001996636,690.6710882999469,None,,,,,M,,pE,2022_Mar_07_1253,training+cueing,2021.1.4,60.00063599761446,
Friend.png,Stranger,Friend,m,3.2,19,29,99,,,,,1,0,1,0,,,,,1,11,23,5,,,,,,,,,,,,,,,,,,,,,1.698,2.174,691.5118206001353,None,,,,,,,,,,,,,,,,,,,,692.0535178000573,692.5558218001388,0.5048597897402942,1.0058794899377972,692.5392366999295,692.6558813999873,692.5392366999295,692.6558813999873,692.6391618000343,None,m,1,1.240775299957022,692.6391618000343,None,,,,,M,,pE,2022_Mar_07_1253,training+cueing,2021.1.4,60.00063599761446,
Friend.png,Stranger,Friend,m,3.2,19,29,99,,,,,1,0,1,0,,,,,2,0,24,5,,,,,,,,,,,,,,,,,,,,,1.753,1.38,694.0137793000322,None,,,,,,,,,,,,,,,,,,,,694.5547682999168,695.0576255000196,0.5067394899670035,1.0069918900262564,695.0410567999352,695.1576769999228,695.0410567999352,695.1576769999228,695.1409509999212,None,m,1,1.2825213000178337,695.1409509999212,None,,,,,M,,pE,2022_Mar_07_1253,training+cueing,2021.1.4,60.00063599761446,
Friend.png,Friend,Friend,c,2,12,22,92,,,,,1,0,1,0,,,,,2,1,25,4,,,,,,,,,,,,,,,,,,,,,1.695,2.348,696.5485767999198,None,,,,,,,,,,,,,,,,,,,,697.0901216999628,697.5927776000462,0.505632690154016,1.0060098899994045,697.5762287999969,697.693203800125,697.5762287999969,697.693203800125,697.6763293000404,None,c,1,0.9391375998966396,697.6763293000404,None,,,,,M,,pE,2022_Mar_07_1253,training+cueing,2021.1.4,60.00063599761446,
Friend.png,You,Friend,m,1.2,14,24,94,,,,,1,0,1,0,,,,,2,2,26,3,,,,,,,,,,,,,,,,,,,,,1.591,1.612,698.7508243001066,None,,,,,,,,,,,,,,,,,,,,699.290806800127,699.7943559000269,0.5066157900728285,1.0069074898492545,699.7778123000171,699.877734699985,699.7778123000171,699.877734699985,699.877734699985,None,m,1,1.0578309998381883,699.877734699985,None,,,,,M,,pE,2022_Mar_07_1253,training+cueing,2021.1.4,60.00063599761446,
Stranger.png,Stranger,Stranger,c,3,13,23,93,,,,,1,0,1,0,,,,,2,3,27,11,,,,,,,,,,,,,,,,,,,,,1.506,2.102,701.0696775999386,None,,,,,,,,,,,,,,,,,,,,701.6286647000816,702.1294050000142,0.5029511200264096,1.0033720200881362,702.1128465000074,702.2295995999593,702.1128465000074,702.2295995999593,702.2129087001085,None,c,1,0.9466550999786705,702.2129087001085,None,,,,,M,,pE,2022_Mar_07_1253,training+cueing,2021.1.4,60.00063599761446,
Stranger.png,You,Stranger,m,1.3,15,25,95,,,,,1,0,1,0,,,,,2,4,28,6,,,,,,,,,,,,,,,,,,,,,1.63,1.643,703.2881537999492,None,,,,,,,,,,,,,,,,,,,,703.8291571000591,704.3309450999368,0.5033656901214272,1.0036637901794165,704.3143742000684,704.4143256000243,704.3143742000684,704.4143256000243,704.4143256000243,None,m,1,0.9850326001178473,704.4143256000243,None,,,,,M,,pE,2022_Mar_07_1253,training+cueing,2021.1.4,60.00063599761446,
Self.png,Stranger,Self ,m,3.1,18,28,98,,,,,1,0,1,0,,,,,2,5,29,2,,,,,,,,,,,,,,,,,,,,,1.448,1.553,705.5212004000787,None,,,,,,,,,,,,,,,,,,,,706.068030500086,706.5825445000082,0.5139711902011186,1.0143973901867867,706.5660296999849,706.6826281999238,706.5660296999849,706.6826281999238,706.6659578001127,None,m,1,1.293687699828297,706.6659578001127,None,,,,,M,,pE,2022_Mar_07_1253,training+cueing,2021.1.4,60.00063599761446,
Self.png,You,Self ,c,1,11,21,91,,,,,1,0,1,0,,,,,2,6,30,9,,,,,,,,,,,,,,,,,,,,,1.634,1.245,708.0917787000071,None,,,,,,,,,,,,,,,,,,,,708.6303103000391,709.1343936999328,0.5077823898755014,1.0086747899185866,709.1178699000739,709.2178005001042,709.1178699000739,709.2178005001042,709.2178005001042,None,c,1,0.7419427998829633,709.2178005001042,None,,,,,M,,pE,2022_Mar_07_1253,training+cueing,2021.1.4,60.00063599761446,
Stranger.png,Friend,Stranger,m,2.3,17,27,97,,,,,1,0,1,0,,,,,2,7,31,7,,,,,,,,,,,,,,,,,,,,,1.607,2.373,710.0930540999398,None,,,,,,,,,,,,,,,,,,,,710.6321130001452,711.1358529001009,0.5065445899963379,1.006801589857787,711.1193552000914,711.2358782000374,711.1193552000914,711.2358782000374,711.2192307999358,None,m,1,1.0762467999011278,711.2192307999358,None,,,,,M,,pE,2022_Mar_07_1253,training+cueing,2021.1.4,60.00063599761446,
Self.png,You,Self ,c,1,11,21,91,,,,,1,0,1,0,,,,,2,8,32,0,,,,,,,,,,,,,,,,,,,,,1.599,2.406,712.4268756001256,None,,,,,,,,,,,,,,,,,,,,712.9669814000372,713.4709075000137,0.5088104899041355,1.0093533899635077,713.4543258000631,713.5542723999824,713.4543258000631,713.5542723999824,713.5542723999824,None,c,1,0.7410961999557912,713.5542723999824,None,,,,,M,,pE,2022_Mar_07_1253,training+cueing,2021.1.4,60.00063599761446,
Friend.png,Friend,Friend,c,2,12,22,92,,,,,1,0,1,0,,,,,2,9,33,10,,,,,,,,,,,,,,,,,,,,,1.526,1.524,714.4280815999955,None,,,,,,,,,,,,,,,,,,,,714.970112600131,715.4722838001326,0.5052938901353627,1.0056119901128113,715.4557541999966,715.572381899925,715.4557541999966,715.572381899925,715.5556528000161,None,c,1,1.379810200072825,715.5556528000161,None,,,,,M,,pE,2022_Mar_07_1253,training+cueing,2021.1.4,60.00063599761446,
Stranger.png,Stranger,Stranger,c,3,13,23,93,,,,,1,0,1,0,,,,,2,10,34,8,,,,,,,,,,,,,,,,,,,,,1.7,1.743,717.0635492999572,None,,,,,,,,,,,,,,,,,,,,717.6044145000633,718.1075822999701,0.5055097898002714,1.0059276898391545,718.0910330999177,718.2077848999761,718.0910330999177,718.2077848999761,718.1910985000432,None,m,0,0.6805183000396937,718.1910985000432,None,,,,,M,,pE,2022_Mar_07_1253,training+cueing,2021.1.4,60.00063599761446,
Self.png,Friend,Self ,m,2.1,16,26,96,,,,,1,0,1,0,,,,,2,11,35,1,,,,,,,,,,,,,,,,,,,,,1.431,2.255,718.9984025999438,None,,,,,,,,,,,,,,,,,,,,719.5395062000025,720.0424802999478,0.5065473900176585,1.0067592898849398,720.0257977999281,720.1423478999641,720.0257977999281,720.1423478999641,720.1256695999764,None,m,1,0.9858375999610871,720.1256695999764,None,,,,,M,,pE,2022_Mar_07_1253,training+cueing,2021.1.4,60.00063599761446,
Self.png,You,Self ,c,1,11,21,91,,,,,1,0,1,0,,,,,3,0,36,0,,,,,,,,,,,,,,,,,,,,,1.526,1.343,721.2497998001054,None,,,,,,,,,,,,,,,,,,,,721.7896211999469,722.2938872000668,0.5075852901209146,1.0086030901875347,722.2773748000618,722.3772919001058,722.2773748000618,722.3772919001058,722.3772919001058,None,c,1,0.8304454998578876,722.3772919001058,None,,,,,M,,pE,2022_Mar_07_1253,training+cueing,2021.1.4,60.00063599761446,
Friend.png,Stranger,Friend,m,3.2,19,29,99,,,,,1,0,1,0,,,,,3,1,37,5,,,,,,,,,,,,,,,,,,,,,1.582,1.884,723.3374624999706,None,,,,,,,,,,,,,,,,,,,,723.8773100001272,724.3787684999406,0.5029900900553912,1.0032898902427405,724.3621622999199,724.478812900139,724.3621622999199,724.478812900139,724.4620777999517,None,c,0,1.401389699894935,724.4620777999517,None,,,,,M,,pE,2022_Mar_07_1253,training+cueing,2021.1.4,60.00063599761446,
Friend.png,Friend,Friend,c,2,12,22,92,,,,,1,0,1,0,,,,,3,2,38,4,,,,,,,,,,,,,,,,,,,,,1.432,2.489,725.9858275000006,None,,,,,,,,,,,,,,,,,,,,726.526090899948,727.0306241000071,0.5092037899885327,1.0094751899596304,727.0140720999334,727.130736600142,727.0140720999334,727.130736600142,727.1139939001296,None,c,1,0.957514600129798,727.1139939001296,None,,,,,M,,pE,2022_Mar_07_1253,training+cueing,2021.1.4,60.00063599761446,
Stranger.png,Stranger,Stranger,c,3,13,23,93,,,,,1,0,1,0,,,,,3,3,39,8,,,,,,,,,,,,,,,,,,,,,1.718,1.928,728.2047264000867,None,,,,,,,,,,,,,,,,,,,,728.745834399946,729.2489104000852,0.5046340900007635,1.0049270899035037,729.2323370000813,729.3490417001303,729.2323370000813,729.3490417001303,729.332266200101,None,c,1,0.9791995000559837,729.332266200101,None,,,,,M,,pE,2022_Mar_07_1253,training+cueing,2021.1.4,60.00063599761446,
Self.png,Friend,Self ,m,2.1,16,26,96,,,,,1,0,1,0,,,,,3,4,40,1,,,,,,,,,,,,,,,,,,,,,1.738,2.042,730.4395769999828,None,,,,,,,,,,,,,,,,,,,,730.9807122000493,731.4838682000991,0.5068701899144799,1.0071907897945493,731.4673095000908,731.5839388000313,731.4673095000908,731.5839388000313,731.5672639999539,None,m,1,1.7043020001146942,731.5672639999539,None,,,,,M,,pE,2022_Mar_07_1253,training+cueing,2021.1.4,60.00063599761446,
Stranger.png,Friend,Stranger,m,2.3,17,27,97,,,,,1,0,1,0,,,,,3,5,41,7,,,,,,,,,,,,,,,,,,,,,1.544,1.997,733.4096423999872,None,,,,,,,,,,,,,,,,,,,,733.9497774001211,734.4526613999624,0.5068055898882449,1.0071134897880256,734.4361048000865,734.5527433999814,734.4361048000865,734.5527433999814,734.536046900088,None,m,1,0.7833618000149727,734.536046900088,None,,,,,M,,pE,2022_Mar_07_1253,training+cueing,2021.1.4,60.00063599761446,
Self.png,Stranger,Self ,m,3.1,18,28,98,,,,,1,0,1,0,,,,,3,6,42,2,,,,,,,,,,,,,,,,,,,,,1.459,1.278,735.4431781999301,None,,,,,,,,,,,,,,,,,,,,736.0090624999721,736.5209423000924,0.5068392199464142,1.0071702199056745,736.504378600046,736.6210084001068,736.504378600046,736.6210084001068,736.6042808999773,None,m,1,1.1311688998248428,736.6042808999773,None,,,,,M,,pE,2022_Mar_07_1253,training+cueing,2021.1.4,60.00063599761446,
Friend.png,You,Friend,m,1.2,14,24,94,,,,,1,0,1,0,,,,,3,7,43,3,,,,,,,,,,,,,,,,,,,,,1.522,2.114,737.8617477000225,None,,,,,,,,,,,,,,,,,,,,738.4027120999526,738.9059166000225,0.5071042901836336,1.0073629901744425,738.8893703999929,738.9892768999562,738.8893703999929,738.9892768999562,738.9892768999562,None,m,1,0.8421265999786556,738.9892768999562,None,,,,,M,,pE,2022_Mar_07_1253,training+cueing,2021.1.4,60.00063599761446,
Self.png,You,Self ,c,1,11,21,91,,,,,1,0,1,0,,,,,3,8,44,9,,,,,,,,,,,,,,,,,,,,,1.708,1.918,739.9624153000768,None,,,,,,,,,,,,,,,,,,,,740.5067579001188,741.0075521001127,0.4995938898064196,0.9999049899633974,740.9909662001301,741.0909436999355,740.9909662001301,741.0909436999355,741.0909436999355,None,c,1,1.1085463999770582,741.0909436999355,None,,,,,M,,pE,2022_Mar_07_1253,training+cueing,2021.1.4,60.00063599761446,
Stranger.png,Stranger,Stranger,c,3,13,23,93,,,,,1,0,1,0,,,,,3,9,45,11,,,,,,,,,,,,,,,,,,,,,1.702,2.195,742.332464999985,None,,,,,,,,,,,,,,,,,,,,742.8750970999245,743.375784000149,0.5014484899584204,1.001851389883086,743.3591672000475,743.4760217999574,743.3591672000475,743.4760217999574,743.4760217999574,None,c,1,0.787409899989143,743.4760217999574,None,,,,,M,,pE,2022_Mar_07_1253,training+cueing,2021.1.4,60.00063599761446,
Stranger.png,You,Stranger,m,1.3,15,25,95,,,,,1,0,1,0,,,,,3,10,46,6,,,,,,,,,,,,,,,,,,,,,1.797,1.595,744.400872600032,None,,,,,,,,,,,,,,,,,,,,744.9424624000676,745.4439677000046,0.5036149900406599,1.003919790033251,745.4273427999578,745.527296199929,745.4273427999578,745.527296199929,745.527296199929,None,m,1,0.8801460999529809,745.527296199929,None,,,,,M,,pE,2022_Mar_07_1253,training+cueing,2021.1.4,60.00063599761446,
Friend.png,Friend,Friend,c,2,12,22,92,,,,,1,0,1,0,,,,,3,11,47,10,,,,,,,,,,,,,,,,,,,,,1.76,1.657,746.5344209999312,None,,,,,,,,,,,,,,,,,,,,747.0747899999842,747.5788183000404,0.5064499897416681,1.0069238897413015,747.5622547001112,747.6787894000299,747.5622547001112,747.6787894000299,747.6621679000091,None,None,0,,747.6621679000091,None,,,,,M,,pE,2022_Mar_07_1253,training+cueing,2021.1.4,60.00063599761446,
Stranger.png,Stranger,Stranger,c,3,13,23,93,,,,,1,0,1,0,,,,,4,0,48,8,,,,,,,,,,,,,,,,,,,,,1.468,2.231,749.5346886999905,None,,,,,,,,,,,,,,,,,,,,750.0820021000691,750.5811052999925,0.5153279898222536,1.0156266898848116,750.5811052999925,750.6810284000821,750.5811052999925,750.6810284000821,750.6810284000821,None,c,1,0.8464381999801844,750.6810284000821,None,,,,,M,,pE,2022_Mar_07_1253,training+cueing,2021.1.4,60.00063599761446,
Friend.png,You,Friend,m,1.2,14,24,94,,,,,1,0,1,0,,,,,4,1,49,3,,,,,,,,,,,,,,,,,,,,,1.584,1.839,751.6559556000866,None,,,,,,,,,,,,,,,,,,,,752.1987548000179,752.6991894000676,0.5018265899270773,1.0021181900519878,752.6826114000287,752.7825502001215,752.6826114000287,752.7825502001215,752.7825502001215,None,m,1,1.3048419998958707,752.7825502001215,None,,,,,M,,pE,2022_Mar_07_1253,training+cueing,2021.1.4,60.00063599761446,
Self.png,Stranger,Self ,m,3.1,18,28,98,,,,,1,0,1,0,,,,,4,2,50,2,,,,,,,,,,,,,,,,,,,,,1.452,1.702,754.2233997001313,None,,,,,,,,,,,,,,,,,,,,754.7769981999882,755.2843428000342,0.5134718199260533,1.014485920080915,755.26781999995,755.3843944999389,755.26781999995,755.3843944999389,755.3677685000002,None,m,1,1.1195861999876797,755.3677685000002,None,,,,,M,,pE,2022_Mar_07_1253,training+cueing,2021.1.4,60.00063599761446,
Stranger.png,Friend,Stranger,m,2.3,17,27,97,,,,,1,0,1,0,,,,,4,3,51,7,,,,,,,,,,,,,,,,,,,,,1.514,2.228,756.6250402000733,None,,,,,,,,,,,,,,,,,,,,757.1661274000071,757.6694402000867,0.5057417899370193,1.0060401901137084,757.6528324000537,757.7695337999612,757.6528324000537,757.7695337999612,757.7528606001288,None,m,1,1.3585685000289232,757.7528606001288,None,,,,,M,,pE,2022_Mar_07_1253,training+cueing,2021.1.4,60.00063599761446,
Self.png,You,Self ,c,1,11,21,91,,,,,1,0,1,0,,,,,4,4,52,9,,,,,,,,,,,,,,,,,,,,,1.572,2.042,759.2431471000891,None,,,,,,,,,,,,,,,,,,,,759.7994659000542,760.3046413999982,0.5101258200593293,1.0105087200645357,760.2880228001159,760.3880557999946,760.2880228001159,760.3880557999946,760.3880557999946,None,c,1,0.9792903000488877,760.3880557999946,None,,,,,M,,pE,2022_Mar_07_1253,training+cueing,2021.1.4,60.00063599761446,
Friend.png,Stranger,Friend,m,3.2,19,29,99,,,,,1,0,1,0,,,,,4,5,53,5,,,,,,,,,,,,,,,,,,,,,1.755,1.698,761.494742100127,None,,,,,,,,,,,,,,,,,,,,762.0375902000815,762.5395734000485,0.504472189815715,1.0047686898615211,762.5230453000404,762.6396641000174,762.5230453000404,762.6396641000174,762.6229753999505,None,m,1,1.0324450999032706,762.6229753999505,None,,,,,M,,pE,2022_Mar_07_1253,training+cueing,2021.1.4,60.00063599761446,
Friend.png,Friend,Friend,c,2,12,22,92,,,,,1,0,1,0,,,,,4,6,54,4,,,,,,,,,,,,,,,,,,,,,1.707,1.59,763.7805681000464,None,,,,,,,,,,,,,,,,,,,,764.3789947000332,764.891473500058,0.5097870798781514,1.0100663797929883,764.8748950001318,764.9915193000343,764.8748950001318,764.9915193000343,764.9748263000511,None,c,1,0.872614499880001,764.9748263000511,None,,,,,M,,pE,2022_Mar_07_1253,training+cueing,2021.1.4,60.00063599761446,
Friend.png,Friend,Friend,c,2,12,22,92,,,,,1,0,1,0,,,,,4,7,55,10,,,,,,,,,,,,,,,,,,,,,1.7,2.25,765.9830253000837,None,,,,,,,,,,,,,,,,,,,,766.5210726000369,767.0261788000353,0.5078106899745762,1.0081309899687767,767.0095526999794,767.126210700022,767.0095526999794,767.126210700022,767.1095008000266,None,c,1,0.6258210998494178,767.1095008000266,None,,,,,M,,pE,2022_Mar_07_1253,training+cueing,2021.1.4,60.00063599761446,
Stranger.png,You,Stranger,m,1.3,15,25,95,,,,,1,0,1,0,,,,,4,8,56,6,,,,,,,,,,,,,,,,,,,,,1.595,2.233,767.866275700042,None,,,,,,,,,,,,,,,,,,,,768.4075474001002,768.910835100105,0.50595258991234,1.0062464899383485,768.8943132001441,768.9942326999735,768.8943132001441,768.9942326999735,768.9942326999735,None,m,1,0.8531762999482453,768.9942326999735,None,,,,,M,,pE,2022_Mar_07_1253,training+cueing,2021.1.4,60.00063599761446,
Self.png,Friend,Self ,m,2.1,16,26,96,,,,,1,0,1,0,,,,,4,9,57,1,,,,,,,,,,,,,,,,,,,,,1.765,2.315,769.9844355999958,None,,,,,,,,,,,,,,,,,,,,770.5259265000932,771.0290908999741,0.5061005901079625,1.0063821899238974,771.0125351999886,771.1291219999548,771.0125351999886,771.1291219999548,771.1124211000279,None,m,1,1.4709357998799533,771.1124211000279,None,,,,,M,,pE,2022_Mar_07_1253,training+cueing,2021.1.4,60.00063599761446,
Self.png,You,Self ,c,1,11,21,91,,,,,1,0,1,0,,,,,4,10,58,0,,,,,,,,,,,,,,,,,,,,,1.586,1.309,772.7200031999964,None,,,,,,,,,,,,,,,,,,,,773.2654421001207,773.7651164999697,0.5130254901014268,1.0126098901964724,773.7651164999697,773.8644510000013,773.7651164999697,773.8644510000013,773.8644510000013,None,c,1,1.1509528998285532,773.8644510000013,None,,,,,M,,pE,2022_Mar_07_1253,training+cueing,2021.1.4,60.00063599761446,
Stranger.png,Stranger,Stranger,c,3,13,23,93,,,,,1,0,1,0,,,,,4,11,59,11,,,,,,,,,,,,,,,,,,,,,1.777,1.259,775.1382333000656,None,,,,,,,,,,,,,,,,,,,,775.6859329000581,776.1994729000144,0.5114124901592731,1.0115979902911931,776.1829315000214,776.2994917000178,776.1829315000214,776.2994917000178,776.2827948001213,None,c,1,1.1806257998105139,776.2827948001213,None,,,,,M,,pE,2022_Mar_07_1253,training+cueing,2021.1.4,60.00063599761446,
Self.png,You,Self ,c,1,11,21,91,,,,,1,0,1,0,,,,,5,0,60,9,,,,,,,,,,,,,,,,,,,,,1.621,1.312,777.5901967999525,None,,,,,,,,,,,,,,,,,,,,778.1306604000274,778.6344981000293,0.5058490899391472,1.0061456898692995,778.6179786000866,778.7179203000851,778.6179786000866,778.7179203000851,778.7179203000851,None,None,0,,778.7179203000851,None,,,,,M,,pE,2022_Mar_07_1253,training+cueing,2021.1.4,60.00063599761446,
Self.png,You,Self ,c,1,11,21,91,,,,,1,0,1,0,,,,,5,1,61,0,,,,,,,,,,,,,,,,,,,,,1.633,2.241,780.4569562999532,None,,,,,,,,,,,,,,,,,,,,780.9957926000934,781.503265599953,0.51429058983922,1.0146638897713274,781.4866728999186,781.5866185999475,781.4866728999186,781.5866185999475,781.5866185999475,None,c,1,0.644774799933657,781.5866185999475,None,,,,,M,,pE,2022_Mar_07_1253,training+cueing,2021.1.4,60.00063599761446,
Friend.png,You,Friend,m,1.2,14,24,94,,,,,1,0,1,0,,,,,5,2,62,3,,,,,,,,,,,,,,,,,,,,,1.452,1.889,782.3603546000086,None,,,,,,,,,,,,,,,,,,,,782.8991704001091,783.4046805000398,0.5116268899291754,1.012112190015614,783.3880976999644,783.4880129001103,783.3880976999644,783.4880129001103,783.4880129001103,None,m,1,0.7593408999964595,783.4880129001103,None,,,,,M,,pE,2022_Mar_07_1253,training+cueing,2021.1.4,60.00063599761446,
Friend.png,Friend,Friend,c,2,12,22,92,,,,,1,0,1,0,,,,,5,3,63,4,,,,,,,,,,,,,,,,,,,,,1.574,1.481,784.378616400063,None,,,,,,,,,,,,,,,,,,,,784.9278508999851,785.4394610000309,0.505213389871642,1.0054349899291992,785.4229860999621,785.5395093001425,785.4229860999621,785.5395093001425,785.5227816000115,None,c,1,1.2847112999297678,785.5227816000115,None,,,,,M,,pE,2022_Mar_07_1253,training+cueing,2021.1.4,60.00063599761446,
Friend.png,Stranger,Friend,m,3.2,19,29,99,,,,,1,0,1,0,,,,,5,4,64,5,,,,,,,,,,,,,,,,,,,,,1.784,1.932,786.9303810999263,None,,,,,,,,,,,,,,,,,,,,787.4720012999605,787.9745889999904,0.5046783899888396,1.0049712900072336,787.9580510000233,788.0746557000093,787.9580510000233,788.0746557000093,788.0579844000749,None,m,1,1.0373468999750912,788.0579844000749,None,,,,,M,,pE,2022_Mar_07_1253,training+cueing,2021.1.4,60.00063599761446,
Stranger.png,Stranger,Stranger,c,3,13,23,93,,,,,1,0,1,0,,,,,5,5,65,11,,,,,,,,,,,,,,,,,,,,,1.605,1.219,789.2319034999236,None,,,,,,,,,,,,,,,,,,,,789.769920000108,790.2762685001362,0.512625290080905,1.0128914900124073,790.2597755999304,790.376295800088,790.2597755999304,790.376295800088,790.3596342999954,None,None,0,,790.3596342999954,None,,,,,M,,pE,2022_Mar_07_1253,training+cueing,2021.1.4,60.00063599761446,
Self.png,Stranger,Self ,m,3.1,18,28,98,,,,,1,0,1,0,,,,,5,6,66,2,,,,,,,,,,,,,,,,,,,,,1.498,1.632,792.0823355000466,None,,,,,,,,,,,,,,,,,,,,792.6381147999782,793.1451131999493,0.5150149196851999,1.0153847197070718,793.1285884000827,793.245157700032,793.1285884000827,793.245157700032,793.2285337001085,None,m,1,0.8268526999745518,793.2285337001085,None,,,,,M,,pE,2022_Mar_07_1253,training+cueing,2021.1.4,60.00063599761446,
Friend.png,Friend,Friend,c,2,12,22,92,,,,,1,0,1,0,,,,,5,7,67,10,,,,,,,,,,,,,,,,,,,,,1.444,2.475,794.1863991001155,None,,,,,,,,,,,,,,,,,,,,794.7267221000511,795.229866300011,0.5062128901481628,1.0065063901711255,795.2132419999689,795.3299002000131,795.2132419999689,795.3299002000131,795.3131707999855,None,c,1,0.7100883000530303,795.3131707999855,None,,,,,M,,pE,2022_Mar_07_1253,training+cueing,2021.1.4,60.00063599761446,
Stranger.png,You,Stranger,m,1.3,15,25,95,,,,,1,0,1,0,,,,,5,8,68,6,,,,,,,,,,,,,,,,,,,,,1.582,1.642,796.1539553999901,None,,,,,,,,,,,,,,,,,,,,796.692842700053,797.1979296000209,0.5076901901047677,1.007991089951247,797.1813640999608,797.2812990001403,797.1813640999608,797.2812990001403,797.2812990001403,None,None,0,,797.2812990001403,None,,,,,M,,pE,2022_Mar_07_1253,training+cueing,2021.1.4,60.00063599761446,
Stranger.png,Friend,Stranger,m,2.3,17,27,97,,,,,1,0,1,0,,,,,5,9,69,7,,,,,,,,,,,,,,,,,,,,,1.513,2.391,798.9701886000112,None,,,,,,,,,,,,,,,,,,,,799.5129861999303,800.016587600112,0.5081900898367167,1.0085012898780406,800.0000646000262,800.1166453000624,800.0000646000262,800.1166453000624,800.0999936000444,None,None,0,,800.0999936000444,None,,,,,M,,pE,2022_Mar_07_1253,training+cueing,2021.1.4,60.00063599761446,
Self.png,Friend,Self ,m,2.1,16,26,96,,,,,1,0,1,0,,,,,5,10,70,1,,,,,,,,,,,,,,,,,,,,,1.55,2.385,801.7255486000795,None,,,,,,,,,,,,,,,,,,,,802.2647277999204,802.7685912000015,0.5081891901791096,1.008467490086332,802.752067200141,802.8686305000447,802.752067200141,802.8686305000447,802.8519745999947,None,None,0,,802.8519745999947,None,,,,,M,,pE,2022_Mar_07_1253,training+cueing,2021.1.4,60.00063599761446,
Stranger.png,Stranger,Stranger,c,3,13,23,93,,,,,1,0,1,0,,,,,5,11,71,8,,,,,,,,,,,,,,,,,,,,,1.526,1.929,804.5073768000584,None,,,,,,,,,,,,,,,,,,,,805.0498369999696,805.553945899941,0.507023389916867,1.007570789894089,805.5373945001047,805.6540044001304,805.5373945001047,805.6540044001304,805.637313199928,None,None,0,,805.637313199928,None,,,,,M,,pE,2022_Mar_07_1253,training+cueing,2021.1.4,60.00063599761446,
Friend.png,Stranger,Friend,m,3.2,19,29,99,,,,,1,0,1,0,,,,,6,0,72,5,,,,,,,,,,,,,,,,,,,,,1.45,1.979,807.2762366000097,None,,,,,,,,,,,,,,,,,,,,807.8151038999204,808.3225821999367,0.5154610900208354,1.0157554899342358,808.3060560000595,808.4226518999785,808.3060560000595,808.4226518999785,808.4060200001113,None,m,1,0.9613184998743236,808.4060200001113,None,,,,,M,,pE,2022_Mar_07_1253,training+cueing,2021.1.4,60.00063599761446,
Stranger.png,Stranger,Stranger,c,3,13,23,93,,,,,1,0,1,0,,,,,6,1,73,11,,,,,,,,,,,,,,,,,,,,,1.767,2.474,809.4964817001019,None,,,,,,,,,,,,,,,,,,,,810.0358349999879,810.5408815999981,0.5095730901230127,1.009778490057215,810.5243419001345,810.64092730009,810.5243419001345,810.64092730009,810.6242263999302,None,c,1,1.6711401999928057,810.6242263999302,None,,,,,M,,pE,2022_Mar_07_1253,training+cueing,2021.1.4,60.00063599761446,
Self.png,Friend,Self ,m,2.1,16,26,96,,,,,1,0,1,0,,,,,6,2,74,1,,,,,,,,,,,,,,,,,,,,,1.487,2.329,812.4321008999832,None,,,,,,,,,,,,,,,,,,,,812.972675499972,813.4763152999803,0.5055700899101794,1.005869789980352,813.4597648000345,813.5763586000539,813.4597648000345,813.5763586000539,813.5596990000922,None,None,0,,813.5596990000922,None,,,,,M,,pE,2022_Mar_07_1253,training+cueing,2021.1.4,60.00063599761446,
Stranger.png,Stranger,Stranger,c,3,13,23,93,,,,,1,0,1,0,,,,,6,3,75,8,,,,,,,,,,,,,,,,,,,,,1.74,2.02,815.1652659000829,None,,,,,,,,,,,,,,,,,,,,815.7097734999843,816.2118270001374,0.5047486901748925,1.005052890162915,816.1951613000128,816.3118199000601,816.1951613000128,816.3118199000601,816.2951130999718,None,c,1,0.8002495998516679,816.2951130999718,None,,,,,M,,pE,2022_Mar_07_1253,training+cueing,2021.1.4,60.00063599761446,
Self.png,You,Self ,c,1,11,21,91,,,,,1,0,1,0,,,,,6,4,76,0,,,,,,,,,,,,,,,,,,,,,1.482,1.445,817.2196959001012,None,,,,,,,,,,,,,,,,,,,,817.7598047000356,818.2630845999811,0.5051813898608088,1.005457989871502,818.2465562000871,818.3464917999227,818.2465562000871,818.3464917999227,818.3464917999227,None,c,1,1.084751200163737,818.3464917999227,None,,,,,M,,pE,2022_Mar_07_1253,training+cueing,2021.1.4,60.00063599761446,
Stranger.png,You,Stranger,m,1.3,15,25,95,,,,,1,0,1,0,,,,,6,5,77,6,,,,,,,,,,,,,,,,,,,,,1.786,2.141,819.553784100106,None,,,,,,,,,,,,,,,,,,,,820.107016999973,820.6148900999688,0.5000314901117235,1.0003191900905222,820.5983132000547,820.6982527999207,820.5983132000547,820.6982527999207,820.6982527999207,None,m,1,1.0850578001700342,820.6982527999207,None,,,,,M,,pE,2022_Mar_07_1253,training+cueing,2021.1.4,60.00063599761446,
Stranger.png,Friend,Stranger,m,2.3,17,27,97,,,,,1,0,1,0,,,,,6,6,78,7,,,,,,,,,,,,,,,,,,,,,1.666,1.692,821.9057346000336,None,,,,,,,,,,,,,,,,,,,,822.4464783000294,822.9497871999629,0.5059775901027024,1.0062729900237173,822.9332685000263,823.0500851999968,822.9332685000263,823.0500851999968,823.0331886000931,None,None,0,,823.0331886000931,None,,,,,M,,pE,2022_Mar_07_1253,training+cueing,2021.1.4,60.00063599761446,
Friend.png,You,Friend,m,1.2,14,24,94,,,,,1,0,1,0,,,,,6,7,79,3,,,,,,,,,,,,,,,,,,,,,1.763,1.329,824.8058561999351,None,,,,,,,,,,,,,,,,,,,,825.3480358000379,825.8518626999576,0.5070445900782943,1.0073453900404274,825.8353806000669,825.9352685001213,825.8353806000669,825.9352685001213,825.9352685001213,None,m,1,0.903924599988386,825.9352685001213,None,,,,,M,,pE,2022_Mar_07_1253,training+cueing,2021.1.4,60.00063599761446,
Friend.png,Friend,Friend,c,2,12,22,92,,,,,1,0,1,0,,,,,6,8,80,4,,,,,,,,,,,,,,,,,,,,,1.52,2.266,826.9756801000331,None,,,,,,,,,,,,,,,,,,,,827.5167392001022,828.0201125999447,0.5073639899492264,1.0076642900239676,828.0035910001025,828.1201651999727,828.0035910001025,828.1201651999727,828.1035080000293,None,c,1,0.7198495001066476,828.1035080000293,None,,,,,M,,pE,2022_Mar_07_1253,training+cueing,2021.1.4,60.00063599761446,
Self.png,You,Self ,c,1,11,21,91,,,,,1,0,1,0,,,,,6,9,81,9,,,,,,,,,,,,,,,,,,,,,1.573,1.383,828.9607388000004,None,,,,,,,,,,,,,,,,,,,,829.5009934001137,830.0049163000658,0.5070788899902254,1.0076120898593217,829.9883644001093,830.0890647000633,829.9883644001093,830.0890647000633,830.0890647000633,None,c,1,0.9102560998871922,830.0890647000633,None,,,,,M,,pE,2022_Mar_07_1253,training+cueing,2021.1.4,60.00063599761446,
Self.png,Stranger,Self ,m,3.1,18,28,98,,,,,1,0,1,0,,,,,6,10,82,2,,,,,,,,,,,,,,,,,,,,,1.756,1.691,831.1303111999296,None,,,,,,,,,,,,,,,,,,,,831.6716688000597,832.1731602000073,0.5020264899358153,1.0023450900334865,832.1565912000369,832.2732257000171,832.1565912000369,832.2732257000171,832.2565119999927,None,m,1,0.6628044999670237,832.2565119999927,None,,,,,M,,pE,2022_Mar_07_1253,training+cueing,2021.1.4,60.00063599761446,
Friend.png,Friend,Friend,c,2,12,22,92,,,,,1,0,1,0,,,,,6,11,83,10,,,,,,,,,,,,,,,,,,,,,1.547,1.728,833.0462611000985,None,,,,,,,,,,,,,,,,,,,,833.5892044000793,834.0912216999568,0.505788889946416,1.006023189984262,834.0746909999289,834.1912573000882,834.0746909999289,834.1912573000882,834.1745537000243,None,c,1,0.9687728998251259,834.1745537000243,None,,,,,M,,pE,2022_Mar_07_1253,training+cueing,2021.1.4,60.00063599761446,
Self.png,Stranger,Self ,m,3.1,18,28,98,,,,,1,0,1,0,,,,,7,0,84,2,,,,,,,,,,,,,,,,,,,,,1.593,2.045,835.2646882000845,None,,,,,,,,,,,,,,,,,,,,835.8062309001107,836.3094482000452,0.5048869897145778,1.005171189783141,836.2929203000385,836.4095163000748,836.2929203000385,836.4095163000748,836.3928052999545,None,m,1,1.3104112001601607,836.3928052999545,None,,,,,M,,pE,2022_Mar_07_1253,training+cueing,2021.1.4,60.00063599761446,
Self.png,You,Self ,c,1,11,21,91,,,,,1,0,1,0,,,,,7,1,85,9,,,,,,,,,,,,,,,,,,,,,1.747,2.482,837.8337044001091,None,,,,,,,,,,,,,,,,,,,,838.3734627000522,838.8778943000361,0.5089414899703115,1.0092256900388747,838.861430699937,838.9613616999704,838.861430699937,838.9613616999704,838.9613616999704,None,c,1,0.9658840999472886,838.9613616999704,None,,,,,M,,pE,2022_Mar_07_1253,training+cueing,2021.1.4,60.00063599761446,
