Image,Name,Face,CorrAns,Match,Face_onset,CResponse_onset,IResponse_onset,Match.thisRepN,Match.thisTrialN,Match.thisN,Match.thisIndex,Blocks.thisRepN,Blocks.thisTrialN,Blocks.thisN,Blocks.thisIndex,trials.thisRepN,trials.thisTrialN,trials.thisN,trials.thisIndex,trials_2.thisRepN,trials_2.thisTrialN,trials_2.thisN,trials_2.thisIndex,text.started,text.stopped,p1.started,p1.stopped,MatchInstructions.started,MatchInstructions.stopped,Name1.started,Name1.stopped,Face_Relevance.started,Face_Relevance.stopped,MismatchInstructions.started,MismatchInstructions.stopped,Rest_trainingInstruct.started,Rest_trainingInstruct.stopped,next8.keys,next8.rt,next8.started,next8.stopped,Ready.started,Ready.stopped,delay_one_picked,delay_two_picked,blank0.started,blank0.stopped,FixationCross1.started,FixationCross1.stopped,Name3.started,Name3.stopped,Face_Relevance3.started,Face_Relevance3.stopped,responseTime.started,responseTime.stopped,resp.keys,resp.corr,resp.started,resp.stopped,Accuracy.started,Accuracy.stopped,resp.rt,questions.started,questions.stopped,p2.started,p2.stopped,FixationCross3.started,FixationCross3.stopped,port_Face_onset.started,port_Face_onset.stopped,Name4.started,Name4.stopped,Face_Relevance4.started,Face_Relevance4.stopped,responseTime2.started,responseTime2.stopped,Response.keys,Response.corr,Response.rt,Response.started,Response.stopped,p3.started,p3.stopped,Finish.started,Finish.stopped,gender,age,participant,date,expName,psychopyVersion,frameRate,
Stranger.png,Stranger,,,,,,,0,0,0,2,,,,,,,,,,,,,14.992745800002012,None,0.0028232599870534614,0.5229825599890319,25.23800779999874,None,41.25115170000208,None,41.25115170000208,None,,,,,,,,,,,,,,,,,,,,,,,,,,,,,,,,,,,,,,,,,,,,,,,,,,,,,,,ph,2022_Mar_22_1130,training+cueing,2021.1.4,59.71136719468498,
Self.png,You,,,,,,,0,1,1,0,,,,,,,,,,,,,,,,,,,61.15032059999794,None,61.15032059999794,None,,,,,,,,,,,,,,,,,,,,,,,,,,,,,,,,,,,,,,,,,,,,,,,,,,,,,,,ph,2022_Mar_22_1130,training+cueing,2021.1.4,59.71136719468498,
Friend.png,Friend,,,,,,,0,2,2,1,,,,,,,,,,,,,,,,,,,81.13322750000225,None,81.13322750000225,None,,,,,,,,,,,,,,,,,,,,,,,,,,,,,,,,,,,,,,,,,,,,,,,,,,,,,,,ph,2022_Mar_22_1130,training+cueing,2021.1.4,59.71136719468498,
Self.png,Stranger,Self ,m,3.1,18,28,98,,,,,0,0,0,0,0,0,0,2,,,,,,,,,,,,,,,101.0936051000026,None,124.85916809999617,None,space,19.0451219999959,2.0077077700043446,None,145.90977179999754,None,1.79,1.748,148.92109589999745,None,149.53492839999672,150.04600689999643,150.02934729999834,150.14605499999743,150.02934729999834,150.14605499999743,150.1294562999974,None,None,0,150.1294562999974,None,151.92900820000068,None,,,,,,,,,,,,,,,,,,,,,,,,,,,ph,2022_Mar_22_1130,training+cueing,2021.1.4,59.71136719468498,
Stranger.png,Friend,Stranger,m,2.3,17,27,97,,,,,0,0,0,0,0,1,1,7,,,,,,,,,,,,,,,,,,,,,,,,,1.552,2.015,152.3310158999957,None,152.8639387000003,153.36513469999772,153.34846560000005,153.46518249999644,153.34846560000005,153.46518249999644,153.46518249999644,None,c,0,153.46518249999644,None,153.99895819999801,None,0.5058252000017092,,,,,,,,,,,,,,,,,,,,,,,,,,ph,2022_Mar_22_1130,training+cueing,2021.1.4,59.71136719468498,
Stranger.png,You,Stranger,m,1.3,15,25,95,,,,,0,0,0,0,0,2,2,6,,,,,,,,,,,,,,,,,,,,,,,,,1.519,2.49,154.3993868999969,None,154.93415719999757,155.43329809999705,155.43329809999705,155.53335929999594,155.43329809999705,155.53335929999594,155.53335929999594,None,None,0,155.53335929999594,None,157.0678423999998,None,,,,,,,,,,,,,,,,,,,,,,,,,,,ph,2022_Mar_22_1130,training+cueing,2021.1.4,59.71136719468498,
Self.png,You,Self ,c,1,11,21,91,,,,,0,0,0,0,0,3,3,9,,,,,,,,,,,,,,,,,,,,,,,,,1.449,1.223,157.46810430000187,None,157.99620200000209,158.50221159999637,158.48554519999743,158.58561429999827,158.48554519999743,158.58561429999827,158.58561429999827,None,c,1,158.58561429999827,None,159.05152519999683,None,0.4414300999997067,,,,,,,,,,,,,,,,,,,,,,,,,,ph,2022_Mar_22_1130,training+cueing,2021.1.4,59.71136719468498,
Stranger.png,Stranger,Stranger,c,3,13,23,93,,,,,0,0,0,0,0,4,4,8,,,,,,,,,,,,,,,,,,,,,,,,,1.411,2.297,159.45292289999634,None,159.9859037999995,160.48702459999913,160.47041549999994,160.58705519999785,160.47041549999994,160.58705519999785,160.57037899999705,None,m,0,160.57037899999705,None,160.85453530000086,None,0.26458699999784585,,,,,,,,,,,,,,,,,,,,,,,,,,ph,2022_Mar_22_1130,training+cueing,2021.1.4,59.71136719468498,
Self.png,You,Self ,c,1,11,21,91,,,,,0,0,0,0,0,5,5,0,,,,,,,,,,,,,,,,,,,,,,,,,1.534,1.409,161.25436179999815,None,161.79476609999983,162.30516740000166,162.28845429999637,162.3885459000012,162.28845429999637,162.3885459000012,162.3885459000012,None,None,0,162.3885459000012,None,163.92307869999786,None,,,,,,,,,,,,,,,,,,,,,,,,,,,ph,2022_Mar_22_1130,training+cueing,2021.1.4,59.71136719468498,
Self.png,Friend,Self ,m,2.1,16,26,96,,,,,0,0,0,0,0,6,6,1,,,,,,,,,,,,,,,,,,,,,,,,,1.404,1.26,164.32334370000171,None,164.85275099999853,165.35728160000144,165.34057429999666,165.45731920000253,165.34057429999666,165.45731920000253,165.44058819999918,None,c,0,165.44058819999918,None,165.89098209999793,None,0.4184823999967193,,,,,,,,,,,,,,,,,,,,,,,,,,ph,2022_Mar_22_1130,training+cueing,2021.1.4,59.71136719468498,
Friend.png,Friend,Friend,c,2,12,22,92,,,,,0,0,0,0,0,7,7,10,,,,,,,,,,,,,,,,,,,,,,,,,1.492,1.902,166.291266799999,None,166.82081910000124,167.32535179999832,167.3086714000019,167.4259600000005,167.3086714000019,167.4259600000005,167.40889629999583,None,m,0,167.40889629999583,None,167.74121310000191,None,0.30647640000097454,,,,,,,,,,,,,,,,,,,,,,,,,,ph,2022_Mar_22_1130,training+cueing,2021.1.4,59.71136719468498,
Friend.png,Friend,Friend,c,2,12,22,92,,,,,0,0,0,0,0,8,8,4,,,,,,,,,,,,,,,,,,,,,,,,,1.654,2.107,168.14289099999587,None,168.6845525999961,169.19338209999842,169.17676190000202,169.29345289999765,169.17676190000202,169.29345289999765,169.2767590000003,None,c,1,169.2767590000003,None,169.4922116000016,None,0.19832209999731276,,,,,,,,,,,,,,,,,,,,,,,,,,ph,2022_Mar_22_1130,training+cueing,2021.1.4,59.71136719468498,
Friend.png,You,Friend,m,1.2,14,24,94,,,,,0,0,0,0,0,9,9,3,,,,,,,,,,,,,,,,,,,,,,,,,1.584,2.259,169.89390840000124,None,170.42640559999563,170.92802849999862,170.9113279000012,171.0113760999957,170.9113279000012,171.0113760999957,171.0113760999957,None,c,0,171.0113760999957,None,171.27826639999694,None,0.239669499998854,,,,,,,,,,,,,,,,,,,,,,,,,,ph,2022_Mar_22_1130,training+cueing,2021.1.4,59.71136719468498,
Stranger.png,Stranger,Stranger,c,3,13,23,93,,,,,0,0,0,0,0,10,10,11,,,,,,,,,,,,,,,,,,,,,,,,,1.437,1.809,171.67867110000225,None,172.2143458999999,172.7292759999982,172.71264939999674,172.82937249999668,172.71264939999674,172.82937249999668,172.81269109999994,None,c,1,172.81269109999994,None,173.84523130000161,None,1.0144280000022263,,,,,,,,,,,,,,,,,,,,,,,,,,ph,2022_Mar_22_1130,training+cueing,2021.1.4,59.71136719468498,
Friend.png,Stranger,Friend,m,3.2,19,29,99,,,,,0,0,0,0,0,11,11,5,,,,,,,,,,,,,,,,,,,,,,,,,1.65,1.814,174.24708929999906,None,174.7762328999961,175.2812197000021,175.2645476999969,175.38124160000007,175.2645476999969,175.38124160000007,175.3645228999958,None,m,1,175.3645228999958,None,175.66483560000052,None,0.2706142000024556,,,,,,,,,,,,,,,,,,,,,,,,,,ph,2022_Mar_22_1130,training+cueing,2021.1.4,59.71136719468498,
Stranger.png,Friend,Stranger,m,2.3,17,27,97,,,,,0,0,0,0,,,,,0,0,0,7,,,,,,,,,,,,,,,,,,,207.98876059999748,None,1.606,1.477,211.50724439999613,None,,,,,,,,,,,,,,,,176.06510949999938,None,0.014250570005970076,0.5122873700092896,212.129408599998,212.64196799999627,0.5058587599996827,None,212.6253280000019,212.7422265999994,212.6253280000019,212.7422265999994,212.72547620000114,None,c,0,0.3655432000014116,212.72547620000114,None,,,,,,,ph,2022_Mar_22_1130,training+cueing,2021.1.4,59.71136719468498,
Self.png,You,Self ,c,1,11,21,91,,,,,0,0,0,0,,,,,0,1,1,0,,,,,,,,,,,,,,,,,,,,,1.436,1.96,213.21667829999933,None,,,,,,,,,,,,,,,,,,,,213.75817749999987,214.2598644000027,0.5039337099951808,1.0042871099940385,214.2432090000002,214.34327089999715,214.2432090000002,214.34327089999715,214.34327089999715,None,c,1,0.5559375000011642,214.34327089999715,None,,,,,,,ph,2022_Mar_22_1130,training+cueing,2021.1.4,59.71136719468498,
Friend.png,Stranger,Friend,m,3.2,19,29,99,,,,,0,0,0,0,,,,,0,2,2,5,,,,,,,,,,,,,,,,,,,,,1.734,2.323,215.03326289999677,None,,,,,,,,,,,,,,,,,,,,215.5752704999977,216.07788070000242,0.5056378099980066,None,216.06120999999985,216.17793679999886,216.06120999999985,216.17793679999886,216.16123099999822,None,m,1,0.3060486000031233,216.16123099999822,None,,,,,,,ph,2022_Mar_22_1130,training+cueing,2021.1.4,59.71136719468498,
Friend.png,Friend,Friend,c,2,12,22,92,,,,,0,0,0,0,,,,,0,3,3,10,,,,,,,,,,,,,,,,,,,,,1.736,2.121,216.60067100000015,None,,,,,,,,,,,,,,,,,,,,217.14146009999968,217.64572059999773,0.5058775099969353,1.006170109998493,217.62902590000158,217.74573019999661,217.62902590000158,217.74573019999661,217.72906449999573,None,c,1,0.4499855999965803,217.72906449999573,None,,,,,,,ph,2022_Mar_22_1130,training+cueing,2021.1.4,59.71136719468498,
Friend.png,Friend,Friend,c,2,12,22,92,,,,,0,0,0,0,,,,,0,4,4,4,,,,,,,,,,,,,,,,,,,,,1.772,1.231,218.3024129999976,None,,,,,,,,,,,,,,,,,,,,218.83899029999884,219.3469660999981,0.5154521099902922,None,219.3302765999979,219.446978699998,219.3302765999979,219.446978699998,219.43028449999838,None,m,0,0.3647195000012289,219.43028449999838,None,,,,,,,ph,2022_Mar_22_1130,training+cueing,2021.1.4,59.71136719468498,
Friend.png,You,Friend,m,1.2,14,24,94,,,,,0,0,0,0,,,,,0,5,5,3,,,,,,,,,,,,,,,,,,,,,1.455,1.829,219.92062559999613,None,,,,,,,,,,,,,,,,,,,,220.46107089999714,220.96482770000148,0.507546810003987,1.0078845099997125,220.94811779999873,221.04817419999745,220.94811779999873,221.04817419999745,221.04817419999745,None,m,1,0.39487630000076024,221.04817419999745,None,,,,,,,ph,2022_Mar_22_1130,training+cueing,2021.1.4,59.71136719468498,
Self.png,Stranger,Self ,m,3.1,18,28,98,,,,,0,0,0,0,,,,,0,6,6,2,,,,,,,,,,,,,,,,,,,,,1.465,2.393,221.57175969999662,None,,,,,,,,,,,,,,,,,,,,222.11205679999694,222.6160665999996,0.5051715099980356,None,222.59933749999618,222.71618299999682,222.59933749999618,222.71618299999682,222.6993975000005,None,c,0,0.32773810000071535,222.6993975000005,None,,,,,,,ph,2022_Mar_22_1130,training+cueing,2021.1.4,59.71136719468498,
Stranger.png,Stranger,Stranger,c,3,13,23,93,,,,,0,0,0,0,,,,,0,7,7,8,,,,,,,,,,,,,,,,,,,,,1.776,2.382,223.1557612999968,None,,,,,,,,,,,,,,,,,,,,223.69518219999736,224.2005289000008,0.5116128099980415,1.0118967099988367,224.18387249999796,224.30060159999994,224.18387249999796,224.30060159999994,224.28386569999566,None,c,1,1.1593610999989323,224.28386569999566,None,,,,,,,ph,2022_Mar_22_1130,training+cueing,2021.1.4,59.71136719468498,
Stranger.png,You,Stranger,m,1.3,15,25,95,,,,,0,0,0,0,,,,,0,8,8,6,,,,,,,,,,,,,,,,,,,,,1.523,2.001,225.57485319999978,None,,,,,,,,,,,,,,,,,,,,226.1134460999965,226.61894159999792,0.5077929100007168,1.0080930099938996,226.60228859999916,226.70255329999782,226.60228859999916,226.70255329999782,226.70255329999782,None,c,0,0.8844929999977467,226.70255329999782,None,,,,,,,ph,2022_Mar_22_1130,training+cueing,2021.1.4,59.71136719468498,
Self.png,Friend,Self ,m,2.1,16,26,96,,,,,0,0,0,0,,,,,0,9,9,1,,,,,,,,,,,,,,,,,,,,,1.614,2.394,227.70877169999585,None,,,,,,,,,,,,,,,,,,,,228.24725509999553,228.75390139999945,0.5116196099988883,None,228.73711270000058,228.85393779999868,228.73711270000058,228.85393779999868,228.83722729999863,None,m,1,0.28585259999817936,228.83722729999863,None,,,,,,,ph,2022_Mar_22_1130,training+cueing,2021.1.4,59.71136719468498,
Stranger.png,Stranger,Stranger,c,3,13,23,93,,,,,0,0,0,0,,,,,0,10,10,11,,,,,,,,,,,,,,,,,,,,,1.452,1.23,229.26063160000194,None,,,,,,,,,,,,,,,,,,,,229.8087252999976,230.32170760000008,0.5096116099957726,None,230.30499930000224,230.4217639999988,230.30499930000224,230.4217639999988,230.40506820000155,None,c,1,0.3659927000044263,230.40506820000155,None,,,,,,,ph,2022_Mar_22_1130,training+cueing,2021.1.4,59.71136719468498,
Self.png,You,Self ,c,1,11,21,91,,,,,0,0,0,0,,,,,0,11,11,9,,,,,,,,,,,,,,,,,,,,,1.445,2.343,230.89441950000037,None,,,,,,,,,,,,,,,,,,,,231.4335202000002,231.9395607999977,0.5092534099967452,1.0095423099919572,231.92288669999834,232.02293199999986,231.92288669999834,232.02293199999986,232.02293199999986,None,c,1,0.6040828999975929,232.02293199999986,None,,,,,,,ph,2022_Mar_22_1130,training+cueing,2021.1.4,59.71136719468498,
Friend.png,Friend,Friend,c,2,12,22,92,,,,,0,0,0,0,,,,,1,0,12,10,,,,,,,,,,,,,,,,,,,,,1.637,2.31,232.76303090000147,None,,,,,,,,,,,,,,,,,,,,233.32069699999556,233.82426339999802,0.5070040799982962,1.0072538800013717,233.80762559999857,233.92426970000088,233.80762559999857,233.92426970000088,233.90763309999602,None,c,1,0.6395806000000448,233.90763309999602,None,,,,,,,ph,2022_Mar_22_1130,training+cueing,2021.1.4,59.71136719468498,
Friend.png,Friend,Friend,c,2,12,22,92,,,,,0,0,0,0,,,,,1,1,13,4,,,,,,,,,,,,,,,,,,,,,1.523,1.328,234.68143509999936,None,,,,,,,,,,,,,,,,,,,,235.21766019999632,235.72562889999972,0.5146086099921376,1.0148968099892954,235.70898309999757,235.82568889999675,235.70898309999757,235.82568889999675,235.8090233999974,None,None,0,,235.8090233999974,None,,,,,,,ph,2022_Mar_22_1130,training+cueing,2021.1.4,59.71136719468498,
Stranger.png,Friend,Stranger,m,2.3,17,27,97,,,,,0,0,0,0,,,,,1,2,14,7,,,,,,,,,,,,,,,,,,,,,1.708,1.652,237.44719649999752,None,,,,,,,,,,,,,,,,,,,,237.98527289999765,238.4942974000005,0.4999729099945398,None,238.4610124999963,238.5610627999995,238.4610124999963,238.5610627999995,238.5610627999995,None,c,0,0.2740879000048153,238.5610627999995,None,,,,,,,ph,2022_Mar_22_1130,training+cueing,2021.1.4,59.71136719468498,
Self.png,You,Self ,c,1,11,21,91,,,,,0,0,0,0,,,,,1,3,15,0,,,,,,,,,,,,,,,,,,,,,1.54,2.333,238.96764029999758,None,,,,,,,,,,,,,,,,,,,,239.50516760000028,240.01214299999992,0.5128377100045327,1.013031710004725,239.99549139999726,240.09547210000164,239.99549139999726,240.09547210000164,240.09547210000164,None,c,1,0.49955169999884674,240.09547210000164,None,,,,,,,ph,2022_Mar_22_1130,training+cueing,2021.1.4,59.71136719468498,
Self.png,Friend,Self ,m,2.1,16,26,96,,,,,0,0,0,0,,,,,1,4,16,1,,,,,,,,,,,,,,,,,,,,,1.514,1.501,240.71830139999656,None,,,,,,,,,,,,,,,,,,,,241.25723819999985,241.763455100001,0.5089672099857125,1.0090507099885144,241.74689779999608,241.8634669000021,241.74689779999608,241.8634669000021,241.8467509999973,None,None,0,,241.8467509999973,None,,,,,,,ph,2022_Mar_22_1130,training+cueing,2021.1.4,59.71136719468498,
Friend.png,You,Friend,m,1.2,14,24,94,,,,,0,0,0,0,,,,,1,5,17,3,,,,,,,,,,,,,,,,,,,,,1.566,1.602,243.4682283000002,None,,,,,,,,,,,,,,,,,,,,244.00990569999703,244.515447699996,0.5109459099985543,1.0110524100018665,244.4988811000003,244.59876939999958,244.4988811000003,244.59876939999958,244.59876939999958,None,m,1,0.5565215000024182,244.59876939999958,None,,,,,,,ph,2022_Mar_22_1130,training+cueing,2021.1.4,59.71136719468498,
Self.png,You,Self ,c,1,11,21,91,,,,,0,0,0,0,,,,,1,6,18,9,,,,,,,,,,,,,,,,,,,,,1.747,2.189,245.28924469999765,None,,,,,,,,,,,,,,,,,,,,245.82811489999585,246.33342550000089,0.511607409993303,1.0118288099984056,246.31682549999823,246.4168159999972,246.31682549999823,246.4168159999972,246.4168159999972,None,c,1,0.45017010000447044,246.4168159999972,None,,,,,,,ph,2022_Mar_22_1130,training+cueing,2021.1.4,59.71136719468498,
Stranger.png,Stranger,Stranger,c,3,13,23,93,,,,,0,0,0,0,,,,,1,7,19,11,,,,,,,,,,,,,,,,,,,,,1.652,1.511,246.98957939999673,None,,,,,,,,,,,,,,,,,,,,247.53235970000242,248.0347569000005,0.5029487099964172,1.0030863099964336,248.01804509999783,248.13482079999812,248.01804509999783,248.13482079999812,248.11811239999952,None,c,1,0.8289355000015348,248.11811239999952,None,,,,,,,ph,2022_Mar_22_1130,training+cueing,2021.1.4,59.71136719468498,
Self.png,Stranger,Self ,m,3.1,18,28,98,,,,,0,0,0,0,,,,,1,8,20,2,,,,,,,,,,,,,,,,,,,,,1.432,1.76,249.0748237000007,None,,,,,,,,,,,,,,,,,,,,249.61338219999743,250.11948909999774,0.512394809993566,1.0127089099914883,250.10281419999956,250.2194995000027,250.10281419999956,250.2194995000027,250.2028571999981,None,m,1,0.7922353999965708,250.2028571999981,None,,,,,,,ph,2022_Mar_22_1130,training+cueing,2021.1.4,59.71136719468498,
Stranger.png,You,Stranger,m,1.3,15,25,95,,,,,0,0,0,0,,,,,1,9,21,6,,,,,,,,,,,,,,,,,,,,,1.597,1.241,251.12580709999747,None,,,,,,,,,,,,,,,,,,,,251.67705269999715,252.18768779999664,0.50534610998875,1.005607709994365,252.17100879999634,252.27104130000225,252.17100879999634,252.27104130000225,252.27104130000225,None,c,0,0.5479494999963208,252.27104130000225,None,,,,,,,ph,2022_Mar_22_1130,training+cueing,2021.1.4,59.71136719468498,
Friend.png,Stranger,Friend,m,3.2,19,29,99,,,,,0,0,0,0,,,,,1,10,22,5,,,,,,,,,,,,,,,,,,,,,1.73,1.666,252.94391599999653,None,,,,,,,,,,,,,,,,,,,,253.48168089999672,253.98896889999742,0.5117007099979674,1.0119760099987616,253.9723124000011,254.08901660000265,253.9723124000011,254.08901660000265,254.0723300000027,None,m,1,0.6667004999981145,254.0723300000027,None,,,,,,,ph,2022_Mar_22_1130,training+cueing,2021.1.4,59.71136719468498,
Stranger.png,Stranger,Stranger,c,3,13,23,93,,,,,0,0,0,0,,,,,1,11,23,8,,,,,,,,,,,,,,,,,,,,,1.776,1.363,254.86218940000253,None,,,,,,,,,,,,,,,,,,,,255.3997406999988,255.90706959999807,0.5143128099953174,1.0146494099899428,255.89035059999878,256.0072098000019,255.89035059999878,256.0072098000019,255.99047740000242,None,c,1,0.5086618999994243,255.99047740000242,None,,,,,,,ph,2022_Mar_22_1130,training+cueing,2021.1.4,59.71136719468498,
Self.png,You,Self ,c,1,11,21,91,,,,,0,0,0,0,,,,,2,0,24,9,,,,,,,,,,,,,,,,,,,,,1.452,1.423,256.62966230000166,None,,,,,,,,,,,,,,,,,,,,257.1698421999972,257.6749889999992,0.5073382099944865,1.007640209994861,257.6583299999984,257.75840349999635,257.6583299999984,257.75840349999635,257.75840349999635,None,c,1,0.4207461999976658,257.75840349999635,None,,,,,,,ph,2022_Mar_22_1130,training+cueing,2021.1.4,59.71136719468498,
Self.png,Stranger,Self ,m,3.1,18,28,98,,,,,0,0,0,0,,,,,2,1,25,2,,,,,,,,,,,,,,,,,,,,,1.632,2.045,258.3152176000003,None,,,,,,,,,,,,,,,,,,,,258.85729519999586,259.35954889999994,0.5053062099905219,1.0056048099941108,259.34287120000226,259.4595785999991,259.34287120000226,259.4595785999991,259.4429048999955,None,m,1,0.8641671999939717,259.4429048999955,None,,,,,,,ph,2022_Mar_22_1130,training+cueing,2021.1.4,59.71136719468498,
Self.png,Friend,Self ,m,2.1,16,26,96,,,,,0,0,0,0,,,,,2,2,26,1,,,,,,,,,,,,,,,,,,,,,1.412,2.44,260.4323022999961,None,,,,,,,,,,,,,,,,,,,,260.9707675999962,261.4777610000019,0.5123989099884056,1.0126951099882717,261.4610621999964,261.5778207999974,261.4610621999964,261.5778207999974,261.56108629999653,None,m,1,1.0339588999995613,261.56108629999653,None,,,,,,,ph,2022_Mar_22_1130,training+cueing,2021.1.4,59.71136719468498,
Stranger.png,You,Stranger,m,1.3,15,25,95,,,,,0,0,0,0,,,,,2,3,27,6,,,,,,,,,,,,,,,,,,,,,1.576,1.496,262.7178760999959,None,,,,,,,,,,,,,,,,,,,,263.29130799999984,263.79610749999847,0.509764249996806,1.010057350002171,263.7794059000007,263.8794665999958,263.7794059000007,263.8794665999958,263.8794665999958,None,c,0,0.6356752000065171,263.8794665999958,None,,,,,,,ph,2022_Mar_22_1130,training+cueing,2021.1.4,59.71136719468498,
Friend.png,Friend,Friend,c,2,12,22,92,,,,,0,0,0,0,,,,,2,4,28,10,,,,,,,,,,,,,,,,,,,,,1.547,1.243,264.65294580000045,None,,,,,,,,,,,,,,,,,,,,265.1908177000005,265.69745749999856,0.5132864100014558,1.0135512099950574,265.6808041999975,265.7975002000021,265.6808041999975,265.7975002000021,265.78082970000105,None,m,0,0.750248800002737,265.78082970000105,None,,,,,,,ph,2022_Mar_22_1130,training+cueing,2021.1.4,59.71136719468498,
Friend.png,Stranger,Friend,m,3.2,19,29,99,,,,,0,0,0,0,,,,,2,5,29,5,,,,,,,,,,,,,,,,,,,,,1.675,2.283,266.653627300002,None,,,,,,,,,,,,,,,,,,,,267.1954837000012,267.69890830000077,0.5070714099929319,1.007362109994574,267.68226709999726,267.7989746000021,267.68226709999726,267.7989746000021,267.7822956000018,None,m,1,0.4767836000028183,267.7822956000018,None,,,,,,,ph,2022_Mar_22_1130,training+cueing,2021.1.4,59.71136719468498,
Stranger.png,Stranger,Stranger,c,3,13,23,93,,,,,0,0,0,0,,,,,2,6,30,8,,,,,,,,,,,,,,,,,,,,,1.469,2.385,268.3885048000011,None,,,,,,,,,,,,,,,,,,,,268.92649040000106,269.43355619999784,0.5112451100067119,1.0115240100058145,269.4168361999982,269.53359590000036,269.4168361999982,269.53359590000036,269.5171098999999,None,m,0,1.1099629000018467,269.5171098999999,None,,,,,,,ph,2022_Mar_22_1130,training+cueing,2021.1.4,59.71136719468498,
Friend.png,You,Friend,m,1.2,14,24,94,,,,,0,0,0,0,,,,,2,7,31,3,,,,,,,,,,,,,,,,,,,,,1.429,2.405,270.75752539999667,None,,,,,,,,,,,,,,,,,,,,271.2972630000004,271.8020777999991,0.5094686099910177,1.009591409994755,271.7853496000025,271.885285999997,271.7853496000025,271.885285999997,271.885285999997,None,m,1,0.5817643000045791,271.885285999997,None,,,,,,,ph,2022_Mar_22_1130,training+cueing,2021.1.4,59.71136719468498,
Stranger.png,Friend,Stranger,m,2.3,17,27,97,,,,,0,0,0,0,,,,,2,8,32,7,,,,,,,,,,,,,,,,,,,,,1.642,1.986,272.59204319999844,None,,,,,,,,,,,,,,,,,,,,273.1318214999992,273.6366111000025,0.5063296099979198,1.0065519099953235,273.61994689999847,273.7366489999986,273.61994689999847,273.7366489999986,273.7199307999981,None,c,0,0.8432433999987552,273.7199307999981,None,,,,,,,ph,2022_Mar_22_1130,training+cueing,2021.1.4,59.71136719468498,
Friend.png,Friend,Friend,c,2,12,22,92,,,,,0,0,0,0,,,,,2,9,33,4,,,,,,,,,,,,,,,,,,,,,1.744,1.624,274.69527430000016,None,,,,,,,,,,,,,,,,,,,,275.23126699999557,275.73808799999824,0.5133678100028192,1.0136535100027686,275.72139869999955,275.83814130000246,275.72139869999955,275.83814130000246,275.82141409999895,None,m,0,0.5656071000048541,275.82141409999895,None,,,,,,,ph,2022_Mar_22_1130,training+cueing,2021.1.4,59.71136719468498,
Stranger.png,Stranger,Stranger,c,3,13,23,93,,,,,0,0,0,0,,,,,2,10,34,11,,,,,,,,,,,,,,,,,,,,,1.747,1.581,276.5111897999959,None,,,,,,,,,,,,,,,,,,,,277.0529408000002,277.55613769999763,0.5054772099974798,1.0056352099927608,277.53949199999624,277.6561350999982,277.53949199999624,277.6561350999982,277.63939240000036,None,m,0,0.6996759000030579,277.63939240000036,None,,,,,,,ph,2022_Mar_22_1130,training+cueing,2021.1.4,59.71136719468498,
Self.png,You,Self ,c,1,11,21,91,,,,,0,0,0,0,,,,,2,11,35,0,,,,,,,,,,,,,,,,,,,,,1.742,2.268,278.46286639999744,None,,,,,,,,,,,,,,,,,,,,278.99990550000075,279.50773219999974,0.5131203099954291,1.0134326100014732,279.4907796999978,279.5908261000004,279.4907796999978,279.5908261000004,279.5908261000004,None,c,1,0.636261799998465,279.5908261000004,None,,,,,,,ph,2022_Mar_22_1130,training+cueing,2021.1.4,59.71136719468498,
Self.png,You,Self ,c,1,11,21,91,,,,,0,0,0,0,,,,,3,0,36,0,,,,,,,,,,,,,,,,,,,,,1.701,1.289,280.3638527000003,None,,,,,,,,,,,,,,,,,,,,280.90243799999735,281.4088628000027,0.5125229100012803,1.0128537100026733,281.39216250000027,281.4922325000007,281.39216250000027,281.4922325000007,281.4922325000007,None,m,0,1.0868208999963826,281.4922325000007,None,,,,,,,ph,2022_Mar_22_1130,training+cueing,2021.1.4,59.71136719468498,
Friend.png,Friend,Friend,c,2,12,22,92,,,,,0,0,0,0,,,,,3,1,37,4,,,,,,,,,,,,,,,,,,,,,1.541,1.798,282.71638359999633,None,,,,,,,,,,,,,,,,,,,,283.2544338000007,283.76058390000253,0.5108334100004868,1.0111062099967967,283.7438861999981,283.86061569999583,283.7438861999981,283.86061569999583,283.8439037999997,None,m,0,0.831142600000021,283.8439037999997,None,,,,,,,ph,2022_Mar_22_1130,training+cueing,2021.1.4,59.71136719468498,
Self.png,Friend,Self ,m,2.1,16,26,96,,,,,0,0,0,0,,,,,3,2,38,1,,,,,,,,,,,,,,,,,,,,,1.557,1.221,284.80148799999733,None,,,,,,,,,,,,,,,,,,,,285.33846049999556,285.845404300002,0.5112545099909767,1.0115092099949834,285.82876509999915,285.94545339999604,285.82876509999915,285.94545339999604,285.9287552999958,None,m,1,1.0183296000031987,285.9287552999958,None,,,,,,,ph,2022_Mar_22_1130,training+cueing,2021.1.4,59.71136719468498,
Self.png,You,Self ,c,1,11,21,91,,,,,0,0,0,0,,,,,3,3,39,9,,,,,,,,,,,,,,,,,,,,,1.553,2.449,287.06858600000123,None,,,,,,,,,,,,,,,,,,,,287.6074532999992,288.1136933000016,0.5114193099943805,1.0117139099966153,288.0970206999991,288.1970927000002,288.0970206999991,288.1970927000002,288.1970927000002,None,c,1,0.6540029999960097,288.1970927000002,None,,,,,,,ph,2022_Mar_22_1130,training+cueing,2021.1.4,59.71136719468498,
Friend.png,You,Friend,m,1.2,14,24,94,,,,,0,0,0,0,,,,,3,4,40,3,,,,,,,,,,,,,,,,,,,,,1.79,1.855,288.9865512999968,None,,,,,,,,,,,,,,,,,,,,289.52525980000064,290.0317978000021,0.5103658099978929,1.0107014099994558,290.015052499999,290.11535469999944,290.015052499999,290.11535469999944,290.11535469999944,None,m,1,0.6077380999995512,290.11535469999944,None,,,,,,,ph,2022_Mar_22_1130,training+cueing,2021.1.4,59.71136719468498,
Self.png,Stranger,Self ,m,3.1,18,28,98,,,,,0,0,0,0,,,,,3,5,41,2,,,,,,,,,,,,,,,,,,,,,1.527,2.428,290.855527599997,None,,,,,,,,,,,,,,,,,,,,291.39702099999704,291.89991759999975,0.5051032100018347,1.0053367099972093,291.88323729999684,291.9999450999967,291.88323729999684,291.9999450999967,291.9833004999964,None,m,1,0.7877481999967131,291.9833004999964,None,,,,,,,ph,2022_Mar_22_1130,training+cueing,2021.1.4,59.71136719468498,
Stranger.png,Stranger,Stranger,c,3,13,23,93,,,,,0,0,0,0,,,,,3,6,42,11,,,,,,,,,,,,,,,,,,,,,1.473,2.198,292.9066948999971,None,,,,,,,,,,,,,,,,,,,,293.4437343000027,293.9512823999976,0.5145440099950065,1.014842509997834,293.93456380000134,294.0513367999956,293.93456380000134,294.0513367999956,294.0345981999999,None,m,0,1.0884957000016584,294.0345981999999,None,,,,,,,ph,2022_Mar_22_1130,training+cueing,2021.1.4,59.71136719468498,
Stranger.png,You,Stranger,m,1.3,15,25,95,,,,,0,0,0,0,,,,,3,7,43,6,,,,,,,,,,,,,,,,,,,,,1.433,2.087,295.26177050000115,None,,,,,,,,,,,,,,,,,,,,295.7989768999978,296.30299209999794,0.5058343099954072,1.0061401099956129,296.2862707000022,296.3863188999967,296.2862707000022,296.3863188999967,296.3863188999967,None,m,1,0.768789800000377,296.3863188999967,None,,,,,,,ph,2022_Mar_22_1130,training+cueing,2021.1.4,59.71136719468498,
Friend.png,Stranger,Friend,m,3.2,19,29,99,,,,,0,0,0,0,,,,,3,8,44,5,,,,,,,,,,,,,,,,,,,,,1.724,1.811,297.2767068999965,None,,,,,,,,,,,,,,,,,,,,297.81774420000147,298.3210822999972,0.5074387100030435,1.0078437100019073,298.30439320000005,298.4211443999957,298.30439320000005,298.4211443999957,298.4044176000025,None,c,0,0.9587452000050689,298.4044176000025,None,,,,,,,ph,2022_Mar_22_1130,training+cueing,2021.1.4,59.71136719468498,
Stranger.png,Stranger,Stranger,c,3,13,23,93,,,,,0,0,0,0,,,,,3,9,45,8,,,,,,,,,,,,,,,,,,,,,1.759,1.564,299.4941997999995,None,,,,,,,,,,,,,,,,,,,,300.03016209999623,300.5393469999981,0.5011070400141762,1.0013522400113288,300.52269369999703,300.63941689999774,300.52269369999703,300.63941689999774,300.63941689999774,None,m,0,0.7395980000001146,300.63941689999774,None,,,,,,,ph,2022_Mar_22_1130,training+cueing,2021.1.4,59.71136719468498,
Friend.png,Friend,Friend,c,2,12,22,92,,,,,0,0,0,0,,,,,3,10,46,10,,,,,,,,,,,,,,,,,,,,,1.482,2.467,301.5129137999975,None,,,,,,,,,,,,,,,,,,,,302.06408479999664,302.5741598999957,0.5014438099897234,1.001758009995683,302.55750629999966,302.6742041999969,302.55750629999966,302.6742041999969,302.6742041999969,None,m,0,0.6408838999996078,302.6742041999969,None,,,,,,,ph,2022_Mar_22_1130,training+cueing,2021.1.4,59.71136719468498,
Stranger.png,Friend,Stranger,m,2.3,17,27,97,,,,,0,0,0,0,,,,,3,11,47,7,,,,,,,,,,,,,,,,,,,,,1.635,1.364,303.4477456999957,None,,,,,,,,,,,,,,,,,,,,303.982580099997,304.49219900000026,0.5012187400061521,1.0014982400025474,304.47554189999937,304.59231899999577,304.47554189999937,304.59231899999577,304.59231899999577,None,c,0,0.7067230999964522,304.59231899999577,None,,,,,,,ph,2022_Mar_22_1130,training+cueing,2021.1.4,59.71136719468498,
Friend.png,You,Friend,m,1.2,14,24,94,,,,,0,0,0,0,,,,,4,0,48,3,,,,,,,,,,,,,,,,,,,,,1.57,1.283,305.4328738999975,None,,,,,,,,,,,,,,,,,,,,305.97136840000167,306.4769823000024,0.5093910100040375,1.0097103100051754,306.46038229999976,306.5603909999991,306.46038229999976,306.5603909999991,306.5603909999991,None,m,1,0.5787256999974488,306.5603909999991,None,,,,,,,ph,2022_Mar_22_1130,training+cueing,2021.1.4,59.71136719468498,
Friend.png,Stranger,Friend,m,3.2,19,29,99,,,,,0,0,0,0,,,,,4,1,49,5,,,,,,,,,,,,,,,,,,,,,1.722,2.487,307.2665677999976,None,,,,,,,,,,,,,,,,,,,,307.80819429999974,308.311670199997,0.5062058099865681,1.0064611099878675,308.2949804000018,308.41168599999946,308.2949804000018,308.41168599999946,308.39499200000137,None,m,1,0.5521366000029957,308.39499200000137,None,,,,,,,ph,2022_Mar_22_1130,training+cueing,2021.1.4,59.71136719468498,
Stranger.png,You,Stranger,m,1.3,15,25,95,,,,,0,0,0,0,,,,,4,2,50,6,,,,,,,,,,,,,,,,,,,,,1.463,1.478,309.08447680000245,None,,,,,,,,,,,,,,,,,,,,309.6232228000008,310.1296207999985,0.5136438100016676,1.0139404100045795,310.1129385000022,310.2129978000012,310.1129385000022,310.2129978000012,310.2129978000012,None,c,0,0.9261391000036383,310.2129978000012,None,,,,,,,ph,2022_Mar_22_1130,training+cueing,2021.1.4,59.71136719468498,
Friend.png,Friend,Friend,c,2,12,22,92,,,,,0,0,0,0,,,,,4,3,51,10,,,,,,,,,,,,,,,,,,,,,1.695,2.156,311.2702610999986,None,,,,,,,,,,,,,,,,,,,,311.80947020000167,312.3145399999994,0.507042810000712,1.0073768099973677,312.2978626999975,312.414575099996,312.2978626999975,312.414575099996,312.3981249999997,None,m,0,0.564911999994365,312.3981249999997,None,,,,,,,ph,2022_Mar_22_1130,training+cueing,2021.1.4,59.71136719468498,
Self.png,You,Self ,c,1,11,21,91,,,,,0,0,0,0,,,,,4,4,52,9,,,,,,,,,,,,,,,,,,,,,1.765,2.131,313.0879716999989,None,,,,,,,,,,,,,,,,,,,,313.6257670999985,314.13255229999777,0.5135376100006397,1.0138201099980506,314.1158434999961,314.21587539999746,314.1158434999961,314.21587539999746,314.21587539999746,None,None,0,,314.21587539999746,None,,,,,,,ph,2022_Mar_22_1130,training+cueing,2021.1.4,59.71136719468498,
Stranger.png,Stranger,Stranger,c,3,13,23,93,,,,,0,0,0,0,,,,,4,5,53,11,,,,,,,,,,,,,,,,,,,,,1.776,2.426,316.088062099996,None,,,,,,,,,,,,,,,,,,,,316.6290472999972,317.1346895000024,0.5114374099939596,1.0117271099952632,317.1180011999968,317.2347124000007,317.1180011999968,317.2347124000007,317.2180370999995,None,m,0,0.7211128999988432,317.2180370999995,None,,,,,,,ph,2022_Mar_22_1130,training+cueing,2021.1.4,59.71136719468498,
Stranger.png,Stranger,Stranger,c,3,13,23,93,,,,,0,0,0,0,,,,,4,6,54,8,,,,,,,,,,,,,,,,,,,,,1.706,1.395,318.0749338000023,None,,,,,,,,,,,,,,,,,,,,318.61281430000236,319.1194375999985,0.5120575099936104,1.012374509991787,319.1027755999967,319.2194959999979,319.1027755999967,319.2194959999979,319.20281019999675,None,m,0,0.7682993999987957,319.20281019999675,None,,,,,,,ph,2022_Mar_22_1130,training+cueing,2021.1.4,59.71136719468498,
Self.png,Friend,Self ,m,2.1,16,26,96,,,,,0,0,0,0,,,,,4,7,55,1,,,,,,,,,,,,,,,,,,,,,1.586,1.324,320.09286659999634,None,,,,,,,,,,,,,,,,,,,,320.63065330000245,321.13761969999905,0.512995109995245,1.0132912099943496,321.1208953999958,321.2376508000016,321.1208953999958,321.2376508000016,321.2209398999985,None,c,0,0.6701470000043628,321.2209398999985,None,,,,,,,ph,2022_Mar_22_1130,training+cueing,2021.1.4,59.71136719468498,
Friend.png,Friend,Friend,c,2,12,22,92,,,,,0,0,0,0,,,,,4,8,56,4,,,,,,,,,,,,,,,,,,,,,1.663,1.859,322.02801770000224,None,,,,,,,,,,,,,,,,,,,,322.56339239999943,323.0723085999998,0.5147696100029862,1.0150969099995564,323.05562179999833,323.1723630999986,323.05562179999833,323.1723630999986,323.15567849999934,None,m,0,0.5755241000006208,323.15567849999934,None,,,,,,,ph,2022_Mar_22_1130,training+cueing,2021.1.4,59.71136719468498,
Self.png,You,Self ,c,1,11,21,91,,,,,0,0,0,0,,,,,4,9,57,0,,,,,,,,,,,,,,,,,,,,,1.793,1.306,323.8619772999955,None,,,,,,,,,,,,,,,,,,,,324.4031415999998,324.9069750999988,0.5078149100008886,1.008108109999739,324.8903253000026,324.9903744999974,324.8903253000026,324.9903744999974,324.9903744999974,None,c,1,0.932715900002222,324.9903744999974,None,,,,,,,ph,2022_Mar_22_1130,training+cueing,2021.1.4,59.71136719468498,
Self.png,Stranger,Self ,m,3.1,18,28,98,,,,,0,0,0,0,,,,,4,10,58,2,,,,,,,,,,,,,,,,,,,,,1.72,1.618,326.0477420000025,None,,,,,,,,,,,,,,,,,,,,326.5855684999988,327.09191550000105,0.5124040099981357,1.0126692099947832,327.0752322999979,327.1919504999969,327.0752322999979,327.1919504999969,327.1752331000025,None,m,1,0.7318386000042665,327.1752331000025,None,,,,,,,ph,2022_Mar_22_1130,training+cueing,2021.1.4,59.71136719468498,
Stranger.png,Friend,Stranger,m,2.3,17,27,97,,,,,0,0,0,0,,,,,4,11,59,7,,,,,,,,,,,,,,,,,,,,,1.527,2.296,328.031576399997,None,,,,,,,,,,,,,,,,,,,,328.5833827999959,329.0933442999958,0.5015372100024251,1.0018637100001797,329.07667260000017,329.19338119999884,329.07667260000017,329.19338119999884,329.19338119999884,None,c,0,0.8577368000042043,329.19338119999884,None,,,,,,,ph,2022_Mar_22_1130,training+cueing,2021.1.4,59.71136719468498,
Self.png,You,Self ,c,1,11,21,91,,,,,0,0,0,0,,,,,5,0,60,9,,,,,,,,,,,,,,,,,,,,,1.701,2.057,330.1833018999969,None,,,,,,,,,,,,,,,,,,,,330.7207853,331.2284748999955,0.5138117099922965,1.0140775099935126,331.2115419999973,331.3115889999972,331.2115419999973,331.3115889999972,331.3115889999972,None,c,1,0.7394566000002669,331.3115889999972,None,,,,,,,ph,2022_Mar_22_1130,training+cueing,2021.1.4,59.71136719468498,
Friend.png,Friend,Friend,c,2,12,22,92,,,,,0,0,0,0,,,,,5,1,61,10,,,,,,,,,,,,,,,,,,,,,1.406,1.76,332.18461350000143,None,,,,,,,,,,,,,,,,,,,,332.72477790000266,333.2296820999982,0.5094057099922793,1.009728709992487,333.2130044000005,333.329905999999,333.2130044000005,333.329905999999,333.31301240000175,None,m,0,0.73808590000408,333.31301240000175,None,,,,,,,ph,2022_Mar_22_1130,training+cueing,2021.1.4,59.71136719468498,
Friend.png,Stranger,Friend,m,3.2,19,29,99,,,,,0,0,0,0,,,,,5,2,62,5,,,,,,,,,,,,,,,,,,,,,1.572,1.593,334.18660010000167,None,,,,,,,,,,,,,,,,,,,,334.72731719999865,335.23116760000266,0.5054647099896101,1.0056999099906534,335.2144737999988,335.33117559999664,335.2144737999988,335.33117559999664,335.3144549999997,None,m,1,0.5126615000044694,335.3144549999997,None,,,,,,,ph,2022_Mar_22_1130,training+cueing,2021.1.4,59.71136719468498,
Friend.png,You,Friend,m,1.2,14,24,94,,,,,0,0,0,0,,,,,5,3,63,3,,,,,,,,,,,,,,,,,,,,,1.468,1.603,335.95387279999704,None,,,,,,,,,,,,,,,,,,,,336.49172279999766,336.99904779999633,0.5142521099987789,1.0145410099939909,336.9824058000013,337.0824300999957,336.9824058000013,337.0824300999957,337.0824300999957,None,m,1,0.904705399996601,337.0824300999957,None,,,,,,,ph,2022_Mar_22_1130,training+cueing,2021.1.4,59.71136719468498,
Friend.png,Friend,Friend,c,2,12,22,92,,,,,0,0,0,0,,,,,5,4,64,4,,,,,,,,,,,,,,,,,,,,,1.629,2.271,338.12216669999907,None,,,,,,,,,,,,,,,,,,,,338.6621614999967,339.1672983000026,0.50698680998903,1.0072152099892264,339.1506240000017,339.2673326000004,339.1506240000017,339.2673326000004,339.25064349999593,None,m,0,0.9284972000023117,339.25064349999593,None,,,,,,,ph,2022_Mar_22_1130,training+cueing,2021.1.4,59.71136719468498,
Stranger.png,You,Stranger,m,1.3,15,25,95,,,,,0,0,0,0,,,,,5,5,65,6,,,,,,,,,,,,,,,,,,,,,1.669,2.096,340.30787769999733,None,,,,,,,,,,,,,,,,,,,,340.8473477000007,341.3522260999962,0.5101209099957487,1.0104298099977314,341.33553949999623,341.4355832000001,341.33553949999623,341.4355832000001,341.4355832000001,None,c,0,0.6635146999979042,341.4355832000001,None,,,,,,,ph,2022_Mar_22_1130,training+cueing,2021.1.4,59.71136719468498,
Stranger.png,Stranger,Stranger,c,3,13,23,93,,,,,0,0,0,0,,,,,5,6,66,8,,,,,,,,,,,,,,,,,,,,,1.578,1.484,342.2251991000012,None,,,,,,,,,,,,,,,,,,,,342.7668898999982,343.2702554999996,0.5063399099963135,1.0065921100031119,343.2536459999974,343.3703317999971,343.2536459999974,343.3703317999971,343.3536344000022,None,m,0,1.0176056999989669,343.3536344000022,None,,,,,,,ph,2022_Mar_22_1130,training+cueing,2021.1.4,59.71136719468498,
Stranger.png,Friend,Stranger,m,2.3,17,27,97,,,,,0,0,0,0,,,,,5,7,67,7,,,,,,,,,,,,,,,,,,,,,1.416,1.603,344.49354350000067,None,,,,,,,,,,,,,,,,,,,,345.0319718999963,345.5387322999959,0.5083104099903721,1.0102873099895078,345.52018710000266,345.63861850000103,345.52018710000266,345.63861850000103,345.62193200000183,None,None,0,,345.62193200000183,None,,,,,,,ph,2022_Mar_22_1130,training+cueing,2021.1.4,59.71136719468498,
Self.png,Stranger,Self ,m,3.1,18,28,98,,,,,0,0,0,0,,,,,5,8,68,2,,,,,,,,,,,,,,,,,,,,,1.407,2.179,347.1439524000016,None,,,,,,,,,,,,,,,,,,,,347.68416330000036,348.19047309999587,0.5116565099888248,1.0119728099889471,348.17381749999913,348.29051710000203,348.17381749999913,348.29051710000203,348.27385060000233,None,None,0,,348.27385060000233,None,,,,,,,ph,2022_Mar_22_1130,training+cueing,2021.1.4,59.71136719468498,
Self.png,You,Self ,c,1,11,21,91,,,,,0,0,0,0,,,,,5,9,69,0,,,,,,,,,,,,,,,,,,,,,1.629,1.223,349.7956791999968,None,,,,,,,,,,,,,,,,,,,,350.3351868000027,350.84237030000077,0.5134055099988473,None,350.8257280999969,350.92577809999784,350.8257280999969,350.92577809999784,350.92577809999784,None,m,0,0.2133188000007067,350.92577809999784,None,,,,,,,ph,2022_Mar_22_1130,training+cueing,2021.1.4,59.71136719468498,
Stranger.png,Stranger,Stranger,c,3,13,23,93,,,,,0,0,0,0,,,,,5,10,70,11,,,,,,,,,,,,,,,,,,,,,1.66,1.925,351.2655741999988,None,,,,,,,,,,,,,,,,,,,,351.80312910000066,352.310104199998,0.5115569100016728,1.012019310001051,352.29344090000086,352.41025960000115,352.29344090000086,352.41025960000115,352.3935693000021,None,m,0,0.7295808999988367,352.3935693000021,None,,,,,,,ph,2022_Mar_22_1130,training+cueing,2021.1.4,59.71136719468498,
Self.png,Friend,Self ,m,2.1,16,26,96,,,,,0,0,0,0,,,,,5,11,71,1,,,,,,,,,,,,,,,,,,,,,1.53,2.244,353.2504422999991,None,,,,,,,,,,,,,,,,,,,,353.7899561000013,354.29487479999807,0.5095304100032081,1.0098619100026553,354.27821530000074,354.39497010000196,354.27821530000074,354.39497010000196,354.3782586000016,None,None,0,,354.3782586000016,None,,,,,,,ph,2022_Mar_22_1130,training+cueing,2021.1.4,59.71136719468498,
Friend.png,Friend,Friend,c,2,12,22,92,,,,,0,0,0,0,,,,,6,0,72,4,,,,,,,,,,,,,,,,,,,,,1.646,1.799,356.0175210000016,None,,,,,,,,,,,,,,,,,,,,356.58277369999996,357.0968767000013,0.49997247999272076,1.0003090799946222,357.0635448999965,357.16365080000105,357.0635448999965,357.16365080000105,357.16365080000105,None,m,0,0.5354288000016822,357.16365080000105,None,,,,,,,ph,2022_Mar_22_1130,training+cueing,2021.1.4,59.71136719468498,
Stranger.png,You,Stranger,m,1.3,15,25,95,,,,,0,0,0,0,,,,,6,1,73,6,,,,,,,,,,,,,,,,,,,,,1.793,2.06,357.83734659999755,None,,,,,,,,,,,,,,,,,,,,358.37790400000085,358.8815816999995,0.5074761099967873,1.0077523099971586,358.86487350000243,358.9648933999997,358.86487350000243,358.9648933999997,358.9648933999997,None,c,0,0.5102790999953868,358.9648933999997,None,,,,,,,ph,2022_Mar_22_1130,training+cueing,2021.1.4,59.71136719468498,
Friend.png,Stranger,Friend,m,3.2,19,29,99,,,,,0,0,0,0,,,,,6,2,74,5,,,,,,,,,,,,,,,,,,,,,1.637,1.896,359.6048843000026,None,,,,,,,,,,,,,,,,,,,,360.14619390000007,360.6495094999991,0.505665910000971,1.0059399100064184,360.6328036999985,360.7495721000014,360.6328036999985,360.7495721000014,360.73282579999795,None,m,1,0.534315199998673,360.73282579999795,None,,,,,,,ph,2022_Mar_22_1130,training+cueing,2021.1.4,59.71136719468498,
Friend.png,You,Friend,m,1.2,14,24,94,,,,,0,0,0,0,,,,,6,3,75,3,,,,,,,,,,,,,,,,,,,,,1.504,1.708,361.3891550999979,None,,,,,,,,,,,,,,,,,,,,361.9311082999993,362.43408980000095,0.504809509999177,1.0051356099938857,362.41743219999626,362.517494300002,362.41743219999626,362.517494300002,362.517494300002,None,m,1,0.6855820999990101,362.517494300002,None,,,,,,,ph,2022_Mar_22_1130,training+cueing,2021.1.4,59.71136719468498,
Friend.png,Friend,Friend,c,2,12,22,92,,,,,0,0,0,0,,,,,6,4,76,10,,,,,,,,,,,,,,,,,,,,,1.641,1.556,363.3409354999967,None,,,,,,,,,,,,,,,,,,,,363.89843349999865,364.40218209999875,0.5065559799986659,1.0068493799990392,364.38553449999745,364.502236100001,364.38553449999745,364.502236100001,364.48556619999727,None,m,0,0.8935548000008566,364.48556619999727,None,,,,,,,ph,2022_Mar_22_1130,training+cueing,2021.1.4,59.71136719468498,
Self.png,Friend,Self ,m,2.1,16,26,96,,,,,0,0,0,0,,,,,6,5,77,1,,,,,,,,,,,,,,,,,,,,,1.72,1.533,365.50879859999986,None,,,,,,,,,,,,,,,,,,,,366.0444614000007,366.5537431999983,0.5007729400022072,1.0010892400023295,366.5370744999964,366.6538045999987,366.5370744999964,366.6538045999987,366.6538045999987,None,m,1,1.0452551999987918,366.6538045999987,None,,,,,,,ph,2022_Mar_22_1130,training+cueing,2021.1.4,59.71136719468498,
Self.png,Stranger,Self ,m,3.1,18,28,98,,,,,0,0,0,0,,,,,6,6,78,2,,,,,,,,,,,,,,,,,,,,,1.469,2.115,367.8275505999991,None,,,,,,,,,,,,,,,,,,,,368.3686267000012,368.8720916999955,0.5051869099988835,1.0054632100000163,368.8554538000026,368.97213740000007,368.8554538000026,368.97213740000007,368.9554958000008,None,m,1,0.7115822999985539,368.9554958000008,None,,,,,,,ph,2022_Mar_22_1130,training+cueing,2021.1.4,59.71136719468498,
Stranger.png,Stranger,Stranger,c,3,13,23,93,,,,,0,0,0,0,,,,,6,7,79,8,,,,,,,,,,,,,,,,,,,,,1.543,1.408,369.7950447999974,None,,,,,,,,,,,,,,,,,,,,370.3433279000019,370.85684449999826,0.5101590099948226,1.0104503099937574,370.84017909999966,370.9568891000017,370.84017909999966,370.9568891000017,370.9402508999992,None,m,0,0.9510607000047457,370.9402508999992,None,,,,,,,ph,2022_Mar_22_1130,training+cueing,2021.1.4,59.71136719468498,
Self.png,You,Self ,c,1,11,21,91,,,,,0,0,0,0,,,,,6,8,80,0,,,,,,,,,,,,,,,,,,,,,1.535,1.224,372.01487030000135,None,,,,,,,,,,,,,,,,,,,,372.56440660000226,373.07517070000176,0.5027712099981727,1.0030843099957565,373.0584736000019,373.15852150000137,373.0584736000019,373.15852150000137,373.15852150000137,None,c,1,0.7165840999950888,373.15852150000137,None,,,,,,,ph,2022_Mar_22_1130,training+cueing,2021.1.4,59.71136719468498,
Self.png,You,Self ,c,1,11,21,91,,,,,0,0,0,0,,,,,6,9,81,9,,,,,,,,,,,,,,,,,,,,,1.551,1.388,373.9981947999986,None,,,,,,,,,,,,,,,,,,,,374.5378817000019,375.04321750000236,0.511135809996631,1.0115660099982051,375.0265559999971,375.12658920000104,375.0265559999971,375.12658920000104,375.12658920000104,None,c,1,1.164620499999728,375.12658920000104,None,,,,,,,ph,2022_Mar_22_1130,training+cueing,2021.1.4,59.71136719468498,
Stranger.png,Stranger,Stranger,c,3,13,23,93,,,,,0,0,0,0,,,,,6,10,82,11,,,,,,,,,,,,,,,,,,,,,1.63,1.577,376.4162414999955,None,,,,,,,,,,,,,,,,,,,,376.95831650000036,377.4616443999985,0.5056133099933504,1.0058866099934676,377.4449835999985,377.561712900002,377.4449835999985,377.561712900002,377.5449903999979,None,m,0,0.8902050000033341,377.5449903999979,None,,,,,,,ph,2022_Mar_22_1130,training+cueing,2021.1.4,59.71136719468498,
Stranger.png,Friend,Stranger,m,2.3,17,27,97,,,,,0,0,0,0,,,,,6,11,83,7,,,,,,,,,,,,,,,,,,,,,1.759,1.528,378.56863789999625,None,,,,,,,,,,,,,,,,,,,,379.10646160000033,379.6131851999962,0.5103813100067782,1.010634910002409,379.59653499999695,379.71324459999596,379.59653499999695,379.71324459999596,379.69653069999913,None,c,0,1.5546128999994835,379.69653069999913,None,,,,,,,ph,2022_Mar_22_1130,training+cueing,2021.1.4,59.71136719468498,
Friend.png,Friend,Friend,c,2,12,22,92,,,,,0,0,0,0,,,,,7,0,84,10,,,,,,,,,,,,,,,,,,,,,1.572,2.312,381.38772120000067,None,,,,,,,,,,,,,,,,,,,,381.92455640000117,382.4319106999974,0.5137796099879779,1.0141400099892053,382.41520239999954,382.53198500000144,382.41520239999954,382.53198500000144,382.5152636999992,None,m,0,0.8958831999989343,382.5152636999992,None,,,,,,,ph,2022_Mar_22_1130,training+cueing,2021.1.4,59.71136719468498,
Self.png,Stranger,Self ,m,3.1,18,28,98,,,,,0,0,0,0,,,,,7,1,85,2,,,,,,,,,,,,,,,,,,,,,1.649,1.583,383.53953270000056,None,,,,,,,,,,,,,,,,,,,,384.0803018000006,384.58343279999826,0.5050683099907474,1.0052915099877282,384.56679540000187,384.6834912999984,384.56679540000187,384.6834912999984,384.6668127000012,None,m,1,0.9042211000050884,384.6668127000012,None,,,,,,,ph,2022_Mar_22_1130,training+cueing,2021.1.4,59.71136719468498,
Friend.png,Stranger,Friend,m,3.2,19,29,99,,,,,0,0,0,0,,,,,7,2,86,5,,,,,,,,,,,,,,,,,,,,,1.698,2.488,385.70693709999614,None,,,,,,,,,,,,,,,,,,,,386.24424569999974,386.75172269999894,0.5131655100049102,1.0134864100036793,386.7349988999995,386.85177359999943,386.7349988999995,386.85177359999943,386.83501570000226,None,c,0,0.9761529000024893,386.83501570000226,None,,,,,,,ph,2022_Mar_22_1130,training+cueing,2021.1.4,59.71136719468498,
Friend.png,Friend,Friend,c,2,12,22,92,,,,,0,0,0,0,,,,,7,3,87,4,,,,,,,,,,,,,,,,,,,,,1.529,2.1,387.94202770000265,None,,,,,,,,,,,,,,,,,,,,388.48046059999615,388.98662830000103,0.5123874099954264,1.012689209994278,388.96995539999625,389.0866778999989,388.96995539999625,389.0866778999989,389.0699736999959,None,None,0,,389.0699736999959,None,,,,,,,ph,2022_Mar_22_1130,training+cueing,2021.1.4,59.71136719468498,
Self.png,Friend,Self ,m,2.1,16,26,96,,,,,0,0,0,0,,,,,7,4,88,1,,,,,,,,,,,,,,,,,,,,,1.614,1.297,390.7082786999963,None,,,,,,,,,,,,,,,,,,,,391.2488196999984,391.75536999999895,0.5106733099964913,1.0109300099938991,391.7386652999994,391.8553788999998,391.7386652999994,391.8553788999998,391.8386260999978,None,c,0,0.6444551999957184,391.8386260999978,None,,,,,,,ph,2022_Mar_22_1130,training+cueing,2021.1.4,59.71136719468498,
Stranger.png,Stranger,Stranger,c,3,13,23,93,,,,,0,0,0,0,,,,,7,5,89,8,,,,,,,,,,,,,,,,,,,,,1.72,2.422,392.6121841999993,None,,,,,,,,,,,,,,,,,,,,393.151531800002,393.65686009999627,0.5094978099950822,1.0097477099916432,393.64017500000045,393.7569164000015,393.64017500000045,393.7569164000015,393.74018960000103,None,m,0,1.2231539999993402,393.74018960000103,None,,,,,,,ph,2022_Mar_22_1130,training+cueing,2021.1.4,59.71136719468498,
Stranger.png,Stranger,Stranger,c,3,13,23,93,,,,,0,0,0,0,,,,,7,6,90,11,,,,,,,,,,,,,,,,,,,,,1.649,2.432,395.097322499998,None,,,,,,,,,,,,,,,,,,,,395.6336160999999,396.1417664999972,0.49959481000405503,0.9998749099977431,396.1084791999965,396.2085273999983,396.1084791999965,396.2085273999983,396.2085273999983,None,m,0,1.0426163000011002,396.2085273999983,None,,,,,,,ph,2022_Mar_22_1130,training+cueing,2021.1.4,59.71136719468498,
Stranger.png,Friend,Stranger,m,2.3,17,27,97,,,,,0,0,0,0,,,,,7,7,91,7,,,,,,,,,,,,,,,,,,,,,1.52,2.293,397.38203419999627,None,,,,,,,,,,,,,,,,,,,,397.9222880000016,398.4268093999999,0.5061223099983181,1.006376609992003,398.4101567999969,398.5268295999995,398.4101567999969,398.5268295999995,398.51017290000163,None,c,0,0.9488534999982221,398.51017290000163,None,,,,,,,ph,2022_Mar_22_1130,training+cueing,2021.1.4,59.71136719468498,
Self.png,You,Self ,c,1,11,21,91,,,,,0,0,0,0,,,,,7,8,92,9,,,,,,,,,,,,,,,,,,,,,1.654,1.933,399.5843466000006,None,,,,,,,,,,,,,,,,,,,,400.12247679999564,400.6283823999984,0.5122258100018371,1.0126335099994321,400.6117176999978,400.7117857999983,400.6117176999978,400.7117857999983,400.7117857999983,None,c,1,0.8753242000020691,400.7117857999983,None,,,,,,,ph,2022_Mar_22_1130,training+cueing,2021.1.4,59.71136719468498,
Friend.png,You,Friend,m,1.2,14,24,94,,,,,0,0,0,0,,,,,7,9,93,3,,,,,,,,,,,,,,,,,,,,,1.611,2.221,401.7186348999967,None,,,,,,,,,,,,,,,,,,,,402.2576737999989,402.7633100999956,0.5114017099986086,1.0116413099967758,402.7466282000023,402.8466262000002,402.7466282000023,402.8466262000002,402.8466262000002,None,m,1,0.5644362000020919,402.8466262000002,None,,,,,,,ph,2022_Mar_22_1130,training+cueing,2021.1.4,59.71136719468498,
Stranger.png,You,Stranger,m,1.3,15,25,95,,,,,0,0,0,0,,,,,7,10,94,6,,,,,,,,,,,,,,,,,,,,,1.643,1.568,403.5365531999996,None,,,,,,,,,,,,,,,,,,,,404.0722629000011,404.5812364000012,0.49955721000151243,0.9997795099989162,404.5479011999996,404.64792640000087,404.5479011999996,404.64792640000087,404.64792640000087,None,m,1,0.7471865999978036,404.64792640000087,None,,,,,,,ph,2022_Mar_22_1130,training+cueing,2021.1.4,59.71136719468498,
Self.png,You,Self ,c,1,11,21,91,,,,,0,0,0,0,,,,,7,11,95,0,,,,,,,,,,,,,,,,,,,,,1.432,1.901,405.5212732,None,,,,,,,,,,,,,,,,,,,,406.0600768000004,406.56605979999586,0.511471009995148,1.0118510100001004,406.5493492999958,406.6493687999973,406.5493492999958,406.6493687999973,406.6493687999973,None,c,1,0.6657213999933447,406.6493687999973,None,,,,,,,ph,2022_Mar_22_1130,training+cueing,2021.1.4,59.71136719468498,
Self.png,Friend,Self ,m,2.1,16,26,96,,,,,0,0,0,0,,,,,8,0,96,1,,,,,,,,,,,,,,,,,,,,,1.783,1.229,407.4390566000002,None,,,,,,,,,,,,,,,,,,,,407.9765383999984,408.48402299999725,0.509967609999876,1.013157109999156,408.4506987999994,408.55072030000156,408.4506987999994,408.55072030000156,408.5674489000012,None,m,1,0.6835623999941163,408.5674489000012,None,,,,,,,ph,2022_Mar_22_1130,training+cueing,2021.1.4,59.71136719468498,
Self.png,You,Self ,c,1,11,21,91,,,,,0,0,0,0,,,,,8,1,97,9,,,,,,,,,,,,,,,,,,,,,1.543,1.778,409.37425029999577,None,,,,,,,,,,,,,,,,,,,,409.9296744999956,410.4354944000006,0.511561380008061,1.011903180005902,410.41879979999794,410.51885980000225,410.41879979999794,410.51885980000225,410.51885980000225,None,c,1,0.9561985999971512,410.51885980000225,None,,,,,,,ph,2022_Mar_22_1130,training+cueing,2021.1.4,59.71136719468498,
Friend.png,Friend,Friend,c,2,12,22,92,,,,,0,0,0,0,,,,,8,2,98,4,,,,,,,,,,,,,,,,,,,,,1.579,1.52,411.6089585000009,None,,,,,,,,,,,,,,,,,,,,412.1646273000006,412.670406199999,0.5124854799869354,1.0127658799901837,412.6537724000009,412.77047740000125,412.6537724000009,412.77047740000125,412.75380539999605,None,m,0,0.43326600000000326,412.75380539999605,None,,,,,,,ph,2022_Mar_22_1130,training+cueing,2021.1.4,59.71136719468498,
Stranger.png,You,Stranger,m,1.3,15,25,95,,,,,0,0,0,0,,,,,8,3,99,6,,,,,,,,,,,,,,,,,,,,,1.682,1.809,413.30989709999994,None,,,,,,,,,,,,,,,,,,,,413.84739049999916,414.35496019999846,0.5131114100004197,1.0133938099970692,414.3383066000024,414.43833659999655,414.3383066000024,414.43833659999655,414.43833659999655,None,m,1,1.0687123000025167,414.43833659999655,None,,,,,,,ph,2022_Mar_22_1130,training+cueing,2021.1.4,59.71136719468498,
Stranger.png,Friend,Stranger,m,2.3,17,27,97,,,,,0,0,0,0,,,,,8,4,100,7,,,,,,,,,,,,,,,,,,,,,1.674,1.905,415.629565999996,None,,,,,,,,,,,,,,,,,,,,416.17019759999675,416.67335569999705,0.5057859099906636,1.0060579099954339,416.65665759999683,416.7734225000022,416.65665759999683,416.7734225000022,416.7567201999991,None,m,1,0.7344020000018645,416.7567201999991,None,,,,,,,ph,2022_Mar_22_1130,training+cueing,2021.1.4,59.71136719468498,
Self.png,Stranger,Self ,m,3.1,18,28,98,,,,,0,0,0,0,,,,,8,5,101,2,,,,,,,,,,,,,,,,,,,,,1.625,1.273,417.61375789999875,None,,,,,,,,,,,,,,,,,,,,418.1524017999982,418.6580847000005,0.5115883099933853,1.0118752099951962,418.64141299999756,418.75813709999784,418.64141299999756,418.75813709999784,418.74144250000245,None,c,0,0.5899505999987014,418.74144250000245,None,,,,,,,ph,2022_Mar_22_1130,training+cueing,2021.1.4,59.71136719468498,
Stranger.png,Stranger,Stranger,c,3,13,23,93,,,,,0,0,0,0,,,,,8,6,102,8,,,,,,,,,,,,,,,,,,,,,1.578,1.348,419.46519879999687,None,,,,,,,,,,,,,,,,,,,,420.00145820000034,420.5094124000025,0.5141870099978405,1.0144804099982139,420.49278790000244,420.6095349000025,420.49278790000244,420.6095349000025,420.5927757000027,None,m,0,0.48228100000415,420.5927757000027,None,,,,,,,ph,2022_Mar_22_1130,training+cueing,2021.1.4,59.71136719468498,
Stranger.png,Stranger,Stranger,c,3,13,23,93,,,,,0,0,0,0,,,,,8,7,103,11,,,,,,,,,,,,,,,,,,,,,1.668,2.252,421.1994352999973,None,,,,,,,,,,,,,,,,,,,,421.7376910999956,422.2439910999965,0.5123747099933098,1.0127434099922539,422.2273597999956,422.3441032999981,422.2273597999956,422.3441032999981,422.32736509999813,None,m,0,0.8118038000029628,422.32736509999813,None,,,,,,,ph,2022_Mar_22_1130,training+cueing,2021.1.4,59.71136719468498,
Friend.png,You,Friend,m,1.2,14,24,94,,,,,0,0,0,0,,,,,8,8,104,3,,,,,,,,,,,,,,,,,,,,,1.75,1.553,423.26745610000216,None,,,,,,,,,,,,,,,,,,,,423.8040489999985,424.31215209999937,0.5132013099937467,1.0134382099931827,424.29550169999857,424.39553650000016,424.29550169999857,424.39553650000016,424.39553650000016,None,c,0,0.7915781999981846,424.39553650000016,None,,,,,,,ph,2022_Mar_22_1130,training+cueing,2021.1.4,59.71136719468498,
Friend.png,Stranger,Friend,m,3.2,19,29,99,,,,,0,0,0,0,,,,,8,9,105,5,,,,,,,,,,,,,,,,,,,,,1.666,1.334,425.31864679999853,None,,,,,,,,,,,,,,,,,,,,425.87636909999856,426.38032779999776,0.5076884800000698,1.0080308800024795,426.3636628000022,426.48049999999785,426.3636628000022,426.48049999999785,426.4636762000009,None,m,1,0.3874511000030907,426.4636762000009,None,,,,,,,ph,2022_Mar_22_1130,training+cueing,2021.1.4,59.71136719468498,
Self.png,You,Self ,c,1,11,21,91,,,,,0,0,0,0,,,,,8,10,106,0,,,,,,,,,,,,,,,,,,,,,1.524,2.321,426.9872092000005,None,,,,,,,,,,,,,,,,,,,,427.52822249999736,428.03154709999944,0.5061677099947701,1.0064318099975935,428.01490889999695,428.114943499997,428.01490889999695,428.114943499997,428.114943499997,None,c,1,0.5922278000070946,428.114943499997,None,,,,,,,ph,2022_Mar_22_1130,training+cueing,2021.1.4,59.71136719468498,
Friend.png,Friend,Friend,c,2,12,22,92,,,,,0,0,0,0,,,,,8,11,107,10,,,,,,,,,,,,,,,,,,,,,1.791,1.671,428.838316399997,None,,,,,,,,,,,,,,,,,,,,429.37584210000205,429.88286340000195,0.511439709996921,1.011766309995437,429.866197299998,429.9829284000007,429.866197299998,429.9829284000007,429.9662401000023,None,m,0,0.7089127999934135,429.9662401000023,None,,,,,,,ph,2022_Mar_22_1130,training+cueing,2021.1.4,59.71136719468498,
Stranger.png,Stranger,Stranger,c,3,13,23,93,,,,,0,0,0,0,,,,,9,0,108,11,,,,,,,,,,,,,,,,,,,,,1.566,1.465,430.80608489999577,None,,,,,,,,,,,,,,,,,,,,431.3492002999992,431.85096260000137,0.5050250100030098,1.0052954100028728,431.8343151000008,431.9510078000021,431.8343151000008,431.9510078000021,431.9343347999966,None,m,0,0.6767619000020204,431.9343347999966,None,,,,,,,ph,2022_Mar_22_1130,training+cueing,2021.1.4,59.71136719468498,
Stranger.png,You,Stranger,m,1.3,15,25,95,,,,,0,0,0,0,,,,,9,1,109,6,,,,,,,,,,,,,,,,,,,,,1.773,1.577,432.74108310000156,None,,,,,,,,,,,,,,,,,,,,433.27912439999636,433.7857184999957,0.5120007099976647,1.012238809998962,433.7690442000021,433.8690578999958,433.7690442000021,433.8690578999958,433.8690578999958,None,m,1,0.9660428999995929,433.8690578999958,None,,,,,,,ph,2022_Mar_22_1130,training+cueing,2021.1.4,59.71136719468498,
Self.png,Friend,Self ,m,2.1,16,26,96,,,,,0,0,0,0,,,,,9,2,110,1,,,,,,,,,,,,,,,,,,,,,1.741,1.702,434.95898229999875,None,,,,,,,,,,,,,,,,,,,,435.5108661999984,436.02066419999755,0.501169809998828,1.0014062099944567,436.0040197999988,436.12069450000126,436.0040197999988,436.12069450000126,436.12069450000126,None,c,0,0.602372599998489,436.12069450000126,None,,,,,,,ph,2022_Mar_22_1130,training+cueing,2021.1.4,59.71136719468498,
Self.png,Stranger,Self ,m,3.1,18,28,98,,,,,0,0,0,0,,,,,9,3,111,2,,,,,,,,,,,,,,,,,,,,,1.709,1.728,436.86069580000185,None,,,,,,,,,,,,,,,,,,,,437.39949850000266,437.9053703999962,0.5116491099979612,1.0118493099944317,437.8886999999959,438.0054178999999,437.8886999999959,438.0054178999999,437.9886783999973,None,m,1,0.7343206000005011,437.9886783999973,None,,,,,,,ph,2022_Mar_22_1130,training+cueing,2021.1.4,59.71136719468498,
Friend.png,You,Friend,m,1.2,14,24,94,,,,,0,0,0,0,,,,,9,4,112,3,,,,,,,,,,,,,,,,,,,,,1.592,1.845,438.84533419999934,None,,,,,,,,,,,,,,,,,,,,439.38483460000134,439.8901076999973,0.5074285099981353,1.0077831099988543,439.87338230000023,439.9734718999971,439.87338230000023,439.9734718999971,439.9734718999971,None,m,1,1.0057566999967094,439.9734718999971,None,,,,,,,ph,2022_Mar_22_1130,training+cueing,2021.1.4,59.71136719468498,
Self.png,You,Self ,c,1,11,21,91,,,,,0,0,0,0,,,,,9,5,113,9,,,,,,,,,,,,,,,,,,,,,1.755,1.825,441.1152576999957,None,,,,,,,,,,,,,,,,,,,,441.6511049999972,442.1584408999988,0.5152120099883177,1.0154793099864037,442.1417431000009,442.2417701000013,442.1417431000009,442.2417701000013,442.2417701000013,None,c,1,1.0253427999996347,442.2417701000013,None,,,,,,,ph,2022_Mar_22_1130,training+cueing,2021.1.4,59.71136719468498,
Friend.png,Friend,Friend,c,2,12,22,92,,,,,0,0,0,0,,,,,9,6,114,10,,,,,,,,,,,,,,,,,,,,,1.572,1.502,443.3987749000007,None,,,,,,,,,,,,,,,,,,,,443.93989870000223,444.4417478999967,0.5066289099995629,1.0068813100006082,444.42691889999696,444.54359999999724,444.42691889999696,444.54359999999724,444.5269305999973,None,m,0,0.5481787999960943,444.5269305999973,None,,,,,,,ph,2022_Mar_22_1130,training+cueing,2021.1.4,59.71136719468498,
Friend.png,Friend,Friend,c,2,12,22,92,,,,,0,0,0,0,,,,,9,7,115,4,,,,,,,,,,,,,,,,,,,,,1.417,1.454,445.20105769999645,None,,,,,,,,,,,,,,,,,,,,445.7356682999962,446.2446973999977,0.515044610001496,None,446.228022999996,446.34473779999826,446.228022999996,446.34473779999826,446.32808900000236,None,m,0,0.34705879999819444,446.32808900000236,None,,,,,,,ph,2022_Mar_22_1130,training+cueing,2021.1.4,59.71136719468498,
Friend.png,Stranger,Friend,m,3.2,19,29,99,,,,,0,0,0,0,,,,,9,8,116,5,,,,,,,,,,,,,,,,,,,,,1.784,2.479,446.8011872999996,None,,,,,,,,,,,,,,,,,,,,447.3413295999999,447.8458584999971,0.5084925099945394,None,447.8292000000001,447.9459177999961,447.8292000000001,447.9459177999961,447.92923280000105,None,m,1,0.3298694999975851,447.92923280000105,None,,,,,,,ph,2022_Mar_22_1130,training+cueing,2021.1.4,59.71136719468498,
Stranger.png,Friend,Stranger,m,2.3,17,27,97,,,,,0,0,0,0,,,,,9,9,117,7,,,,,,,,,,,,,,,,,,,,,1.487,2.139,448.38577729999815,None,,,,,,,,,,,,,,,,,,,,448.9266828999971,449.43032400000084,0.506333409997751,1.0066325099978712,449.41364749999775,449.5304264000006,449.41364749999775,449.5304264000006,449.5137306999968,None,c,0,0.6653089000028558,449.5137306999968,None,,,,,,,ph,2022_Mar_22_1130,training+cueing,2021.1.4,59.71136719468498,
Self.png,You,Self ,c,1,11,21,91,,,,,0,0,0,0,,,,,9,10,118,0,,,,,,,,,,,,,,,,,,,,,1.447,1.803,450.3034420999975,None,,,,,,,,,,,,,,,,,,,,450.84077380000235,451.3483788000012,0.5131085099928896,1.013389809995715,451.3317087999967,451.4317441999956,451.3317087999967,451.4317441999956,451.4317441999956,None,c,1,0.4113809999980731,451.4317441999956,None,,,,,,,ph,2022_Mar_22_1130,training+cueing,2021.1.4,59.71136719468498,
Stranger.png,Stranger,Stranger,c,3,13,23,93,,,,,0,0,0,0,,,,,9,11,119,8,,,,,,,,,,,,,,,,,,,,,1.431,1.438,451.9716125999985,None,,,,,,,,,,,,,,,,,,,,452.51079229999596,453.0162807000015,0.5111238099925686,1.0114612099932856,452.99961990000156,453.11630490000243,452.99961990000156,453.11630490000243,453.0996559999985,None,None,0,,453.0996559999985,None,,,,,,,ph,2022_Mar_22_1130,training+cueing,2021.1.4,59.71136719468498,
,,,,,,,,,,,,0,0,0,0,,,,,,,,,,,,,,,,,,,,,,,,,,,,,,,,,,,,,,,,,,,,,,,,,,,,,,,,,,,,,,,,,,,0.0024174899954232387,None,,,,,ph,2022_Mar_22_1130,training+cueing,2021.1.4,59.71136719468498,
Self.png,Friend,Self ,m,2.1,16,26,96,,,,,1,0,1,0,0,0,0,1,,,,,,,,,,,,,,,,,455.15117140000075,None,space,92.00315730000148,2.0162426699971547,None,549.1692380999957,None,1.578,1.505,552.1784926999972,None,552.7274885000006,553.238804200002,553.2220792000007,553.3390610999995,553.2220792000007,553.3390610999995,553.3223975000001,None,c,0,553.3223975000001,None,553.9245388999989,None,0.5846773000012035,,,,,,,,,,,,,,,,,,,,,,,,,,ph,2022_Mar_22_1130,training+cueing,2021.1.4,59.71136719468498,
Friend.png,Friend,Friend,c,2,12,22,92,,,,,1,0,1,0,0,1,1,4,,,,,,,,,,,,,,,,,,,,,,,,,1.53,1.533,554.3395639000009,None,554.8664311999964,555.3736046999984,555.3569587999955,555.4737019000022,555.3569587999955,555.4737019000022,555.457024700001,None,None,0,555.457024700001,None,556.9915455000009,None,,,,,,,,,,,,,,,,,,,,,,,,,,,ph,2022_Mar_22_1130,training+cueing,2021.1.4,59.71136719468498,
Stranger.png,Stranger,Stranger,c,3,13,23,93,,,,,1,0,1,0,0,2,2,11,,,,,,,,,,,,,,,,,,,,,,,,,1.413,1.688,557.3918145999996,None,557.9247434999997,558.4258800000025,558.4091944999964,558.5259692999971,558.4091944999964,558.5259692999971,558.509290199996,None,None,0,558.509290199996,None,559.9269410999987,None,,,,,,,,,,,,,,,,,,,,,,,,,,,ph,2022_Mar_22_1130,training+cueing,2021.1.4,59.71136719468498,
Stranger.png,Friend,Stranger,m,2.3,17,27,97,,,,,1,0,1,0,0,3,3,7,,,,,,,,,,,,,,,,,,,,,,,,,1.735,1.807,560.3272424999959,None,560.8599023999996,561.3613194999998,561.3446564999977,561.4613611000023,561.3446564999977,561.4613611000023,561.4613611000023,None,None,0,561.4613611000023,None,563.1960065000021,None,,,,,,,,,,,,,,,,,,,,,,,,,,,ph,2022_Mar_22_1130,training+cueing,2021.1.4,59.71136719468498,
Friend.png,Stranger,Friend,m,3.2,19,29,99,,,,,1,0,1,0,0,4,4,5,,,,,,,,,,,,,,,,,,,,,,,,,1.437,2.29,563.5964351000002,None,564.1257052000001,564.6303224000003,564.6136805999995,564.7304150999989,564.6136805999995,564.7304150999989,564.7137364000009,None,m,1,564.7137364000009,None,565.2291087999984,None,0.48935229999915464,,,,,,,,,,,,,,,,,,,,,,,,,,ph,2022_Mar_22_1130,training+cueing,2021.1.4,59.71136719468498,
Friend.png,You,Friend,m,1.2,14,24,94,,,,,1,0,1,0,0,5,5,3,,,,,,,,,,,,,,,,,,,,,,,,,1.666,1.44,565.6313728999958,None,566.1681004999991,566.681848799999,566.6651564999993,566.7652292999992,566.6651564999993,566.7652292999992,566.7652292999992,None,c,0,566.7652292999992,None,566.982591,None,0.19783920000190847,,,,,,,,,,,,,,,,,,,,,,,,,,ph,2022_Mar_22_1130,training+cueing,2021.1.4,59.71136719468498,
Stranger.png,Stranger,Stranger,c,3,13,23,93,,,,,1,0,1,0,0,6,6,8,,,,,,,,,,,,,,,,,,,,,,,,,1.724,1.247,567.3823432999998,None,567.9256860999958,568.4331049999964,568.4164594999966,568.5331575000018,568.4164594999966,568.5331575000018,568.5164099999965,None,m,0,568.5164099999965,None,568.6666253000003,None,0.1267368000044371,,,,,,,,,,,,,,,,,,,,,,,,,,ph,2022_Mar_22_1130,training+cueing,2021.1.4,59.71136719468498,
Self.png,You,Self ,c,1,11,21,91,,,,,1,0,1,0,0,7,7,0,,,,,,,,,,,,,,,,,,,,,,,,,1.632,2.476,569.066886200002,None,569.5992781999958,570.1009938999996,570.0842685000025,570.1843280999965,570.0842685000025,570.1843280999965,570.1843280999965,None,c,1,570.1843280999965,None,570.634716200002,None,0.410824099999445,,,,,,,,,,,,,,,,,,,,,,,,,,ph,2022_Mar_22_1130,training+cueing,2021.1.4,59.71136719468498,
Friend.png,Friend,Friend,c,2,12,22,92,,,,,1,0,1,0,0,8,8,10,,,,,,,,,,,,,,,,,,,,,,,,,1.519,1.243,571.034960099998,None,571.5618112000011,572.0690499999982,572.0523993999959,572.169101499996,572.0523993999959,572.169101499996,572.1524289000008,None,m,0,572.1524289000008,None,572.4028754999963,None,0.21876869999687187,,,,,,,,,,,,,,,,,,,,,,,,,,ph,2022_Mar_22_1130,training+cueing,2021.1.4,59.71136719468498,
Self.png,Stranger,Self ,m,3.1,18,28,98,,,,,1,0,1,0,0,9,9,2,,,,,,,,,,,,,,,,,,,,,,,,,1.745,1.822,572.802949500001,None,573.3333572999982,573.8370273999972,573.820353199997,573.9370990000025,573.820353199997,573.9370990000025,573.9204765999966,None,c,0,573.9204765999966,None,574.370798099997,None,0.43464799999492243,,,,,,,,,,,,,,,,,,,,,,,,,,ph,2022_Mar_22_1130,training+cueing,2021.1.4,59.71136719468498,
Self.png,You,Self ,c,1,11,21,91,,,,,1,0,1,0,0,10,10,9,,,,,,,,,,,,,,,,,,,,,,,,,1.52,1.393,574.7710178999987,None,575.3034035000019,575.8051151999971,575.7883856999979,575.8884763999959,575.7883856999979,575.8884763999959,575.8884763999959,None,c,1,575.8884763999959,None,576.5375679999997,None,0.6266823000041768,,,,,,,,,,,,,,,,,,,,,,,,,,ph,2022_Mar_22_1130,training+cueing,2021.1.4,59.71136719468498,
Stranger.png,You,Stranger,m,1.3,15,25,95,,,,,1,0,1,0,0,11,11,6,,,,,,,,,,,,,,,,,,,,,,,,,1.491,2.483,576.9392676999996,None,577.4665287000025,577.9733448999978,577.9566537999999,578.0567105000009,577.9566537999999,578.0567105000009,578.0567105000009,None,m,1,578.0567105000009,None,578.6238558999976,None,0.5386901000019861,,,,,,,,,,,,,,,,,,,,,,,,,,ph,2022_Mar_22_1130,training+cueing,2021.1.4,59.71136719468498,
Stranger.png,Stranger,Stranger,c,3,13,23,93,,,,,1,0,1,0,,,,,0,0,0,8,,,,,,,,,,,,,,,,,,,659.7658554000009,None,1.524,1.797,663.2744065000006,None,,,,,,,,,,,,,,,,579.0243054999955,None,0.014043869996385183,None,663.7969852000024,664.3025893000013,0.5104045099942596,1.0106925099971704,664.285813399998,664.4025591000027,664.285813399998,664.4025591000027,664.385824799996,None,m,0,0.9292480000003707,664.385824799996,None,,,,,,,ph,2022_Mar_22_1130,training+cueing,2021.1.4,59.71136719468498,
Self.png,You,Self ,c,1,11,21,91,,,,,1,0,1,0,,,,,0,1,1,0,,,,,,,,,,,,,,,,,,,,,1.533,1.842,665.4436934999976,None,,,,,,,,,,,,,,,,,,,,665.9921221999975,666.5040724999999,0.5068525099995895,1.007160709996242,666.4873946000007,666.5874867999955,666.4873946000007,666.5874867999955,666.5874867999955,None,c,1,0.5036810000019614,666.5874867999955,None,,,,,,,ph,2022_Mar_22_1130,training+cueing,2021.1.4,59.71136719468498,
Friend.png,Friend,Friend,c,2,12,22,92,,,,,1,0,1,0,,,,,0,2,2,4,,,,,,,,,,,,,,,,,,,,,1.545,1.716,667.2273309000011,None,,,,,,,,,,,,,,,,,,,,667.7677123999965,668.2720645000009,0.5073390100005781,1.0075854099995922,668.255339299998,668.3720976999975,668.255339299998,668.3720976999975,668.3553728999977,None,m,0,0.5278321000005235,668.3553728999977,None,,,,,,,ph,2022_Mar_22_1130,training+cueing,2021.1.4,59.71136719468498,
Friend.png,Stranger,Friend,m,3.2,19,29,99,,,,,1,0,1,0,,,,,0,3,3,5,,,,,,,,,,,,,,,,,,,,,1.639,1.226,669.0120611999955,None,,,,,,,,,,,,,,,,,,,,669.5510343999995,670.0566280999992,0.5106431099993642,1.0108906099994783,670.0399604999984,670.1566889000023,670.0399604999984,670.1566889000023,670.139972799996,None,m,1,0.47111860000586603,670.139972799996,None,,,,,,,ph,2022_Mar_22_1130,training+cueing,2021.1.4,59.71136719468498,
Stranger.png,Stranger,Stranger,c,3,13,23,93,,,,,1,0,1,0,,,,,0,4,4,11,,,,,,,,,,,,,,,,,,,,,1.685,1.914,670.7468810999999,None,,,,,,,,,,,,,,,,,,,,671.2814405000026,671.7911741999997,0.4997840099968016,1.0000273100013146,671.7579205000002,671.8579172000027,671.7579205000002,671.8579172000027,671.8579172000027,None,m,0,0.6572270000033313,671.8579172000027,None,,,,,,,ph,2022_Mar_22_1130,training+cueing,2021.1.4,59.71136719468498,
Friend.png,Friend,Friend,c,2,12,22,92,,,,,1,0,1,0,,,,,0,5,5,10,,,,,,,,,,,,,,,,,,,,,1.549,1.743,672.6481684999962,None,,,,,,,,,,,,,,,,,,,,673.1884414000015,673.6926908999958,0.5070589099996141,1.007331909997447,673.6759367999985,673.7926917000004,673.6759367999985,673.7926917000004,673.7759499999956,None,m,0,0.7231783000024734,673.7759499999956,None,,,,,,,ph,2022_Mar_22_1130,training+cueing,2021.1.4,59.71136719468498,
Friend.png,You,Friend,m,1.2,14,24,94,,,,,1,0,1,0,,,,,0,6,6,3,,,,,,,,,,,,,,,,,,,,,1.416,1.342,674.6323159999956,None,,,,,,,,,,,,,,,,,,,,675.1703605000002,675.6773448999957,0.5131991099988227,1.0134871100017335,675.6606973000016,675.760726499997,675.6606973000016,675.760726499997,675.760726499997,None,m,1,0.8344558999961009,675.760726499997,None,,,,,,,ph,2022_Mar_22_1130,training+cueing,2021.1.4,59.71136719468498,
Self.png,Friend,Self ,m,2.1,16,26,96,,,,,1,0,1,0,,,,,0,7,7,1,,,,,,,,,,,,,,,,,,,,,1.583,1.254,676.7172697999995,None,,,,,,,,,,,,,,,,,,,,677.256177700001,677.7622435000012,0.5094627099970239,None,677.7456120999996,677.8622640999965,677.7456120999996,677.8622640999965,677.8456147999968,None,c,0,0.33354770000005374,677.8456147999968,None,,,,,,,ph,2022_Mar_22_1130,training+cueing,2021.1.4,59.71136719468498,
Self.png,Stranger,Self ,m,3.1,18,28,98,,,,,1,0,1,0,,,,,0,8,8,2,,,,,,,,,,,,,,,,,,,,,1.562,1.278,678.3025009999983,None,,,,,,,,,,,,,,,,,,,,678.8431987000004,679.3469245000015,0.5073813100025291,1.0077992100050324,679.3300132000004,679.4467884999976,679.3300132000004,679.4467884999976,679.4300655999978,None,m,1,0.6691646999970544,679.4300655999978,None,,,,,,,ph,2022_Mar_22_1130,training+cueing,2021.1.4,59.71136719468498,
Stranger.png,Friend,Stranger,m,2.3,17,27,97,,,,,1,0,1,0,,,,,0,9,9,7,,,,,,,,,,,,,,,,,,,,,1.518,2.42,680.237424400002,None,,,,,,,,,,,,,,,,,,,,680.7801508999983,681.281471000002,0.5033150099916384,1.0036021099876962,681.2647567000022,681.3815032999992,681.2647567000022,681.3815032999992,681.3647807000016,None,c,0,0.6065015999993193,681.3647807000016,None,,,,,,,ph,2022_Mar_22_1130,training+cueing,2021.1.4,59.71136719468498,
Stranger.png,You,Stranger,m,1.3,15,25,95,,,,,1,0,1,0,,,,,0,10,10,6,,,,,,,,,,,,,,,,,,,,,1.659,1.306,682.1043599999975,None,,,,,,,,,,,,,,,,,,,,682.6421684000015,683.1494808999996,0.511882010003319,1.012170910005807,683.1328042000023,683.2328426999957,683.1328042000023,683.2328426999957,683.2328426999957,None,c,0,0.9143687000032514,683.2328426999957,None,,,,,,,ph,2022_Mar_22_1130,training+cueing,2021.1.4,59.71136719468498,
Self.png,You,Self ,c,1,11,21,91,,,,,1,0,1,0,,,,,0,11,11,9,,,,,,,,,,,,,,,,,,,,,1.694,2.243,684.2730181000006,None,,,,,,,,,,,,,,,,,,,,684.8116881000024,685.3177111999976,0.511926509992918,1.0122195099975215,685.3010165000014,685.4010617999957,685.3010165000014,685.4010617999957,685.4010617999957,None,c,1,0.6020696999985375,685.4010617999957,None,,,,,,,ph,2022_Mar_22_1130,training+cueing,2021.1.4,59.71136719468498,
Self.png,You,Self ,c,1,11,21,91,,,,,1,0,1,0,,,,,1,0,12,9,,,,,,,,,,,,,,,,,,,,,1.638,1.625,686.1411659000005,None,,,,,,,,,,,,,,,,,,,,686.6757155000014,687.1857517000026,0.5004875099912169,1.0008722099955776,687.1523892999976,687.252567399999,687.1523892999976,687.252567399999,687.252567399999,None,c,1,0.6545211999982712,687.252567399999,None,,,,,,,ph,2022_Mar_22_1130,training+cueing,2021.1.4,59.71136719468498,
Friend.png,Friend,Friend,c,2,12,22,92,,,,,1,0,1,0,,,,,1,1,13,10,,,,,,,,,,,,,,,,,,,,,1.617,2.426,688.0426080999969,None,,,,,,,,,,,,,,,,,,,,688.5821949000019,689.0871060999998,0.5102750099977129,1.0106074099967373,689.0703800999981,689.1871440999967,689.0703800999981,689.1871440999967,689.1704278999969,None,m,0,0.7527186000006623,689.1704278999969,None,,,,,,,ph,2022_Mar_22_1130,training+cueing,2021.1.4,59.71136719468498,
Self.png,Stranger,Self ,m,3.1,18,28,98,,,,,1,0,1,0,,,,,1,2,14,2,,,,,,,,,,,,,,,,,,,,,1.776,2.335,690.0607787999979,None,,,,,,,,,,,,,,,,,,,,690.6036531999998,691.1052468999987,0.5046768100000918,1.0049436100016464,691.0885521000018,691.2052982999958,691.0885521000018,691.2052982999958,691.1885508999985,None,m,1,0.6386054000031436,691.1885508999985,None,,,,,,,ph,2022_Mar_22_1130,training+cueing,2021.1.4,59.71136719468498,
Self.png,Friend,Self ,m,2.1,16,26,96,,,,,1,0,1,0,,,,,1,3,15,1,,,,,,,,,,,,,,,,,,,,,1.461,1.236,691.9621662999998,None,,,,,,,,,,,,,,,,,,,,692.4995102999965,693.0066196999978,0.5118946099901223,1.0121836099933716,692.9898885000002,693.1066694999972,692.9898885000002,693.1066694999972,693.089919500002,None,m,1,0.9293219999963185,693.089919500002,None,,,,,,,ph,2022_Mar_22_1130,training+cueing,2021.1.4,59.71136719468498,
Friend.png,Stranger,Friend,m,3.2,19,29,99,,,,,1,0,1,0,,,,,1,4,16,5,,,,,,,,,,,,,,,,,,,,,1.725,1.461,694.1470205000005,None,,,,,,,,,,,,,,,,,,,,694.6894557999985,695.1916286999985,0.5056842099947971,1.0059834099956788,695.1748164000019,695.2915664999964,695.1748164000019,695.2915664999964,695.2748898999998,None,c,0,0.7923684999987017,695.2748898999998,None,,,,,,,ph,2022_Mar_22_1130,training+cueing,2021.1.4,59.71136719468498,
Stranger.png,Stranger,Stranger,c,3,13,23,93,,,,,1,0,1,0,,,,,1,5,17,11,,,,,,,,,,,,,,,,,,,,,1.724,1.343,696.1988719000001,None,,,,,,,,,,,,,,,,,,,,696.734853199996,697.242943899997,0.500071009992098,1.0003922099931515,697.2096192000026,697.3096641000011,697.2096192000026,697.3096641000011,697.3096641000011,None,m,0,0.6455303999973694,697.3096641000011,None,,,,,,,ph,2022_Mar_22_1130,training+cueing,2021.1.4,59.71136719468498,
Friend.png,Friend,Friend,c,2,12,22,92,,,,,1,0,1,0,,,,,1,6,18,4,,,,,,,,,,,,,,,,,,,,,1.746,1.609,698.0830361999979,None,,,,,,,,,,,,,,,,,,,,698.6444801999969,699.1443755,0.5154992800016771,1.0157754799947725,699.1443755,699.2444335999971,699.1443755,699.2444335999971,699.2444335999971,None,m,0,0.5986756999991485,699.2444335999971,None,,,,,,,ph,2022_Mar_22_1130,training+cueing,2021.1.4,59.71136719468498,
Stranger.png,Stranger,Stranger,c,3,13,23,93,,,,,1,0,1,0,,,,,1,7,19,8,,,,,,,,,,,,,,,,,,,,,1.768,1.431,699.9672234000027,None,,,,,,,,,,,,,,,,,,,,700.5067410999982,701.0126767999973,0.5098232099990128,1.0116174099966884,700.9943333999981,701.1124389999968,700.9943333999981,701.1124389999968,701.095736700001,None,m,0,0.795488399999158,701.095736700001,None,,,,,,,ph,2022_Mar_22_1130,training+cueing,2021.1.4,59.71136719468498,
Stranger.png,Friend,Stranger,m,2.3,17,27,97,,,,,1,0,1,0,,,,,1,8,20,7,,,,,,,,,,,,,,,,,,,,,1.64,2.138,702.0193854000026,None,,,,,,,,,,,,,,,,,,,,702.5567276000002,703.0638705000019,0.5108842100016773,1.0112292099947808,703.0471844999993,703.1639155000012,703.0471844999993,703.1639155000012,703.1472462999955,None,c,0,0.8398872999969171,703.1472462999955,None,,,,,,,ph,2022_Mar_22_1130,training+cueing,2021.1.4,59.71136719468498,
Stranger.png,You,Stranger,m,1.3,15,25,95,,,,,1,0,1,0,,,,,1,9,21,6,,,,,,,,,,,,,,,,,,,,,1.689,1.904,704.1204710999955,None,,,,,,,,,,,,,,,,,,,,704.6626744999958,705.165384699998,0.5060756099919672,1.006341109990899,705.1487523999967,705.2487791999956,705.1487523999967,705.2487791999956,705.2487791999956,None,m,1,0.8343440999960876,705.2487791999956,None,,,,,,,ph,2022_Mar_22_1130,training+cueing,2021.1.4,59.71136719468498,
Friend.png,You,Friend,m,1.2,14,24,94,,,,,1,0,1,0,,,,,1,10,22,3,,,,,,,,,,,,,,,,,,,,,1.751,1.467,706.2053970999987,None,,,,,,,,,,,,,,,,,,,,706.7423402999993,707.2502640000021,0.4990062100041541,0.999370910001744,707.2335185999982,707.3335525000002,707.2335185999982,707.3335525000002,707.3169316999993,None,m,1,0.6222369000024628,707.3169316999993,None,,,,,,,ph,2022_Mar_22_1130,training+cueing,2021.1.4,59.71136719468498,
Self.png,You,Self ,c,1,11,21,91,,,,,1,0,1,0,,,,,1,11,23,0,,,,,,,,,,,,,,,,,,,,,1.644,2.025,708.0741043000016,None,,,,,,,,,,,,,,,,,,,,708.6116060999993,709.1182469999985,0.5104725099881762,1.0107183099898975,709.1016057000015,709.2016652999955,709.1016057000015,709.2016652999955,709.2016652999955,None,c,1,0.6414915999994264,709.2016652999955,None,,,,,,,ph,2022_Mar_22_1130,training+cueing,2021.1.4,59.71136719468498,
Self.png,You,Self ,c,1,11,21,91,,,,,1,0,1,0,,,,,2,0,24,0,,,,,,,,,,,,,,,,,,,,,1.719,2.384,709.9747138999955,None,,,,,,,,,,,,,,,,,,,,710.5111123999959,711.0196262999962,0.5003483100008452,1.0006792099957238,710.986227399997,711.0862935999976,710.986227399997,711.0862935999976,711.0862935999976,None,c,1,0.7732896000015899,711.0862935999976,None,,,,,,,ph,2022_Mar_22_1130,training+cueing,2021.1.4,59.71136719468498,
Stranger.png,Friend,Stranger,m,2.3,17,27,97,,,,,1,0,1,0,,,,,2,1,25,7,,,,,,,,,,,,,,,,,,,,,1.526,1.744,711.9932577,None,,,,,,,,,,,,,,,,,,,,712.5318856000013,713.0377586999966,0.51102980998985,1.0113581099940347,713.0210661000019,713.1377922999964,713.0210661000019,713.1377922999964,713.1211073000013,None,m,1,0.7700936999972328,713.1211073000013,None,,,,,,,ph,2022_Mar_22_1130,training+cueing,2021.1.4,59.71136719468498,
Self.png,Stranger,Self ,m,3.1,18,28,98,,,,,1,0,1,0,,,,,2,2,26,2,,,,,,,,,,,,,,,,,,,,,1.69,2.452,714.0281309999991,None,,,,,,,,,,,,,,,,,,,,714.5694720999963,715.0726136000012,0.5041209099945263,1.0044502099990495,715.0558788999988,715.1726337,715.0558788999988,715.1726337,715.1559054000027,None,c,0,0.5913356999953976,715.1559054000027,None,,,,,,,ph,2022_Mar_22_1130,training+cueing,2021.1.4,59.71136719468498,
Stranger.png,You,Stranger,m,1.3,15,25,95,,,,,1,0,1,0,,,,,2,3,27,6,,,,,,,,,,,,,,,,,,,,,1.606,1.942,715.8789198000013,None,,,,,,,,,,,,,,,,,,,,716.4167100999985,716.9239127999972,0.5131902099965373,1.0134858099991106,716.9072092999995,717.0072690000015,716.9072092999995,717.0072690000015,717.0072690000015,None,m,1,0.9477914000017336,717.0072690000015,None,,,,,,,ph,2022_Mar_22_1130,training+cueing,2021.1.4,59.71136719468498,
Self.png,You,Self ,c,1,11,21,91,,,,,1,0,1,0,,,,,2,4,28,9,,,,,,,,,,,,,,,,,,,,,1.542,1.66,718.0811414999989,None,,,,,,,,,,,,,,,,,,,,718.6182477999973,719.1255404999974,0.5119429100013804,1.012279110000236,719.1088323000004,719.2088592,719.1088323000004,719.2088592,719.2088592,None,m,0,0.5383040000015171,719.2088592,None,,,,,,,ph,2022_Mar_22_1130,training+cueing,2021.1.4,59.71136719468498,
Friend.png,Friend,Friend,c,2,12,22,92,,,,,1,0,1,0,,,,,2,5,29,10,,,,,,,,,,,,,,,,,,,,,1.422,1.573,719.8825795000012,None,,,,,,,,,,,,,,,,,,,,720.4203765999991,720.9268093999999,0.5124731100004283,1.0127694100010558,720.9101102999994,721.0268804000007,720.9101102999994,721.0268804000007,721.0101318000015,None,m,0,0.6889718000020366,721.0101318000015,None,,,,,,,ph,2022_Mar_22_1130,training+cueing,2021.1.4,59.71136719468498,
Friend.png,You,Friend,m,1.2,14,24,94,,,,,1,0,1,0,,,,,2,6,30,3,,,,,,,,,,,,,,,,,,,,,1.432,1.567,721.8334180999955,None,,,,,,,,,,,,,,,,,,,,722.3719063999961,722.8782152999993,0.5121788099932019,1.0124861099975533,722.8615205000024,722.961569799998,722.8615205000024,722.961569799998,722.961569799998,None,m,1,0.7215735999998287,722.961569799998,None,,,,,,,ph,2022_Mar_22_1130,training+cueing,2021.1.4,59.71136719468498,
Stranger.png,Stranger,Stranger,c,3,13,23,93,,,,,1,0,1,0,,,,,2,7,31,8,,,,,,,,,,,,,,,,,,,,,1.717,1.569,723.8183751999968,None,,,,,,,,,,,,,,,,,,,,724.359403800001,724.8629820999995,0.5052108099989709,1.0054758099940955,724.8463387000011,724.9630524999957,724.8463387000011,724.9630524999957,724.9463254000002,None,m,0,1.2327777999962564,724.9463254000002,None,,,,,,,ph,2022_Mar_22_1130,training+cueing,2021.1.4,59.71136719468498,
Stranger.png,Stranger,Stranger,c,3,13,23,93,,,,,1,0,1,0,,,,,2,8,32,11,,,,,,,,,,,,,,,,,,,,,1.647,2.041,726.303264000002,None,,,,,,,,,,,,,,,,,,,,726.8419109000024,727.348145099997,0.5129537100001471,1.0132011099994997,727.3314686000012,727.4482093999977,727.3314686000012,727.4482093999977,727.4314640000011,None,m,0,0.5077206999994814,727.4314640000011,None,,,,,,,ph,2022_Mar_22_1130,training+cueing,2021.1.4,59.71136719468498,
Friend.png,Stranger,Friend,m,3.2,19,29,99,,,,,1,0,1,0,,,,,2,9,33,5,,,,,,,,,,,,,,,,,,,,,1.567,1.337,728.0712693999958,None,,,,,,,,,,,,,,,,,,,,728.6098857999968,729.1160769999988,0.51121910999791,1.0115028099971823,729.0994103999983,729.2161102999962,729.0994103999983,729.2161102999962,729.1994484999959,None,c,0,0.8997159999998985,729.1994484999959,None,,,,,,,ph,2022_Mar_22_1130,training+cueing,2021.1.4,59.71136719468498,
Self.png,Friend,Self ,m,2.1,16,26,96,,,,,1,0,1,0,,,,,2,10,34,1,,,,,,,,,,,,,,,,,,,,,1.668,1.359,730.2228337999986,None,,,,,,,,,,,,,,,,,,,,730.7602527999989,731.2676257999992,0.5118320099936682,1.0121933099944727,731.2509498,731.3676542999965,731.2509498,731.3676542999965,731.3510078999971,None,m,1,1.084146499997587,731.3510078999971,None,,,,,,,ph,2022_Mar_22_1130,training+cueing,2021.1.4,59.71136719468498,
Friend.png,Friend,Friend,c,2,12,22,92,,,,,1,0,1,0,,,,,2,11,35,4,,,,,,,,,,,,,,,,,,,,,1.491,1.63,732.5591253999955,None,,,,,,,,,,,,,,,,,,,,733.0954503999965,733.6027185999992,0.5144697100040503,1.0147416100007831,733.5859722000023,733.7026887999964,733.5859722000023,733.7026887999964,733.6859903000004,None,m,0,0.9411079999990761,733.6859903000004,None,,,,,,,ph,2022_Mar_22_1130,training+cueing,2021.1.4,59.71136719468498,
Self.png,Stranger,Self ,m,3.1,18,28,98,,,,,1,0,1,0,,,,,3,0,36,2,,,,,,,,,,,,,,,,,,,,,1.764,1.362,734.759976100002,None,,,,,,,,,,,,,,,,,,,,735.3124487000023,735.8209069000004,0.5148089799986337,1.015095279995876,735.8042473000023,735.9209494000024,735.8042473000023,735.9209494000024,735.9042637999955,None,m,1,0.994907799999055,735.9042637999955,None,,,,,,,ph,2022_Mar_22_1130,training+cueing,2021.1.4,59.71136719468498,
Self.png,You,Self ,c,1,11,21,91,,,,,1,0,1,0,,,,,3,1,37,0,,,,,,,,,,,,,,,,,,,,,1.529,2.462,737.0282636999982,None,,,,,,,,,,,,,,,,,,,,737.5666783999986,738.0725596999982,0.5119473100057803,1.0122677100007422,738.0558451999968,738.1559502000018,738.0558451999968,738.1559502000018,738.1559502000018,None,c,1,0.695224800001597,738.1559502000018,None,,,,,,,ph,2022_Mar_22_1130,training+cueing,2021.1.4,59.71136719468498,
Friend.png,Friend,Friend,c,2,12,22,92,,,,,1,0,1,0,,,,,3,2,38,4,,,,,,,,,,,,,,,,,,,,,1.476,1.572,738.9794574999978,None,,,,,,,,,,,,,,,,,,,,739.5212446000005,740.0239688000001,0.50659320998966,1.0068507099931594,740.0072902999964,740.1239970000024,740.0072902999964,740.1239970000024,740.1072955999989,None,m,0,0.7759258000005502,740.1072955999989,None,,,,,,,ph,2022_Mar_22_1130,training+cueing,2021.1.4,59.71136719468498,
Stranger.png,Stranger,Stranger,c,3,13,23,93,,,,,1,0,1,0,,,,,3,3,39,11,,,,,,,,,,,,,,,,,,,,,1.598,1.696,741.0135326000018,None,,,,,,,,,,,,,,,,,,,,741.5528255999961,742.0587627999994,0.5102753099927213,1.0111696099920664,742.0420987999969,742.1588046999968,742.0420987999969,742.1588046999968,742.1421326999989,None,None,0,,742.1421326999989,None,,,,,,,ph,2022_Mar_22_1130,training+cueing,2021.1.4,59.71136719468498,
Friend.png,Friend,Friend,c,2,12,22,92,,,,,1,0,1,0,,,,,3,4,40,10,,,,,,,,,,,,,,,,,,,,,1.63,1.258,743.8469638999959,None,,,,,,,,,,,,,,,,,,,,744.3873683999991,744.8941579999955,0.5124716099890065,1.0127513099869248,744.8774713999956,744.9942100999979,744.8774713999956,744.9942100999979,744.9774868999957,None,m,0,0.6416807999994489,744.9774868999957,None,,,,,,,ph,2022_Mar_22_1130,training+cueing,2021.1.4,59.71136719468498,
Self.png,Friend,Self ,m,2.1,16,26,96,,,,,1,0,1,0,,,,,3,5,41,1,,,,,,,,,,,,,,,,,,,,,1.501,1.968,745.7505170000004,None,,,,,,,,,,,,,,,,,,,,746.2878965999989,746.7955481000026,0.5157067099935375,1.016009609993489,746.7788492999971,746.8955968000009,746.7788492999971,746.8955968000009,746.8593889999975,None,m,1,0.6957752000016626,746.8593889999975,None,,,,,,,ph,2022_Mar_22_1130,training+cueing,2021.1.4,59.71136719468498,
Friend.png,You,Friend,m,1.2,14,24,94,,,,,1,0,1,0,,,,,3,6,42,3,,,,,,,,,,,,,,,,,,,,,1.527,2.279,747.6860231999963,None,,,,,,,,,,,,,,,,,,,,748.2253163999994,748.7303218000015,0.5084260099974927,1.008669809998537,748.7136105000027,748.8136279999962,748.7136105000027,748.8136279999962,748.8136279999962,None,m,1,0.8695062999977381,748.8136279999962,None,,,,,,,ph,2022_Mar_22_1130,training+cueing,2021.1.4,59.71136719468498,
Stranger.png,Stranger,Stranger,c,3,13,23,93,,,,,1,0,1,0,,,,,3,7,43,8,,,,,,,,,,,,,,,,,,,,,1.537,2.315,749.8195087999993,None,,,,,,,,,,,,,,,,,,,,750.3604030999995,750.8651523000008,0.50926900999184,1.0095724099955987,750.8484829000008,750.9651805999965,750.8484829000008,750.9651805999965,750.9485034999961,None,m,0,0.5907013999967603,750.9485034999961,None,,,,,,,ph,2022_Mar_22_1130,training+cueing,2021.1.4,59.71136719468498,
Friend.png,Stranger,Friend,m,3.2,19,29,99,,,,,1,0,1,0,,,,,3,8,44,5,,,,,,,,,,,,,,,,,,,,,1.565,1.581,751.6714550999968,None,,,,,,,,,,,,,,,,,,,,752.2079651000022,752.7164791999967,0.5144521099937265,1.014732109993929,752.6998424999983,752.8165909000018,752.6998424999983,752.8165909000018,752.7999911000006,None,m,1,0.7395620999959647,752.7999911000006,None,,,,,,,ph,2022_Mar_22_1130,training+cueing,2021.1.4,59.71136719468498,
Stranger.png,Friend,Stranger,m,2.3,17,27,97,,,,,1,0,1,0,,,,,3,9,45,7,,,,,,,,,,,,,,,,,,,,,1.753,1.316,753.677671999998,None,,,,,,,,,,,,,,,,,,,,754.2124125999981,754.7179152999961,0.5097978099947795,1.0106863099936163,754.7012715000019,754.8179727999959,754.7012715000019,754.8179727999959,754.8013052000024,None,m,1,0.7378949999983888,754.8013052000024,None,,,,,,,ph,2022_Mar_22_1130,training+cueing,2021.1.4,59.71136719468498,
Stranger.png,You,Stranger,m,1.3,15,25,95,,,,,1,0,1,0,,,,,3,10,46,6,,,,,,,,,,,,,,,,,,,,,1.458,2.336,755.674761299997,None,,,,,,,,,,,,,,,,,,,,756.2128894999987,756.7194069999969,0.511703709998983,1.0120079099942814,756.702724499999,756.802763300002,756.702724499999,756.802763300002,756.802763300002,None,m,1,0.7684248000005027,756.802763300002,None,,,,,,,ph,2022_Mar_22_1130,training+cueing,2021.1.4,59.71136719468498,
Self.png,You,Self ,c,1,11,21,91,,,,,1,0,1,0,,,,,3,11,47,9,,,,,,,,,,,,,,,,,,,,,1.676,2.39,757.6937424999996,None,,,,,,,,,,,,,,,,,,,,758.2307336000013,758.7375233999992,0.5115681099996436,1.0118394099990837,758.720877300002,758.8208938000025,758.720877300002,758.8208938000025,758.8208938000025,None,c,1,0.6065431999959401,758.8208938000025,None,,,,,,,ph,2022_Mar_22_1130,training+cueing,2021.1.4,59.71136719468498,
Self.png,You,Self ,c,1,11,21,91,,,,,1,0,1,0,,,,,4,0,48,9,,,,,,,,,,,,,,,,,,,,,1.796,1.61,759.5615600000019,None,,,,,,,,,,,,,,,,,,,,760.0968406999964,760.6054656999986,0.5003913099935744,1.0005789099959657,760.5722301999995,760.6722496000002,760.5722301999995,760.6722496000002,760.6722496000002,None,c,1,0.9469825999985915,760.6722496000002,None,,,,,,,ph,2022_Mar_22_1130,training+cueing,2021.1.4,59.71136719468498,
Friend.png,You,Friend,m,1.2,14,24,94,,,,,1,0,1,0,,,,,4,1,49,3,,,,,,,,,,,,,,,,,,,,,1.446,1.496,761.745465699998,None,,,,,,,,,,,,,,,,,,,,762.284553999998,762.7904445999957,0.5109788100016885,1.0112613100063754,762.7737868999975,762.8738879000011,762.7737868999975,762.8738879000011,762.8738879000011,None,m,1,0.4892480000053183,762.8738879000011,None,,,,,,,ph,2022_Mar_22_1130,training+cueing,2021.1.4,59.71136719468498,
Stranger.png,Stranger,Stranger,c,3,13,23,93,,,,,1,0,1,0,,,,,4,2,50,11,,,,,,,,,,,,,,,,,,,,,1.472,1.788,763.497263600002,None,,,,,,,,,,,,,,,,,,,,764.0346911000015,764.5416600000026,0.5111849099921528,1.012094009995053,764.5250371000002,764.6417340999978,764.5250371000002,764.6417340999978,764.6250830999998,None,m,0,1.2819891999970423,764.6250830999998,None,,,,,,,ph,2022_Mar_22_1130,training+cueing,2021.1.4,59.71136719468498,
Friend.png,Friend,Friend,c,2,12,22,92,,,,,1,0,1,0,,,,,4,3,51,10,,,,,,,,,,,,,,,,,,,,,1.528,1.45,766.0322612000018,None,,,,,,,,,,,,,,,,,,,,766.6271247999975,767.1268799999962,0.5005381199953263,1.0008294199942611,767.110239900001,767.2269585999966,767.110239900001,767.2269585999966,767.2269585999966,None,None,0,,767.2269585999966,None,,,,,,,ph,2022_Mar_22_1130,training+cueing,2021.1.4,59.71136719468498,
Self.png,Friend,Self ,m,2.1,16,26,96,,,,,1,0,1,0,,,,,4,4,52,1,,,,,,,,,,,,,,,,,,,,,1.699,2.037,768.8651343999954,None,,,,,,,,,,,,,,,,,,,,769.4025366999995,769.9122473000025,0.500166009995155,1.001062909999746,769.8788827999961,769.9789478000021,769.8788827999961,769.9789478000021,769.9789478000021,None,c,0,0.8721992999999202,769.9789478000021,None,,,,,,,ph,2022_Mar_22_1130,training+cueing,2021.1.4,59.71136719468498,
Self.png,Stranger,Self ,m,3.1,18,28,98,,,,,1,0,1,0,,,,,4,5,53,2,,,,,,,,,,,,,,,,,,,,,1.522,2.175,770.9854282000015,None,,,,,,,,,,,,,,,,,,,,771.5266078999994,772.0304534000024,0.5077059099930921,None,772.0138208999997,772.1305120999968,772.0138208999997,772.1305120999968,772.1138281999956,None,m,1,0.25734360000205925,772.1138281999956,None,,,,,,,ph,2022_Mar_22_1130,training+cueing,2021.1.4,59.71136719468498,
Stranger.png,You,Stranger,m,1.3,15,25,95,,,,,1,0,1,0,,,,,4,6,54,6,,,,,,,,,,,,,,,,,,,,,1.505,1.666,772.5032218999986,None,,,,,,,,,,,,,,,,,,,,773.0428688999964,773.5482497999983,0.5107390099947224,1.010939009996946,773.5316344000021,773.6316057000004,773.5316344000021,773.6316057000004,773.6316057000004,None,None,0,,773.6316057000004,None,,,,,,,ph,2022_Mar_22_1130,training+cueing,2021.1.4,59.71136719468498,
Stranger.png,Stranger,Stranger,c,3,13,23,93,,,,,1,0,1,0,,,,,4,7,55,8,,,,,,,,,,,,,,,,,,,,,1.552,1.95,775.2539174999984,None,,,,,,,,,,,,,,,,,,,,775.7947458999988,776.3002185000005,0.5093780099923606,None,776.2835469999991,776.4002495000022,776.2835469999991,776.4002495000022,776.3835650999972,None,m,0,0.2755976000044029,776.3835650999972,None,,,,,,,ph,2022_Mar_22_1130,training+cueing,2021.1.4,59.71136719468498,
Friend.png,Friend,Friend,c,2,12,22,92,,,,,1,0,1,0,,,,,4,8,56,4,,,,,,,,,,,,,,,,,,,,,1.574,1.929,776.7898167000021,None,,,,,,,,,,,,,,,,,,,,777.3292012999955,777.8346550999995,0.5101175100062392,1.0103611100057606,777.8180033999961,777.9347168999957,777.8180033999961,777.9347168999957,777.9180389999965,None,m,0,0.7251367999997456,777.9180389999965,None,,,,,,,ph,2022_Mar_22_1130,training+cueing,2021.1.4,59.71136719468498,
Friend.png,Stranger,Friend,m,3.2,19,29,99,,,,,1,0,1,0,,,,,4,9,57,5,,,,,,,,,,,,,,,,,,,,,1.446,1.589,778.7742949000021,None,,,,,,,,,,,,,,,,,,,,779.3132292000009,779.8194547999956,0.5108637099983753,1.011148609999509,779.8027490000022,779.9195065999957,779.8027490000022,779.9195065999957,779.9027646999966,None,m,1,0.5003158999970765,779.9027646999966,None,,,,,,,ph,2022_Mar_22_1130,training+cueing,2021.1.4,59.71136719468498,
Self.png,You,Self ,c,1,11,21,91,,,,,1,0,1,0,,,,,4,10,58,0,,,,,,,,,,,,,,,,,,,,,1.698,1.999,780.5255786999987,None,,,,,,,,,,,,,,,,,,,,781.0635837000009,781.5707027999961,0.5123085099912714,1.0125921099897823,781.5540344999972,781.6540604999973,781.5540344999972,781.6540604999973,781.6540604999973,None,c,1,0.4771186999932979,781.6540604999973,None,,,,,,,ph,2022_Mar_22_1130,training+cueing,2021.1.4,59.71136719468498,
Stranger.png,Friend,Stranger,m,2.3,17,27,97,,,,,1,0,1,0,,,,,4,11,59,7,,,,,,,,,,,,,,,,,,,,,1.529,2.01,782.2607636999965,None,,,,,,,,,,,,,,,,,,,,782.7992350999994,783.305260299996,0.5115959100003238,1.0119116099958774,783.2885849000013,783.4053282000023,783.2885849000013,783.4053282000023,783.3886416999958,None,c,0,0.6625419000047259,783.3886416999958,None,,,,,,,ph,2022_Mar_22_1130,training+cueing,2021.1.4,59.71136719468498,
Stranger.png,Stranger,Stranger,c,3,13,23,93,,,,,1,0,1,0,,,,,5,0,60,8,,,,,,,,,,,,,,,,,,,,,1.632,1.851,784.1787015000009,None,,,,,,,,,,,,,,,,,,,,784.719385700002,785.2233392999988,0.5055680099903839,1.0058000099888886,785.2066881999999,785.3233699999982,785.2066881999999,785.3233699999982,785.3066933000009,None,m,0,0.744483800001035,785.3066933000009,None,,,,,,,ph,2022_Mar_22_1130,training+cueing,2021.1.4,59.71136719468498,
Self.png,You,Self ,c,1,11,21,91,,,,,1,0,1,0,,,,,5,1,61,0,,,,,,,,,,,,,,,,,,,,,1.735,1.622,786.1801730000007,None,,,,,,,,,,,,,,,,,,,,786.7178196999957,787.2248013999997,0.5129825100011658,1.0132671100000152,787.2081103000019,787.3081622999962,787.2081103000019,787.3081622999962,787.3081622999962,None,c,1,0.4710156000001007,787.3081622999962,None,,,,,,,ph,2022_Mar_22_1130,training+cueing,2021.1.4,59.71136719468498,
Friend.png,Friend,Friend,c,2,12,22,92,,,,,1,0,1,0,,,,,5,2,62,4,,,,,,,,,,,,,,,,,,,,,1.538,1.978,787.9145160999979,None,,,,,,,,,,,,,,,,,,,,788.4613201999964,788.9760500999982,0.5117527100010193,1.0120818099967437,788.9593673999989,789.0761273000026,788.9593673999989,789.0761273000026,789.0594203,None,m,0,0.735793099993316,789.0594203,None,,,,,,,ph,2022_Mar_22_1130,training+cueing,2021.1.4,59.71136719468498,
Friend.png,Friend,Friend,c,2,12,22,92,,,,,1,0,1,0,,,,,5,3,63,10,,,,,,,,,,,,,,,,,,,,,1.496,2.418,789.9329702999967,None,,,,,,,,,,,,,,,,,,,,790.4675408999974,790.977463700001,0.500192009996681,1.0004923099986627,790.9441738999958,791.0442352999962,790.9441738999958,791.0442352999962,791.0442352999962,None,m,0,0.7989470999964396,791.0442352999962,None,,,,,,,ph,2022_Mar_22_1130,training+cueing,2021.1.4,59.71136719468498,
Stranger.png,Friend,Stranger,m,2.3,17,27,97,,,,,1,0,1,0,,,,,5,4,64,7,,,,,,,,,,,,,,,,,,,,,1.68,1.594,791.9681092999963,None,,,,,,,,,,,,,,,,,,,,792.5038404000006,793.0122827000014,0.4995331099999021,0.9998669100023108,792.9789536000026,793.0789882000026,792.9789536000026,793.0789882000026,793.0789882000026,None,c,0,0.6201855000035721,793.0789882000026,None,,,,,,,ph,2022_Mar_22_1130,training+cueing,2021.1.4,59.71136719468498,
Self.png,Friend,Self ,m,2.1,16,26,96,,,,,1,0,1,0,,,,,5,5,65,1,,,,,,,,,,,,,,,,,,,,,1.696,1.921,793.8353719000006,None,,,,,,,,,,,,,,,,,,,,794.3740113000022,794.880376000001,0.5133539099988411,1.0136378099996364,794.8636714000022,794.9803904,794.8636714000022,794.9803904,794.9636879999962,None,m,1,0.831456399995659,794.9636879999962,None,,,,,,,ph,2022_Mar_22_1130,training+cueing,2021.1.4,59.71136719468498,
Friend.png,Stranger,Friend,m,3.2,19,29,99,,,,,1,0,1,0,,,,,5,6,66,5,,,,,,,,,,,,,,,,,,,,,1.452,2.41,795.9202873999966,None,,,,,,,,,,,,,,,,,,,,796.4581987999991,796.9651785999959,0.510983309992298,1.0112487099977443,796.9485392999995,797.0652321000016,796.9485392999995,797.0652321000016,797.0485513000021,None,m,1,0.7626252999980352,797.0485513000021,None,,,,,,,ph,2022_Mar_22_1130,training+cueing,2021.1.4,59.71136719468498,
Self.png,You,Self ,c,1,11,21,91,,,,,1,0,1,0,,,,,5,7,67,9,,,,,,,,,,,,,,,,,,,,,1.492,2.365,797.938301000002,None,,,,,,,,,,,,,,,,,,,,798.4777298999979,798.9833068000007,0.5101898100037943,1.010480410004675,798.9666469000003,799.0666906999977,798.9666469000003,799.0666906999977,799.0666906999977,None,c,1,0.6164873999950942,799.0666906999977,None,,,,,,,ph,2022_Mar_22_1130,training+cueing,2021.1.4,59.71136719468498,
Self.png,Stranger,Self ,m,3.1,18,28,98,,,,,1,0,1,0,,,,,5,8,68,2,,,,,,,,,,,,,,,,,,,,,1.63,1.615,799.8061755000017,None,,,,,,,,,,,,,,,,,,,,800.3448032000015,800.8513229000018,0.511158709989104,1.0115000099904137,800.8346008000008,800.9513910000023,800.8346008000008,800.9513910000023,800.9346682999967,None,m,1,0.7644669999936013,800.9346682999967,None,,,,,,,ph,2022_Mar_22_1130,training+cueing,2021.1.4,59.71136719468498,
Friend.png,You,Friend,m,1.2,14,24,94,,,,,1,0,1,0,,,,,5,9,69,3,,,,,,,,,,,,,,,,,,,,,1.771,1.94,801.8250690999994,None,,,,,,,,,,,,,,,,,,,,802.3634257000012,802.8694474000004,0.5117548099879059,1.012055409992172,802.8528051999965,802.9528406999962,802.8528051999965,802.9528406999962,802.9528406999962,None,m,1,0.9222966000015731,802.9528406999962,None,,,,,,,ph,2022_Mar_22_1130,training+cueing,2021.1.4,59.71136719468498,
Stranger.png,You,Stranger,m,1.3,15,25,95,,,,,1,0,1,0,,,,,5,10,70,6,,,,,,,,,,,,,,,,,,,,,1.507,1.92,804.0094470999975,None,,,,,,,,,,,,,,,,,,,,804.5455729000023,805.0543867000015,0.5004422099955264,1.0008303099966724,805.0209937999971,805.1210510000019,805.0209937999971,805.1210510000019,805.1210510000019,None,None,0,,805.1210510000019,None,,,,,,,ph,2022_Mar_22_1130,training+cueing,2021.1.4,59.71136719468498,
Stranger.png,Stranger,Stranger,c,3,13,23,93,,,,,1,0,1,0,,,,,5,11,71,11,,,,,,,,,,,,,,,,,,,,,1.578,2.158,806.7459134000019,None,,,,,,,,,,,,,,,,,,,,807.2842343000011,807.7896809000013,0.508277109998744,1.0085143099931884,807.7730407999989,807.8897333999994,807.7730407999989,807.8897333999994,807.8730378999971,None,m,0,1.1701352000018233,807.8730378999971,None,,,,,,,ph,2022_Mar_22_1130,training+cueing,2021.1.4,59.71136719468498,
Friend.png,Stranger,Friend,m,3.2,19,29,99,,,,,1,0,1,0,,,,,6,0,72,5,,,,,,,,,,,,,,,,,,,,,1.519,1.87,809.1802155999976,None,,,,,,,,,,,,,,,,,,,,809.7187933999958,810.2248094000024,0.5121473100007279,1.0124461099985638,810.2080999999962,810.3248536999963,810.2080999999962,810.3248536999963,810.3081469999961,None,c,0,0.8150097000034293,810.3081469999961,None,,,,,,,ph,2022_Mar_22_1130,training+cueing,2021.1.4,59.71136719468498,
Self.png,You,Self ,c,1,11,21,91,,,,,1,0,1,0,,,,,6,1,73,9,,,,,,,,,,,,,,,,,,,,,1.458,2.271,811.2486685999975,None,,,,,,,,,,,,,,,,,,,,811.7870868999962,812.2929425999973,0.5121380100026727,1.0124132100027055,812.2762715999997,812.3763185999996,812.2762715999997,812.3763185999996,812.3763185999996,None,c,1,0.7468685999992886,812.3763185999996,None,,,,,,,ph,2022_Mar_22_1130,training+cueing,2021.1.4,59.71136719468498,
Self.png,You,Self ,c,1,11,21,91,,,,,1,0,1,0,,,,,6,2,74,0,,,,,,,,,,,,,,,,,,,,,1.413,1.512,813.250258,None,,,,,,,,,,,,,,,,,,,,813.7871615999975,814.2944151999982,0.5122753099931288,1.012553709988424,814.2777309000012,814.3777941000008,814.2777309000012,814.3777941000008,814.3777941000008,None,c,1,0.5854212999984156,814.3777941000008,None,,,,,,,ph,2022_Mar_22_1130,training+cueing,2021.1.4,59.71136719468498,
Stranger.png,Stranger,Stranger,c,3,13,23,93,,,,,1,0,1,0,,,,,6,3,75,11,,,,,,,,,,,,,,,,,,,,,1.414,1.752,815.1006558000008,None,,,,,,,,,,,,,,,,,,,,815.6398038999978,816.1457175999967,0.511281909988611,1.0115865099869552,816.1290569999983,816.2457716999998,816.1290569999983,816.2457716999998,816.2290712999966,None,m,0,0.4461736999946879,816.2290712999966,None,,,,,,,ph,2022_Mar_22_1130,training+cueing,2021.1.4,59.71136719468498,
Self.png,Friend,Self ,m,2.1,16,26,96,,,,,1,0,1,0,,,,,6,4,76,1,,,,,,,,,,,,,,,,,,,,,1.492,2.188,816.8024824999957,None,,,,,,,,,,,,,,,,,,,,817.3399013000017,817.8469628000021,0.5114887099989573,1.0117807100032223,817.8302859999967,817.9470137000026,817.8302859999967,817.9470137000026,817.930343699998,None,m,1,1.2248441999981878,817.930343699998,None,,,,,,,ph,2022_Mar_22_1130,training+cueing,2021.1.4,59.71136719468498,
Stranger.png,Friend,Stranger,m,2.3,17,27,97,,,,,1,0,1,0,,,,,6,5,77,7,,,,,,,,,,,,,,,,,,,,,1.795,2.321,819.287668500001,None,,,,,,,,,,,,,,,,,,,,819.8268076999957,820.3320975000024,0.5103054099890869,1.0105827099905582,820.3154544999998,820.4321114999984,820.3154544999998,820.4321114999984,820.4154555999994,None,c,0,0.8037143000037759,820.4154555999994,None,,,,,,,ph,2022_Mar_22_1130,training+cueing,2021.1.4,59.71136719468498,
Stranger.png,Stranger,Stranger,c,3,13,23,93,,,,,1,0,1,0,,,,,6,6,78,8,,,,,,,,,,,,,,,,,,,,,1.427,2.127,821.3559900999971,None,,,,,,,,,,,,,,,,,,,,821.8940587999969,822.4004270000005,0.5112792099971557,None,822.383740199999,822.5004264000017,822.383740199999,822.5004264000017,822.483782700001,None,m,0,0.3835737999979756,822.483782700001,None,,,,,,,ph,2022_Mar_22_1130,training+cueing,2021.1.4,59.71136719468498,
Stranger.png,You,Stranger,m,1.3,15,25,95,,,,,1,0,1,0,,,,,6,7,79,6,,,,,,,,,,,,,,,,,,,,,1.403,2.075,822.9908700000015,None,,,,,,,,,,,,,,,,,,,,823.5296766999963,824.0347638999956,0.5080588099881425,1.0082816099893535,824.0181490999967,824.1181911000022,824.0181490999967,824.1181911000022,824.1181911000022,None,m,1,0.797044700004335,824.1181911000022,None,,,,,,,ph,2022_Mar_22_1130,training+cueing,2021.1.4,59.71136719468498,
Self.png,Stranger,Self ,m,3.1,18,28,98,,,,,1,0,1,0,,,,,6,8,80,2,,,,,,,,,,,,,,,,,,,,,1.637,1.575,825.0411421999961,None,,,,,,,,,,,,,,,,,,,,825.5809697000004,826.0862705999971,0.5112274099956267,1.0120344099996146,826.0696072999999,826.1863147999975,826.0696072999999,826.1863147999975,826.1696214999974,None,m,1,0.7455531000014162,826.1696214999974,None,,,,,,,ph,2022_Mar_22_1130,training+cueing,2021.1.4,59.71136719468498,
Friend.png,You,Friend,m,1.2,14,24,94,,,,,1,0,1,0,,,,,6,9,81,3,,,,,,,,,,,,,,,,,,,,,1.576,1.528,827.0435928000006,None,,,,,,,,,,,,,,,,,,,,827.5818310999966,828.0877093000017,0.5122265099998913,1.0125194099964574,828.0710412999979,828.1711047999997,828.0710412999979,828.1711047999997,828.1711047999997,None,m,1,0.6960746999975527,828.1711047999997,None,,,,,,,ph,2022_Mar_22_1130,training+cueing,2021.1.4,59.71136719468498,
Friend.png,Friend,Friend,c,2,12,22,92,,,,,1,0,1,0,,,,,6,10,82,10,,,,,,,,,,,,,,,,,,,,,1.431,1.237,828.9942252999972,None,,,,,,,,,,,,,,,,,,,,829.5364445000014,830.0391505000007,0.5040422099991702,1.0048112099975697,830.0225228999989,830.1392129000014,830.0225228999989,830.1392129000014,830.1224901999958,None,m,0,1.080718600002001,830.1224901999958,None,,,,,,,ph,2022_Mar_22_1130,training+cueing,2021.1.4,59.71136719468498,
Friend.png,Friend,Friend,c,2,12,22,92,,,,,1,0,1,0,,,,,6,11,83,4,,,,,,,,,,,,,,,,,,,,,1.619,2.354,831.3291166999988,None,,,,,,,,,,,,,,,,,,,,831.8797229999982,832.3908354000014,0.5058443099915166,1.006091209994338,832.3741886999996,832.4908806000021,832.3741886999996,832.4908806000021,832.4742764999974,None,m,0,0.6328754999994999,832.4742764999974,None,,,,,,,ph,2022_Mar_22_1130,training+cueing,2021.1.4,59.71136719468498,
Self.png,Stranger,Self ,m,3.1,18,28,98,,,,,1,0,1,0,,,,,7,0,84,2,,,,,,,,,,,,,,,,,,,,,1.756,2.471,833.2306309999985,None,,,,,,,,,,,,,,,,,,,,833.7707077000014,834.2756975000011,0.5076070099967183,1.0078827099932823,834.2590399999972,834.3757498999985,834.2590399999972,834.3757498999985,834.3591632000025,None,m,1,0.780150999999023,834.3591632000025,None,,,,,,,ph,2022_Mar_22_1130,training+cueing,2021.1.4,59.71136719468498,
Stranger.png,Stranger,Stranger,c,3,13,23,93,,,,,1,0,1,0,,,,,7,1,85,11,,,,,,,,,,,,,,,,,,,,,1.554,1.83,835.2674184999996,None,,,,,,,,,,,,,,,,,,,,835.802881399999,836.3103426000016,0.5146356100012781,1.0149358099952224,836.2936622999987,836.4103971000004,836.2936622999987,836.4103971000004,836.393667700002,None,m,0,0.7295192000019597,836.393667700002,None,,,,,,,ph,2022_Mar_22_1130,training+cueing,2021.1.4,59.71136719468498,
Self.png,You,Self ,c,1,11,21,91,,,,,1,0,1,0,,,,,7,2,86,9,,,,,,,,,,,,,,,,,,,,,1.468,1.703,837.2500951999973,None,,,,,,,,,,,,,,,,,,,,837.7903882999963,838.2951343999957,0.5083289099929971,1.0086224099941319,838.2784266000017,838.3784646999993,838.2784266000017,838.3784646999993,838.3784646999993,None,c,1,0.5847648999988451,838.3784646999993,None,,,,,,,ph,2022_Mar_22_1130,training+cueing,2021.1.4,59.71136719468498,
