Image,Name,Face,CorrAns,Match,Face_onset,CResponse_onset,IResponse_onset,Match.thisRepN,Match.thisTrialN,Match.thisN,Match.thisIndex,Blocks.thisRepN,Blocks.thisTrialN,Blocks.thisN,Blocks.thisIndex,trials.thisRepN,trials.thisTrialN,trials.thisN,trials.thisIndex,trials_2.thisRepN,trials_2.thisTrialN,trials_2.thisN,trials_2.thisIndex,text.started,text.stopped,p1.started,p1.stopped,MatchInstructions.started,MatchInstructions.stopped,Name1.started,Name1.stopped,Face_Relevance.started,Face_Relevance.stopped,MismatchInstructions.started,MismatchInstructions.stopped,Rest_trainingInstruct.started,Rest_trainingInstruct.stopped,next8.keys,next8.rt,next8.started,next8.stopped,Ready.started,Ready.stopped,delay_one_picked,delay_two_picked,blank0.started,blank0.stopped,FixationCross1.started,FixationCross1.stopped,Name3.started,Name3.stopped,Face_Relevance3.started,Face_Relevance3.stopped,responseTime.started,responseTime.stopped,resp.keys,resp.corr,resp.rt,resp.started,resp.stopped,Accuracy.started,Accuracy.stopped,questions.started,questions.stopped,p2.started,p2.stopped,FixationCross3.started,FixationCross3.stopped,port_Face_onset.started,port_Face_onset.stopped,Name4.started,Name4.stopped,Face_Relevance4.started,Face_Relevance4.stopped,responseTime2.started,responseTime2.stopped,Response.keys,Response.corr,Response.rt,Response.started,Response.stopped,p3.started,p3.stopped,Finish.started,Finish.stopped,gender,age,participant,date,expName,psychopyVersion,frameRate,
Self.png,You,,,,,,,0,0,0,0,,,,,,,,,,,,,20.169959399994696,None,0.0027744599792640656,0.5381048599665519,24.58242120000068,None,42.09376269998029,None,42.09376269998029,None,,,,,,,,,,,,,,,,,,,,,,,,,,,,,,,,,,,,,,,,,,,,,,,,,,,,,m,,pi,2022_Mar_24_1220,training+cueing,2021.1.4,59.95074446667667,
Stranger.png,Stranger,,,,,,,0,1,1,2,,,,,,,,,,,,,,,,,,,61.901653499982785,None,61.901653499982785,None,,,,,,,,,,,,,,,,,,,,,,,,,,,,,,,,,,,,,,,,,,,,,,,,,,,,,m,,pi,2022_Mar_24_1220,training+cueing,2021.1.4,59.95074446667667,
Friend.png,Friend,,,,,,,0,2,2,1,,,,,,,,,,,,,,,,,,,81.87827230000403,None,81.87827230000403,None,,,,,,,,,,,,,,,,,,,,,,,,,,,,,,,,,,,,,,,,,,,,,,,,,,,,,m,,pi,2022_Mar_24_1220,training+cueing,2021.1.4,59.95074446667667,
Self.png,You,Self ,c,1,11,21,91,,,,,0,0,0,0,0,0,0,9,,,,,,,,,,,,,,,101.84192730000359,None,126.60993619999499,None,space,7.36642929998925,2.0076043399749324,None,135.98359369998798,None,1.632,1.425,138.99952429998666,None,139.62231330000213,140.13642830000026,140.11974819999887,140.21979999999166,140.11974819999887,140.21979999999166,140.21979999999166,None,c,1,1.4186175999930128,140.21979999999166,None,141.653281100007,None,,,,,,,,,,,,,,,,,,,,,,,,m,,pi,2022_Mar_24_1220,training+cueing,2021.1.4,59.95074446667667,
Self.png,Stranger,Self ,m,3.1,18,28,98,,,,,0,0,0,0,0,1,1,2,,,,,,,,,,,,,,,,,,,,,,,,,1.626,1.64,142.05449359997874,None,142.5863653999986,143.0885857999965,143.07191339999554,143.1886251999822,143.07191339999554,143.1886251999822,143.17192480000085,None,None,0,,143.17192480000085,None,144.80454250000184,None,,,,,,,,,,,,,,,,,,,,,,,,m,,pi,2022_Mar_24_1220,training+cueing,2021.1.4,59.95074446667667,
Stranger.png,Friend,Stranger,m,2.3,17,27,97,,,,,0,0,0,0,0,2,2,7,,,,,,,,,,,,,,,,,,,,,,,,,1.594,2.027,145.20679909997853,None,145.73951319998014,146.24081940000178,146.22416939999675,146.34092789998977,146.22416939999675,146.34092789998977,146.32440069998847,None,m,1,1.3619174000050407,146.32440069998847,None,147.70742769999197,None,,,,,,,,,,,,,,,,,,,,,,,,m,,pi,2022_Mar_24_1220,training+cueing,2021.1.4,59.95074446667667,
Friend.png,Friend,Friend,c,2,12,22,92,,,,,0,0,0,0,0,3,3,10,,,,,,,,,,,,,,,,,,,,,,,,,1.754,2.03,148.10900609998498,None,148.6410348000063,149.14293339999858,149.126302699995,149.2430347999907,149.126302699995,149.2430347999907,149.22631709999405,None,c,1,0.8760977999772877,149.22631709999405,None,150.12698199998704,None,,,,,,,,,,,,,,,,,,,,,,,,m,,pi,2022_Mar_24_1220,training+cueing,2021.1.4,59.95074446667667,
Friend.png,You,Friend,m,1.2,14,24,94,,,,,0,0,0,0,0,4,4,3,,,,,,,,,,,,,,,,,,,,,,,,,1.544,1.806,150.52727659998345,None,151.0731861999957,151.5780465999851,151.56136849999893,151.66142930000206,151.56136849999893,151.66142930000206,151.66142930000206,None,c,0,1.0809065999928862,151.66142930000206,None,152.76970469998196,None,,,,,,,,,,,,,,,,,,,,,,,,m,,pi,2022_Mar_24_1220,training+cueing,2021.1.4,59.95074446667667,
Self.png,You,Self ,c,1,11,21,91,,,,,0,0,0,0,0,5,5,0,,,,,,,,,,,,,,,,,,,,,,,,,1.799,1.773,153.17934989999048,None,153.71079680000548,154.21326600000612,154.19660319999093,154.29665979999118,154.19660319999093,154.29665979999118,154.29665979999118,None,m,0,1.0857033999927808,154.29665979999118,None,155.39749999999185,None,,,,,,,,,,,,,,,,,,,,,,,,m,,pi,2022_Mar_24_1220,training+cueing,2021.1.4,59.95074446667667,
Stranger.png,Stranger,Stranger,c,3,13,23,93,,,,,0,0,0,0,0,6,6,11,,,,,,,,,,,,,,,,,,,,,,,,,1.412,1.555,155.79777400000603,None,156.3266781999846,156.83185240000603,156.8152179000026,156.93189199999324,156.8152179000026,156.93189199999324,156.91520069999387,None,None,0,,156.91520069999387,None,158.3497635999811,None,,,,,,,,,,,,,,,,,,,,,,,,m,,pi,2022_Mar_24_1220,training+cueing,2021.1.4,59.95074446667667,
Friend.png,Friend,Friend,c,2,12,22,92,,,,,0,0,0,0,0,7,7,4,,,,,,,,,,,,,,,,,,,,,,,,,1.535,1.827,158.7499976999825,None,159.27780549999443,159.7839643000043,159.76730819998193,159.88401099998737,159.76730819998193,159.88401099998737,159.86734319999232,None,c,1,0.506927500013262,159.86734319999232,None,160.40031159998034,None,,,,,,,,,,,,,,,,,,,,,,,,m,,pi,2022_Mar_24_1220,training+cueing,2021.1.4,59.95074446667667,
Friend.png,Stranger,Friend,m,3.2,19,29,99,,,,,0,0,0,0,0,8,8,5,,,,,,,,,,,,,,,,,,,,,,,,,1.552,1.473,160.8013907999848,None,161.33420939999633,161.83545579999918,161.8187774999824,161.9355095999781,161.8187774999824,161.9355095999781,161.9355095999781,None,m,1,0.9509814000048209,161.9355095999781,None,162.90295339998556,None,,,,,,,,,,,,,,,,,,,,,,,,m,,pi,2022_Mar_24_1220,training+cueing,2021.1.4,59.95074446667667,
Stranger.png,Stranger,Stranger,c,3,13,23,93,,,,,0,0,0,0,0,9,9,8,,,,,,,,,,,,,,,,,,,,,,,,,1.58,1.601,163.30316999999923,None,163.83105519998935,164.3372432999895,164.32059620000655,164.4372999999905,164.32059620000655,164.4372999999905,164.42062699998496,None,m,0,0.865675499982899,164.42062699998496,None,165.30513289998635,None,,,,,,,,,,,,,,,,,,,,,,,,m,,pi,2022_Mar_24_1220,training+cueing,2021.1.4,59.95074446667667,
Self.png,Friend,Self ,m,2.1,16,26,96,,,,,0,0,0,0,0,10,10,1,,,,,,,,,,,,,,,,,,,,,,,,,1.554,1.206,165.70490549999522,None,166.23771240000497,166.73917779998737,166.7223340999917,166.8390681000019,166.7223340999917,166.8390681000019,166.8223320999823,None,None,0,,166.8223320999823,None,168.3901967999991,None,,,,,,,,,,,,,,,,,,,,,,,,m,,pi,2022_Mar_24_1220,training+cueing,2021.1.4,59.95074446667667,
Stranger.png,You,Stranger,m,1.3,15,25,95,,,,,0,0,0,0,0,11,11,6,,,,,,,,,,,,,,,,,,,,,,,,,1.612,1.713,168.79061709999223,None,169.3288474000001,169.8412387999997,169.82458709998173,169.924611800001,169.82458709998173,169.924611800001,169.924611800001,None,c,0,1.0258141999947838,169.924611800001,None,170.9754394000047,None,,,,,,,,,,,,,,,,,,,,,,,,m,,pi,2022_Mar_24_1220,training+cueing,2021.1.4,59.95074446667667,
Self.png,Friend,Self ,m,2.1,16,26,96,,,,,0,0,0,0,,,,,0,0,0,1,,,,,,,,,,,,,,,,,,,193.02462620000006,None,1.669,2.026,196.5433703000017,None,,,,,,,,,,,,,,,,171.37568679999094,None,0.014738139987457544,None,197.16230949998135,197.661331899988,0.5112459599913564,1.0119020599813666,197.661331899988,197.76197059999686,197.661331899988,197.76197059999686,197.76197059999686,None,c,0,1.22056389998761,197.76197059999686,None,,,,,m,,pi,2022_Mar_24_1220,training+cueing,2021.1.4,59.95074446667667,
Self.png,You,Self ,c,1,11,21,91,,,,,0,0,0,0,,,,,0,1,1,9,,,,,,,,,,,,,,,,,,,,,1.486,2.108,199.12169299999368,None,,,,,,,,,,,,,,,,,,,,199.66151269999682,200.1631641999993,0.5031703199783806,1.0035029199789278,200.14648699999088,200.24647779998486,200.14648699999088,200.24647779998486,200.24647779998486,None,c,1,0.8318115000147372,200.24647779998486,None,,,,,m,,pi,2022_Mar_24_1220,training+cueing,2021.1.4,59.95074446667667,
Friend.png,You,Friend,m,1.2,14,24,94,,,,,0,0,0,0,,,,,0,2,2,3,,,,,,,,,,,,,,,,,,,,,1.643,1.518,201.2028610999987,None,,,,,,,,,,,,,,,,,,,,201.74165670000366,202.24803749998682,0.5125614199787378,1.0296866199932992,202.23130280000623,202.3313691999938,202.23130280000623,202.3313691999938,202.3313691999938,None,None,0,,202.3313691999938,None,,,,,m,,pi,2022_Mar_24_1220,training+cueing,2021.1.4,59.95074446667667,
Self.png,You,Self ,c,1,11,21,91,,,,,0,0,0,0,,,,,0,3,3,0,,,,,,,,,,,,,,,,,,,,,1.664,2.114,204.08624499998405,None,,,,,,,,,,,,,,,,,,,,204.62590929999715,205.1334023999807,0.5119406200246885,1.0122430200281087,205.11673049998353,205.2168485999864,205.11673049998353,205.2168485999864,205.2168485999864,None,c,1,1.2695658000011463,205.2168485999864,None,,,,,m,,pi,2022_Mar_24_1220,training+cueing,2021.1.4,59.95074446667667,
Self.png,Stranger,Self ,m,3.1,18,28,98,,,,,0,0,0,0,,,,,0,4,4,2,,,,,,,,,,,,,,,,,,,,,1.644,1.431,206.6243329999852,None,,,,,,,,,,,,,,,,,,,,207.16438869998092,207.6685707999859,0.5088104200258385,1.0091174200060777,207.6518783000065,207.7686290999991,207.6518783000065,207.7686290999991,207.75189580000006,None,m,1,1.0226911999925505,207.75189580000006,None,,,,,m,,pi,2022_Mar_24_1220,training+cueing,2021.1.4,59.95074446667667,
Stranger.png,You,Stranger,m,1.3,15,25,95,,,,,0,0,0,0,,,,,0,5,5,6,,,,,,,,,,,,,,,,,,,,,1.547,1.917,208.90911139998934,None,,,,,,,,,,,,,,,,,,,,209.4468799000024,209.95354170000064,0.5125504200113937,1.012874220003141,209.93686990000424,210.036926700006,209.93686990000424,210.036926700006,210.036926700006,None,None,0,,210.036926700006,None,,,,,m,,pi,2022_Mar_24_1220,training+cueing,2021.1.4,59.95074446667667,
Friend.png,Friend,Friend,c,2,12,22,92,,,,,0,0,0,0,,,,,0,6,6,4,,,,,,,,,,,,,,,,,,,,,1.692,1.943,211.69207499999902,None,,,,,,,,,,,,,,,,,,,,212.2318800999783,212.7391233999806,0.5116420199919958,1.0119362199911848,212.7222370999807,212.8389726000023,212.7222370999807,212.8389726000023,212.822256799991,None,c,1,0.880107599979965,212.822256799991,None,,,,,m,,pi,2022_Mar_24_1220,training+cueing,2021.1.4,59.95074446667667,
Stranger.png,Stranger,Stranger,c,3,13,23,93,,,,,0,0,0,0,,,,,0,7,7,11,,,,,,,,,,,,,,,,,,,,,1.793,2.149,213.82889219999197,None,,,,,,,,,,,,,,,,,,,,214.37181389998295,214.8737814000051,0.5044771200045943,1.0049939200107474,214.85713839999516,214.9738310999819,214.85713839999516,214.9738310999819,214.95713090000208,None,None,0,,214.95713090000208,None,,,,,m,,pi,2022_Mar_24_1220,training+cueing,2021.1.4,59.95074446667667,
Friend.png,Stranger,Friend,m,3.2,19,29,99,,,,,0,0,0,0,,,,,0,8,8,5,,,,,,,,,,,,,,,,,,,,,1.543,1.751,216.86284109999542,None,,,,,,,,,,,,,,,,,,,,217.4032316999801,217.90935329999775,0.5104530199896544,1.0106988199986517,217.89265819999855,218.0093685000029,217.89265819999855,218.0093685000029,217.99265539998305,None,m,1,1.405765400006203,217.99265539998305,None,,,,,m,,pi,2022_Mar_24_1220,training+cueing,2021.1.4,59.95074446667667,
Stranger.png,Stranger,Stranger,c,3,13,23,93,,,,,0,0,0,0,,,,,0,9,9,8,,,,,,,,,,,,,,,,,,,,,1.799,1.224,219.53367750000325,None,,,,,,,,,,,,,,,,,,,,220.07231960000354,220.57794160000049,0.510990619979566,1.011899920005817,220.5612453999929,220.6779455000069,220.5612453999929,220.6779455000069,220.66124580000178,None,c,1,1.4891433000157122,220.66124580000178,None,,,,,m,,pi,2022_Mar_24_1220,training+cueing,2021.1.4,59.95074446667667,
Stranger.png,Friend,Stranger,m,2.3,17,27,97,,,,,0,0,0,0,,,,,0,10,10,7,,,,,,,,,,,,,,,,,,,,,1.588,1.426,222.28519229998346,None,,,,,,,,,,,,,,,,,,,,222.82756109998445,223.32992899999954,0.5059904200024903,1.006266919983318,223.31324039999163,223.42991529998835,223.31324039999163,223.42991529998835,223.41322389998822,None,None,0,,223.41322389998822,None,,,,,m,,pi,2022_Mar_24_1220,training+cueing,2021.1.4,59.95074446667667,
Friend.png,Friend,Friend,c,2,12,22,92,,,,,0,0,0,0,,,,,0,11,11,10,,,,,,,,,,,,,,,,,,,,,1.541,2.456,225.118650599994,None,,,,,,,,,,,,,,,,,,,,225.65604879998136,226.16523899999447,0.5001674199884292,1.0004541199887171,226.13191309999092,226.2319607999816,226.13191309999092,226.2319607999816,226.2319607999816,None,None,0,,226.2319607999816,None,,,,,m,,pi,2022_Mar_24_1220,training+cueing,2021.1.4,59.95074446667667,
Self.png,You,Self ,c,1,11,21,91,,,,,0,0,0,0,,,,,1,0,12,0,,,,,,,,,,,,,,,,,,,,,1.711,2.113,227.88730639999267,None,,,,,,,,,,,,,,,,,,,,228.4305244999996,228.93396209998173,0.5063280200120062,1.0065687200112734,228.91729019998456,229.0173106000002,228.91729019998456,229.0173106000002,229.0173106000002,None,c,1,1.2770625999837648,229.0173106000002,None,,,,,m,,pi,2022_Mar_24_1220,training+cueing,2021.1.4,59.95074446667667,
Friend.png,Stranger,Friend,m,3.2,19,29,99,,,,,0,0,0,0,,,,,1,1,13,5,,,,,,,,,,,,,,,,,,,,,1.544,1.798,230.424494100007,None,,,,,,,,,,,,,,,,,,,,230.96645259999787,231.46911370000453,0.5052451200026553,1.0056555199844297,231.45244009999442,231.57008000000496,231.45244009999442,231.57008000000496,231.55247140000574,None,None,0,,231.55247140000574,None,,,,,m,,pi,2022_Mar_24_1220,training+cueing,2021.1.4,59.95074446667667,
Self.png,You,Self ,c,1,11,21,91,,,,,0,0,0,0,,,,,1,2,14,9,,,,,,,,,,,,,,,,,,,,,1.747,2.107,233.2078296999971,None,,,,,,,,,,,,,,,,,,,,233.74837769998703,234.25445789998048,0.5096444200025871,1.0101374200021382,234.23777350000455,234.33787829999346,234.23777350000455,234.33787829999346,234.33787829999346,None,c,1,1.3164289999986067,234.33787829999346,None,,,,,m,,pi,2022_Mar_24_1220,training+cueing,2021.1.4,59.95074446667667,
Friend.png,You,Friend,m,1.2,14,24,94,,,,,0,0,0,0,,,,,1,3,15,3,,,,,,,,,,,,,,,,,,,,,1.678,2.453,235.77821210000548,None,,,,,,,,,,,,,,,,,,,,236.3149459999986,236.82300449998002,0.515142320015002,1.0154456200252753,236.8063148999936,236.90634669997962,236.8063148999936,236.90634669997962,236.90634669997962,None,m,1,1.196072799997637,236.90634669997962,None,,,,,m,,pi,2022_Mar_24_1220,training+cueing,2021.1.4,59.95074446667667,
Stranger.png,Stranger,Stranger,c,3,13,23,93,,,,,0,0,0,0,,,,,1,4,16,8,,,,,,,,,,,,,,,,,,,,,1.676,1.418,238.23054099999717,None,,,,,,,,,,,,,,,,,,,,238.76856430000043,239.2747535999806,0.5105182199913543,1.0109744200017303,239.25810529998853,239.37479599998915,239.25810529998853,239.37479599998915,239.35810419998597,None,m,0,1.4321825999941211,239.35810419998597,None,,,,,m,,pi,2022_Mar_24_1220,training+cueing,2021.1.4,59.95074446667667,
Stranger.png,Friend,Stranger,m,2.3,17,27,97,,,,,0,0,0,0,,,,,1,5,17,7,,,,,,,,,,,,,,,,,,,,,1.727,2.143,240.91557849998935,None,,,,,,,,,,,,,,,,,,,,241.4533162000007,241.9600259999861,0.5120535199821461,1.0123798199929297,241.9433013999951,242.06008520000614,241.9433013999951,242.06008520000614,242.0433151999896,None,None,0,,242.0433151999896,None,,,,,m,,pi,2022_Mar_24_1220,training+cueing,2021.1.4,59.95074446667667,
Self.png,Friend,Self ,m,2.1,16,26,96,,,,,0,0,0,0,,,,,1,6,18,1,,,,,,,,,,,,,,,,,,,,,1.61,1.846,243.8825599999982,None,,,,,,,,,,,,,,,,,,,,244.42018220000318,244.92876919999253,0.4998562199762091,1.0004491199797485,244.89548629999626,244.995526099985,244.89548629999626,244.995526099985,244.995526099985,None,m,1,1.4268655000196304,244.995526099985,None,,,,,m,,pi,2022_Mar_24_1220,training+cueing,2021.1.4,59.95074446667667,
Friend.png,Friend,Friend,c,2,12,22,92,,,,,0,0,0,0,,,,,1,7,19,10,,,,,,,,,,,,,,,,,,,,,1.527,2.34,246.5527618000051,None,,,,,,,,,,,,,,,,,,,,247.08784809999634,247.597383299988,0.4995533199980855,0.9998687199840788,247.56407500000205,247.66413530000136,247.56407500000205,247.66413530000136,247.66413530000136,None,None,0,,247.66413530000136,None,,,,,m,,pi,2022_Mar_24_1220,training+cueing,2021.1.4,59.95074446667667,
Friend.png,Friend,Friend,c,2,12,22,92,,,,,0,0,0,0,,,,,1,8,20,4,,,,,,,,,,,,,,,,,,,,,1.678,2.408,249.30236119998153,None,,,,,,,,,,,,,,,,,,,,249.8408356999862,250.34939779998967,0.5004856800078414,1.000804480019724,250.33274879999226,250.44947649998358,250.33274879999226,250.44947649998358,250.44947649998358,None,c,1,0.8369542000000365,250.44947649998358,None,,,,,m,,pi,2022_Mar_24_1220,training+cueing,2021.1.4,59.95074446667667,
Self.png,Stranger,Self ,m,3.1,18,28,98,,,,,0,0,0,0,,,,,1,9,21,2,,,,,,,,,,,,,,,,,,,,,1.769,1.334,251.42314589998568,None,,,,,,,,,,,,,,,,,,,,251.9658501999802,252.46764639997855,0.5057169200154021,1.0059997200150974,252.45098100000178,252.56766499998048,252.45098100000178,252.56766499998048,252.55096579997917,None,m,1,1.2793978000117932,252.55096579997917,None,,,,,m,,pi,2022_Mar_24_1220,training+cueing,2021.1.4,59.95074446667667,
Stranger.png,Stranger,Stranger,c,3,13,23,93,,,,,0,0,0,0,,,,,1,10,22,11,,,,,,,,,,,,,,,,,,,,,1.686,2.206,253.95794809999643,None,,,,,,,,,,,,,,,,,,,,254.49514769998495,255.00281499998528,0.512899519992061,1.013076720002573,254.98615559999598,255.1028692999971,254.98615559999598,255.1028692999971,255.08613029998378,None,c,1,1.4002422000048682,255.08613029998378,None,,,,,m,,pi,2022_Mar_24_1220,training+cueing,2021.1.4,59.95074446667667,
Stranger.png,You,Stranger,m,1.3,15,25,95,,,,,0,0,0,0,,,,,1,11,23,6,,,,,,,,,,,,,,,,,,,,,1.74,1.627,256.610108199995,None,,,,,,,,,,,,,,,,,,,,257.1489195000031,257.65473239999847,0.5103413199831266,1.0106467199802864,257.63801329999114,257.7380631999986,257.63801329999114,257.7380631999986,257.7380631999986,None,m,1,1.3242849000089336,257.7380631999986,None,,,,,m,,pi,2022_Mar_24_1220,training+cueing,2021.1.4,59.95074446667667,
Stranger.png,You,Stranger,m,1.3,15,25,95,,,,,0,0,0,0,,,,,2,0,24,6,,,,,,,,,,,,,,,,,,,,,1.77,1.514,259.19524800000363,None,,,,,,,,,,,,,,,,,,,,259.7311112000025,260.23985439998796,0.4991258200025186,0.9994813200028148,260.2065668999858,260.30659209997975,260.2065668999858,260.30659209997975,260.30659209997975,None,m,1,0.9957511999818962,260.30659209997975,None,,,,,m,,pi,2022_Mar_24_1220,training+cueing,2021.1.4,59.95074446667667,
Self.png,You,Self ,c,1,11,21,91,,,,,0,0,0,0,,,,,2,1,25,0,,,,,,,,,,,,,,,,,,,,,1.706,2.311,261.4303221000009,None,,,,,,,,,,,,,,,,,,,,261.96614709999994,262.47487000000547,0.5010037799947895,1.0012644800008275,262.45818299998064,262.5582221999939,262.45818299998064,262.5582221999939,262.5582221999939,None,None,0,,262.5582221999939,None,,,,,m,,pi,2022_Mar_24_1220,training+cueing,2021.1.4,59.95074446667667,
Stranger.png,Stranger,Stranger,c,3,13,23,93,,,,,0,0,0,0,,,,,2,2,26,8,,,,,,,,,,,,,,,,,,,,,1.679,1.784,264.38022719998844,None,,,,,,,,,,,,,,,,,,,,264.9218852999911,265.4271257999935,0.5102858199970797,1.0103665200003888,265.410487199988,265.5271970999893,265.410487199988,265.5271970999893,265.5105049999838,None,None,0,,265.5105049999838,None,,,,,m,,pi,2022_Mar_24_1220,training+cueing,2021.1.4,59.95074446667667,
Stranger.png,Friend,Stranger,m,2.3,17,27,97,,,,,0,0,0,0,,,,,2,3,27,7,,,,,,,,,,,,,,,,,,,,,1.791,1.449,267.29921480000485,None,,,,,,,,,,,,,,,,,,,,267.83902709998074,268.3457530000014,0.5114818200236186,1.0118137200188357,268.32908289998886,268.4457877999812,268.32908289998886,268.4457877999812,268.4291244999913,None,m,1,1.2732716999889817,268.4291244999913,None,,,,,m,,pi,2022_Mar_24_1220,training+cueing,2021.1.4,59.95074446667667,
Self.png,Friend,Self ,m,2.1,16,26,96,,,,,0,0,0,0,,,,,2,4,28,1,,,,,,,,,,,,,,,,,,,,,1.637,1.958,269.8370862999873,None,,,,,,,,,,,,,,,,,,,,270.3721037999785,270.88118679999025,0.5003160199848935,1.000611019990174,270.847589699988,270.94766419997904,270.847589699988,270.94766419997904,270.94766419997904,None,m,1,0.9146367999783251,270.94766419997904,None,,,,,m,,pi,2022_Mar_24_1220,training+cueing,2021.1.4,59.95074446667667,
Self.png,You,Self ,c,1,11,21,91,,,,,0,0,0,0,,,,,2,5,29,9,,,,,,,,,,,,,,,,,,,,,1.463,1.43,271.9877089999791,None,,,,,,,,,,,,,,,,,,,,272.5260810999898,273.0324938999838,0.5122614199935924,1.0125027199974284,273.0158014000044,273.11584919999586,273.0158014000044,273.11584919999586,273.11584919999586,None,m,0,0.9865690000005998,273.11584919999586,None,,,,,m,,pi,2022_Mar_24_1220,training+cueing,2021.1.4,59.95074446667667,
Stranger.png,Stranger,Stranger,c,3,13,23,93,,,,,0,0,0,0,,,,,2,6,30,11,,,,,,,,,,,,,,,,,,,,,1.559,2.276,274.2395778000064,None,,,,,,,,,,,,,,,,,,,,274.77925399999367,275.28423299998394,0.5080250199825969,1.0081325199862476,275.2674517999985,275.3841782999807,275.2674517999985,275.3841782999807,275.36744070000714,None,c,1,0.9272884000092745,275.36744070000714,None,,,,,m,,pi,2022_Mar_24_1220,training+cueing,2021.1.4,59.95074446667667,
Friend.png,Stranger,Friend,m,3.2,19,29,99,,,,,0,0,0,0,,,,,2,7,31,5,,,,,,,,,,,,,,,,,,,,,1.691,1.628,276.42872830000124,None,,,,,,,,,,,,,,,,,,,,276.96144990000175,277.4690308999852,0.5145551200257614,1.0148680200218223,277.4523518999922,277.56907619998674,277.4523518999922,277.56907619998674,277.5523860999965,None,m,1,1.0299641000165138,277.5523860999965,None,,,,,m,,pi,2022_Mar_24_1220,training+cueing,2021.1.4,59.95074446667667,
Friend.png,Friend,Friend,c,2,12,22,92,,,,,0,0,0,0,,,,,2,8,32,4,,,,,,,,,,,,,,,,,,,,,1.595,1.989,278.7093801999872,None,,,,,,,,,,,,,,,,,,,,279.2468125000014,279.75402719998965,0.511820119980257,1.0120559200004209,279.7373624999891,279.85408879999886,279.7373624999891,279.85408879999886,279.83738469998934,None,c,1,1.2569824999955017,279.83738469998934,None,,,,,m,,pi,2022_Mar_24_1220,training+cueing,2021.1.4,59.95074446667667,
Friend.png,Friend,Friend,c,2,12,22,92,,,,,0,0,0,0,,,,,2,9,33,10,,,,,,,,,,,,,,,,,,,,,1.4,1.479,281.22817940000095,None,,,,,,,,,,,,,,,,,,,,281.76452419999987,282.2724843999895,0.5003399199922569,1.0008723200007807,282.23917580000125,282.33923819998745,282.23917580000125,282.33923819998745,282.33923819998745,None,c,1,0.6911548999778461,282.33923819998745,None,,,,,m,,pi,2022_Mar_24_1220,training+cueing,2021.1.4,59.95074446667667,
Self.png,Stranger,Self ,m,3.1,18,28,98,,,,,0,0,0,0,,,,,2,10,34,2,,,,,,,,,,,,,,,,,,,,,1.522,2.036,283.1626680000045,None,,,,,,,,,,,,,,,,,,,,283.7021555999818,284.2072816999862,0.5101540200121235,1.0104280200321227,284.1905559999868,284.3072853999911,284.1905559999868,284.3072853999911,284.2905985999969,None,m,1,1.2840749000024516,284.2905985999969,None,,,,,m,,pi,2022_Mar_24_1220,training+cueing,2021.1.4,59.95074446667667,
Friend.png,You,Friend,m,1.2,14,24,94,,,,,0,0,0,0,,,,,2,11,35,3,,,,,,,,,,,,,,,,,,,,,1.748,1.528,285.70162680000067,None,,,,,,,,,,,,,,,,,,,,286.23610129998997,286.7405373999791,0.5100028199958615,1.0103179200086743,286.7257108000049,286.82578469999135,286.7257108000049,286.82578469999135,286.82578469999135,None,m,1,1.2446728000068106,286.82578469999135,None,,,,,m,,pi,2022_Mar_24_1220,training+cueing,2021.1.4,59.95074446667667,
Stranger.png,Stranger,Stranger,c,3,13,23,93,,,,,0,0,0,0,,,,,3,0,36,11,,,,,,,,,,,,,,,,,,,,,1.796,2.436,288.1993345999799,None,,,,,,,,,,,,,,,,,,,,288.7379026999988,289.2442160999926,0.5116401200066321,1.011924819991691,289.2275238999864,289.34426290000556,289.2275238999864,289.34426290000556,289.32755049999105,None,m,0,1.2708216999890283,289.32755049999105,None,,,,,m,,pi,2022_Mar_24_1220,training+cueing,2021.1.4,59.95074446667667,
Friend.png,Friend,Friend,c,2,12,22,92,,,,,0,0,0,0,,,,,3,1,37,4,,,,,,,,,,,,,,,,,,,,,1.798,1.548,290.7356949999812,None,,,,,,,,,,,,,,,,,,,,291.27286349999486,291.779395199992,0.5122704200039152,1.0126611199812032,291.76271419998375,291.87942589999875,291.76271419998375,291.87942589999875,291.8627556999854,None,c,1,1.7436341999855358,291.8627556999854,None,,,,,m,,pi,2022_Mar_24_1220,training+cueing,2021.1.4,59.95074446667667,
Stranger.png,Stranger,Stranger,c,3,13,23,93,,,,,0,0,0,0,,,,,3,2,38,8,,,,,,,,,,,,,,,,,,,,,1.793,1.537,293.73699760000454,None,,,,,,,,,,,,,,,,,,,,294.2756528999889,294.7815531999804,0.5102847199887037,1.010526119993301,294.7649206999922,294.8815920999914,294.7649206999922,294.8815920999914,294.86490980000235,None,m,0,1.253516299999319,294.86490980000235,None,,,,,m,,pi,2022_Mar_24_1220,training+cueing,2021.1.4,59.95074446667667,
Friend.png,Stranger,Friend,m,3.2,19,29,99,,,,,0,0,0,0,,,,,3,3,39,5,,,,,,,,,,,,,,,,,,,,,1.684,1.568,296.2549887000059,None,,,,,,,,,,,,,,,,,,,,296.7914385999902,297.3000547999982,0.5003663800016511,1.0006251799932215,297.2833790000004,297.4000834999897,297.2833790000004,297.4000834999897,297.4000834999897,None,None,0,,297.4000834999897,None,,,,,m,,pi,2022_Mar_24_1220,training+cueing,2021.1.4,59.95074446667667,
Self.png,You,Self ,c,1,11,21,91,,,,,0,0,0,0,,,,,3,4,40,9,,,,,,,,,,,,,,,,,,,,,1.441,2.344,299.18911720000324,None,,,,,,,,,,,,,,,,,,,,299.7293623999867,300.24859469998046,0.528196220024256,1.0280173200299032,300.23612509999657,300.3355467999936,300.23612509999657,300.3355467999936,300.3189063000027,None,c,1,0.8235552000114694,300.3189063000027,None,,,,,m,,pi,2022_Mar_24_1220,training+cueing,2021.1.4,59.95074446667667,
Friend.png,Friend,Friend,c,2,12,22,92,,,,,0,0,0,0,,,,,3,5,41,10,,,,,,,,,,,,,,,,,,,,,1.598,2.165,301.278959999996,None,,,,,,,,,,,,,,,,,,,,301.81612800000585,302.32038459999603,0.5087976200156845,1.0090757200086955,302.3036683999817,302.4203611999983,302.3036683999817,302.4203611999983,302.4036785000062,None,c,1,1.5386183999944478,302.4036785000062,None,,,,,m,,pi,2022_Mar_24_1220,training+cueing,2021.1.4,59.95074446667667,
Self.png,You,Self ,c,1,11,21,91,,,,,0,0,0,0,,,,,3,6,42,0,,,,,,,,,,,,,,,,,,,,,1.566,1.363,304.07763610000256,None,,,,,,,,,,,,,,,,,,,,304.6151586000051,305.12236939999275,0.513114620000124,1.0134010199981276,305.1056924999866,305.2057288000069,305.1056924999866,305.2057288000069,305.2057288000069,None,c,1,0.9768445999943651,305.2057288000069,None,,,,,m,,pi,2022_Mar_24_1220,training+cueing,2021.1.4,59.95074446667667,
Self.png,Friend,Self ,m,2.1,16,26,96,,,,,0,0,0,0,,,,,3,7,43,1,,,,,,,,,,,,,,,,,,,,,1.718,2.417,306.3128085999924,None,,,,,,,,,,,,,,,,,,,,306.85234369998216,307.3573187000002,0.5070590200193692,1.0073037200199906,307.34068550000666,307.4573681000038,307.34068550000666,307.4573681000038,307.44068889998016,None,m,1,1.4936516000016127,307.44068889998016,None,,,,,m,,pi,2022_Mar_24_1220,training+cueing,2021.1.4,59.95074446667667,
Stranger.png,You,Stranger,m,1.3,15,25,95,,,,,0,0,0,0,,,,,3,8,44,6,,,,,,,,,,,,,,,,,,,,,1.51,2.017,309.0646621999913,None,,,,,,,,,,,,,,,,,,,,309.6047314000025,310.10936189998756,0.5096530200098641,1.0099323200120125,310.09265129998676,310.1926753000007,310.09265129998676,310.1926753000007,310.1926753000007,None,m,1,1.349649399984628,310.1926753000007,None,,,,,m,,pi,2022_Mar_24_1220,training+cueing,2021.1.4,59.95074446667667,
Friend.png,You,Friend,m,1.2,14,24,94,,,,,0,0,0,0,,,,,3,9,45,3,,,,,,,,,,,,,,,,,,,,,1.456,2.076,311.66601419998915,None,,,,,,,,,,,,,,,,,,,,312.2030093999929,312.71119889998226,0.4996137199923396,0.999901819974184,312.67783050000435,312.77792709998903,312.67783050000435,312.77792709998903,312.77792709998903,None,None,0,,312.77792709998903,None,,,,,m,,pi,2022_Mar_24_1220,training+cueing,2021.1.4,59.95074446667667,
Self.png,Stranger,Self ,m,3.1,18,28,98,,,,,0,0,0,0,,,,,3,10,46,2,,,,,,,,,,,,,,,,,,,,,1.582,1.551,314.3497865999816,None,,,,,,,,,,,,,,,,,,,,314.8903380999982,315.39669949997915,0.5099860200134572,1.0102302200102713,315.3798345999967,315.49651840000297,315.3798345999967,315.49651840000297,315.4798213999893,None,c,0,1.070618799974909,315.4798213999893,None,,,,,m,,pi,2022_Mar_24_1220,training+cueing,2021.1.4,59.95074446667667,
Stranger.png,Friend,Stranger,m,2.3,17,27,97,,,,,0,0,0,0,,,,,3,11,47,7,,,,,,,,,,,,,,,,,,,,,1.647,1.467,316.68719379999675,None,,,,,,,,,,,,,,,,,,,,317.22538079999504,317.73148570000194,0.5119042200094555,1.0121752200066112,317.7148213000037,317.83153900000616,317.7148213000037,317.83153900000616,317.81481499999063,None,None,0,,317.81481499999063,None,,,,,m,,pi,2022_Mar_24_1220,training+cueing,2021.1.4,59.95074446667667,
Friend.png,Stranger,Friend,m,3.2,19,29,99,,,,,0,0,0,0,,,,,4,0,48,5,,,,,,,,,,,,,,,,,,,,,1.714,1.544,319.5702858000004,None,,,,,,,,,,,,,,,,,,,,320.11020439999993,320.6168916999886,0.5101797199749853,1.010210519976681,320.6004335999896,320.716969400004,320.6004335999896,320.716969400004,320.7002763999917,None,m,1,0.6020717999781482,320.7002763999917,None,,,,,m,,pi,2022_Mar_24_1220,training+cueing,2021.1.4,59.95074446667667,
Self.png,You,Self ,c,1,11,21,91,,,,,0,0,0,0,,,,,4,1,49,0,,,,,,,,,,,,,,,,,,,,,1.574,2.051,321.44030190000194,None,,,,,,,,,,,,,,,,,,,,321.98234359998605,322.48494510000455,0.5060609199863393,1.0063173199887387,322.46827489999123,322.5683109999809,322.46827489999123,322.5683109999809,322.5683109999809,None,m,0,0.8140465000178665,322.5683109999809,None,,,,,m,,pi,2022_Mar_24_1220,training+cueing,2021.1.4,59.95074446667667,
Friend.png,Friend,Friend,c,2,12,22,92,,,,,0,0,0,0,,,,,4,2,50,10,,,,,,,,,,,,,,,,,,,,,1.426,1.201,323.508665500005,None,,,,,,,,,,,,,,,,,,,,324.0471761999943,324.55306669999845,0.5124970199831296,1.012784919992555,324.53641299999435,324.653124000004,324.53641299999435,324.653124000004,324.63642649998656,None,m,0,1.2420557999867015,324.63642649998656,None,,,,,m,,pi,2022_Mar_24_1220,training+cueing,2021.1.4,59.95074446667667,
Stranger.png,Friend,Stranger,m,2.3,17,27,97,,,,,0,0,0,0,,,,,4,3,51,7,,,,,,,,,,,,,,,,,,,,,1.764,1.804,326.0109245000058,None,,,,,,,,,,,,,,,,,,,,326.5454436999862,327.0548260999785,0.5002369200228713,1.0004599200037774,327.02158460000646,327.12158390000695,327.02158460000646,327.12158390000695,327.12158390000695,None,m,1,1.076784899982158,327.12158390000695,None,,,,,m,,pi,2022_Mar_24_1220,training+cueing,2021.1.4,59.95074446667667,
Stranger.png,Stranger,Stranger,c,3,13,23,93,,,,,0,0,0,0,,,,,4,4,52,8,,,,,,,,,,,,,,,,,,,,,1.445,1.523,328.3286551999918,None,,,,,,,,,,,,,,,,,,,,328.86761630000547,329.3732680999965,0.510469920001924,1.010763419995783,329.35655399999814,329.47325869998895,329.35655399999814,329.47325869998895,329.45657680000295,None,c,1,0.917823199997656,329.45657680000295,None,,,,,m,,pi,2022_Mar_24_1220,training+cueing,2021.1.4,59.95074446667667,
Self.png,Friend,Self ,m,2.1,16,26,96,,,,,0,0,0,0,,,,,4,5,53,1,,,,,,,,,,,,,,,,,,,,,1.486,1.205,330.49676469998667,None,,,,,,,,,,,,,,,,,,,,331.0356071999995,331.5414712000056,0.5118420199723914,1.0121616199903656,331.52478139998857,331.6415447999898,331.52478139998857,331.6415447999898,331.6248118999938,None,c,0,1.181495900003938,331.6248118999938,None,,,,,m,,pi,2022_Mar_24_1220,training+cueing,2021.1.4,59.95074446667667,
Self.png,You,Self ,c,1,11,21,91,,,,,0,0,0,0,,,,,4,6,54,9,,,,,,,,,,,,,,,,,,,,,1.747,2.192,332.93255850000423,None,,,,,,,,,,,,,,,,,,,,333.4695434999885,333.97657529998105,0.5125312199816108,1.0128357199719176,333.95988769998075,334.0599239000003,333.95988769998075,334.0599239000003,334.0599239000003,None,c,1,1.2264416000107303,334.0599239000003,None,,,,,m,,pi,2022_Mar_24_1220,training+cueing,2021.1.4,59.95074446667667,
Friend.png,Friend,Friend,c,2,12,22,92,,,,,0,0,0,0,,,,,4,7,55,4,,,,,,,,,,,,,,,,,,,,,1.599,1.816,335.4166223999928,None,,,,,,,,,,,,,,,,,,,,335.9552100999863,336.4616793000023,0.5120237200171687,1.0123548200062942,336.44499960000394,336.56172289999085,336.44499960000394,336.56172289999085,336.54503350000596,None,c,1,1.0453402000130154,336.54503350000596,None,,,,,m,,pi,2022_Mar_24_1220,training+cueing,2021.1.4,59.95074446667667,
Stranger.png,Stranger,Stranger,c,3,13,23,93,,,,,0,0,0,0,,,,,4,8,56,11,,,,,,,,,,,,,,,,,,,,,1.672,2.23,337.71857959998306,None,,,,,,,,,,,,,,,,,,,,338.2597228999948,338.76344409998273,0.5051714200235438,1.0053940200305078,338.74672929997905,338.86341639998136,338.74672929997905,338.86341639998136,338.8467235999997,None,c,1,1.0316047000233084,338.8467235999997,None,,,,,m,,pi,2022_Mar_24_1220,training+cueing,2021.1.4,59.95074446667667,
Stranger.png,You,Stranger,m,1.3,15,25,95,,,,,0,0,0,0,,,,,4,9,57,6,,,,,,,,,,,,,,,,,,,,,1.485,2.293,340.0038154999784,None,,,,,,,,,,,,,,,,,,,,340.54176560000633,341.0484843000013,0.5116641200147569,1.0119497200357728,341.03166439998313,341.13174019998405,341.03166439998313,341.13174019998405,341.13174019998405,None,None,0,,341.13174019998405,None,,,,,m,,pi,2022_Mar_24_1220,training+cueing,2021.1.4,59.95074446667667,
Self.png,Stranger,Self ,m,3.1,18,28,98,,,,,0,0,0,0,,,,,4,10,58,2,,,,,,,,,,,,,,,,,,,,,1.728,1.294,342.7199219999893,None,,,,,,,,,,,,,,,,,,,,343.2611498000042,343.766968299984,0.5106962200079579,1.0109814199968241,343.7503241999948,343.8669936999795,343.7503241999948,343.8669936999795,343.8503598999814,None,m,1,1.2440017999906559,343.8503598999814,None,,,,,m,,pi,2022_Mar_24_1220,training+cueing,2021.1.4,59.95074446667667,
Friend.png,You,Friend,m,1.2,14,24,94,,,,,0,0,0,0,,,,,4,11,59,3,,,,,,,,,,,,,,,,,,,,,1.714,2.472,345.22432179999305,None,,,,,,,,,,,,,,,,,,,,345.76122499999474,346.268806499982,0.5125714200257789,1.0129376200202387,346.25212479999755,346.35217060000286,346.25212479999755,346.35217060000286,346.35217060000286,None,None,0,,346.35217060000286,None,,,,,m,,pi,2022_Mar_24_1220,training+cueing,2021.1.4,59.95074446667667,
Friend.png,Friend,Friend,c,2,12,22,92,,,,,0,0,0,0,,,,,5,0,60,4,,,,,,,,,,,,,,,,,,,,,1.656,2.445,348.1746471999795,None,,,,,,,,,,,,,,,,,,,,348.7141130999953,349.22094030000153,0.5124742200132459,1.0127881200169213,349.20425579999574,349.32096179999644,349.20425579999574,349.32096179999644,349.3042940000014,None,m,0,1.3741574000159744,349.3042940000014,None,,,,,m,,pi,2022_Mar_24_1220,training+cueing,2021.1.4,59.95074446667667,
Self.png,Friend,Self ,m,2.1,16,26,96,,,,,0,0,0,0,,,,,5,1,61,1,,,,,,,,,,,,,,,,,,,,,1.547,1.725,350.81420100000105,None,,,,,,,,,,,,,,,,,,,,351.34896400000434,351.8561846999801,0.5132672200270463,1.013578520010924,351.83946590000414,351.95621919998666,351.83946590000414,351.95621919998666,351.93949520000024,None,None,0,,351.93949520000024,None,,,,,m,,pi,2022_Mar_24_1220,training+cueing,2021.1.4,59.95074446667667,
Self.png,You,Self ,c,1,11,21,91,,,,,0,0,0,0,,,,,5,2,62,9,,,,,,,,,,,,,,,,,,,,,1.572,2.039,353.5943389000022,None,,,,,,,,,,,,,,,,,,,,354.13414819998434,354.64150529998005,0.5133915199839976,1.01370081998175,354.62482810000074,354.72489250000217,354.62482810000074,354.72489250000217,354.72489250000217,None,c,1,0.8015837999992073,354.72489250000217,None,,,,,m,,pi,2022_Mar_24_1220,training+cueing,2021.1.4,59.95074446667667,
Stranger.png,Friend,Stranger,m,2.3,17,27,97,,,,,0,0,0,0,,,,,5,3,63,7,,,,,,,,,,,,,,,,,,,,,1.522,2.495,355.64797550000367,None,,,,,,,,,,,,,,,,,,,,356.18861990000005,356.6930146999948,0.5079500199935865,1.0082274199812673,356.6763483999821,356.7930633999931,356.6763483999821,356.7930633999931,356.7763533999969,None,m,1,0.990166000003228,356.7763533999969,None,,,,,m,,pi,2022_Mar_24_1220,training+cueing,2021.1.4,59.95074446667667,
Stranger.png,You,Stranger,m,1.3,15,25,95,,,,,0,0,0,0,,,,,5,4,64,6,,,,,,,,,,,,,,,,,,,,,1.412,2.277,357.8996298999991,None,,,,,,,,,,,,,,,,,,,,358.43747350000194,358.94463479999104,0.5121516199724283,1.012447919958504,358.9279500999837,359.0280908999848,358.9279500999837,359.0280908999848,359.0280908999848,None,m,1,1.1382495999860112,359.0280908999848,None,,,,,m,,pi,2022_Mar_24_1220,training+cueing,2021.1.4,59.95074446667667,
Stranger.png,Stranger,Stranger,c,3,13,23,93,,,,,0,0,0,0,,,,,5,5,65,11,,,,,,,,,,,,,,,,,,,,,1.694,1.327,360.3020099999849,None,,,,,,,,,,,,,,,,,,,,360.8399173000071,361.34633879998,0.5113546200154815,1.0116471200017259,361.32971029999317,361.4464092999988,361.32971029999317,361.4464092999988,361.42971430000034,None,c,1,1.2326103000086732,361.42971430000034,None,,,,,m,,pi,2022_Mar_24_1220,training+cueing,2021.1.4,59.95074446667667,
Self.png,You,Self ,c,1,11,21,91,,,,,0,0,0,0,,,,,5,6,66,0,,,,,,,,,,,,,,,,,,,,,1.443,2.062,362.7869510999881,None,,,,,,,,,,,,,,,,,,,,363.32528249997995,363.83150119998027,0.5126579200150445,1.012997620011447,363.8147917999886,363.9148800999974,363.8147917999886,363.9148800999974,363.9148800999974,None,None,0,,363.9148800999974,None,,,,,m,,pi,2022_Mar_24_1220,training+cueing,2021.1.4,59.95074446667667,
Friend.png,You,Friend,m,1.2,14,24,94,,,,,0,0,0,0,,,,,5,7,67,3,,,,,,,,,,,,,,,,,,,,,1.457,1.491,365.47009699998307,None,,,,,,,,,,,,,,,,,,,,366.0072497999936,366.5168153999839,0.5004235199885443,1.0006715199851897,366.48345559998415,366.58346649998566,366.48345559998415,366.58346649998566,366.58346649998566,None,m,1,1.1028878999932203,366.58346649998566,None,,,,,m,,pi,2022_Mar_24_1220,training+cueing,2021.1.4,59.95074446667667,
Friend.png,Stranger,Friend,m,3.2,19,29,99,,,,,0,0,0,0,,,,,5,8,68,5,,,,,,,,,,,,,,,,,,,,,1.572,2.21,367.8239912999852,None,,,,,,,,,,,,,,,,,,,,368.36325470000156,368.868504699989,0.5105104200192727,1.0107536200084724,368.851812399982,368.96854469997925,368.851812399982,368.96854469997925,368.95178959998884,None,m,1,1.4385426999942865,368.95178959998884,None,,,,,m,,pi,2022_Mar_24_1220,training+cueing,2021.1.4,59.95074446667667,
Friend.png,Friend,Friend,c,2,12,22,92,,,,,0,0,0,0,,,,,5,9,69,10,,,,,,,,,,,,,,,,,,,,,1.719,2.332,370.52603239999735,None,,,,,,,,,,,,,,,,,,,,371.06530269997893,371.5704313000024,0.5103157199919224,1.0107970199896954,371.5537870999833,371.6710752999934,371.5537870999833,371.6710752999934,371.65381469999556,None,c,1,0.6726507999992464,371.65381469999556,None,,,,,m,,pi,2022_Mar_24_1220,training+cueing,2021.1.4,59.95074446667667,
Stranger.png,Stranger,Stranger,c,3,13,23,93,,,,,0,0,0,0,,,,,5,10,70,8,,,,,,,,,,,,,,,,,,,,,1.701,1.592,372.46228579999297,None,,,,,,,,,,,,,,,,,,,,373.00668590000714,373.5218278999964,0.5125360199890565,1.0128489199851174,373.50517150000087,373.62187259999337,373.50517150000087,373.62187259999337,373.6051901000028,None,m,0,1.1373057000164408,373.6051901000028,None,,,,,m,,pi,2022_Mar_24_1220,training+cueing,2021.1.4,59.95074446667667,
Self.png,Stranger,Self ,m,3.1,18,28,98,,,,,0,0,0,0,,,,,5,11,71,2,,,,,,,,,,,,,,,,,,,,,1.512,2.076,374.86530539998785,None,,,,,,,,,,,,,,,,,,,,375.3997543999867,375.906928899989,0.5141278200317174,1.0143935200176202,375.8902590999787,376.00694560000557,375.8902590999787,376.00694560000557,375.99026739998953,None,m,1,1.2161472000007052,375.99026739998953,None,,,,,m,,pi,2022_Mar_24_1220,training+cueing,2021.1.4,59.95074446667667,
Self.png,You,Self ,c,1,11,21,91,,,,,0,0,0,0,,,,,6,0,72,0,,,,,,,,,,,,,,,,,,,,,1.742,2.113,377.33078639997984,None,,,,,,,,,,,,,,,,,,,,377.8701927999791,378.3753710000019,0.5078912199824117,1.0081460200017318,378.3587077999837,378.45873089999077,378.3587077999837,378.45873089999077,378.45873089999077,None,c,1,1.1316241000022274,378.45873089999077,None,,,,,m,,pi,2022_Mar_24_1220,training+cueing,2021.1.4,59.95074446667667,
Stranger.png,You,Stranger,m,1.3,15,25,95,,,,,0,0,0,0,,,,,6,1,73,6,,,,,,,,,,,,,,,,,,,,,1.741,2.076,379.71580429997994,None,,,,,,,,,,,,,,,,,,,,380.2521910999785,380.76041129999794,0.5003197199839633,1.0004764199838974,380.72712820000015,380.8271107999899,380.72712820000015,380.8271107999899,380.8271107999899,None,c,0,0.9872925000090618,380.8271107999899,None,,,,,m,,pi,2022_Mar_24_1220,training+cueing,2021.1.4,59.95074446667667,
Friend.png,Stranger,Friend,m,3.2,19,29,99,,,,,0,0,0,0,,,,,6,2,74,5,,,,,,,,,,,,,,,,,,,,,1.458,2.006,381.95081519999076,None,,,,,,,,,,,,,,,,,,,,382.48935099999653,382.9953671999974,0.5110955199925229,1.0114228199818172,382.97868929998367,383.0954148999881,382.97868929998367,383.0954148999881,383.07868579999194,None,None,0,,383.07868579999194,None,,,,,m,,pi,2022_Mar_24_1220,training+cueing,2021.1.4,59.95074446667667,
Self.png,Stranger,Self ,m,3.1,18,28,98,,,,,0,0,0,0,,,,,6,3,75,2,,,,,,,,,,,,,,,,,,,,,1.513,2.099,384.65075659999275,None,,,,,,,,,,,,,,,,,,,,385.18721139998524,385.69727959999,0.5003669199941214,1.000657719996525,385.66396049998,385.7639859000046,385.66396049998,385.7639859000046,385.7639859000046,None,c,0,0.8343976000032853,385.7639859000046,None,,,,,m,,pi,2022_Mar_24_1220,training+cueing,2021.1.4,59.95074446667667,
Stranger.png,Stranger,Stranger,c,3,13,23,93,,,,,0,0,0,0,,,,,6,4,76,8,,,,,,,,,,,,,,,,,,,,,1.447,2.309,386.7205181999889,None,,,,,,,,,,,,,,,,,,,,387.25758109998424,387.7655148000049,0.515294319979148,1.0155408199643716,387.7488392999803,387.8655461999879,387.7488392999803,387.8655461999879,387.848846399982,None,c,1,1.405549399991287,387.848846399982,None,,,,,m,,pi,2022_Mar_24_1220,training+cueing,2021.1.4,59.95074446667667,
Self.png,Friend,Self ,m,2.1,16,26,96,,,,,0,0,0,0,,,,,6,5,77,1,,,,,,,,,,,,,,,,,,,,,1.696,1.587,389.38955629998236,None,,,,,,,,,,,,,,,,,,,,389.9276799999934,390.4340678000008,0.5118938200175762,1.012185120023787,390.4173932999838,390.5341252000071,390.4173932999838,390.5341252000071,390.51763279997976,None,m,1,1.0887626000039745,390.51763279997976,None,,,,,m,,pi,2022_Mar_24_1220,training+cueing,2021.1.4,59.95074446667667,
Stranger.png,Stranger,Stranger,c,3,13,23,93,,,,,0,0,0,0,,,,,6,6,78,11,,,,,,,,,,,,,,,,,,,,,1.663,1.893,391.7409881000058,None,,,,,,,,,,,,,,,,,,,,392.27999169999384,392.7857781999919,0.5100950199994259,1.0103805199905764,392.76911870000185,392.8857880999858,392.76911870000185,392.8857880999858,392.8691237999883,None,m,0,0.8332588000048418,392.8691237999883,None,,,,,m,,pi,2022_Mar_24_1220,training+cueing,2021.1.4,59.95074446667667,
Friend.png,You,Friend,m,1.2,14,24,94,,,,,0,0,0,0,,,,,6,7,79,3,,,,,,,,,,,,,,,,,,,,,1.699,1.645,393.82545149998623,None,,,,,,,,,,,,,,,,,,,,394.3661853999947,394.87065579998307,0.508952819975093,1.009118719957769,394.85401459998684,394.95402159998775,394.85401459998684,394.95402159998775,394.95402159998775,None,m,1,1.100354199996218,394.95402159998775,None,,,,,m,,pi,2022_Mar_24_1220,training+cueing,2021.1.4,59.95074446667667,
Stranger.png,Friend,Stranger,m,2.3,17,27,97,,,,,0,0,0,0,,,,,6,8,80,7,,,,,,,,,,,,,,,,,,,,,1.786,2.427,396.17774199999985,None,,,,,,,,,,,,,,,,,,,,396.71518359999754,397.2223280000035,0.5113523199979682,1.0116426199965645,397.20562809999683,397.32243339999695,397.20562809999683,397.32243339999695,397.30565920000663,None,m,1,1.1007806000125129,397.30565920000663,None,,,,,m,,pi,2022_Mar_24_1220,training+cueing,2021.1.4,59.95074446667667,
Friend.png,Friend,Friend,c,2,12,22,92,,,,,0,0,0,0,,,,,6,9,81,4,,,,,,,,,,,,,,,,,,,,,1.578,1.575,398.5294428000052,None,,,,,,,,,,,,,,,,,,,,399.0712055999902,399.57401499999105,0.5062437199812848,1.00653971999418,399.55733599999803,399.67405979998875,399.55733599999803,399.67405979998875,399.6573931000021,None,c,1,1.1970058000006247,399.6573931000021,None,,,,,m,,pi,2022_Mar_24_1220,training+cueing,2021.1.4,59.95074446667667,
Friend.png,Friend,Friend,c,2,12,22,92,,,,,0,0,0,0,,,,,6,10,82,10,,,,,,,,,,,,,,,,,,,,,1.575,1.621,400.9813462999882,None,,,,,,,,,,,,,,,,,,,,401.5176298999868,402.0257880999998,0.5002319200139027,1.0004970199952368,401.9925018999784,402.0925399999833,401.9925018999784,402.0925399999833,402.0925399999833,None,c,1,1.353842300013639,402.0925399999833,None,,,,,m,,pi,2022_Mar_24_1220,training+cueing,2021.1.4,59.95074446667667,
Self.png,You,Self ,c,1,11,21,91,,,,,0,0,0,0,,,,,6,11,83,9,,,,,,,,,,,,,,,,,,,,,1.518,1.732,403.5831116999907,None,,,,,,,,,,,,,,,,,,,,404.12107839999953,404.627691200003,0.5104573199932929,1.010712319985032,404.6110214999935,404.71104369999375,404.6110214999935,404.71104369999375,404.71104369999375,None,c,1,1.2155826000089291,404.71104369999375,None,,,,,m,,pi,2022_Mar_24_1220,training+cueing,2021.1.4,59.95074446667667,
Stranger.png,Stranger,Stranger,c,3,13,23,93,,,,,0,0,0,0,,,,,7,0,84,8,,,,,,,,,,,,,,,,,,,,,1.733,2.05,406.05499629999395,None,,,,,,,,,,,,,,,,,,,,406.5944772999792,407.09613639998133,0.5039426200091839,1.0042175200069323,407.0794791999797,407.19618169998284,407.0794791999797,407.19618169998284,407.1794702000043,None,m,0,1.1148713000002317,407.1794702000043,None,,,,,m,,pi,2022_Mar_24_1220,training+cueing,2021.1.4,59.95074446667667,
Self.png,Stranger,Self ,m,3.1,18,28,98,,,,,0,0,0,0,,,,,7,1,85,2,,,,,,,,,,,,,,,,,,,,,1.581,1.319,408.4195352999959,None,,,,,,,,,,,,,,,,,,,,408.9558974999818,409.46448579998105,0.5001857199822553,1.000464219978312,409.43117500000517,409.5311911999888,409.43117500000517,409.5311911999888,409.5311911999888,None,m,1,1.1954427000018768,409.5311911999888,None,,,,,m,,pi,2022_Mar_24_1220,training+cueing,2021.1.4,59.95074446667667,
Stranger.png,Friend,Stranger,m,2.3,17,27,97,,,,,0,0,0,0,,,,,7,2,86,7,,,,,,,,,,,,,,,,,,,,,1.795,1.938,410.8550399999949,None,,,,,,,,,,,,,,,,,,,,411.3930756000045,411.89960549998796,0.5115844200190622,1.011901720019523,411.8829461999994,411.99964749999344,411.8829461999994,411.99964749999344,411.98294929999975,None,m,1,1.7515943000034895,411.98294929999975,None,,,,,m,,pi,2022_Mar_24_1220,training+cueing,2021.1.4,59.95074446667667,
Friend.png,Friend,Friend,c,2,12,22,92,,,,,0,0,0,0,,,,,7,3,87,10,,,,,,,,,,,,,,,,,,,,,1.66,1.631,413.85768769998685,None,,,,,,,,,,,,,,,,,,,,414.4089363999956,414.9184553999803,0.5033146200003102,1.0036360200028867,414.90179020000505,415.0185102999967,414.90179020000505,415.0185102999967,415.00181869999506,None,c,1,0.9247126000118442,415.00181869999506,None,,,,,m,,pi,2022_Mar_24_1220,training+cueing,2021.1.4,59.95074446667667,
Friend.png,Stranger,Friend,m,3.2,19,29,99,,,,,0,0,0,0,,,,,7,4,88,5,,,,,,,,,,,,,,,,,,,,,1.553,1.285,416.0582434999815,None,,,,,,,,,,,,,,,,,,,,416.59665490000043,417.1033906999801,0.5117576199700125,1.0120497199823149,417.0867125999939,417.2034289999865,417.0867125999939,417.2034289999865,417.18671959999483,None,m,1,0.7716779999900609,417.18671959999483,None,,,,,m,,pi,2022_Mar_24_1220,training+cueing,2021.1.4,59.95074446667667,
Stranger.png,You,Stranger,m,1.3,15,25,95,,,,,0,0,0,0,,,,,7,5,89,6,,,,,,,,,,,,,,,,,,,,,1.505,1.534,418.0939541999833,None,,,,,,,,,,,,,,,,,,,,418.6313833000022,419.1382448999793,0.5130432199803181,1.0132718199747615,419.1215381999791,419.2215462999884,419.1215381999791,419.2215462999884,419.2215462999884,None,c,0,1.296841500006849,419.2215462999884,None,,,,,m,,pi,2022_Mar_24_1220,training+cueing,2021.1.4,59.95074446667667,
Self.png,You,Self ,c,1,11,21,91,,,,,0,0,0,0,,,,,7,6,90,9,,,,,,,,,,,,,,,,,,,,,1.619,1.539,420.6451669999806,None,,,,,,,,,,,,,,,,,,,,421.1815956000064,421.6899951999949,0.500000620028004,1.0001019200135488,421.6568313000025,421.75673920000554,421.6568313000025,421.75673920000554,421.75673920000554,None,c,1,1.0016374999831896,421.75673920000554,None,,,,,m,,pi,2022_Mar_24_1220,training+cueing,2021.1.4,59.95074446667667,
Friend.png,You,Friend,m,1.2,14,24,94,,,,,0,0,0,0,,,,,7,7,91,3,,,,,,,,,,,,,,,,,,,,,1.723,2.028,422.8806143999973,None,,,,,,,,,,,,,,,,,,,,423.4154015999811,423.9249787000008,0.5000815200037323,1.0003608200058807,423.89161530000274,423.99167200000375,423.89161530000274,423.99167200000375,423.99167200000375,None,m,1,1.1187743000045884,423.99167200000375,None,,,,,m,,pi,2022_Mar_24_1220,training+cueing,2021.1.4,59.95074446667667,
Friend.png,Friend,Friend,c,2,12,22,92,,,,,0,0,0,0,,,,,7,8,92,4,,,,,,,,,,,,,,,,,,,,,1.676,2.087,425.23215369999525,None,,,,,,,,,,,,,,,,,,,,425.7781688999967,426.29340219998267,0.513769820012385,1.0140238199965097,426.2767310999916,426.39342330000363,426.2767310999916,426.39342330000363,426.3767290999822,None,c,1,1.1178348999819718,426.3767290999822,None,,,,,m,,pi,2022_Mar_24_1220,training+cueing,2021.1.4,59.95074446667667,
Stranger.png,Stranger,Stranger,c,3,13,23,93,,,,,0,0,0,0,,,,,7,9,93,11,,,,,,,,,,,,,,,,,,,,,1.496,1.31,427.6182896999817,None,,,,,,,,,,,,,,,,,,,,428.1580613999977,428.66173799999524,0.5077910200052429,1.008084119996056,428.645071499981,428.7618478999939,428.645071499981,428.7618478999939,428.7453309999837,None,None,0,,428.7453309999837,None,,,,,m,,pi,2022_Mar_24_1220,training+cueing,2021.1.4,59.95074446667667,
Self.png,Friend,Self ,m,2.1,16,26,96,,,,,0,0,0,0,,,,,7,10,94,1,,,,,,,,,,,,,,,,,,,,,1.587,1.931,430.3499763,None,,,,,,,,,,,,,,,,,,,,430.8900510999956,431.397052299988,0.5116344200214371,1.0119487200281583,431.38036270000157,431.4971140999987,431.38036270000157,431.4971140999987,431.48039979999885,None,m,1,1.3259978000132833,431.48039979999885,None,,,,,m,,pi,2022_Mar_24_1220,training+cueing,2021.1.4,59.95074446667667,
Self.png,You,Self ,c,1,11,21,91,,,,,0,0,0,0,,,,,7,11,95,0,,,,,,,,,,,,,,,,,,,,,1.525,2.353,432.9372640999791,None,,,,,,,,,,,,,,,,,,,,433.47501619998366,433.98226160000195,0.5132099200272933,1.0134703200310469,433.96558669998194,434.0656184999971,433.96558669998194,434.0656184999971,434.0656184999971,None,c,1,0.9167300999979489,434.0656184999971,None,,,,,m,,pi,2022_Mar_24_1220,training+cueing,2021.1.4,59.95074446667667,
Friend.png,Friend,Friend,c,2,12,22,92,,,,,0,0,0,0,,,,,8,0,96,4,,,,,,,,,,,,,,,,,,,,,1.51,1.89,435.10592839997844,None,,,,,,,,,,,,,,,,,,,,435.64454089998617,436.1505363000033,0.509260919992812,1.009531519986922,436.133805999998,436.2505433000042,436.133805999998,436.2505433000042,436.23383769998327,None,None,0,,436.23383769998327,None,,,,,m,,pi,2022_Mar_24_1220,training+cueing,2021.1.4,59.95074446667667,
Friend.png,Stranger,Friend,m,3.2,19,29,99,,,,,0,0,0,0,,,,,8,1,97,5,,,,,,,,,,,,,,,,,,,,,1.647,2.113,437.8557620999927,None,,,,,,,,,,,,,,,,,,,,438.3982092999795,438.90253399999347,0.508915620011976,1.0091971200308762,438.8858115999901,439.0025381000014,438.8858115999901,439.0025381000014,438.9858414999908,None,m,1,1.1806135999795515,438.9858414999908,None,,,,,m,,pi,2022_Mar_24_1220,training+cueing,2021.1.4,59.95074446667667,
Stranger.png,Friend,Stranger,m,2.3,17,27,97,,,,,0,0,0,0,,,,,8,2,98,7,,,,,,,,,,,,,,,,,,,,,1.746,2.251,440.29317150000134,None,,,,,,,,,,,,,,,,,,,,440.832004099997,441.33758669998497,0.5108711200009566,1.0111111199948937,441.32093950000126,441.4376306000049,441.32093950000126,441.4376306000049,441.42093079999904,None,m,1,1.5295136000204366,441.42093079999904,None,,,,,m,,pi,2022_Mar_24_1220,training+cueing,2021.1.4,59.95074446667667,
Friend.png,You,Friend,m,1.2,14,24,94,,,,,0,0,0,0,,,,,8,3,99,3,,,,,,,,,,,,,,,,,,,,,1.532,1.613,443.0777404999826,None,,,,,,,,,,,,,,,,,,,,443.6173057999986,444.122959100001,0.5097797199850902,1.0101068200019654,444.1062455000065,444.2062858999998,444.1062455000065,444.2062858999998,444.2062858999998,None,m,1,1.2081818000006024,444.2062858999998,None,,,,,m,,pi,2022_Mar_24_1220,training+cueing,2021.1.4,59.95074446667667,
Friend.png,Friend,Friend,c,2,12,22,92,,,,,0,0,0,0,,,,,8,4,100,10,,,,,,,,,,,,,,,,,,,,,1.444,1.475,445.5467995000072,None,,,,,,,,,,,,,,,,,,,,446.08521679998375,446.59138820000226,0.5114561200025491,1.0117619200027548,446.5747163000051,446.6914224999782,446.5747163000051,446.6914224999782,446.67471160000423,None,m,0,0.5956054000125732,446.67471160000423,None,,,,,m,,pi,2022_Mar_24_1220,training+cueing,2021.1.4,59.95074446667667,
Stranger.png,You,Stranger,m,1.3,15,25,95,,,,,0,0,0,0,,,,,8,5,101,6,,,,,,,,,,,,,,,,,,,,,1.565,1.905,447.39821590000065,None,,,,,,,,,,,,,,,,,,,,447.9395111000049,448.4427456999838,0.5074789200152736,1.007748520030873,448.4260598999972,448.5260902000009,448.4260598999972,448.5260902000009,448.5260902000009,None,c,0,1.0162651999853551,448.5260902000009,None,,,,,m,,pi,2022_Mar_24_1220,training+cueing,2021.1.4,59.95074446667667,
Self.png,You,Self ,c,1,11,21,91,,,,,0,0,0,0,,,,,8,6,102,0,,,,,,,,,,,,,,,,,,,,,1.698,1.894,449.6665632999793,None,,,,,,,,,,,,,,,,,,,,450.201525099983,450.7110796000052,0.4996526199975051,1.0002404199913144,450.6779016999935,450.7777679999999,450.6779016999935,450.7777679999999,450.7777679999999,None,m,0,1.1167977000004612,450.7777679999999,None,,,,,m,,pi,2022_Mar_24_1220,training+cueing,2021.1.4,59.95074446667667,
Self.png,Stranger,Self ,m,3.1,18,28,98,,,,,0,0,0,0,,,,,8,7,103,2,,,,,,,,,,,,,,,,,,,,,1.563,1.983,452.02199879998807,None,,,,,,,,,,,,,,,,,,,,452.5581377999915,453.0627389999863,0.5086735200020485,1.0089776200184133,453.0460514999868,453.16277669998817,453.0460514999868,453.16277669998817,453.14608429998043,None,m,1,1.340601300005801,453.14608429998043,None,,,,,m,,pi,2022_Mar_24_1220,training+cueing,2021.1.4,59.95074446667667,
Stranger.png,Stranger,Stranger,c,3,13,23,93,,,,,0,0,0,0,,,,,8,8,104,11,,,,,,,,,,,,,,,,,,,,,1.761,2.344,454.62408789998153,None,,,,,,,,,,,,,,,,,,,,455.1561705000058,455.66465669998433,0.514502320002066,1.0151481200009584,455.6478916000051,455.7646704999788,455.6478916000051,455.7646704999788,455.7479633000039,None,c,1,1.282439800008433,455.7479633000039,None,,,,,m,,pi,2022_Mar_24_1220,training+cueing,2021.1.4,59.95074446667667,
Self.png,You,Self ,c,1,11,21,91,,,,,0,0,0,0,,,,,8,9,105,9,,,,,,,,,,,,,,,,,,,,,1.533,2.437,457.1548368999793,None,,,,,,,,,,,,,,,,,,,,457.6931354999833,458.19980639999267,0.5128845199942589,1.0131441199919209,458.18311600000015,458.28318830000353,458.18311600000015,458.28318830000353,458.28318830000353,None,c,1,1.2432764999975916,458.28318830000353,None,,,,,m,,pi,2022_Mar_24_1220,training+cueing,2021.1.4,59.95074446667667,
Stranger.png,Stranger,Stranger,c,3,13,23,93,,,,,0,0,0,0,,,,,8,10,106,8,,,,,,,,,,,,,,,,,,,,,1.435,1.901,459.6575316999806,None,,,,,,,,,,,,,,,,,,,,460.20619100000476,460.7183080999821,0.507168720010668,1.0074500200280454,460.70160410000244,460.8183485000045,460.70160410000244,460.8183485000045,460.8016160999832,None,None,0,,460.8016160999832,None,,,,,m,,pi,2022_Mar_24_1220,training+cueing,2021.1.4,59.95074446667667,
Self.png,Friend,Self ,m,2.1,16,26,96,,,,,0,0,0,0,,,,,8,11,107,1,,,,,,,,,,,,,,,,,,,,,1.593,2.244,462.34028059997945,None,,,,,,,,,,,,,,,,,,,,462.8798415999918,463.3868803999794,0.5121566199813969,1.0124375199957285,463.3702046999824,463.4869368999789,463.3702046999824,463.4869368999789,463.4702738999913,None,m,1,1.0802064000163227,463.4702738999913,None,,,,,m,,pi,2022_Mar_24_1220,training+cueing,2021.1.4,59.95074446667667,
Friend.png,Stranger,Friend,m,3.2,19,29,99,,,,,0,0,0,0,,,,,9,0,108,5,,,,,,,,,,,,,,,,,,,,,1.432,1.398,464.67678469998646,None,,,,,,,,,,,,,,,,,,,,465.2179959999921,465.7219105999975,0.5078424200182781,1.0080797200207599,465.70523219997995,465.82196070000646,465.70523219997995,465.82196070000646,465.8052336999972,None,m,1,1.017098900018027,465.8052336999972,None,,,,,m,,pi,2022_Mar_24_1220,training+cueing,2021.1.4,59.95074446667667,
Stranger.png,Stranger,Stranger,c,3,13,23,93,,,,,0,0,0,0,,,,,9,1,109,11,,,,,,,,,,,,,,,,,,,,,1.579,2.261,466.94615380000323,None,,,,,,,,,,,,,,,,,,,,467.481042600004,467.990166899981,0.5006739800446667,1.0009431800281163,467.97353970000404,468.09025419998216,467.97353970000404,468.09025419998216,468.09025419998216,None,None,0,,468.09025419998216,None,,,,,m,,pi,2022_Mar_24_1220,training+cueing,2021.1.4,59.95074446667667,
Self.png,You,Self ,c,1,11,21,91,,,,,0,0,0,0,,,,,9,2,110,9,,,,,,,,,,,,,,,,,,,,,1.561,1.808,469.7790114999807,None,,,,,,,,,,,,,,,,,,,,470.3252838999906,470.8255765999784,0.4996355199837126,0.9999103199806996,470.8089282999863,470.90897039999254,470.8089282999863,470.90897039999254,470.90897039999254,None,m,0,1.4975234000012279,470.90897039999254,None,,,,,m,,pi,2022_Mar_24_1220,training+cueing,2021.1.4,59.95074446667667,
Self.png,You,Self ,c,1,11,21,91,,,,,0,0,0,0,,,,,9,3,111,0,,,,,,,,,,,,,,,,,,,,,1.4,1.793,472.5331968999817,None,,,,,,,,,,,,,,,,,,,,473.0723789999902,473.5775961999898,0.510837720008567,1.0111267199972644,473.5609056999965,473.660959300003,473.5609056999965,473.660959300003,473.660959300003,None,c,1,0.6813593999831937,473.660959300003,None,,,,,m,,pi,2022_Mar_24_1220,training+cueing,2021.1.4,59.95074446667667,
Friend.png,Friend,Friend,c,2,12,22,92,,,,,0,0,0,0,,,,,9,4,112,4,,,,,,,,,,,,,,,,,,,,,1.618,1.911,474.46732969998266,None,,,,,,,,,,,,,,,,,,,,475.0078816000023,475.5123399999866,0.5060471199976746,1.0062818200094625,475.49568279998493,475.612392799987,475.49568279998493,475.612392799987,475.595677699981,None,m,0,0.89083920000121,475.595677699981,None,,,,,m,,pi,2022_Mar_24_1220,training+cueing,2021.1.4,59.95074446667667,
Self.png,Friend,Self ,m,2.1,16,26,96,,,,,0,0,0,0,,,,,9,5,113,1,,,,,,,,,,,,,,,,,,,,,1.547,1.75,476.6196957999782,None,,,,,,,,,,,,,,,,,,,,477.15590549999615,477.6638313999865,0.499973720026901,1.0001506200351287,477.6305716999923,477.73054859999684,477.6305716999923,477.73054859999684,477.73054859999684,None,m,1,0.9478133999800775,477.73054859999684,None,,,,,m,,pi,2022_Mar_24_1220,training+cueing,2021.1.4,59.95074446667667,
Friend.png,You,Friend,m,1.2,14,24,94,,,,,0,0,0,0,,,,,9,6,114,3,,,,,,,,,,,,,,,,,,,,,1.528,1.991,478.80418779997854,None,,,,,,,,,,,,,,,,,,,,479.3421849999868,479.84880069998326,0.5130140199617017,1.0133209199702833,479.8320931000053,479.93213420000393,479.8320931000053,479.93213420000393,479.93213420000393,None,m,1,1.0182292999816127,479.93213420000393,None,,,,,m,,pi,2022_Mar_24_1220,training+cueing,2021.1.4,59.95074446667667,
Stranger.png,Friend,Stranger,m,2.3,17,27,97,,,,,0,0,0,0,,,,,9,7,115,7,,,,,,,,,,,,,,,,,,,,,1.728,1.214,481.07225149997976,None,,,,,,,,,,,,,,,,,,,,481.61211610000464,482.11710669999593,0.5085250200354494,1.0088088200427592,482.1004432000045,482.2171546999889,482.1004432000045,482.2171546999889,482.2004466000071,None,m,1,1.4702290999994148,482.2004466000071,None,,,,,m,,pi,2022_Mar_24_1220,training+cueing,2021.1.4,59.95074446667667,
Self.png,Stranger,Self ,m,3.1,18,28,98,,,,,0,0,0,0,,,,,9,8,116,2,,,,,,,,,,,,,,,,,,,,,1.604,2.337,483.8116265999852,None,,,,,,,,,,,,,,,,,,,,484.35106119999546,484.85242209999706,0.5033749199938029,1.0036502199945971,484.8357505000022,484.9524476999941,484.8357505000022,484.9524476999941,484.9357625999837,None,None,0,,484.9357625999837,None,,,,,m,,pi,2022_Mar_24_1220,training+cueing,2021.1.4,59.95074446667667,
Friend.png,Friend,Friend,c,2,12,22,92,,,,,0,0,0,0,,,,,9,9,117,10,,,,,,,,,,,,,,,,,,,,,1.762,2.348,486.65796449998743,None,,,,,,,,,,,,,,,,,,,,487.1983488999831,487.7044773999951,0.5123589199793059,1.0126187199784908,487.6878143000067,487.804527100001,487.6878143000067,487.804527100001,487.7878681999864,None,None,0,,487.7878681999864,None,,,,,m,,pi,2022_Mar_24_1220,training+cueing,2021.1.4,59.95074446667667,
Stranger.png,You,Stranger,m,1.3,15,25,95,,,,,0,0,0,0,,,,,9,10,118,6,,,,,,,,,,,,,,,,,,,,,1.558,2.485,489.65997290000087,None,,,,,,,,,,,,,,,,,,,,490.19910820000223,490.70665469998494,0.5130490199662745,1.013515419967007,490.6899633999856,490.7899778999854,490.6899633999856,490.7899778999854,490.7899778999854,None,None,0,,490.7899778999854,None,,,,,m,,pi,2022_Mar_24_1220,training+cueing,2021.1.4,59.95074446667667,
Stranger.png,Stranger,Stranger,c,3,13,23,93,,,,,0,0,0,0,,,,,9,11,119,8,,,,,,,,,,,,,,,,,,,,,1.646,1.968,492.46200929998304,None,,,,,,,,,,,,,,,,,,,,493.00294109998504,493.5086545999802,0.5113746200222522,1.011665920028463,493.4919879999943,493.6087496999826,493.4919879999943,493.6087496999826,493.5920069999993,None,c,1,1.0223413999774493,493.5920069999993,None,,,,,m,,pi,2022_Mar_24_1220,training+cueing,2021.1.4,59.95074446667667,
,,,,,,,,,,,,0,0,0,0,,,,,,,,,,,,,,,,,,,,,,,,,,,,,,,,,,,,,,,,,,,,,,,,,,,,,,,,,,,,,,,,,,,0.0007204800203908235,None,,,m,,pi,2022_Mar_24_1220,training+cueing,2021.1.4,59.95074446667667,
Self.png,Stranger,Self ,m,3.1,18,28,98,,,,,1,0,1,0,0,0,0,2,,,,,,,,,,,,,,,,,495.25995459998376,None,space,0.5381633999932092,2.0162957400025334,None,497.81200000000536,None,1.613,2.021,500.8208578999911,None,501.36057639998035,501.86472319997847,501.84805820000474,501.96471889998065,501.84805820000474,501.96471889998065,501.9480831999972,None,None,0,,501.9480831999972,None,503.5659553000005,None,,,,,,,,,,,,,,,,,,,,,,,,m,,pi,2022_Mar_24_1220,training+cueing,2021.1.4,59.95074446667667,
Friend.png,You,Friend,m,1.2,14,24,94,,,,,1,0,1,0,0,1,1,3,,,,,,,,,,,,,,,,,,,,,,,,,1.689,2.493,503.96639049999067,None,504.5076308999851,505.01717879998614,505.0004970000009,505.10053450000123,505.0004970000009,505.10053450000123,505.10053450000123,None,m,1,1.3698970000259578,505.10053450000123,None,506.50004849999095,None,,,,,,,,,,,,,,,,,,,,,,,,m,,pi,2022_Mar_24_1220,training+cueing,2021.1.4,59.95074446667667,
Friend.png,Stranger,Friend,m,3.2,19,29,99,,,,,1,0,1,0,0,2,2,5,,,,,,,,,,,,,,,,,,,,,,,,,1.653,1.451,506.9022410000034,None,507.43587889999617,507.93577109999023,507.9191257999919,508.0358205999946,507.9191257999919,508.0358205999946,508.0358205999946,None,None,0,,508.0358205999946,None,509.7024235999852,None,,,,,,,,,,,,,,,,,,,,,,,,m,,pi,2022_Mar_24_1220,training+cueing,2021.1.4,59.95074446667667,
Stranger.png,Stranger,Stranger,c,3,13,23,93,,,,,1,0,1,0,0,3,3,11,,,,,,,,,,,,,,,,,,,,,,,,,1.544,1.794,510.1040168000036,None,510.6299866999907,511.13808370000334,511.12136739998823,511.23812460000045,511.12136739998823,511.23812460000045,511.22146549998433,None,c,1,1.2168963000003714,511.22146549998433,None,512.4545910999877,None,,,,,,,,,,,,,,,,,,,,,,,,m,,pi,2022_Mar_24_1220,training+cueing,2021.1.4,59.95074446667667,
Friend.png,Friend,Friend,c,2,12,22,92,,,,,1,0,1,0,0,4,4,4,,,,,,,,,,,,,,,,,,,,,,,,,1.565,2.223,512.8566288999864,None,513.3954964999866,513.9067510000023,513.8901050999993,514.0067908999918,513.8901050999993,514.0067908999918,513.9901244000066,None,None,0,,513.9901244000066,None,515.5565811999841,None,,,,,,,,,,,,,,,,,,,,,,,,m,,pi,2022_Mar_24_1220,training+cueing,2021.1.4,59.95074446667667,
Self.png,Friend,Self ,m,2.1,16,26,96,,,,,1,0,1,0,0,5,5,1,,,,,,,,,,,,,,,,,,,,,,,,,1.618,1.909,515.9583616000018,None,516.4910525000014,516.9923104000045,516.9756533000036,517.0923940000066,516.9756533000036,517.0923940000066,517.0923940000066,None,c,0,1.2341556000174023,517.0923940000066,None,518.3433348999824,None,,,,,,,,,,,,,,,,,,,,,,,,m,,pi,2022_Mar_24_1220,training+cueing,2021.1.4,59.95074446667667,
Self.png,You,Self ,c,1,11,21,91,,,,,1,0,1,0,0,6,6,0,,,,,,,,,,,,,,,,,,,,,,,,,1.409,1.469,518.7438478999829,None,519.271207599988,519.7778254000004,519.7611653000058,519.8612269999867,519.7611653000058,519.8612269999867,519.8612269999867,None,c,1,0.9772503999993205,519.8612269999867,None,520.8607090000005,None,,,,,,,,,,,,,,,,,,,,,,,,m,,pi,2022_Mar_24_1220,training+cueing,2021.1.4,59.95074446667667,
Stranger.png,Stranger,Stranger,c,3,13,23,93,,,,,1,0,1,0,0,7,7,8,,,,,,,,,,,,,,,,,,,,,,,,,1.536,2.39,521.2620886999939,None,521.7920448999794,522.2961929999874,522.2794723999978,522.3962574999896,522.2794723999978,522.3962574999896,522.3795149999787,None,m,0,1.0988702999893576,522.3795149999787,None,523.4971536999801,None,,,,,,,,,,,,,,,,,,,,,,,,m,,pi,2022_Mar_24_1220,training+cueing,2021.1.4,59.95074446667667,
Friend.png,Friend,Friend,c,2,12,22,92,,,,,1,0,1,0,0,8,8,10,,,,,,,,,,,,,,,,,,,,,,,,,1.603,2.395,523.8978980999964,None,524.4256461999903,524.9314006000059,524.9147539999976,525.031452700001,524.9147539999976,525.031452700001,525.0147734000057,None,None,0,,525.0147734000057,None,526.6326265999814,None,,,,,,,,,,,,,,,,,,,,,,,,m,,pi,2022_Mar_24_1220,training+cueing,2021.1.4,59.95074446667667,
Stranger.png,Friend,Stranger,m,2.3,17,27,97,,,,,1,0,1,0,0,9,9,7,,,,,,,,,,,,,,,,,,,,,,,,,1.579,1.686,527.0329383999924,None,527.5600288999849,528.0669904999959,528.0503556999902,528.1670440000016,528.0503556999902,528.1670440000016,528.1503698999877,None,c,0,0.9440429999958724,528.1503698999877,None,529.1177857999865,None,,,,,,,,,,,,,,,,,,,,,,,,m,,pi,2022_Mar_24_1220,training+cueing,2021.1.4,59.95074446667667,
Stranger.png,You,Stranger,m,1.3,15,25,95,,,,,1,0,1,0,0,10,10,6,,,,,,,,,,,,,,,,,,,,,,,,,1.504,2.253,529.5180455999798,None,530.0466528999968,530.5523201999895,530.5355551999819,530.635548899998,530.5355551999819,530.635548899998,530.635548899998,None,m,1,1.3708388999802992,530.635548899998,None,532.0352248999989,None,,,,,,,,,,,,,,,,,,,,,,,,m,,pi,2022_Mar_24_1220,training+cueing,2021.1.4,59.95074446667667,
Self.png,You,Self ,c,1,11,21,91,,,,,1,0,1,0,0,11,11,9,,,,,,,,,,,,,,,,,,,,,,,,,1.557,2.038,532.4370218999975,None,532.9702988000063,533.4711341999937,533.4544019000023,533.5543176999781,533.4544019000023,533.5543176999781,533.5543176999781,None,c,1,0.9321177999954671,533.5543176999781,None,534.5050328999932,None,,,,,,,,,,,,,,,,,,,,,,,,m,,pi,2022_Mar_24_1220,training+cueing,2021.1.4,59.95074446667667,
Self.png,Stranger,Self ,m,3.1,18,28,98,,,,,1,0,1,0,,,,,0,0,0,2,,,,,,,,,,,,,,,,,,,537.9074970999791,None,1.76,1.891,541.4174096999923,None,,,,,,,,,,,,,,,,534.9053515999985,None,0.014587740006390959,0.5128544399922248,541.9552764999971,542.4609163999849,0.5105161200044677,1.0106335200252943,542.4442677999905,542.5609826,542.4442677999905,542.5609826,542.5442978999927,None,m,1,1.0941145999822766,542.5442978999927,None,,,,,m,,pi,2022_Mar_24_1220,training+cueing,2021.1.4,59.95074446667667,
Stranger.png,You,Stranger,m,1.3,15,25,95,,,,,1,0,1,0,,,,,0,1,1,6,,,,,,,,,,,,,,,,,,,,,1.468,2.483,543.7694348999939,None,,,,,,,,,,,,,,,,,,,,544.3085613999865,544.8124996999977,0.507758619991364,1.008025519986404,544.7958343999926,544.8958715999906,544.7958343999926,544.8958715999906,544.8958715999906,None,None,0,,544.8958715999906,None,,,,,m,,pi,2022_Mar_24_1220,training+cueing,2021.1.4,59.95074446667667,
Friend.png,Stranger,Friend,m,3.2,19,29,99,,,,,1,0,1,0,,,,,0,2,2,5,,,,,,,,,,,,,,,,,,,,,1.648,1.5,546.4681459999993,None,,,,,,,,,,,,,,,,,,,,547.0085951999936,547.5144170999993,0.5089833200327121,1.0093046200054232,547.497761000006,547.6146807000041,547.497761000006,547.6146807000041,547.5977962999896,None,m,1,0.9206958999857306,547.5977962999896,None,,,,,m,,pi,2022_Mar_24_1220,training+cueing,2021.1.4,59.95074446667667,
Self.png,You,Self ,c,1,11,21,91,,,,,1,0,1,0,,,,,0,3,3,9,,,,,,,,,,,,,,,,,,,,,1.519,2.057,548.6548731999937,None,,,,,,,,,,,,,,,,,,,,549.1924390000058,549.6993447999994,0.51346941999509,1.0137545199831948,549.6826541000046,549.7827603000042,549.6826541000046,549.7827603000042,549.7827603000042,None,c,1,0.8797141000104602,549.7827603000042,None,,,,,m,,pi,2022_Mar_24_1220,training+cueing,2021.1.4,59.95074446667667,
Self.png,You,Self ,c,1,11,21,91,,,,,1,0,1,0,,,,,0,4,4,0,,,,,,,,,,,,,,,,,,,,,1.658,2.175,550.7892552999838,None,,,,,,,,,,,,,,,,,,,,551.3266362999857,551.8342127999931,0.5127877200138755,1.0130845200037584,551.817552499997,551.9176276999933,551.817552499997,551.9176276999933,551.9176276999933,None,c,1,0.6169066999864299,551.9176276999933,None,,,,,m,,pi,2022_Mar_24_1220,training+cueing,2021.1.4,59.95074446667667,
Friend.png,Friend,Friend,c,2,12,22,92,,,,,1,0,1,0,,,,,0,5,5,4,,,,,,,,,,,,,,,,,,,,,1.612,1.798,552.6574036999955,None,,,,,,,,,,,,,,,,,,,,553.19545259999,553.7022580000048,0.512942919973284,1.013202519970946,553.6855622000003,553.8022617999814,553.6855622000003,553.8022617999814,553.7855877999973,None,m,0,1.2767862000036985,553.7855877999973,None,,,,,m,,pi,2022_Mar_24_1220,training+cueing,2021.1.4,59.95074446667667,
Friend.png,You,Friend,m,1.2,14,24,94,,,,,1,0,1,0,,,,,0,6,6,3,,,,,,,,,,,,,,,,,,,,,1.463,1.22,555.1932304999791,None,,,,,,,,,,,,,,,,,,,,555.7343871000048,556.237440500001,0.5060573199880309,1.0063056199869607,556.2207712999952,556.3207892999926,556.2207712999952,556.3207892999926,556.3207892999926,None,m,1,0.9656501999998,556.3207892999926,None,,,,,m,,pi,2022_Mar_24_1220,training+cueing,2021.1.4,59.95074446667667,
Stranger.png,Friend,Stranger,m,2.3,17,27,97,,,,,1,0,1,0,,,,,0,7,7,7,,,,,,,,,,,,,,,,,,,,,1.576,1.929,557.4114057999977,None,,,,,,,,,,,,,,,,,,,,557.9491891999787,558.455669899995,0.5101786200248171,1.0104735200293362,558.4390138000017,558.5557208999817,558.4390138000017,558.5557208999817,558.5390215999796,None,m,1,1.4033733000105713,558.5390215999796,None,,,,,m,,pi,2022_Mar_24_1220,training+cueing,2021.1.4,59.95074446667667,
Stranger.png,Stranger,Stranger,c,3,13,23,93,,,,,1,0,1,0,,,,,0,8,8,8,,,,,,,,,,,,,,,,,,,,,1.757,1.783,560.0796677999897,None,,,,,,,,,,,,,,,,,,,,560.6188905999879,561.1242959999945,0.509998519992223,1.0102049199922476,561.1076618999941,561.2243207999854,561.1076618999941,561.2243207999854,561.207617099979,None,c,1,0.9908243000099901,561.207617099979,None,,,,,m,,pi,2022_Mar_24_1220,training+cueing,2021.1.4,59.95074446667667,
Stranger.png,Stranger,Stranger,c,3,13,23,93,,,,,1,0,1,0,,,,,0,9,9,11,,,,,,,,,,,,,,,,,,,,,1.51,2.455,562.3314857999794,None,,,,,,,,,,,,,,,,,,,,562.8706734000007,563.375951199996,0.5099964199762326,1.0102692199870944,563.3592401999922,563.475972699991,563.3592401999922,563.475972699991,563.4592452999786,None,c,1,0.8191705000062939,563.4592452999786,None,,,,,m,,pi,2022_Mar_24_1220,training+cueing,2021.1.4,59.95074446667667,
Friend.png,Friend,Friend,c,2,12,22,92,,,,,1,0,1,0,,,,,0,10,10,10,,,,,,,,,,,,,,,,,,,,,1.722,1.416,564.4164083999931,None,,,,,,,,,,,,,,,,,,,,564.9545720999886,565.4607415999926,0.5102108199789654,1.01054461998865,565.4440533999878,565.5608021999942,565.4440533999878,565.5608021999942,565.5440976999816,None,c,1,1.278419100010069,565.5440976999816,None,,,,,m,,pi,2022_Mar_24_1220,training+cueing,2021.1.4,59.95074446667667,
Self.png,Friend,Self ,m,2.1,16,26,96,,,,,1,0,1,0,,,,,0,11,11,1,,,,,,,,,,,,,,,,,,,,,1.554,1.714,566.9523509999854,None,,,,,,,,,,,,,,,,,,,,567.4887581999938,567.9959342999791,0.5138428199861664,1.0141016200068407,567.9792731000052,568.0959584999946,567.9792731000052,568.0959584999946,568.0792725999781,None,m,1,1.2231057000171859,568.0792725999781,None,,,,,m,,pi,2022_Mar_24_1220,training+cueing,2021.1.4,59.95074446667667,
Stranger.png,You,Stranger,m,1.3,15,25,95,,,,,1,0,1,0,,,,,1,0,12,6,,,,,,,,,,,,,,,,,,,,,1.404,1.265,569.4365906000021,None,,,,,,,,,,,,,,,,,,,,569.977154799999,570.481074899988,0.5061564200150315,1.0064323199912906,570.4643916999921,570.564403299999,570.4643916999921,570.564403299999,570.564403299999,None,m,1,1.0900059000123292,570.564403299999,None,,,,,m,,pi,2022_Mar_24_1220,training+cueing,2021.1.4,59.95074446667667,
Friend.png,Friend,Friend,c,2,12,22,92,,,,,1,0,1,0,,,,,1,1,13,10,,,,,,,,,,,,,,,,,,,,,1.407,2.281,571.7881108000001,None,,,,,,,,,,,,,,,,,,,,572.3290844000003,572.8327744999842,0.5073385199939366,1.0075932199833915,572.8161246999807,572.9328155999829,572.8161246999807,572.9328155999829,572.9160713999881,None,c,1,1.3623651999805588,572.9160713999881,None,,,,,m,,pi,2022_Mar_24_1220,training+cueing,2021.1.4,59.95074446667667,
Self.png,You,Self ,c,1,11,21,91,,,,,1,0,1,0,,,,,1,2,14,0,,,,,,,,,,,,,,,,,,,,,1.738,2.451,574.4066835999838,None,,,,,,,,,,,,,,,,,,,,574.9452606999839,575.4513292000047,0.5108759200084023,1.011159920017235,575.4346245999914,575.5346960999887,575.4346245999914,575.5346960999887,575.5346960999887,None,c,1,1.1597837000153959,575.5346960999887,None,,,,,m,,pi,2022_Mar_24_1220,training+cueing,2021.1.4,59.95074446667667,
Friend.png,Friend,Friend,c,2,12,22,92,,,,,1,0,1,0,,,,,1,3,15,4,,,,,,,,,,,,,,,,,,,,,1.699,2.19,576.8250802999828,None,,,,,,,,,,,,,,,,,,,,577.3622735999816,577.8697373000032,0.5118539199756924,1.0121369199769106,577.8530527999974,577.9697870999807,577.8530527999974,577.9697870999807,577.953075700003,None,None,0,,577.953075700003,None,,,,,m,,pi,2022_Mar_24_1220,training+cueing,2021.1.4,59.95074446667667,
Stranger.png,Friend,Stranger,m,2.3,17,27,97,,,,,1,0,1,0,,,,,1,4,16,7,,,,,,,,,,,,,,,,,,,,,1.633,2.463,579.7585986999911,None,,,,,,,,,,,,,,,,,,,,580.2970749999804,580.8051974999835,0.5156143200001679,1.0158538200194016,580.7885106999893,580.9052326999954,580.7885106999893,580.9052326999954,580.888549299998,None,None,0,,580.888549299998,None,,,,,m,,pi,2022_Mar_24_1220,training+cueing,2021.1.4,59.95074446667667,
Stranger.png,Stranger,Stranger,c,3,13,23,93,,,,,1,0,1,0,,,,,1,5,17,11,,,,,,,,,,,,,,,,,,,,,1.727,1.879,582.6269401999889,None,,,,,,,,,,,,,,,,,,,,583.1693855999911,583.673947400006,0.5094757200276945,1.0097711200360209,583.6572660999955,583.7739902999892,583.6572660999955,583.7739902999892,583.7573066999903,None,c,1,1.0330654999997932,583.7573066999903,None,,,,,m,,pi,2022_Mar_24_1220,training+cueing,2021.1.4,59.95074446667667,
Self.png,Friend,Self ,m,2.1,16,26,96,,,,,1,0,1,0,,,,,1,6,18,1,,,,,,,,,,,,,,,,,,,,,1.543,1.343,584.9137373999984,None,,,,,,,,,,,,,,,,,,,,585.4521393000032,585.9589333999902,0.5115668200305663,1.011823920009192,585.9422655999952,586.0589693999791,585.9422655999952,586.0589693999791,586.0422459999972,None,m,1,1.3721248999936506,586.0422459999972,None,,,,,m,,pi,2022_Mar_24_1220,training+cueing,2021.1.4,59.95074446667667,
Friend.png,You,Friend,m,1.2,14,24,94,,,,,1,0,1,0,,,,,1,7,19,3,,,,,,,,,,,,,,,,,,,,,1.409,1.361,587.5496522999892,None,,,,,,,,,,,,,,,,,,,,588.0875822999806,588.5941752999788,0.5128967199707404,1.0131914199737366,588.5774721000053,588.6775414999865,588.5774721000053,588.6775414999865,588.6775414999865,None,m,1,0.8968954000156373,588.6775414999865,None,,,,,m,,pi,2022_Mar_24_1220,training+cueing,2021.1.4,59.95074446667667,
Self.png,Stranger,Self ,m,3.1,18,28,98,,,,,1,0,1,0,,,,,1,8,20,2,,,,,,,,,,,,,,,,,,,,,1.579,1.211,589.7011122999829,None,,,,,,,,,,,,,,,,,,,,590.2415692000068,590.7457326999865,0.5057930199836846,1.0059360199957155,590.7290942999825,590.8457865999953,590.7290942999825,590.8457865999953,590.8290578000015,None,m,1,1.4814497999905143,590.8290578000015,None,,,,,m,,pi,2022_Mar_24_1220,training+cueing,2021.1.4,59.95074446667667,
Stranger.png,Stranger,Stranger,c,3,13,23,93,,,,,1,0,1,0,,,,,1,9,21,8,,,,,,,,,,,,,,,,,,,,,1.69,1.552,592.4357887999795,None,,,,,,,,,,,,,,,,,,,,592.9746712000051,593.481057099998,0.5127172200300265,1.0129914200224448,593.464370200003,593.5810951000021,593.464370200003,593.5810951000021,593.5643651999999,None,c,1,1.0979896999779157,593.5643651999999,None,,,,,m,,pi,2022_Mar_24_1220,training+cueing,2021.1.4,59.95074446667667,
Friend.png,Stranger,Friend,m,3.2,19,29,99,,,,,1,0,1,0,,,,,1,10,22,5,,,,,,,,,,,,,,,,,,,,,1.767,1.905,594.7876909000042,None,,,,,,,,,,,,,,,,,,,,595.3241508000065,595.8327070999949,0.49997692002216354,1.000274520018138,595.7993795999791,595.8994318000041,595.7993795999791,595.8994318000041,595.8994318000041,None,m,1,1.002983399986988,595.8994318000041,None,,,,,m,,pi,2022_Mar_24_1220,training+cueing,2021.1.4,59.95074446667667,
Self.png,You,Self ,c,1,11,21,91,,,,,1,0,1,0,,,,,1,11,23,9,,,,,,,,,,,,,,,,,,,,,1.71,2.427,597.0397795999888,None,,,,,,,,,,,,,,,,,,,,597.5798141999985,598.0844339999894,0.5061128200031817,1.0069773200084455,598.067707499984,598.1677343999909,598.067707499984,598.1677343999909,598.1677343999909,None,c,1,0.7667418000055477,598.1677343999909,None,,,,,m,,pi,2022_Mar_24_1220,training+cueing,2021.1.4,59.95074446667667,
Friend.png,You,Friend,m,1.2,14,24,94,,,,,1,0,1,0,,,,,2,0,24,3,,,,,,,,,,,,,,,,,,,,,1.504,1.414,599.0592367000063,None,,,,,,,,,,,,,,,,,,,,599.5944541000063,600.102501699992,0.5150404199957848,1.0153875199903268,600.0857679999899,600.1858491000021,600.0857679999899,600.1858491000021,600.1858491000021,None,m,1,1.2605375999992248,600.1858491000021,None,,,,,m,,pi,2022_Mar_24_1220,training+cueing,2021.1.4,59.95074446667667,
Stranger.png,Stranger,Stranger,c,3,13,23,93,,,,,1,0,1,0,,,,,2,1,25,8,,,,,,,,,,,,,,,,,,,,,1.667,2.474,601.5758937000064,None,,,,,,,,,,,,,,,,,,,,602.1158527999942,602.6210105000064,0.5103074200451374,1.0105860200419556,602.604313399992,602.7211129000061,602.604313399992,602.7211129000061,602.7043394999928,None,c,1,0.9820341000158805,602.7043394999928,None,,,,,m,,pi,2022_Mar_24_1220,training+cueing,2021.1.4,59.95074446667667,
Stranger.png,Stranger,Stranger,c,3,13,23,93,,,,,1,0,1,0,,,,,2,2,26,11,,,,,,,,,,,,,,,,,,,,,1.402,1.509,603.8109127999924,None,,,,,,,,,,,,,,,,,,,,604.3499816999829,604.8559695000004,0.510554320004303,1.0108138200012036,604.8392723999859,604.9560013999871,604.8392723999859,604.9560013999871,604.9392851000011,None,c,1,0.7630665000178851,604.9392851000011,None,,,,,m,,pi,2022_Mar_24_1220,training+cueing,2021.1.4,59.95074446667667,
Self.png,You,Self ,c,1,11,21,91,,,,,1,0,1,0,,,,,2,3,27,0,,,,,,,,,,,,,,,,,,,,,1.591,2.143,605.8294079999905,None,,,,,,,,,,,,,,,,,,,,606.3679193999851,606.8740804999834,0.5114131199952681,1.0117254199867602,606.857394599996,606.9574343999848,606.857394599996,606.9574343999848,606.9574343999848,None,m,0,1.0011254000128247,606.9574343999848,None,,,,,m,,pi,2022_Mar_24_1220,training+cueing,2021.1.4,59.95074446667667,
Stranger.png,You,Stranger,m,1.3,15,25,95,,,,,1,0,1,0,,,,,2,4,28,6,,,,,,,,,,,,,,,,,,,,,1.531,1.781,608.0806583999947,None,,,,,,,,,,,,,,,,,,,,608.6199923999957,609.1257399999886,0.5099131200113334,1.0100754200248048,609.1091455999995,609.2090759999992,609.1091455999995,609.2090759999992,609.2090759999992,None,m,1,1.0373026999877766,609.2090759999992,None,,,,,m,,pi,2022_Mar_24_1220,training+cueing,2021.1.4,59.95074446667667,
Self.png,Stranger,Self ,m,3.1,18,28,98,,,,,1,0,1,0,,,,,2,5,29,2,,,,,,,,,,,,,,,,,,,,,1.522,1.483,610.3829203000059,None,,,,,,,,,,,,,,,,,,,,610.9232011999993,611.4273686999804,0.5087086199782789,1.009113919979427,611.4106949999987,611.5280068999855,611.4106949999987,611.5280068999855,611.5108603999834,None,m,1,0.8956409000093117,611.5108603999834,None,,,,,m,,pi,2022_Mar_24_1220,training+cueing,2021.1.4,59.95074446667667,
Friend.png,Friend,Friend,c,2,12,22,92,,,,,1,0,1,0,,,,,2,6,30,10,,,,,,,,,,,,,,,,,,,,,1.603,1.362,612.5343658000056,None,,,,,,,,,,,,,,,,,,,,613.0754251999897,613.5789250999806,0.5076723200036213,1.007970420003403,613.5622296999791,613.6789503000036,613.5622296999791,613.6789503000036,613.6622519999801,None,c,1,1.1602311999886297,613.6622519999801,None,,,,,m,,pi,2022_Mar_24_1220,training+cueing,2021.1.4,59.95074446667667,
Self.png,Friend,Self ,m,2.1,16,26,96,,,,,1,0,1,0,,,,,2,7,31,1,,,,,,,,,,,,,,,,,,,,,1.473,1.369,614.9529329999932,None,,,,,,,,,,,,,,,,,,,,615.4911772999913,615.9973492999852,0.5093726200284436,1.0096572200127412,615.9806754000019,616.0973990999919,615.9806754000019,616.0973990999919,616.0806851999951,None,m,1,0.8056954000203405,616.0806851999951,None,,,,,m,,pi,2022_Mar_24_1220,training+cueing,2021.1.4,59.95074446667667,
Friend.png,Stranger,Friend,m,3.2,19,29,99,,,,,1,0,1,0,,,,,2,8,32,5,,,,,,,,,,,,,,,,,,,,,1.681,2.337,617.0208132999833,None,,,,,,,,,,,,,,,,,,,,617.5608736999857,618.0654972000048,0.5088752199953888,1.0097993199888151,618.0488151999889,618.1655439999886,618.0488151999889,618.1655439999886,618.1488530999923,None,m,1,1.5856979999807663,618.1488530999923,None,,,,,m,,pi,2022_Mar_24_1220,training+cueing,2021.1.4,59.95074446667667,
Self.png,You,Self ,c,1,11,21,91,,,,,1,0,1,0,,,,,2,9,33,9,,,,,,,,,,,,,,,,,,,,,1.436,2.36,619.857883699995,None,,,,,,,,,,,,,,,,,,,,620.3961469999922,620.9009330999979,0.5081759199965745,1.0084822200005874,620.8842283999838,620.9842557999946,620.8842283999838,620.9842557999946,620.9842557999946,None,c,1,0.8784789000055753,620.9842557999946,None,,,,,m,,pi,2022_Mar_24_1220,training+cueing,2021.1.4,59.95074446667667,
Stranger.png,Friend,Stranger,m,2.3,17,27,97,,,,,1,0,1,0,,,,,2,10,34,7,,,,,,,,,,,,,,,,,,,,,1.768,1.511,621.995139799983,None,,,,,,,,,,,,,,,,,,,,622.530744299991,623.035770699993,0.5083831200026907,1.0086232199973892,623.0191013999865,623.1357990999823,623.0191013999865,623.1357990999823,623.1191076999821,None,m,1,1.0312545000051614,623.1191076999821,None,,,,,m,,pi,2022_Mar_24_1220,training+cueing,2021.1.4,59.95074446667667,
Friend.png,Friend,Friend,c,2,12,22,92,,,,,1,0,1,0,,,,,2,11,35,4,,,,,,,,,,,,,,,,,,,,,1.779,1.644,624.276292399998,None,,,,,,,,,,,,,,,,,,,,624.8147156999912,625.3207631999976,0.5109411199809983,1.0112047199800145,625.304104699986,625.4208061999816,625.304104699986,625.4208061999816,625.404111699987,None,c,1,1.2263416000059806,625.404111699987,None,,,,,m,,pi,2022_Mar_24_1220,training+cueing,2021.1.4,59.95074446667667,
Stranger.png,Stranger,Stranger,c,3,13,23,93,,,,,1,0,1,0,,,,,3,0,36,11,,,,,,,,,,,,,,,,,,,,,1.569,1.673,626.761025499989,None,,,,,,,,,,,,,,,,,,,,627.3020047000027,627.8059462999809,0.505507320020115,1.0057672200200614,627.7892399999837,627.9059375999786,627.7892399999837,627.9059375999786,627.8892182999989,None,m,0,1.317162699997425,627.8892182999989,None,,,,,m,,pi,2022_Mar_24_1220,training+cueing,2021.1.4,59.95074446667667,
Self.png,You,Self ,c,1,11,21,91,,,,,1,0,1,0,,,,,3,1,37,0,,,,,,,,,,,,,,,,,,,,,1.739,2.489,629.3299522000016,None,,,,,,,,,,,,,,,,,,,,629.8699379999889,630.3743945999886,0.508698120014742,1.0090092199970968,630.3577289999812,630.4577806000016,630.3577289999812,630.4577806000016,630.4577806000016,None,c,1,0.7646038999955636,630.4577806000016,None,,,,,m,,pi,2022_Mar_24_1220,training+cueing,2021.1.4,59.95074446667667,
Stranger.png,Friend,Stranger,m,2.3,17,27,97,,,,,1,0,1,0,,,,,3,2,38,7,,,,,,,,,,,,,,,,,,,,,1.544,1.204,631.3480185999942,None,,,,,,,,,,,,,,,,,,,,631.8869132999971,632.3925735999946,0.5102226200397126,1.0104864200402517,632.3758818999922,632.4926037999976,632.3758818999922,632.4926037999976,632.4758738999953,None,m,1,1.0026215999969281,632.4758738999953,None,,,,,m,,pi,2022_Mar_24_1220,training+cueing,2021.1.4,59.95074446667667,
Self.png,You,Self ,c,1,11,21,91,,,,,1,0,1,0,,,,,3,3,39,9,,,,,,,,,,,,,,,,,,,,,1.479,1.594,633.6162394999992,None,,,,,,,,,,,,,,,,,,,,634.1558244999906,634.6608134999988,0.5078247199999169,1.0078044199908618,634.6443872999807,634.7443578999955,634.6443872999807,634.7443578999955,634.7443578999955,None,c,1,0.8940632000158075,634.7443578999955,None,,,,,m,,pi,2022_Mar_24_1220,training+cueing,2021.1.4,59.95074446667667,
Friend.png,Friend,Friend,c,2,12,22,92,,,,,1,0,1,0,,,,,3,4,40,4,,,,,,,,,,,,,,,,,,,,,1.49,2.229,635.7674039999838,None,,,,,,,,,,,,,,,,,,,,636.306556800002,636.8124288999825,0.5119047199841589,1.0121956199873239,636.7957236999937,636.9124561999924,636.7957236999937,636.9124561999924,636.8957591999788,None,None,0,,636.8957591999788,None,,,,,m,,pi,2022_Mar_24_1220,training+cueing,2021.1.4,59.95074446667667,
Friend.png,Friend,Friend,c,2,12,22,92,,,,,1,0,1,0,,,,,3,5,41,10,,,,,,,,,,,,,,,,,,,,,1.783,2.097,638.5008657999861,None,,,,,,,,,,,,,,,,,,,,639.0395224999811,639.5476839999901,0.4999143200402614,1.000224920018809,639.5143552999943,639.6144221999857,639.5143552999943,639.6144221999857,639.6144221999857,None,c,1,0.6319812000147067,639.6144221999857,None,,,,,m,,pi,2022_Mar_24_1220,training+cueing,2021.1.4,59.95074446667667,
Friend.png,You,Friend,m,1.2,14,24,94,,,,,1,0,1,0,,,,,3,6,42,3,,,,,,,,,,,,,,,,,,,,,1.625,2.15,640.3707243999816,None,,,,,,,,,,,,,,,,,,,,640.9412434999831,641.4490983999858,0.5042831599712372,1.0045820599771105,641.4324184999859,641.5324657000019,641.4324184999859,641.5324657000019,641.5324657000019,None,m,1,0.6979042000020854,641.5324657000019,None,,,,,m,,pi,2022_Mar_24_1220,training+cueing,2021.1.4,59.95074446667667,
Stranger.png,Stranger,Stranger,c,3,13,23,93,,,,,1,0,1,0,,,,,3,7,43,8,,,,,,,,,,,,,,,,,,,,,1.63,1.712,642.3558940999792,None,,,,,,,,,,,,,,,,,,,,642.8992807999894,643.4005361000018,0.5033026199962478,1.0035478200006764,643.3838517999975,643.5005664000055,643.3838517999975,643.5005664000055,643.4838512999995,None,m,0,1.0185713000246324,643.4838512999995,None,,,,,m,,pi,2022_Mar_24_1220,training+cueing,2021.1.4,59.95074446667667,
Friend.png,Stranger,Friend,m,3.2,19,29,99,,,,,1,0,1,0,,,,,3,8,44,5,,,,,,,,,,,,,,,,,,,,,1.578,2.469,644.6242638999829,None,,,,,,,,,,,,,,,,,,,,645.1606506999815,645.6687951000058,0.5136088200088125,1.0139310199883766,645.6521406999964,645.7688833999855,645.6521406999964,645.7688833999855,645.7521613999852,None,m,1,1.2303076999960467,645.7521613999852,None,,,,,m,,pi,2022_Mar_24_1220,training+cueing,2021.1.4,59.95074446667667,
Self.png,Friend,Self ,m,2.1,16,26,96,,,,,1,0,1,0,,,,,3,9,45,1,,,,,,,,,,,,,,,,,,,,,1.746,2.328,647.1103550999833,None,,,,,,,,,,,,,,,,,,,,647.6547288000002,648.1539436999883,0.5137524199963082,1.014125919988146,648.1539436999883,648.2539953999803,648.1539436999883,648.2539953999803,648.2539953999803,None,m,1,1.0323752999829594,648.2539953999803,None,,,,,m,,pi,2022_Mar_24_1220,training+cueing,2021.1.4,59.95074446667667,
Self.png,Stranger,Self ,m,3.1,18,28,98,,,,,1,0,1,0,,,,,3,10,46,2,,,,,,,,,,,,,,,,,,,,,1.744,1.298,649.4106805000047,None,,,,,,,,,,,,,,,,,,,,649.9539514000062,650.4556284999999,0.503634319989942,1.0039453200006392,650.4389326999953,650.5556314999994,650.4389326999953,650.5556314999994,650.538999499986,None,m,1,0.9874617999885231,650.538999499986,None,,,,,m,,pi,2022_Mar_24_1220,training+cueing,2021.1.4,59.95074446667667,
Stranger.png,You,Stranger,m,1.3,15,25,95,,,,,1,0,1,0,,,,,3,11,47,6,,,,,,,,,,,,,,,,,,,,,1.799,1.547,651.6624012999819,None,,,,,,,,,,,,,,,,,,,,652.2002834999876,652.7072897999897,0.51099642002373,1.0112027200229932,652.6906278999813,652.7906392999867,652.6906278999813,652.7906392999867,652.7906392999867,None,m,1,1.327870500012068,652.7906392999867,None,,,,,m,,pi,2022_Mar_24_1220,training+cueing,2021.1.4,59.95074446667667,
Friend.png,Stranger,Friend,m,3.2,19,29,99,,,,,1,0,1,0,,,,,4,0,48,5,,,,,,,,,,,,,,,,,,,,,1.641,2.452,654.2468373999873,None,,,,,,,,,,,,,,,,,,,,654.7902115999896,655.2924335999996,0.5019271199998911,1.0021925199835096,655.2757887000043,655.3924864,655.2757887000043,655.3924864,655.3758072000055,None,m,1,0.9026005000050645,655.3758072000055,None,,,,,m,,pi,2022_Mar_24_1220,training+cueing,2021.1.4,59.95074446667667,
Stranger.png,Stranger,Stranger,c,3,13,23,93,,,,,1,0,1,0,,,,,4,1,49,8,,,,,,,,,,,,,,,,,,,,,1.66,2.339,656.415729100001,None,,,,,,,,,,,,,,,,,,,,656.9548855999892,657.4607010000036,0.5111957199987955,1.0114687200111803,657.4440175000054,657.5607536000025,657.4440175000054,657.5607536000025,657.5440269999963,None,m,0,1.1503612000087742,657.5440269999963,None,,,,,m,,pi,2022_Mar_24_1220,training+cueing,2021.1.4,59.95074446667667,
Friend.png,You,Friend,m,1.2,14,24,94,,,,,1,0,1,0,,,,,4,2,50,3,,,,,,,,,,,,,,,,,,,,,1.76,2.166,658.8178605999856,None,,,,,,,,,,,,,,,,,,,,659.3571383999952,659.8624718999781,0.5091151199885644,1.0093575200007763,659.8457931999874,659.9457873999781,659.8457931999874,659.9457873999781,659.9457873999781,None,m,1,1.1007927999889944,659.9457873999781,None,,,,,m,,pi,2022_Mar_24_1220,training+cueing,2021.1.4,59.95074446667667,
Self.png,You,Self ,c,1,11,21,91,,,,,1,0,1,0,,,,,4,3,51,9,,,,,,,,,,,,,,,,,,,,,1.645,1.716,661.1699493000051,None,,,,,,,,,,,,,,,,,,,,661.7059406999906,662.2141241999925,0.49995701998705044,1.000239219982177,662.1807728999993,662.2808554999938,662.1807728999993,662.2808554999938,662.2808554999938,None,c,1,0.6535881999880075,662.2808554999938,None,,,,,m,,pi,2022_Mar_24_1220,training+cueing,2021.1.4,59.95074446667667,
Self.png,Friend,Self ,m,2.1,16,26,96,,,,,1,0,1,0,,,,,4,4,52,1,,,,,,,,,,,,,,,,,,,,,1.662,1.461,663.0710247999814,None,,,,,,,,,,,,,,,,,,,,663.6113596000068,664.1155475999985,0.5067313199688215,1.0076821199909318,664.0988254999975,664.2156428000017,664.0988254999975,664.2156428000017,664.1988672000007,None,m,1,1.087559899984626,664.1988672000007,None,,,,,m,,pi,2022_Mar_24_1220,training+cueing,2021.1.4,59.95074446667667,
Self.png,Stranger,Self ,m,3.1,18,28,98,,,,,1,0,1,0,,,,,4,5,53,2,,,,,,,,,,,,,,,,,,,,,1.486,2.236,665.423015599983,None,,,,,,,,,,,,,,,,,,,,665.9630609999876,666.4672262999811,0.5077772199874744,1.0080626199778635,666.4505347999802,666.5672822000051,666.4505347999802,666.5672822000051,666.5505262999795,None,None,0,,666.5505262999795,None,,,,,m,,pi,2022_Mar_24_1220,training+cueing,2021.1.4,59.95074446667667,
Self.png,You,Self ,c,1,11,21,91,,,,,1,0,1,0,,,,,4,6,54,0,,,,,,,,,,,,,,,,,,,,,1.605,1.891,668.1561945999856,None,,,,,,,,,,,,,,,,,,,,668.6973735999782,669.202507799986,0.5106613199750427,1.0109978199761827,669.185805999994,669.2858875999809,669.185805999994,669.2858875999809,669.2858875999809,None,c,1,0.7365404000156559,669.2858875999809,None,,,,,m,,pi,2022_Mar_24_1220,training+cueing,2021.1.4,59.95074446667667,
Friend.png,Friend,Friend,c,2,12,22,92,,,,,1,0,1,0,,,,,4,7,55,10,,,,,,,,,,,,,,,,,,,,,1.626,1.764,670.1594734999817,None,,,,,,,,,,,,,,,,,,,,670.6999150000047,671.2039774000004,0.5057459200324956,1.0059933200245723,671.1873483999807,671.3040080000064,671.1873483999807,671.3040080000064,671.2873283999797,None,c,1,0.8794268000056036,671.2873283999797,None,,,,,m,,pi,2022_Mar_24_1220,training+cueing,2021.1.4,59.95074446667667,
Friend.png,Friend,Friend,c,2,12,22,92,,,,,1,0,1,0,,,,,4,8,56,4,,,,,,,,,,,,,,,,,,,,,1.688,2.213,672.2982213000068,None,,,,,,,,,,,,,,,,,,,,672.8326956999954,673.3388341999962,0.5126370200305246,1.0129352200310677,673.3221866999811,673.4389039999805,673.3221866999811,673.4389039999805,673.4222272000043,None,c,1,0.6481200999987777,673.4222272000043,None,,,,,m,,pi,2022_Mar_24_1220,training+cueing,2021.1.4,59.95074446667667,
Stranger.png,You,Stranger,m,1.3,15,25,95,,,,,1,0,1,0,,,,,4,9,57,6,,,,,,,,,,,,,,,,,,,,,1.453,1.981,674.1956809999829,None,,,,,,,,,,,,,,,,,,,,674.7963307999889,675.3071072000021,0.5056027400132734,1.0057343400258105,675.2904374999925,675.3904553999892,675.2904374999925,675.3904553999892,675.3904553999892,None,m,1,0.9840898000111338,675.3904553999892,None,,,,,m,,pi,2022_Mar_24_1220,training+cueing,2021.1.4,59.95074446667667,
Stranger.png,Friend,Stranger,m,2.3,17,27,97,,,,,1,0,1,0,,,,,4,10,58,7,,,,,,,,,,,,,,,,,,,,,1.75,1.703,676.497288899991,None,,,,,,,,,,,,,,,,,,,,677.0545796999941,677.5585709000006,0.5067332600010559,1.0070562599867117,677.5418751999969,677.6586227999942,677.5418751999969,677.6586227999942,677.6418898999982,None,None,0,,677.6418898999982,None,,,,,m,,pi,2022_Mar_24_1220,training+cueing,2021.1.4,59.95074446667667,
Stranger.png,Stranger,Stranger,c,3,13,23,93,,,,,1,0,1,0,,,,,4,11,59,11,,,,,,,,,,,,,,,,,,,,,1.561,1.291,679.4973226999864,None,,,,,,,,,,,,,,,,,,,,680.0415044999972,680.5440823999816,0.5041949199803639,1.0045316199830268,680.5274351999979,680.6441308000067,680.5274351999979,680.6441308000067,680.6274128999794,None,c,1,1.3470888000156265,680.6274128999794,None,,,,,m,,pi,2022_Mar_24_1220,training+cueing,2021.1.4,59.95074446667667,
Stranger.png,Stranger,Stranger,c,3,13,23,93,,,,,1,0,1,0,,,,,5,0,60,11,,,,,,,,,,,,,,,,,,,,,1.794,2.493,682.1014636000036,None,,,,,,,,,,,,,,,,,,,,682.637919300003,683.1459019999893,0.5142772200051695,1.014592920022551,683.1294409999973,683.2461513000017,683.1294409999973,683.2461513000017,683.2294075999816,None,c,1,0.5850952000182588,683.2294075999816,None,,,,,m,,pi,2022_Mar_24_1220,training+cueing,2021.1.4,59.95074446667667,
Self.png,You,Self ,c,1,11,21,91,,,,,1,0,1,0,,,,,5,1,61,9,,,,,,,,,,,,,,,,,,,,,1.529,1.902,683.9360541999922,None,,,,,,,,,,,,,,,,,,,,684.4760281000054,684.9806412000034,0.5095420200086664,1.0098271199967712,684.9639329999918,685.0639708999952,684.9639329999918,685.0639708999952,685.0639708999952,None,c,1,0.7983645999920554,685.0639708999952,None,,,,,m,,pi,2022_Mar_24_1220,training+cueing,2021.1.4,59.95074446667667,
Friend.png,Stranger,Friend,m,3.2,19,29,99,,,,,1,0,1,0,,,,,5,2,62,5,,,,,,,,,,,,,,,,,,,,,1.755,1.243,685.9881499999901,None,,,,,,,,,,,,,,,,,,,,686.5268767999951,687.0321262999787,0.5099216199887451,1.0102414200082421,687.0154184999992,687.1321462999913,687.0154184999992,687.1321462999913,687.1154060999979,None,m,1,1.0029480000084732,687.1154060999979,None,,,,,m,,pi,2022_Mar_24_1220,training+cueing,2021.1.4,59.95074446667667,
Friend.png,Friend,Friend,c,2,12,22,92,,,,,1,0,1,0,,,,,5,3,63,10,,,,,,,,,,,,,,,,,,,,,1.581,1.693,688.2557539999834,None,,,,,,,,,,,,,,,,,,,,688.7932382999861,689.3003827999928,0.5115326200029813,1.0116535200213548,689.283817699994,689.4004425999883,689.283817699994,689.4004425999883,689.3837795,None,m,0,0.9746741999988444,689.3837795,None,,,,,m,,pi,2022_Mar_24_1220,training+cueing,2021.1.4,59.95074446667667,
Self.png,Stranger,Self ,m,3.1,18,28,98,,,,,1,0,1,0,,,,,5,4,64,2,,,,,,,,,,,,,,,,,,,,,1.733,1.53,690.491065499984,None,,,,,,,,,,,,,,,,,,,,691.0323314999987,691.5353713999793,0.5053838200110476,1.0056557200150564,691.5186869000026,691.6353959999979,691.5186869000026,691.6353959999979,691.6187228999916,None,m,1,1.5237014000013005,691.6187228999916,None,,,,,m,,pi,2022_Mar_24_1220,training+cueing,2021.1.4,59.95074446667667,
Friend.png,Friend,Friend,c,2,12,22,92,,,,,1,0,1,0,,,,,5,5,65,4,,,,,,,,,,,,,,,,,,,,,1.643,1.588,693.2763624000072,None,,,,,,,,,,,,,,,,,,,,693.8169766999781,694.3207255000016,0.5066896200005431,1.0069758199970238,694.30403509998,694.4208060999808,694.30403509998,694.4208060999808,694.4040396999917,None,m,0,0.850341599987587,694.4040396999917,None,,,,,m,,pi,2022_Mar_24_1220,training+cueing,2021.1.4,59.95074446667667,
Self.png,Friend,Self ,m,2.1,16,26,96,,,,,1,0,1,0,,,,,5,6,66,1,,,,,,,,,,,,,,,,,,,,,1.611,1.636,695.3779071999888,None,,,,,,,,,,,,,,,,,,,,695.9282494999934,696.4389078999811,0.5023885199916549,1.0027051199867856,696.4222060999891,696.5389552999986,696.4222060999891,696.5389552999986,696.5222587999888,None,m,1,0.7961830999993253,696.5222587999888,None,,,,,m,,pi,2022_Mar_24_1220,training+cueing,2021.1.4,59.95074446667667,
Self.png,You,Self ,c,1,11,21,91,,,,,1,0,1,0,,,,,5,7,67,0,,,,,,,,,,,,,,,,,,,,,1.445,1.608,697.4459130000032,None,,,,,,,,,,,,,,,,,,,,697.9862520000024,698.4903939999931,0.5074385199986864,1.0077019199961796,698.4737217999937,698.5737342999782,698.4737217999937,698.5737342999782,698.5737342999782,None,c,1,0.8086605999851599,698.5737342999782,None,,,,,m,,pi,2022_Mar_24_1220,training+cueing,2021.1.4,59.95074446667667,
Stranger.png,You,Stranger,m,1.3,15,25,95,,,,,1,0,1,0,,,,,5,8,68,6,,,,,,,,,,,,,,,,,,,,,1.7,1.269,699.513647099986,None,,,,,,,,,,,,,,,,,,,,700.0495040999958,700.5585477999994,0.499839919997612,1.0001428199757356,700.5251617000031,700.6252438999945,700.5251617000031,700.6252438999945,700.6252438999945,None,m,1,0.6612356000114232,700.6252438999945,None,,,,,m,,pi,2022_Mar_24_1220,training+cueing,2021.1.4,59.95074446667667,
Stranger.png,Stranger,Stranger,c,3,13,23,93,,,,,1,0,1,0,,,,,5,9,69,8,,,,,,,,,,,,,,,,,,,,,1.736,2.44,701.4157436999958,None,,,,,,,,,,,,,,,,,,,,701.9565962000052,702.4599252000044,0.5071647200093139,1.007505220011808,702.4432405999978,702.5600656000024,702.4432405999978,702.5600656000024,702.5432629999996,None,c,1,0.9671303000068292,702.5432629999996,None,,,,,m,,pi,2022_Mar_24_1220,training+cueing,2021.1.4,59.95074446667667,
Friend.png,You,Friend,m,1.2,14,24,94,,,,,1,0,1,0,,,,,5,10,70,3,,,,,,,,,,,,,,,,,,,,,1.537,1.549,703.633998699981,None,,,,,,,,,,,,,,,,,,,,704.1718153999827,704.678204900003,0.5132551199931186,1.0135520199837629,704.6615208000003,704.7615683999902,704.6615208000003,704.7615683999902,704.7615683999902,None,m,1,1.0209196000068914,704.7615683999902,None,,,,,m,,pi,2022_Mar_24_1220,training+cueing,2021.1.4,59.95074446667667,
Stranger.png,Friend,Stranger,m,2.3,17,27,97,,,,,1,0,1,0,,,,,5,11,71,7,,,,,,,,,,,,,,,,,,,,,1.602,1.532,705.9187287999957,None,,,,,,,,,,,,,,,,,,,,706.4757595999981,706.9799008999835,0.5060653599502984,1.0063207599450834,706.9632131999824,707.0799296000041,706.9632131999824,707.0799296000041,707.0631989999965,None,m,1,1.4712471999810077,707.0631989999965,None,,,,,m,,pi,2022_Mar_24_1220,training+cueing,2021.1.4,59.95074446667667,
Self.png,Friend,Self ,m,2.1,16,26,96,,,,,1,0,1,0,,,,,6,0,72,1,,,,,,,,,,,,,,,,,,,,,1.645,2.305,708.6706515999977,None,,,,,,,,,,,,,,,,,,,,709.2090261999983,709.7151538000035,0.5112141199933831,1.0114712200011127,709.6985404999868,709.8151935999922,709.6985404999868,709.8151935999922,709.7985385999782,None,m,1,1.0080652000033297,709.7985385999782,None,,,,,m,,pi,2022_Mar_24_1220,training+cueing,2021.1.4,59.95074446667667,
Self.png,Stranger,Self ,m,3.1,18,28,98,,,,,1,0,1,0,,,,,6,1,73,2,,,,,,,,,,,,,,,,,,,,,1.404,2.482,710.9390598000027,None,,,,,,,,,,,,,,,,,,,,711.4882973000058,712.000230399979,0.5059223199787084,1.0061692199960817,711.9835221999965,712.1002327000024,711.9835221999965,712.1002327000024,712.0835252999968,None,m,1,1.010997800010955,712.0835252999968,None,,,,,m,,pi,2022_Mar_24_1220,training+cueing,2021.1.4,59.95074446667667,
Stranger.png,Stranger,Stranger,c,3,13,23,93,,,,,1,0,1,0,,,,,6,2,74,11,,,,,,,,,,,,,,,,,,,,,1.56,2.345,713.2238797000027,None,,,,,,,,,,,,,,,,,,,,713.7764555999893,714.2851770999841,0.515056559961522,1.015566759975627,714.2684863999893,714.3851986999798,714.2684863999893,714.3851986999798,714.3685139000008,None,c,1,0.6140426000056323,714.3685139000008,None,,,,,m,,pi,2022_Mar_24_1220,training+cueing,2021.1.4,59.95074446667667,
Friend.png,Friend,Friend,c,2,12,22,92,,,,,1,0,1,0,,,,,6,3,75,4,,,,,,,,,,,,,,,,,,,,,1.621,1.391,715.1085343000013,None,,,,,,,,,,,,,,,,,,,,715.6490729999787,716.1532089999819,0.5074398200085852,1.0077061199990567,716.1365597999829,716.2532306999783,716.1365597999829,716.2532306999783,716.2365466000047,None,None,0,,716.2365466000047,None,,,,,m,,pi,2022_Mar_24_1220,training+cueing,2021.1.4,59.95074446667667,
Friend.png,You,Friend,m,1.2,14,24,94,,,,,1,0,1,0,,,,,6,4,76,3,,,,,,,,,,,,,,,,,,,,,1.578,1.781,717.9755972999847,None,,,,,,,,,,,,,,,,,,,,718.5177904999873,719.0219306999934,0.5066427199635655,1.0069297199661378,719.0052600000054,719.1053095999814,719.0052600000054,719.1053095999814,719.1053095999814,None,m,1,1.0931987000221852,719.1053095999814,None,,,,,m,,pi,2022_Mar_24_1220,training+cueing,2021.1.4,59.95074446667667,
Friend.png,Stranger,Friend,m,3.2,19,29,99,,,,,1,0,1,0,,,,,6,5,77,5,,,,,,,,,,,,,,,,,,,,,1.485,1.76,720.3295348999964,None,,,,,,,,,,,,,,,,,,,,720.8684654999815,721.3736233999953,0.5095326199952979,1.0098127200035378,721.3569567999803,721.4736572999973,721.3569567999803,721.4736572999973,721.4569587000005,None,c,0,1.1094618000206538,721.4569587000005,None,,,,,m,,pi,2022_Mar_24_1220,training+cueing,2021.1.4,59.95074446667667,
Stranger.png,Stranger,Stranger,c,3,13,23,93,,,,,1,0,1,0,,,,,6,6,78,8,,,,,,,,,,,,,,,,,,,,,1.5,2.359,722.6968514999899,None,,,,,,,,,,,,,,,,,,,,723.2449807999947,723.7586891999817,0.5106718199676834,1.010930719989119,723.741990199982,723.8587514999963,723.741990199982,723.8587514999963,723.8420340000011,None,c,1,0.7244545000139624,723.8420340000011,None,,,,,m,,pi,2022_Mar_24_1220,training+cueing,2021.1.4,59.95074446667667,
Stranger.png,Friend,Stranger,m,2.3,17,27,97,,,,,1,0,1,0,,,,,6,7,79,7,,,,,,,,,,,,,,,,,,,,,1.481,1.21,724.6985240999784,None,,,,,,,,,,,,,,,,,,,,725.2372912999999,725.7434454000031,0.5095116200100165,1.0097952200158034,725.7267741999822,725.8435516000027,725.7267741999822,725.8435516000027,725.8274434999912,None,m,1,0.7229556000092998,725.8274434999912,None,,,,,m,,pi,2022_Mar_24_1220,training+cueing,2021.1.4,59.95074446667667,
Friend.png,Friend,Friend,c,2,12,22,92,,,,,1,0,1,0,,,,,6,8,80,10,,,,,,,,,,,,,,,,,,,,,1.529,2.035,726.683047700004,None,,,,,,,,,,,,,,,,,,,,727.2223146999895,727.7282385999861,0.5115239200240467,1.0118036200292408,727.7115581999824,727.8282973000023,727.7115581999824,727.8282973000023,727.8115853999916,None,m,0,0.9949086000269745,727.8115853999916,None,,,,,m,,pi,2022_Mar_24_1220,training+cueing,2021.1.4,59.95074446667667,
Self.png,You,Self ,c,1,11,21,91,,,,,1,0,1,0,,,,,6,9,81,0,,,,,,,,,,,,,,,,,,,,,1.467,1.406,728.9346870000008,None,,,,,,,,,,,,,,,,,,,,729.4747058999783,729.979800400004,0.5106071199988946,1.0108137200004421,729.9632270000002,730.0632582999824,729.9632270000002,730.0632582999824,730.0632582999824,None,c,1,0.9831069000065327,730.0632582999824,None,,,,,m,,pi,2022_Mar_24_1220,training+cueing,2021.1.4,59.95074446667667,
Self.png,You,Self ,c,1,11,21,91,,,,,1,0,1,0,,,,,6,10,82,9,,,,,,,,,,,,,,,,,,,,,1.544,2.495,731.1703502000018,None,,,,,,,,,,,,,,,,,,,,731.7050935000007,732.2147986000055,0.5004178800154477,1.0007951800362207,732.1981223000039,732.2981628999987,732.1981223000039,732.2981628999987,732.2981628999987,None,c,1,0.8762805000005756,732.2981628999987,None,,,,,m,,pi,2022_Mar_24_1220,training+cueing,2021.1.4,59.95074446667667,
Stranger.png,You,Stranger,m,1.3,15,25,95,,,,,1,0,1,0,,,,,6,11,83,6,,,,,,,,,,,,,,,,,,,,,1.711,1.543,733.3046768000058,None,,,,,,,,,,,,,,,,,,,,733.8435312999936,734.3496886999928,0.5116701199731324,1.0119246199610643,734.3330177000025,734.4330703000014,734.3330177000025,734.4330703000014,734.4330703000014,None,c,0,0.7094529999885708,734.4330703000014,None,,,,,m,,pi,2022_Mar_24_1220,training+cueing,2021.1.4,59.95074446667667,
Self.png,Stranger,Self ,m,3.1,18,28,98,,,,,1,0,1,0,,,,,7,0,84,2,,,,,,,,,,,,,,,,,,,,,1.566,1.582,735.2733383000013,None,,,,,,,,,,,,,,,,,,,,735.8106206999801,736.3177688999858,0.5108727200422436,1.0111874200229067,736.3010838000046,736.4178307999973,736.3010838000046,736.4178307999973,736.4011026999797,None,c,0,0.6453643999993801,736.4011026999797,None,,,,,m,,pi,2022_Mar_24_1220,training+cueing,2021.1.4,59.95074446667667,
Self.png,Friend,Self ,m,2.1,16,26,96,,,,,1,0,1,0,,,,,7,1,85,1,,,,,,,,,,,,,,,,,,,,,1.706,2.415,737.1741518999916,None,,,,,,,,,,,,,,,,,,,,737.7143836999894,738.2191675000067,0.5098748200107366,1.0101945200003684,738.2024695999862,738.3192115999991,738.2024695999862,738.3192115999991,738.3024800999847,None,None,0,,738.3024800999847,None,,,,,m,,pi,2022_Mar_24_1220,training+cueing,2021.1.4,59.95074446667667,
