Image,Name,Face,CorrAns,Match,Face_onset,CResponse_onset,IResponse_onset,Match.thisRepN,Match.thisTrialN,Match.thisN,Match.thisIndex,Blocks.thisRepN,Blocks.thisTrialN,Blocks.thisN,Blocks.thisIndex,trials.thisRepN,trials.thisTrialN,trials.thisN,trials.thisIndex,trials_2.thisRepN,trials_2.thisTrialN,trials_2.thisN,trials_2.thisIndex,text.started,text.stopped,p1.started,p1.stopped,MatchInstructions.started,MatchInstructions.stopped,Name1.started,Name1.stopped,Face_Relevance.started,Face_Relevance.stopped,MismatchInstructions.started,MismatchInstructions.stopped,Rest_trainingInstruct.started,Rest_trainingInstruct.stopped,next8.keys,next8.rt,next8.started,next8.stopped,Ready.started,Ready.stopped,delay_one_picked,delay_two_picked,blank0.started,blank0.stopped,FixationCross1.started,FixationCross1.stopped,Name3.started,Name3.stopped,Face_Relevance3.started,Face_Relevance3.stopped,responseTime.started,responseTime.stopped,resp.keys,resp.corr,resp.started,resp.stopped,Accuracy.started,Accuracy.stopped,resp.rt,questions.started,questions.stopped,p2.started,p2.stopped,FixationCross3.started,FixationCross3.stopped,port_Face_onset.started,port_Face_onset.stopped,Name4.started,Name4.stopped,Face_Relevance4.started,Face_Relevance4.stopped,responseTime2.started,responseTime2.stopped,Response.keys,Response.corr,Response.rt,Response.started,Response.stopped,p3.started,p3.stopped,Finish.started,Finish.stopped,gender,age,participant,date,expName,psychopyVersion,frameRate,
Friend.png,Friend,,,,,,,0,0,0,1,,,,,,,,,,,,,16.39395160001004,None,0.00818792002974078,0.5321967200143263,25.758382999978494,None,41.92088180000428,None,41.92088180000428,None,,,,,,,,,,,,,,,,,,,,,,,,,,,,,,,,,,,,,,,,,,,,,,,,,,,,,m,,pk,2022_Mar_25_1152,training+cueing,2021.1.4,59.937161889426946,
Self.png,You,,,,,,,0,1,1,0,,,,,,,,,,,,,,,,,,,61.82244159997208,None,61.82244159997208,None,,,,,,,,,,,,,,,,,,,,,,,,,,,,,,,,,,,,,,,,,,,,,,,,,,,,,m,,pk,2022_Mar_25_1152,training+cueing,2021.1.4,59.937161889426946,
Stranger.png,Stranger,,,,,,,0,2,2,2,,,,,,,,,,,,,,,,,,,81.80583550001029,None,81.80583550001029,None,,,,,,,,,,,,,,,,,,,,,,,,,,,,,,,,,,,,,,,,,,,,,,,,,,,,,m,,pk,2022_Mar_25_1152,training+cueing,2021.1.4,59.937161889426946,
Self.png,You,Self ,c,1,11,21,91,,,,,0,0,0,0,0,0,0,9,,,,,,,,,,,,,,,101.76679520000471,None,134.84084919997258,None,space,16.270297700015362,2.0082167200162075,None,153.12080919998698,None,1.625,1.848,156.13812630000757,None,156.76043490000302,157.2735582999885,157.25683979998576,157.35687969997525,157.25683979998576,157.35687969997525,157.35687969997525,None,None,0,157.35687969997525,None,159.00809489999665,None,,,,,,,,,,,,,,,,,,,,,,,,,m,,pk,2022_Mar_25_1152,training+cueing,2021.1.4,59.937161889426946,
Friend.png,Stranger,Friend,m,3.2,19,29,99,,,,,0,0,0,0,0,1,1,5,,,,,,,,,,,,,,,,,,,,,,,,,1.513,1.909,159.4086646999931,None,159.94765649997862,160.45919089997187,160.44249569997191,160.55953039997257,160.44249569997191,160.55953039997257,160.54246909997892,None,m,1,160.54246909997892,None,160.87437579996185,None,0.31330789998173714,,,,,,,,,,,,,,,,,,,,,,,,m,,pk,2022_Mar_25_1152,training+cueing,2021.1.4,59.937161889426946,
Stranger.png,Stranger,Stranger,c,3,13,23,93,,,,,0,0,0,0,0,2,2,11,,,,,,,,,,,,,,,,,,,,,,,,,1.683,1.782,161.27667849999852,None,161.81117629999062,162.31077589996858,162.31077589996858,162.41078689997084,162.31077589996858,162.41078689997084,162.41078689997084,None,m,0,162.41078689997084,None,163.01490179996472,None,0.5730737000121735,,,,,,,,,,,,,,,,,,,,,,,,m,,pk,2022_Mar_25_1152,training+cueing,2021.1.4,59.937161889426946,
Friend.png,Friend,Friend,c,2,12,22,92,,,,,0,0,0,0,0,3,3,4,,,,,,,,,,,,,,,,,,,,,,,,,1.503,2.13,163.4282738000038,None,163.96528319997014,164.47869969997555,164.46208399999887,164.57902010000544,164.46208399999887,164.57902010000544,164.56246230000397,None,c,1,164.56246230000397,None,165.0625171000138,None,0.45331710000755265,,,,,,,,,,,,,,,,,,,,,,,,m,,pk,2022_Mar_25_1152,training+cueing,2021.1.4,59.937161889426946,
Stranger.png,You,Stranger,m,1.3,15,25,95,,,,,0,0,0,0,0,4,4,6,,,,,,,,,,,,,,,,,,,,,,,,,1.534,1.726,165.4630980999791,None,166.00498570001218,166.5134974999819,166.49689379998017,166.59691829996882,166.49689379998017,166.59691829996882,166.59691829996882,None,c,0,166.59691829996882,None,167.0807635000092,None,0.4668822000385262,,,,,,,,,,,,,,,,,,,,,,,,m,,pk,2022_Mar_25_1152,training+cueing,2021.1.4,59.937161889426946,
Friend.png,Friend,Friend,c,2,12,22,92,,,,,0,0,0,0,0,5,5,10,,,,,,,,,,,,,,,,,,,,,,,,,1.687,1.328,167.48084729997208,None,168.0121295999852,168.51497760001803,168.498298099963,168.61504299996886,168.498298099963,168.61504299996886,168.59831739997026,None,c,1,168.59831739997026,None,169.13061110000126,None,0.5134096999536268,,,,,,,,,,,,,,,,,,,,,,,,m,,pk,2022_Mar_25_1152,training+cueing,2021.1.4,59.937161889426946,
Self.png,Friend,Self ,m,2.1,16,26,96,,,,,0,0,0,0,0,6,6,1,,,,,,,,,,,,,,,,,,,,,,,,,1.7,1.472,169.5326390999835,None,170.07268789998489,170.58322979998775,170.566832099983,170.68316989997402,170.566832099983,170.68316989997402,170.66650890000165,None,m,1,170.66650890000165,None,171.2336225999752,None,0.5412982000270858,,,,,,,,,,,,,,,,,,,,,,,,m,,pk,2022_Mar_25_1152,training+cueing,2021.1.4,59.937161889426946,
Stranger.png,Stranger,Stranger,c,3,13,23,93,,,,,0,0,0,0,0,7,7,8,,,,,,,,,,,,,,,,,,,,,,,,,1.587,1.903,171.63390680000884,None,172.16622670000652,172.66800740000326,172.6513144999626,172.76804529997753,172.6513144999626,172.76804529997753,172.75128699996276,None,m,0,172.75128699996276,None,173.20183400000678,None,0.4244260999839753,,,,,,,,,,,,,,,,,,,,,,,,m,,pk,2022_Mar_25_1152,training+cueing,2021.1.4,59.937161889426946,
Friend.png,You,Friend,m,1.2,14,24,94,,,,,0,0,0,0,0,8,8,3,,,,,,,,,,,,,,,,,,,,,,,,,1.63,1.987,173.60196699999506,None,174.1328591000056,174.6361395000131,174.6193608000176,174.71939340000972,174.6193608000176,174.71939340000972,174.71939340000972,None,c,0,174.71939340000972,None,175.15327710000565,None,0.40828269999474287,,,,,,,,,,,,,,,,,,,,,,,,m,,pk,2022_Mar_25_1152,training+cueing,2021.1.4,59.937161889426946,
Self.png,Stranger,Self ,m,3.1,18,28,98,,,,,0,0,0,0,0,9,9,2,,,,,,,,,,,,,,,,,,,,,,,,,1.507,1.58,175.55356470000697,None,176.09267829998862,176.604187000019,176.58757659996627,176.7041919999756,176.58757659996627,176.7041919999756,176.68748739996227,None,m,1,176.68748739996227,None,177.07001590001164,None,0.36028159997658804,,,,,,,,,,,,,,,,,,,,,,,,m,,pk,2022_Mar_25_1152,training+cueing,2021.1.4,59.937161889426946,
Self.png,You,Self ,c,1,11,21,91,,,,,0,0,0,0,0,10,10,0,,,,,,,,,,,,,,,,,,,,,,,,,1.64,1.523,177.47236580000026,None,178.0107188000111,178.52214469999308,178.50557340000523,178.60556970001198,178.50557340000523,178.60556970001198,178.60556970001198,None,m,0,178.60556970001198,None,179.00673209998058,None,0.3781761999707669,,,,,,,,,,,,,,,,,,,,,,,,m,,pk,2022_Mar_25_1152,training+cueing,2021.1.4,59.937161889426946,
Stranger.png,Friend,Stranger,m,2.3,17,27,97,,,,,0,0,0,0,0,11,11,7,,,,,,,,,,,,,,,,,,,,,,,,,1.598,1.712,179.40613560000202,None,179.93960440001683,180.44026719999965,180.4235968000139,180.54029149998678,180.4235968000139,180.54029149998678,180.54029149998678,None,m,1,180.54029149998678,None,181.0061651999713,None,0.4434288000338711,,,,,,,,,,,,,,,,,,,,,,,,m,,pk,2022_Mar_25_1152,training+cueing,2021.1.4,59.937161889426946,
Self.png,Stranger,Self ,m,3.1,18,28,98,,,,,0,0,0,0,,,,,0,0,0,2,,,,,,,,,,,,,,,,,,,221.7535390999983,None,1.753,2.075,225.2690883000032,None,,,,,,,,,,,,,,,,181.40787519997684,None,0.014381820044945925,0.5124805200030096,225.89605709997704,226.4068016000092,0.5031120600178838,1.0033608600497246,226.39014689996839,226.5068453999702,226.39014689996839,226.5068453999702,226.49032719997922,None,m,1,0.6853542999597266,226.49032719997922,None,,,,,m,,pk,2022_Mar_25_1152,training+cueing,2021.1.4,59.937161889426946,
Friend.png,Stranger,Friend,m,3.2,19,29,99,,,,,0,0,0,0,,,,,0,1,1,5,,,,,,,,,,,,,,,,,,,,,1.52,1.451,227.3150429999805,None,,,,,,,,,,,,,,,,,,,,227.85264649998862,228.3581911000074,0.5102087600389495,None,228.34153859998332,228.45825029996922,228.34153859998332,228.45825029996922,228.4415645999834,None,m,1,0.3820962999598123,228.4415645999834,None,,,,,m,,pk,2022_Mar_25_1152,training+cueing,2021.1.4,59.937161889426946,
Friend.png,Friend,Friend,c,2,12,22,92,,,,,0,0,0,0,,,,,0,2,2,4,,,,,,,,,,,,,,,,,,,,,1.785,1.877,228.94783269998152,None,,,,,,,,,,,,,,,,,,,,229.48756939999294,229.99274189997232,0.5108552600140683,1.0111557599739172,229.97605290001957,230.09277449996443,229.97605290001957,230.09277449996443,230.07608580001397,None,m,0,0.5077193999895826,230.07608580001397,None,,,,,m,,pk,2022_Mar_25_1152,training+cueing,2021.1.4,59.937161889426946,
Stranger.png,Stranger,Stranger,c,3,13,23,93,,,,,0,0,0,0,,,,,0,3,3,8,,,,,,,,,,,,,,,,,,,,,1.75,1.725,230.71665700001176,None,,,,,,,,,,,,,,,,,,,,231.256433499977,231.76071760000195,0.507031460001599,1.007235959987156,231.7440650999779,231.860705900006,231.7440650999779,231.860705900006,231.84400179999648,None,m,0,0.6278672000044025,231.84400179999648,None,,,,,m,,pk,2022_Mar_25_1152,training+cueing,2021.1.4,59.937161889426946,
Friend.png,Friend,Friend,c,2,12,22,92,,,,,0,0,0,0,,,,,0,4,4,10,,,,,,,,,,,,,,,,,,,,,1.76,2.005,232.60127099999227,None,,,,,,,,,,,,,,,,,,,,233.14175120001892,233.6455721000093,0.5067835599766113,1.0070253600133583,233.62876589997904,233.74546339997323,233.62876589997904,233.74546339997323,233.7287185000023,None,c,1,0.6310822999803349,233.7287185000023,None,,,,,m,,pk,2022_Mar_25_1152,training+cueing,2021.1.4,59.937161889426946,
Self.png,You,Self ,c,1,11,21,91,,,,,0,0,0,0,,,,,0,5,5,0,,,,,,,,,,,,,,,,,,,,,1.708,2.049,234.48564309999347,None,,,,,,,,,,,,,,,,,,,,235.02670009998837,235.530096100003,0.5067056600237265,1.0069574600202031,235.5134221999906,235.61343859997578,235.5134221999906,235.61343859997578,235.61343859997578,None,c,1,0.4102965000201948,235.61343859997578,None,,,,,m,,pk,2022_Mar_25_1152,training+cueing,2021.1.4,59.937161889426946,
Stranger.png,Stranger,Stranger,c,3,13,23,93,,,,,0,0,0,0,,,,,0,6,6,11,,,,,,,,,,,,,,,,,,,,,1.503,1.264,236.15317249996588,None,,,,,,,,,,,,,,,,,,,,236.69288260000758,237.19798940001056,0.5088440599502064,1.0093253599479795,237.18129310000222,237.29800319997594,237.18129310000222,237.29800319997594,237.28126700001303,None,m,0,0.5184821999864653,237.28126700001303,None,,,,,m,,pk,2022_Mar_25_1152,training+cueing,2021.1.4,59.937161889426946,
Stranger.png,Friend,Stranger,m,2.3,17,27,97,,,,,0,0,0,0,,,,,0,7,7,7,,,,,,,,,,,,,,,,,,,,,1.402,1.346,237.92114559997572,None,,,,,,,,,,,,,,,,,,,,238.4620619000052,238.96593110001413,0.507731759978924,1.0083981599891558,238.9492461999762,239.0659394999966,238.9492461999762,239.0659394999966,239.0492210999946,None,c,0,0.6546560000278987,239.0492210999946,None,,,,,m,,pk,2022_Mar_25_1152,training+cueing,2021.1.4,59.937161889426946,
Stranger.png,You,Stranger,m,1.3,15,25,95,,,,,0,0,0,0,,,,,0,8,8,6,,,,,,,,,,,,,,,,,,,,,1.728,2.492,239.84029319998808,None,,,,,,,,,,,,,,,,,,,,240.3822011000011,240.88389729999471,0.5015239599742927,1.0017639599973336,240.86730629997328,240.96731909998925,240.86730629997328,240.96731909998925,240.96731909998925,None,m,1,0.5284830000018701,240.96731909998925,None,,,,,m,,pk,2022_Mar_25_1152,training+cueing,2021.1.4,59.937161889426946,
Friend.png,You,Friend,m,1.2,14,24,94,,,,,0,0,0,0,,,,,0,9,9,3,,,,,,,,,,,,,,,,,,,,,1.61,2.444,241.62425779999467,None,,,,,,,,,,,,,,,,,,,,242.16090359998634,242.66858519997913,0.5156570599647239,1.015960160002578,242.651901300007,242.75191439996706,242.651901300007,242.75191439996706,242.73528640001314,None,c,0,0.6004590999800712,242.73528640001314,None,,,,,m,,pk,2022_Mar_25_1152,training+cueing,2021.1.4,59.937161889426946,
Self.png,You,Self ,c,1,11,21,91,,,,,0,0,0,0,,,,,0,10,10,9,,,,,,,,,,,,,,,,,,,,,1.531,1.586,243.45880779996514,None,,,,,,,,,,,,,,,,,,,,243.99662399996305,244.50322539999615,0.5127718599978834,None,244.48655069997767,244.58661060000304,244.48655069997767,244.58661060000304,244.58661060000304,None,m,0,0.3810638000140898,244.58661060000304,None,,,,,m,,pk,2022_Mar_25_1152,training+cueing,2021.1.4,59.937161889426946,
Self.png,Friend,Self ,m,2.1,16,26,96,,,,,0,0,0,0,,,,,0,11,11,1,,,,,,,,,,,,,,,,,,,,,1.799,1.235,245.09320529998513,None,,,,,,,,,,,,,,,,,,,,245.63356839999324,246.1377599000116,0.5069304599892348,1.0072479599621147,246.1210662999656,246.23790319997352,246.1210662999656,246.23790319997352,246.22109399997862,None,c,0,0.634633700014092,246.22109399997862,None,,,,,m,,pk,2022_Mar_25_1152,training+cueing,2021.1.4,59.937161889426946,
Self.png,You,Self ,c,1,11,21,91,,,,,0,0,0,0,,,,,1,0,12,9,,,,,,,,,,,,,,,,,,,,,1.724,1.96,246.9779520999873,None,,,,,,,,,,,,,,,,,,,,247.51923879998503,248.02241289999802,0.5062722600414418,1.0065059600165114,248.00579610001296,248.10579780000262,248.00579610001296,248.10579780000262,248.10579780000262,None,c,1,0.606173400010448,248.10579780000262,None,,,,,m,,pk,2022_Mar_25_1152,training+cueing,2021.1.4,59.937161889426946,
Stranger.png,Friend,Stranger,m,2.3,17,27,97,,,,,0,0,0,0,,,,,1,1,13,7,,,,,,,,,,,,,,,,,,,,,1.438,1.387,248.84614340000553,None,,,,,,,,,,,,,,,,,,,,249.38558120001107,249.89046159997815,0.5085458600078709,1.0093429600237869,249.873766899982,249.99137469998095,249.873766899982,249.99137469998095,249.97383540001465,None,m,1,0.5299607999622822,249.97383540001465,None,,,,,m,,pk,2022_Mar_25_1152,training+cueing,2021.1.4,59.937161889426946,
Stranger.png,Stranger,Stranger,c,3,13,23,93,,,,,0,0,0,0,,,,,1,2,14,11,,,,,,,,,,,,,,,,,,,,,1.677,1.639,250.63163159997202,None,,,,,,,,,,,,,,,,,,,,251.17089660000056,251.6750823999755,0.5055536599829793,1.0058524599880911,251.6584108999814,251.77509599999757,251.6584108999814,251.77509599999757,251.7567124000052,None,m,0,0.6829525000066496,251.7567124000052,None,,,,,m,,pk,2022_Mar_25_1152,training+cueing,2021.1.4,59.937161889426946,
Stranger.png,Stranger,Stranger,c,3,13,23,93,,,,,0,0,0,0,,,,,1,3,15,8,,,,,,,,,,,,,,,,,,,,,1.744,1.907,252.56581180001376,None,,,,,,,,,,,,,,,,,,,,253.10436719999416,253.60985920001986,0.5113866599858738,1.011615060037002,253.59318299998995,253.7098500999855,253.59318299998995,253.7098500999855,253.69318180001574,None,m,0,0.6185494000092149,253.69318180001574,None,,,,,m,,pk,2022_Mar_25_1152,training+cueing,2021.1.4,59.937161889426946,
Friend.png,You,Friend,m,1.2,14,24,94,,,,,0,0,0,0,,,,,1,4,16,3,,,,,,,,,,,,,,,,,,,,,1.648,2.204,254.43351369997254,None,,,,,,,,,,,,,,,,,,,,254.97133839997696,255.47781879996182,0.5100699600297958,1.0112965599983,255.4611431999947,255.56121269997675,255.4611431999947,255.56121269997675,255.56121269997675,None,m,1,0.6227191000361927,255.56121269997675,None,,,,,m,,pk,2022_Mar_25_1152,training+cueing,2021.1.4,59.937161889426946,
Self.png,You,Self ,c,1,11,21,91,,,,,0,0,0,0,,,,,1,5,17,0,,,,,,,,,,,,,,,,,,,,,1.512,1.265,256.32241349999094,None,,,,,,,,,,,,,,,,,,,,256.8574498000089,257.3625547999982,0.5099683599546552,1.010262759984471,257.3458512999932,257.44589219999034,257.3458512999932,257.44589219999034,257.44589219999034,None,m,0,0.4178442999836989,257.44589219999034,None,,,,,m,,pk,2022_Mar_25_1152,training+cueing,2021.1.4,59.937161889426946,
Friend.png,Friend,Friend,c,2,12,22,92,,,,,0,0,0,0,,,,,1,6,18,4,,,,,,,,,,,,,,,,,,,,,1.658,1.641,257.9860440000193,None,,,,,,,,,,,,,,,,,,,,258.52647769998293,259.03040410001995,0.5072913600015454,1.0075664600008167,259.0137209999957,259.13045120000606,259.0137209999957,259.13045120000606,259.11373440001626,None,c,1,0.7181256000185385,259.11373440001626,None,,,,,m,,pk,2022_Mar_25_1152,training+cueing,2021.1.4,59.937161889426946,
Self.png,Friend,Self ,m,2.1,16,26,96,,,,,0,0,0,0,,,,,1,7,19,1,,,,,,,,,,,,,,,,,,,,,1.515,1.911,259.9576889000018,None,,,,,,,,,,,,,,,,,,,,260.49171440000646,260.99849869997706,0.5121542599517852,None,260.9817926000105,261.09852749999845,260.9817926000105,261.09852749999845,261.08181709999917,None,m,1,0.365863699989859,261.08181709999917,None,,,,,m,,pk,2022_Mar_25_1152,training+cueing,2021.1.4,59.937161889426946,
Friend.png,Stranger,Friend,m,3.2,19,29,99,,,,,0,0,0,0,,,,,1,8,20,5,,,,,,,,,,,,,,,,,,,,,1.413,1.432,261.57192159997066,None,,,,,,,,,,,,,,,,,,,,262.1218263999908,262.6329948999919,0.5070134599809535,1.0072138599934988,262.61638969997875,262.7330590999918,262.61638969997875,262.7330590999918,262.71632659999887,None,c,0,0.4274013999965973,262.71632659999887,None,,,,,m,,pk,2022_Mar_25_1152,training+cueing,2021.1.4,59.937161889426946,
Stranger.png,You,Stranger,m,1.3,15,25,95,,,,,0,0,0,0,,,,,1,9,21,6,,,,,,,,,,,,,,,,,,,,,1.746,1.854,263.27360760001466,None,,,,,,,,,,,,,,,,,,,,263.8129095999757,264.31759499997133,0.5089778600377031,1.0091985600301996,264.3009335999959,264.4009316000156,264.3009335999959,264.4009316000156,264.4009316000156,None,m,1,0.45476259995484725,264.4009316000156,None,,,,,m,,pk,2022_Mar_25_1152,training+cueing,2021.1.4,59.937161889426946,
Self.png,Stranger,Self ,m,3.1,18,28,98,,,,,0,0,0,0,,,,,1,10,22,2,,,,,,,,,,,,,,,,,,,,,1.522,1.294,264.99063810001826,None,,,,,,,,,,,,,,,,,,,,265.55158109997865,266.05223669996485,0.501050179998856,1.0012133800191805,266.0355502999737,266.1522014999646,266.0355502999737,266.1522014999646,266.1522014999646,None,None,0,,266.1522014999646,None,,,,,m,,pk,2022_Mar_25_1152,training+cueing,2021.1.4,59.937161889426946,
Friend.png,Friend,Friend,c,2,12,22,92,,,,,0,0,0,0,,,,,1,11,23,10,,,,,,,,,,,,,,,,,,,,,1.785,2.096,267.79076140001416,None,,,,,,,,,,,,,,,,,,,,268.3341202000156,268.83760279999115,0.5071657599764876,1.00734695995925,268.82092139997985,268.9375493999687,268.82092139997985,268.9375493999687,268.92084049998084,None,c,1,0.49488849996123463,268.92084049998084,None,,,,,m,,pk,2022_Mar_25_1152,training+cueing,2021.1.4,59.937161889426946,
Stranger.png,You,Stranger,m,1.3,15,25,95,,,,,0,0,0,0,,,,,2,0,24,6,,,,,,,,,,,,,,,,,,,,,1.75,1.652,269.5444022999727,None,,,,,,,,,,,,,,,,,,,,270.08706509997137,270.5889088999829,0.5016374600236304,None,270.5724331999663,270.6721144000185,270.5724331999663,270.6721144000185,270.6721144000185,None,m,1,0.3756434000097215,270.6721144000185,None,,,,,m,,pk,2022_Mar_25_1152,training+cueing,2021.1.4,59.937161889426946,
Friend.png,Stranger,Friend,m,3.2,19,29,99,,,,,0,0,0,0,,,,,2,1,25,5,,,,,,,,,,,,,,,,,,,,,1.791,1.357,271.1790450999979,None,,,,,,,,,,,,,,,,,,,,271.71789580001496,272.2232799999765,0.5118254600092769,1.0119943600147963,272.20659750001505,272.32329679996474,272.20659750001505,272.32329679996474,272.3066048999899,None,m,1,0.6451981000136584,272.3066048999899,None,,,,,m,,pk,2022_Mar_25_1152,training+cueing,2021.1.4,59.937161889426946,
Friend.png,You,Friend,m,1.2,14,24,94,,,,,0,0,0,0,,,,,2,2,26,3,,,,,,,,,,,,,,,,,,,,,1.408,2.154,273.0793303999817,None,,,,,,,,,,,,,,,,,,,,273.6201166000101,274.1246489000041,0.5080260600079782,1.0085120599833317,274.107969100005,274.20798609999474,274.107969100005,274.20798609999474,274.20798609999474,None,c,0,0.5357875999761745,274.20798609999474,None,,,,,m,,pk,2022_Mar_25_1152,training+cueing,2021.1.4,59.937161889426946,
Friend.png,Friend,Friend,c,2,12,22,92,,,,,0,0,0,0,,,,,2,3,27,4,,,,,,,,,,,,,,,,,,,,,1.734,2.178,274.881812800013,None,,,,,,,,,,,,,,,,,,,,275.42118409997784,275.9259713999927,0.5065675600199029,None,275.90927780000493,276.02597439999226,275.90927780000493,276.02597439999226,276.0093056000187,None,m,0,0.38243810000130907,276.0093056000187,None,,,,,m,,pk,2022_Mar_25_1152,training+cueing,2021.1.4,59.937161889426946,
Friend.png,Friend,Friend,c,2,12,22,92,,,,,0,0,0,0,,,,,2,4,28,10,,,,,,,,,,,,,,,,,,,,,1.608,1.264,276.51622669998324,None,,,,,,,,,,,,,,,,,,,,277.05427289998624,277.5605758000165,0.5120514599839225,1.0119097600108944,277.5441717999638,277.66052069998113,277.5441717999638,277.66052069998113,277.6438166999724,None,m,0,0.49193899997044355,277.6438166999724,None,,,,,m,,pk,2022_Mar_25_1152,training+cueing,2021.1.4,59.937161889426946,
Stranger.png,Stranger,Stranger,c,3,13,23,93,,,,,0,0,0,0,,,,,2,5,29,8,,,,,,,,,,,,,,,,,,,,,1.447,1.704,278.26686619996326,None,,,,,,,,,,,,,,,,,,,,278.8086687999894,279.3117740000016,0.5054921599803492,1.005955059954431,279.2950838999823,279.4120260999771,279.2950838999823,279.4120260999771,279.3953188000014,None,m,0,0.7245861999690533,279.3953188000014,None,,,,,m,,pk,2022_Mar_25_1152,training+cueing,2021.1.4,59.937161889426946,
Stranger.png,Friend,Stranger,m,2.3,17,27,97,,,,,0,0,0,0,,,,,2,6,30,7,,,,,,,,,,,,,,,,,,,,,1.642,1.744,280.2532790999976,None,,,,,,,,,,,,,,,,,,,,280.7939706000034,281.2965620000032,0.5043176600011066,1.0046072599943727,281.2798476999742,281.3965519000194,281.2798476999742,281.3965519000194,281.3798478000099,None,c,0,0.6438930999720469,281.3798478000099,None,,,,,m,,pk,2022_Mar_25_1152,training+cueing,2021.1.4,59.937161889426946,
Self.png,You,Self ,c,1,11,21,91,,,,,0,0,0,0,,,,,2,7,31,0,,,,,,,,,,,,,,,,,,,,,1.631,2.209,282.15312600001926,None,,,,,,,,,,,,,,,,,,,,282.69444360001944,283.1979164999793,0.5074033599812537,None,283.1812230999931,283.28123149997555,283.1812230999931,283.28123149997555,283.28123149997555,None,m,0,0.34255649999249727,283.28123149997555,None,,,,,m,,pk,2022_Mar_25_1152,training+cueing,2021.1.4,59.937161889426946,
Stranger.png,Stranger,Stranger,c,3,13,23,93,,,,,0,0,0,0,,,,,2,8,32,11,,,,,,,,,,,,,,,,,,,,,1.472,2.088,283.7593796000001,None,,,,,,,,,,,,,,,,,,,,284.29495820001466,284.7990920000011,0.5052580600022338,1.0059262600261718,284.78238489996875,284.8991140999715,284.78238489996875,284.8991140999715,284.8823870999622,None,m,0,0.4694949999684468,284.8823870999622,None,,,,,m,,pk,2022_Mar_25_1152,training+cueing,2021.1.4,59.937161889426946,
Self.png,Stranger,Self ,m,3.1,18,28,98,,,,,0,0,0,0,,,,,2,9,33,2,,,,,,,,,,,,,,,,,,,,,1.728,2.086,285.4908267999999,None,,,,,,,,,,,,,,,,,,,,286.0261668000021,286.5336424999987,0.5149099599802867,1.015139459981583,286.51699480001116,286.6336713999626,286.51699480001116,286.6336713999626,286.6169649999938,None,c,0,0.6868418999947608,286.6169649999938,None,,,,,m,,pk,2022_Mar_25_1152,training+cueing,2021.1.4,59.937161889426946,
Self.png,Friend,Self ,m,2.1,16,26,96,,,,,0,0,0,0,,,,,2,10,34,1,,,,,,,,,,,,,,,,,,,,,1.72,2.376,287.4405139000155,None,,,,,,,,,,,,,,,,,,,,287.9804293999914,288.4850279999664,0.5083589600399137,1.0086988600087352,288.4683714999701,288.5851322999806,288.4683714999701,288.5851322999806,288.5687968999846,None,m,1,0.6709348999429494,288.5687968999846,None,,,,,m,,pk,2022_Mar_25_1152,training+cueing,2021.1.4,59.937161889426946,
Self.png,You,Self ,c,1,11,21,91,,,,,0,0,0,0,,,,,2,11,35,9,,,,,,,,,,,,,,,,,,,,,1.515,1.484,289.37961659999564,None,,,,,,,,,,,,,,,,,,,,289.91662299999734,290.41984280000906,0.5040487600490451,1.0042301600333303,290.40317150001647,290.50321270001587,290.40317150001647,290.50321270001587,290.50321270001587,None,m,0,0.6564983999705873,290.50321270001587,None,,,,,m,,pk,2022_Mar_25_1152,training+cueing,2021.1.4,59.937161889426946,
Stranger.png,You,Stranger,m,1.3,15,25,95,,,,,0,0,0,0,,,,,3,0,36,6,,,,,,,,,,,,,,,,,,,,,1.468,1.208,291.29368609999074,None,,,,,,,,,,,,,,,,,,,,291.84221480000997,292.3545041999896,0.5097383600077592,1.0099898600019515,292.3378841999802,292.43788739998126,292.3378841999802,292.43788739998126,292.43788739998126,None,c,0,0.6098692000377923,292.43788739998126,None,,,,,m,,pk,2022_Mar_25_1152,training+cueing,2021.1.4,59.937161889426946,
Self.png,You,Self ,c,1,11,21,91,,,,,0,0,0,0,,,,,3,1,37,9,,,,,,,,,,,,,,,,,,,,,1.515,1.715,293.17772699997295,None,,,,,,,,,,,,,,,,,,,,293.7166470999946,294.22247089998564,0.5121085599530488,1.0123994599562138,294.2058532999945,294.305901899992,294.2058532999945,294.305901899992,294.305901899992,None,m,0,0.6618654999765567,294.305901899992,None,,,,,m,,pk,2022_Mar_25_1152,training+cueing,2021.1.4,59.937161889426946,
Stranger.png,Friend,Stranger,m,2.3,17,27,97,,,,,0,0,0,0,,,,,3,2,38,7,,,,,,,,,,,,,,,,,,,,,1.724,2.261,295.095788799983,None,,,,,,,,,,,,,,,,,,,,295.6361610000022,296.1406418000115,0.5063894600025378,1.0066398599883541,296.1239400000195,296.24072920001345,296.1239400000195,296.24072920001345,296.22391579998657,None,m,1,0.503843400045298,296.22391579998657,None,,,,,m,,pk,2022_Mar_25_1152,training+cueing,2021.1.4,59.937161889426946,
Friend.png,Friend,Friend,c,2,12,22,92,,,,,0,0,0,0,,,,,3,3,39,10,,,,,,,,,,,,,,,,,,,,,1.574,2.138,296.86492789996555,None,,,,,,,,,,,,,,,,,,,,297.40105849999236,297.90851859998656,0.5146363599924371,1.015254259982612,297.89189309999347,298.0085626000073,297.89189309999347,298.0085626000073,297.9918723999872,None,c,1,0.7359894000110216,297.9918723999872,None,,,,,m,,pk,2022_Mar_25_1152,training+cueing,2021.1.4,59.937161889426946,
Friend.png,You,Friend,m,1.2,14,24,94,,,,,0,0,0,0,,,,,3,4,40,3,,,,,,,,,,,,,,,,,,,,,1.607,1.39,298.8672003999818,None,,,,,,,,,,,,,,,,,,,,299.4063427000074,299.90998070000205,0.5057318599428982,1.0060181599692442,299.89331969997147,299.99334539996926,299.89331969997147,299.99334539996926,299.99334539996926,None,m,1,0.5264303000294603,299.99334539996926,None,,,,,m,,pk,2022_Mar_25_1152,training+cueing,2021.1.4,59.937161889426946,
Friend.png,Friend,Friend,c,2,12,22,92,,,,,0,0,0,0,,,,,3,5,41,4,,,,,,,,,,,,,,,,,,,,,1.605,1.785,300.6499391999678,None,,,,,,,,,,,,,,,,,,,,301.1917456999654,301.6945883000153,0.5065023599890992,1.007222960004583,301.67792099999497,301.79557889996795,301.67792099999497,301.79557889996795,301.7779234999907,None,c,1,0.6299577000318095,301.7779234999907,None,,,,,m,,pk,2022_Mar_25_1152,training+cueing,2021.1.4,59.937161889426946,
Stranger.png,Stranger,Stranger,c,3,13,23,93,,,,,0,0,0,0,,,,,3,6,42,11,,,,,,,,,,,,,,,,,,,,,1.54,1.506,302.53573800000595,None,,,,,,,,,,,,,,,,,,,,303.0778866999899,303.57934920000844,0.5032924599945545,1.0035105599672534,303.56267060001846,303.67931350000435,303.56267060001846,303.67931350000435,303.6626132999663,None,m,0,0.4893989999545738,303.6626132999663,None,,,,,m,,pk,2022_Mar_25_1152,training+cueing,2021.1.4,59.937161889426946,
Self.png,Friend,Self ,m,2.1,16,26,96,,,,,0,0,0,0,,,,,3,7,43,1,,,,,,,,,,,,,,,,,,,,,1.505,1.972,304.28589920001104,None,,,,,,,,,,,,,,,,,,,,304.82430089998525,305.33056440000655,0.5109316599555314,1.011212159995921,305.3138657999807,305.4306194999954,305.3138657999807,305.4306194999954,305.4138804000104,None,c,0,0.6738002999918535,305.4138804000104,None,,,,,m,,pk,2022_Mar_25_1152,training+cueing,2021.1.4,59.937161889426946,
Self.png,You,Self ,c,1,11,21,91,,,,,0,0,0,0,,,,,3,8,44,0,,,,,,,,,,,,,,,,,,,,,1.544,1.877,306.2208376000053,None,,,,,,,,,,,,,,,,,,,,306.7616807000013,307.26532010000665,0.5082768599386327,1.010807059938088,307.2486304999911,307.3486450999626,307.2486304999911,307.3486450999626,307.3486450999626,None,c,1,0.6591282999725081,307.3486450999626,None,,,,,m,,pk,2022_Mar_25_1152,training+cueing,2021.1.4,59.937161889426946,
Stranger.png,Stranger,Stranger,c,3,13,23,93,,,,,0,0,0,0,,,,,3,9,45,8,,,,,,,,,,,,,,,,,,,,,1.674,1.524,308.13911290001124,None,,,,,,,,,,,,,,,,,,,,308.6820227999706,309.18338999996195,0.5032577599631622,1.0034539600019343,309.16678259999026,309.2834137000027,309.16678259999026,309.2834137000027,309.2667759999749,None,m,0,0.38930510001955554,309.2667759999749,None,,,,,m,,pk,2022_Mar_25_1152,training+cueing,2021.1.4,59.937161889426946,
Self.png,Stranger,Self ,m,3.1,18,28,98,,,,,0,0,0,0,,,,,3,10,46,2,,,,,,,,,,,,,,,,,,,,,1.569,2.343,309.7900493000052,None,,,,,,,,,,,,,,,,,,,,310.32783590001054,310.8345690999995,0.5110661599319428,1.011310359928757,310.8178826000076,310.93455369997537,310.8178826000076,310.93455369997537,310.9178795000189,None,m,1,0.8019032999873161,310.9178795000189,None,,,,,m,,pk,2022_Mar_25_1152,training+cueing,2021.1.4,59.937161889426946,
Friend.png,Stranger,Friend,m,3.2,19,29,99,,,,,0,0,0,0,,,,,3,11,47,5,,,,,,,,,,,,,,,,,,,,,1.77,1.749,311.8423761000158,None,,,,,,,,,,,,,,,,,,,,312.39911830000347,312.9028834999772,0.5084760800236836,1.0087944800616242,312.8862019999651,313.0029145000153,312.8862019999651,313.0029145000153,312.98620360001223,None,c,0,0.7176010999828577,312.98620360001223,None,,,,,m,,pk,2022_Mar_25_1152,training+cueing,2021.1.4,59.937161889426946,
Friend.png,You,Friend,m,1.2,14,24,94,,,,,0,0,0,0,,,,,4,0,48,3,,,,,,,,,,,,,,,,,,,,,1.682,1.962,313.8260263999691,None,,,,,,,,,,,,,,,,,,,,314.3664850000059,314.87081419996684,0.5069351599668153,1.0072101599653251,314.85411129996646,314.9542001999798,314.85411129996646,314.9542001999798,314.9542001999798,None,m,1,0.6375637000310235,314.9542001999798,None,,,,,m,,pk,2022_Mar_25_1152,training+cueing,2021.1.4,59.937161889426946,
Stranger.png,You,Stranger,m,1.3,15,25,95,,,,,0,0,0,0,,,,,4,1,49,6,,,,,,,,,,,,,,,,,,,,,1.66,1.249,315.72694269998465,None,,,,,,,,,,,,,,,,,,,,316.2655393999885,316.7724836000125,0.5135940599720925,1.0138524599606171,316.75554280000506,316.85553170001367,316.75554280000506,316.85553170001367,316.85553170001367,None,c,0,0.5762561000301503,316.85553170001367,None,,,,,m,,pk,2022_Mar_25_1152,training+cueing,2021.1.4,59.937161889426946,
Friend.png,Friend,Friend,c,2,12,22,92,,,,,0,0,0,0,,,,,4,2,50,10,,,,,,,,,,,,,,,,,,,,,1.583,1.811,317.5626012000139,None,,,,,,,,,,,,,,,,,,,,318.1277357999934,318.6401970000006,0.509805680019781,1.010415680008009,318.6236128999735,318.7403515999904,318.6236128999735,318.7403515999904,318.72352519998094,None,m,0,0.3883054000325501,318.72352519998094,None,,,,,m,,pk,2022_Mar_25_1152,training+cueing,2021.1.4,59.937161889426946,
Self.png,You,Self ,c,1,11,21,91,,,,,0,0,0,0,,,,,4,3,51,9,,,,,,,,,,,,,,,,,,,,,1.447,2.352,319.2479329999769,None,,,,,,,,,,,,,,,,,,,,319.78737939998973,320.2913780999952,0.5051857600337826,1.005791260045953,320.27481639996404,320.37474629998906,320.27481639996404,320.37474629998906,320.37474629998906,None,c,1,0.44892500003334135,320.37474629998906,None,,,,,m,,pk,2022_Mar_25_1152,training+cueing,2021.1.4,59.937161889426946,
Friend.png,Stranger,Friend,m,3.2,19,29,99,,,,,0,0,0,0,,,,,4,4,52,5,,,,,,,,,,,,,,,,,,,,,1.729,2.218,320.9478296000161,None,,,,,,,,,,,,,,,,,,,,321.49402669997653,322.0095544999931,0.5148463599616662,1.0151418599998578,321.99292759998934,322.1098057999625,321.99292759998934,322.1098057999625,322.0928443999728,None,m,1,0.6028177000116557,322.0928443999728,None,,,,,m,,pk,2022_Mar_25_1152,training+cueing,2021.1.4,59.937161889426946,
Friend.png,Friend,Friend,c,2,12,22,92,,,,,0,0,0,0,,,,,4,5,53,4,,,,,,,,,,,,,,,,,,,,,1.45,2.007,322.833111200016,None,,,,,,,,,,,,,,,,,,,,323.3791920999647,323.89433709997684,0.511424159980379,1.013366759987548,323.8756212000153,323.97776390000945,323.8756212000153,323.97776390000945,323.97776390000945,None,c,1,0.7179877000162378,323.97776390000945,None,,,,,m,,pk,2022_Mar_25_1152,training+cueing,2021.1.4,59.937161889426946,
Stranger.png,Friend,Stranger,m,2.3,17,27,97,,,,,0,0,0,0,,,,,4,6,54,7,,,,,,,,,,,,,,,,,,,,,1.416,1.353,324.81796159996884,None,,,,,,,,,,,,,,,,,,,,325.3711074999883,325.87924320000457,0.5140391800086945,1.0143221800099127,325.8624114000122,325.9791250000126,325.8624114000122,325.9791250000126,325.96244059997844,None,m,1,0.7013980000047013,325.96244059997844,None,,,,,m,,pk,2022_Mar_25_1152,training+cueing,2021.1.4,59.937161889426946,
Self.png,You,Self ,c,1,11,21,91,,,,,0,0,0,0,,,,,4,7,55,0,,,,,,,,,,,,,,,,,,,,,1.732,1.608,326.7858305000118,None,,,,,,,,,,,,,,,,,,,,327.3275559999747,327.8304671999649,0.5066969599574804,1.0069635599502362,327.8138101999648,327.91381840000395,327.8138101999648,327.91381840000395,327.91381840000395,None,c,1,0.8459770999616012,327.91381840000395,None,,,,,m,,pk,2022_Mar_25_1152,training+cueing,2021.1.4,59.937161889426946,
Stranger.png,Stranger,Stranger,c,3,13,23,93,,,,,0,0,0,0,,,,,4,8,56,8,,,,,,,,,,,,,,,,,,,,,1.464,1.28,328.88766219996614,None,,,,,,,,,,,,,,,,,,,,329.4280972999986,329.93200560001424,0.5058824599836953,None,329.9153401000076,330.0320314000128,329.9153401000076,330.0320314000128,330.0153140000184,None,m,0,0.376505599997472,330.0153140000184,None,,,,,m,,pk,2022_Mar_25_1152,training+cueing,2021.1.4,59.937161889426946,
Self.png,Friend,Self ,m,2.1,16,26,96,,,,,0,0,0,0,,,,,4,9,57,1,,,,,,,,,,,,,,,,,,,,,1.515,1.64,330.5219402000075,None,,,,,,,,,,,,,,,,,,,,331.0630393999745,331.5665234000189,0.5065967600094154,None,331.5498394999886,331.66669029998593,331.5498394999886,331.66669029998593,331.65001280000433,None,m,1,0.3258682999876328,331.65001280000433,None,,,,,m,,pk,2022_Mar_25_1152,training+cueing,2021.1.4,59.937161889426946,
Stranger.png,Stranger,Stranger,c,3,13,23,93,,,,,0,0,0,0,,,,,4,10,58,11,,,,,,,,,,,,,,,,,,,,,1.699,1.202,332.1067897999892,None,,,,,,,,,,,,,,,,,,,,332.6492084999918,333.1509582999861,0.5055094599956647,None,333.1343293999671,333.2510021000053,333.1343293999671,333.2510021000053,333.23430349997943,None,m,0,0.2774432000005618,333.23430349997943,None,,,,,m,,pk,2022_Mar_25_1152,training+cueing,2021.1.4,59.937161889426946,
Self.png,Stranger,Self ,m,3.1,18,28,98,,,,,0,0,0,0,,,,,4,11,59,2,,,,,,,,,,,,,,,,,,,,,1.514,1.937,333.6411649999791,None,,,,,,,,,,,,,,,,,,,,334.17888119997224,334.6854246999719,0.5111273599904962,None,334.66879029996926,334.7854609999922,334.66879029996926,334.7854609999922,334.768749299983,None,c,0,0.3430509000318125,334.768749299983,None,,,,,m,,pk,2022_Mar_25_1152,training+cueing,2021.1.4,59.937161889426946,
Self.png,You,Self ,c,1,11,21,91,,,,,0,0,0,0,,,,,5,0,60,0,,,,,,,,,,,,,,,,,,,,,1.674,1.875,335.24220370000694,None,,,,,,,,,,,,,,,,,,,,335.7839123000158,336.28659520001383,0.5068927600514144,None,336.2700148000149,336.3699411000125,336.2700148000149,336.3699411000125,336.3699411000125,None,m,0,0.29381109995301813,336.3699411000125,None,,,,,m,,pk,2022_Mar_25_1152,training+cueing,2021.1.4,59.937161889426946,
Self.png,Friend,Self ,m,2.1,16,26,96,,,,,0,0,0,0,,,,,5,1,61,1,,,,,,,,,,,,,,,,,,,,,1.568,1.441,336.7928414999624,None,,,,,,,,,,,,,,,,,,,,337.3344371999847,337.83766570000444,0.5064300599624403,1.0066717599984258,337.8210638000164,337.9377322999644,337.8210638000164,337.9377322999644,337.9210290000192,None,None,0,,337.9210290000192,None,,,,,m,,pk,2022_Mar_25_1152,training+cueing,2021.1.4,59.937161889426946,
Friend.png,Stranger,Friend,m,3.2,19,29,99,,,,,0,0,0,0,,,,,5,2,62,5,,,,,,,,,,,,,,,,,,,,,1.45,1.709,339.59264429996256,None,,,,,,,,,,,,,,,,,,,,340.1358900999767,340.6397177000181,0.5051289599505253,1.0053980599623173,340.62309880001703,340.7397567000007,340.62309880001703,340.7397567000007,340.72301419998985,None,c,0,0.4527576999971643,340.72301419998985,None,,,,,m,,pk,2022_Mar_25_1152,training+cueing,2021.1.4,59.937161889426946,
Self.png,You,Self ,c,1,11,21,91,,,,,0,0,0,0,,,,,5,3,63,9,,,,,,,,,,,,,,,,,,,,,1.791,1.657,341.3129959999933,None,,,,,,,,,,,,,,,,,,,,341.852761999995,342.3576423000195,0.5092332600033842,1.0094316600007005,342.34100219997345,342.4410129999742,342.34100219997345,342.4410129999742,342.4410129999742,None,c,1,0.4307187999947928,342.4410129999742,None,,,,,m,,pk,2022_Mar_25_1152,training+cueing,2021.1.4,59.937161889426946,
Friend.png,Friend,Friend,c,2,12,22,92,,,,,0,0,0,0,,,,,5,4,64,4,,,,,,,,,,,,,,,,,,,,,1.576,1.271,342.99844779999694,None,,,,,,,,,,,,,,,,,,,,343.53761190001387,344.0421680000145,0.5072751599946059,None,344.02555500000017,344.14220259996364,344.02555500000017,344.14220259996364,344.1255201000022,None,c,1,0.3303369000204839,344.1255201000022,None,,,,,m,,pk,2022_Mar_25_1152,training+cueing,2021.1.4,59.937161889426946,
Friend.png,You,Friend,m,1.2,14,24,94,,,,,0,0,0,0,,,,,5,5,65,3,,,,,,,,,,,,,,,,,,,,,1.442,2.308,344.58206729998346,None,,,,,,,,,,,,,,,,,,,,345.12399190000724,345.62666609999724,0.5065889600664377,1.0068780600558966,345.6100040000165,345.7100409999839,345.6100040000165,345.7100409999839,345.7100409999839,None,m,1,0.4097852000268176,345.7100409999839,None,,,,,m,,pk,2022_Mar_25_1152,training+cueing,2021.1.4,59.937161889426946,
Self.png,Stranger,Self ,m,3.1,18,28,98,,,,,0,0,0,0,,,,,5,6,66,2,,,,,,,,,,,,,,,,,,,,,1.714,1.755,346.2501786999637,None,,,,,,,,,,,,,,,,,,,,346.79186930001015,347.294554699969,0.5054470599861816,None,347.2778983999742,347.394592800003,347.2778983999742,347.394592800003,347.37788879999425,None,m,1,0.32589640002697706,347.37788879999425,None,,,,,m,,pk,2022_Mar_25_1152,training+cueing,2021.1.4,59.937161889426946,
Friend.png,Friend,Friend,c,2,12,22,92,,,,,0,0,0,0,,,,,5,7,67,10,,,,,,,,,,,,,,,,,,,,,1.447,2.362,347.83392529998673,None,,,,,,,,,,,,,,,,,,,,348.3745094999904,348.8790117999888,0.5064084599725902,None,348.86238639999647,348.9790379999904,348.86238639999647,348.9790379999904,348.96236710000085,None,c,1,0.29338580003241077,348.96236710000085,None,,,,,m,,pk,2022_Mar_25_1152,training+cueing,2021.1.4,59.937161889426946,
Stranger.png,Stranger,Stranger,c,3,13,23,93,,,,,0,0,0,0,,,,,5,8,68,11,,,,,,,,,,,,,,,,,,,,,1.683,1.583,349.3852395999711,None,,,,,,,,,,,,,,,,,,,,349.92491669999436,350.43008299998473,0.5106655599665828,1.010962060012389,350.41348569997353,350.53016039996874,350.41348569997353,350.53016039996874,350.5134791000164,None,m,0,0.5022613999899477,350.5134791000164,None,,,,,m,,pk,2022_Mar_25_1152,training+cueing,2021.1.4,59.937161889426946,
Stranger.png,You,Stranger,m,1.3,15,25,95,,,,,0,0,0,0,,,,,5,9,69,6,,,,,,,,,,,,,,,,,,,,,1.682,1.746,351.1372379999957,None,,,,,,,,,,,,,,,,,,,,351.6775376999867,352.1813903999864,0.508012059959583,1.0083146599354222,352.1647625999758,352.2647985999938,352.1647625999758,352.2647985999938,352.2647985999938,None,c,0,0.6069875999819487,352.2647985999938,None,,,,,m,,pk,2022_Mar_25_1152,training+cueing,2021.1.4,59.937161889426946,
Stranger.png,Friend,Stranger,m,2.3,17,27,97,,,,,0,0,0,0,,,,,5,10,70,7,,,,,,,,,,,,,,,,,,,,,1.5,2.421,353.00491670001065,None,,,,,,,,,,,,,,,,,,,,353.54554730001837,354.0494064000086,0.5059528599958867,1.0062206599977799,354.03281519998563,354.14947559998836,354.03281519998563,354.14947559998836,354.1327688000165,None,m,1,0.38702560000820085,354.1327688000165,None,,,,,m,,pk,2022_Mar_25_1152,training+cueing,2021.1.4,59.937161889426946,
Stranger.png,Stranger,Stranger,c,3,13,23,93,,,,,0,0,0,0,,,,,5,11,71,8,,,,,,,,,,,,,,,,,,,,,1.635,1.606,354.6562638999894,None,,,,,,,,,,,,,,,,,,,,355.1978980000131,355.700614899979,0.5056092599988915,1.0061207599937916,355.6839697000105,355.8013803999638,355.6839697000105,355.8013803999638,355.78403579996666,None,c,1,0.6717400999623351,355.78403579996666,None,,,,,m,,pk,2022_Mar_25_1152,training+cueing,2021.1.4,59.937161889426946,
Stranger.png,Stranger,Stranger,c,3,13,23,93,,,,,0,0,0,0,,,,,6,0,72,8,,,,,,,,,,,,,,,,,,,,,1.595,1.369,356.5919416999677,None,,,,,,,,,,,,,,,,,,,,357.12841509998543,357.63534500001697,0.5121996600064449,None,357.6187624000013,357.7355225000065,357.6187624000013,357.7355225000065,357.7189522999688,None,m,0,0.35280549997696653,357.7189522999688,None,,,,,m,,pk,2022_Mar_25_1152,training+cueing,2021.1.4,59.937161889426946,
Stranger.png,Stranger,Stranger,c,3,13,23,93,,,,,0,0,0,0,,,,,6,1,73,11,,,,,,,,,,,,,,,,,,,,,1.627,1.463,358.20836609997787,None,,,,,,,,,,,,,,,,,,,,358.7563035999774,359.2698702000198,0.5108597599901259,None,359.2532257999992,359.3699459999916,359.2532257999992,359.3699459999916,359.35320499999216,None,c,1,0.3185552000068128,359.35320499999216,None,,,,,m,,pk,2022_Mar_25_1152,training+cueing,2021.1.4,59.937161889426946,
Friend.png,Friend,Friend,c,2,12,22,92,,,,,0,0,0,0,,,,,6,2,74,4,,,,,,,,,,,,,,,,,,,,,1.483,1.2,359.79277659999207,None,,,,,,,,,,,,,,,,,,,,360.3340557999909,360.8376954999985,0.5061678600031883,None,360.8210483000148,360.9377116999822,360.8210483000148,360.9377116999822,360.9210332999937,None,m,0,0.27074559999164194,360.9210332999937,None,,,,,m,,pk,2022_Mar_25_1152,training+cueing,2021.1.4,59.937161889426946,
Self.png,You,Self ,c,1,11,21,91,,,,,0,0,0,0,,,,,6,3,75,9,,,,,,,,,,,,,,,,,,,,,1.763,2.331,361.32770109997364,None,,,,,,,,,,,,,,,,,,,,361.86780229996657,362.37215850001667,0.5061800600378774,None,362.35548279999057,362.45550340000773,362.35548279999057,362.45550340000773,362.45550340000773,None,m,0,0.1922890999703668,362.45550340000773,None,,,,,m,,pk,2022_Mar_25_1152,training+cueing,2021.1.4,59.937161889426946,
Friend.png,Stranger,Friend,m,3.2,19,29,99,,,,,0,0,0,0,,,,,6,4,76,5,,,,,,,,,,,,,,,,,,,,,1.702,2.141,362.77902409998933,None,,,,,,,,,,,,,,,,,,,,363.3212537000072,363.82315680000465,0.5051136600086465,None,363.80654789996333,363.92320939997444,363.80654789996333,363.92320939997444,363.90650959999766,None,c,0,0.19725349999498576,363.90650959999766,None,,,,,m,,pk,2022_Mar_25_1152,training+cueing,2021.1.4,59.937161889426946,
Self.png,Stranger,Self ,m,3.1,18,28,98,,,,,0,0,0,0,,,,,6,5,77,2,,,,,,,,,,,,,,,,,,,,,1.773,1.979,364.2290818999754,None,,,,,,,,,,,,,,,,,,,,364.76932909997413,365.27424230001634,0.5110119599848986,None,365.2575937999645,365.3742579999962,365.2575937999645,365.3742579999962,365.35755499999505,None,m,1,0.2342645000317134,365.35755499999505,None,,,,,m,,pk,2022_Mar_25_1152,training+cueing,2021.1.4,59.937161889426946,
Stranger.png,You,Stranger,m,1.3,15,25,95,,,,,0,0,0,0,,,,,6,6,78,6,,,,,,,,,,,,,,,,,,,,,1.609,1.849,365.713944899966,None,,,,,,,,,,,,,,,,,,,,366.25388340000063,366.7586760999984,0.506738759984728,None,366.7420118000009,366.8420110999723,366.7420118000009,366.8420110999723,366.8420110999723,None,c,0,0.23775249999016523,366.8420110999723,None,,,,,m,,pk,2022_Mar_25_1152,training+cueing,2021.1.4,59.937161889426946,
Friend.png,You,Friend,m,1.2,14,24,94,,,,,0,0,0,0,,,,,6,7,79,3,,,,,,,,,,,,,,,,,,,,,1.718,1.342,367.2141118000145,None,,,,,,,,,,,,,,,,,,,,367.75477519998094,368.259726499964,0.5107225599931553,None,368.2430932999705,368.34311209997395,368.2430932999705,368.34311209997395,368.34311209997395,None,c,0,0.2565830000094138,368.34311209997395,None,,,,,m,,pk,2022_Mar_25_1152,training+cueing,2021.1.4,59.937161889426946,
Stranger.png,Friend,Stranger,m,2.3,17,27,97,,,,,0,0,0,0,,,,,6,8,80,7,,,,,,,,,,,,,,,,,,,,,1.61,1.547,368.73306729999604,None,,,,,,,,,,,,,,,,,,,,369.2733387000044,369.777476200019,0.5061015600222163,None,369.76086019998183,369.8775314000086,369.76086019998183,369.8775314000086,369.8608266999945,None,m,1,0.17892949999077246,369.8608266999945,None,,,,,m,,pk,2022_Mar_25_1152,training+cueing,2021.1.4,59.937161889426946,
Friend.png,Friend,Friend,c,2,12,22,92,,,,,0,0,0,0,,,,,6,9,81,10,,,,,,,,,,,,,,,,,,,,,1.77,2.355,370.1674109000014,None,,,,,,,,,,,,,,,,,,,,370.7058462999994,371.21183589997236,0.511476359970402,None,371.19521460001124,371.3119020999875,371.19521460001124,371.3119020999875,371.29516059998423,None,m,0,0.34459370002150536,371.29516059998423,None,,,,,m,,pk,2022_Mar_25_1152,training+cueing,2021.1.4,59.937161889426946,
Self.png,You,Self ,c,1,11,21,91,,,,,0,0,0,0,,,,,6,10,82,0,,,,,,,,,,,,,,,,,,,,,1.677,1.608,371.76810970000224,None,,,,,,,,,,,,,,,,,,,,372.30986029998166,372.8130201000022,0.5068121599615552,None,372.7963598999777,372.89640249998774,372.7963598999777,372.89640249998774,372.89640249998774,None,c,1,0.21536859998013824,372.89640249998774,None,,,,,m,,pk,2022_Mar_25_1152,training+cueing,2021.1.4,59.937161889426946,
Self.png,Friend,Self ,m,2.1,16,26,96,,,,,0,0,0,0,,,,,6,11,83,1,,,,,,,,,,,,,,,,,,,,,1.592,1.33,373.2355618000147,None,,,,,,,,,,,,,,,,,,,,373.77623570000287,374.28074219997507,0.5059555600164458,None,374.2641383999726,374.3807830999722,374.2641383999726,374.3807830999722,374.3640907999943,None,m,1,0.1718760000076145,374.3640907999943,None,,,,,m,,pk,2022_Mar_25_1152,training+cueing,2021.1.4,59.937161889426946,
Friend.png,Stranger,Friend,m,3.2,19,29,99,,,,,0,0,0,0,,,,,7,0,84,5,,,,,,,,,,,,,,,,,,,,,1.579,1.284,374.67084589996375,None,,,,,,,,,,,,,,,,,,,,375.2132211999851,375.7150593000115,0.5050564599805512,None,375.69846549996873,375.8150917000021,375.69846549996873,375.8150917000021,375.7984512000112,None,c,0,0.19328020000830293,375.7984512000112,None,,,,,m,,pk,2022_Mar_25_1152,training+cueing,2021.1.4,59.937161889426946,
Stranger.png,Stranger,Stranger,c,3,13,23,93,,,,,0,0,0,0,,,,,7,1,85,11,,,,,,,,,,,,,,,,,,,,,1.409,2.126,376.1211406000075,None,,,,,,,,,,,,,,,,,,,,376.6603565000114,377.1661304999725,0.5115835600299761,None,377.1494848000002,377.2661512999912,377.1494848000002,377.2661512999912,377.2494998999755,None,c,1,0.32632959994953126,377.2494998999755,None,,,,,m,,pk,2022_Mar_25_1152,training+cueing,2021.1.4,59.937161889426946,
Friend.png,You,Friend,m,1.2,14,24,94,,,,,0,0,0,0,,,,,7,2,86,3,,,,,,,,,,,,,,,,,,,,,1.78,2.023,377.70550019998336,None,,,,,,,,,,,,,,,,,,,,378.24366029998055,378.750643700012,0.5120319600100629,None,378.7340011000051,378.83398110000417,378.7340011000051,378.83398110000417,378.83398110000417,None,c,0,0.26177320000715554,378.83398110000417,None,,,,,m,,pk,2022_Mar_25_1152,training+cueing,2021.1.4,59.937161889426946,
Self.png,Stranger,Self ,m,3.1,18,28,98,,,,,0,0,0,0,,,,,7,3,87,2,,,,,,,,,,,,,,,,,,,,,1.762,1.907,379.2237870999961,None,,,,,,,,,,,,,,,,,,,,379.76413069997216,380.2684272999759,0.5084094600169919,None,380.25180580001324,380.3684334999998,380.25180580001324,380.3684334999998,380.35174690000713,None,m,1,0.15195219998713583,380.35174690000713,None,,,,,m,,pk,2022_Mar_25_1152,training+cueing,2021.1.4,59.937161889426946,
Stranger.png,You,Stranger,m,1.3,15,25,95,,,,,0,0,0,0,,,,,7,4,88,6,,,,,,,,,,,,,,,,,,,,,1.49,1.618,380.642478499969,None,,,,,,,,,,,,,,,,,,,,381.17846259998623,381.686100299994,0.5122562599717639,None,381.66947879997315,381.76944890001323,381.66947879997315,381.76944890001323,381.76944890001323,None,c,0,0.20631669997237623,381.76944890001323,None,,,,,m,,pk,2022_Mar_25_1152,training+cueing,2021.1.4,59.937161889426946,
Self.png,You,Self ,c,1,11,21,91,,,,,0,0,0,0,,,,,7,5,89,9,,,,,,,,,,,,,,,,,,,,,1.761,1.673,382.1088795000105,None,,,,,,,,,,,,,,,,,,,,382.6458396000089,383.15383670001756,0.5154112599557266,None,383.1371723000193,383.23718769999687,383.1371723000193,383.23718769999687,383.23718769999687,None,m,0,0.24260589998448268,383.23718769999687,None,,,,,m,,pk,2022_Mar_25_1152,training+cueing,2021.1.4,59.937161889426946,
Self.png,Friend,Self ,m,2.1,16,26,96,,,,,0,0,0,0,,,,,7,6,90,1,,,,,,,,,,,,,,,,,,,,,1.458,2.156,383.6111338000046,None,,,,,,,,,,,,,,,,,,,,384.14944740000647,384.655016899982,0.511146760021802,1.0113861599820666,384.638304699969,384.7549594999873,384.638304699969,384.7549594999873,384.7382542999694,None,m,1,0.5494805999915116,384.7382542999694,None,,,,,m,,pk,2022_Mar_25_1152,training+cueing,2021.1.4,59.937161889426946,
Stranger.png,Stranger,Stranger,c,3,13,23,93,,,,,0,0,0,0,,,,,7,7,91,8,,,,,,,,,,,,,,,,,,,,,1.555,1.441,385.4118599999929,None,,,,,,,,,,,,,,,,,,,,385.9524296000018,386.4562086999649,0.5062277599936351,1.0065099599887617,386.4396043000161,386.5564718999667,386.4396043000161,386.5564718999667,386.53957749996334,None,m,0,0.44417769997380674,386.53957749996334,None,,,,,m,,pk,2022_Mar_25_1152,training+cueing,2021.1.4,59.937161889426946,
Friend.png,Friend,Friend,c,2,12,22,92,,,,,0,0,0,0,,,,,7,8,92,4,,,,,,,,,,,,,,,,,,,,,1.508,2.279,387.1127955999691,None,,,,,,,,,,,,,,,,,,,,387.65481729997555,388.1574400999816,0.5069646599586122,1.0072860599611886,388.1407944000093,388.25757299998077,388.1407944000093,388.25757299998077,388.24083600001177,None,m,0,0.5669877000036649,388.24083600001177,None,,,,,m,,pk,2022_Mar_25_1152,training+cueing,2021.1.4,59.937161889426946,
Friend.png,Friend,Friend,c,2,12,22,92,,,,,0,0,0,0,,,,,7,9,93,10,,,,,,,,,,,,,,,,,,,,,1.646,1.484,388.93042759998934,None,,,,,,,,,,,,,,,,,,,,389.4692004999961,389.97544439998455,0.5111631599720567,1.0120456599979661,389.95880550000584,390.0754766999744,389.95880550000584,390.0754766999744,390.05877090001013,None,m,0,0.42930710001382977,390.05877090001013,None,,,,,m,,pk,2022_Mar_25_1152,training+cueing,2021.1.4,59.937161889426946,
Stranger.png,Friend,Stranger,m,2.3,17,27,97,,,,,0,0,0,0,,,,,7,10,94,7,,,,,,,,,,,,,,,,,,,,,1.509,2.362,390.6189987999969,None,,,,,,,,,,,,,,,,,,,,391.15504340000916,391.65998509997735,0.507143460039515,1.0074463600176387,391.6433240000042,391.758072800003,391.6433240000042,391.758072800003,391.7433087999816,None,m,1,0.5364669000264257,391.7433087999816,None,,,,,m,,pk,2022_Mar_25_1152,training+cueing,2021.1.4,59.937161889426946,
Self.png,You,Self ,c,1,11,21,91,,,,,0,0,0,0,,,,,7,11,95,0,,,,,,,,,,,,,,,,,,,,,1.672,1.605,392.41669899999397,None,,,,,,,,,,,,,,,,,,,,392.95665179996286,393.46128330001375,0.5088418600498699,1.0091178600559942,393.4446620999952,393.54465419996995,393.4446620999952,393.54465419996995,393.54465419996995,None,m,0,0.49513480003224686,393.54465419996995,None,,,,,m,,pk,2022_Mar_25_1152,training+cueing,2021.1.4,59.937161889426946,
Friend.png,You,Friend,m,1.2,14,24,94,,,,,0,0,0,0,,,,,8,0,96,3,,,,,,,,,,,,,,,,,,,,,1.502,2.281,394.16790339996805,None,,,,,,,,,,,,,,,,,,,,394.7060125999851,395.21255749999546,0.5111311599612236,1.0114323599846102,395.19589979999,395.2959411999909,395.19589979999,395.2959411999909,395.2959411999909,None,m,1,0.599757399992086,395.2959411999909,None,,,,,m,,pk,2022_Mar_25_1152,training+cueing,2021.1.4,59.937161889426946,
Stranger.png,Stranger,Stranger,c,3,13,23,93,,,,,0,0,0,0,,,,,8,1,97,8,,,,,,,,,,,,,,,,,,,,,1.703,1.648,396.0190280000097,None,,,,,,,,,,,,,,,,,,,,396.5615949999774,397.06389729998773,0.5053739600116387,1.0056314599933103,397.0472759999684,397.1639264000114,397.0472759999684,397.1639264000114,397.1472447999986,None,c,1,0.47652409999864176,397.1472447999986,None,,,,,m,,pk,2022_Mar_25_1152,training+cueing,2021.1.4,59.937161889426946,
Stranger.png,Friend,Stranger,m,2.3,17,27,97,,,,,0,0,0,0,,,,,8,2,98,7,,,,,,,,,,,,,,,,,,,,,1.413,1.373,397.7538685000036,None,,,,,,,,,,,,,,,,,,,,398.2935624999809,398.7984651000006,0.5100014599738643,1.01028635998955,398.78184159996454,398.89854470000137,398.78184159996454,398.89854470000137,398.88180069997907,None,c,0,0.48587739997310564,398.88180069997907,None,,,,,m,,pk,2022_Mar_25_1152,training+cueing,2021.1.4,59.937161889426946,
Stranger.png,Stranger,Stranger,c,3,13,23,93,,,,,0,0,0,0,,,,,8,3,99,11,,,,,,,,,,,,,,,,,,,,,1.554,1.222,399.5054490999901,None,,,,,,,,,,,,,,,,,,,,400.0452367999824,400.54975369997555,0.5068680600379594,1.0071507600368932,400.5331192999729,400.64979180000955,400.5331192999729,400.64979180000955,400.63306149997516,None,c,1,0.41460799996275455,400.63306149997516,None,,,,,m,,pk,2022_Mar_25_1152,training+cueing,2021.1.4,59.937161889426946,
Friend.png,Friend,Friend,c,2,12,22,92,,,,,0,0,0,0,,,,,8,4,100,4,,,,,,,,,,,,,,,,,,,,,1.435,1.31,401.1732227000175,None,,,,,,,,,,,,,,,,,,,,401.7143178000115,402.2176141999662,0.5068549599964172,1.0071633599582128,402.20096919999924,402.3176905,402.20096919999924,402.3176905,402.3009599999641,None,m,0,0.4748146999627352,402.3009599999641,None,,,,,m,,pk,2022_Mar_25_1152,training+cueing,2021.1.4,59.937161889426946,
Self.png,You,Self ,c,1,11,21,91,,,,,0,0,0,0,,,,,8,5,101,9,,,,,,,,,,,,,,,,,,,,,1.529,1.308,402.9071013999637,None,,,,,,,,,,,,,,,,,,,,403.4485299999942,403.9522186999675,0.5074212600011379,None,403.9355831000139,404.0355884999735,403.9355831000139,404.0355884999735,404.0355884999735,None,c,1,0.3724674000404775,404.0355884999735,None,,,,,m,,pk,2022_Mar_25_1152,training+cueing,2021.1.4,59.937161889426946,
Self.png,Stranger,Self ,m,3.1,18,28,98,,,,,0,0,0,0,,,,,8,6,102,2,,,,,,,,,,,,,,,,,,,,,1.619,2.289,404.542082800006,None,,,,,,,,,,,,,,,,,,,,405.08058149996214,405.5867309999885,0.5102293600211851,1.010505859972909,405.5700754999998,405.6867786999792,405.5700754999998,405.6867786999792,405.67004539998015,None,c,0,0.5137156999553554,405.67004539998015,None,,,,,m,,pk,2022_Mar_25_1152,training+cueing,2021.1.4,59.937161889426946,
Friend.png,Stranger,Friend,m,3.2,19,29,99,,,,,0,0,0,0,,,,,8,7,103,5,,,,,,,,,,,,,,,,,,,,,1.789,1.994,406.3098638000083,None,,,,,,,,,,,,,,,,,,,,406.8476583000156,407.3546603000141,0.5139958600047976,1.0143048600293696,407.33802429999923,407.45470800000476,407.33802429999923,407.45470800000476,407.4380377000198,None,c,0,0.44169519998831674,407.4380377000198,None,,,,,m,,pk,2022_Mar_25_1152,training+cueing,2021.1.4,59.937161889426946,
Self.png,You,Self ,c,1,11,21,91,,,,,0,0,0,0,,,,,8,8,104,0,,,,,,,,,,,,,,,,,,,,,1.76,1.674,408.0116692999727,None,,,,,,,,,,,,,,,,,,,,408.5506760000135,409.05590099998517,0.5075185599271208,None,409.0392650999711,409.13927919999696,409.0392650999711,409.13927919999696,409.13927919999696,None,m,0,0.32455010002013296,409.13927919999696,None,,,,,m,,pk,2022_Mar_25_1152,training+cueing,2021.1.4,59.937161889426946,
Stranger.png,You,Stranger,m,1.3,15,25,95,,,,,0,0,0,0,,,,,8,9,105,6,,,,,,,,,,,,,,,,,,,,,1.408,1.384,409.5953765999875,None,,,,,,,,,,,,,,,,,,,,410.13468760001706,410.6404171999893,0.5122665599919856,1.0125892600044608,410.62370130000636,410.7237494000001,410.62370130000636,410.7237494000001,410.7237494000001,None,None,0,,410.7237494000001,None,,,,,m,,pk,2022_Mar_25_1152,training+cueing,2021.1.4,59.937161889426946,
Friend.png,Friend,Friend,c,2,12,22,92,,,,,0,0,0,0,,,,,8,10,106,10,,,,,,,,,,,,,,,,,,,,,1.555,2.041,412.24585870001465,None,,,,,,,,,,,,,,,,,,,,412.78823880001437,413.29231559997424,0.5072762600029819,1.007544659951236,413.275697199977,413.392363699968,413.275697199977,413.392363699968,413.3756263999967,None,m,0,0.4402103000320494,413.3756263999967,None,,,,,m,,pk,2022_Mar_25_1152,training+cueing,2021.1.4,59.937161889426946,
Self.png,Friend,Self ,m,2.1,16,26,96,,,,,0,0,0,0,,,,,8,11,107,1,,,,,,,,,,,,,,,,,,,,,1.562,1.742,413.94925429997966,None,,,,,,,,,,,,,,,,,,,,414.4870215000119,414.99355499999365,0.5109649599762633,1.011270759976469,414.97685779997846,415.0935995000182,414.97685779997846,415.0935995000182,415.07686410000315,None,m,1,0.5949842000263743,415.07686410000315,None,,,,,m,,pk,2022_Mar_25_1152,training+cueing,2021.1.4,59.937161889426946,
Friend.png,Friend,Friend,c,2,12,22,92,,,,,0,0,0,0,,,,,9,0,108,10,,,,,,,,,,,,,,,,,,,,,1.49,2.495,415.80000160000054,None,,,,,,,,,,,,,,,,,,,,416.3374646999873,416.84490279998863,0.5152828600257635,1.0155699599999934,416.82821649999823,416.94492739997804,416.82821649999823,416.94492739997804,416.928227299999,None,m,0,0.6795322000398301,416.928227299999,None,,,,,m,,pk,2022_Mar_25_1152,training+cueing,2021.1.4,59.937161889426946,
Stranger.png,You,Stranger,m,1.3,15,25,95,,,,,0,0,0,0,,,,,9,1,109,6,,,,,,,,,,,,,,,,,,,,,1.765,2.281,417.7352555000107,None,,,,,,,,,,,,,,,,,,,,418.2754519999726,418.779583800002,0.5083007600042038,1.008604259986896,418.7629893000121,418.8629802999785,418.7629893000121,418.8629802999785,418.8629802999785,None,c,0,0.392821500019636,418.8629802999785,None,,,,,m,,pk,2022_Mar_25_1152,training+cueing,2021.1.4,59.937161889426946,
Self.png,Stranger,Self ,m,3.1,18,28,98,,,,,0,0,0,0,,,,,9,2,110,2,,,,,,,,,,,,,,,,,,,,,1.698,1.532,419.3857507999637,None,,,,,,,,,,,,,,,,,,,,419.9264678999898,420.43084260000614,0.5058214600430802,1.0061123599880375,420.4141770999995,420.53083020000486,420.4141770999995,420.53083020000486,420.51414390001446,None,m,1,0.4696377000072971,420.51414390001446,None,,,,,m,,pk,2022_Mar_25_1152,training+cueing,2021.1.4,59.937161889426946,
Stranger.png,Friend,Stranger,m,2.3,17,27,97,,,,,0,0,0,0,,,,,9,3,111,7,,,,,,,,,,,,,,,,,,,,,1.629,1.68,421.12085269996896,None,,,,,,,,,,,,,,,,,,,,421.6623588000075,422.16542540001683,0.5056898599723354,1.0059765600017272,422.1487572999904,422.2654648000025,422.1487572999904,422.2654648000025,422.2487156999996,None,m,1,0.5271215999964625,422.2487156999996,None,,,,,m,,pk,2022_Mar_25_1152,training+cueing,2021.1.4,59.937161889426946,
Friend.png,Stranger,Friend,m,3.2,19,29,99,,,,,0,0,0,0,,,,,9,4,112,5,,,,,,,,,,,,,,,,,,,,,1.581,1.379,422.9049377000192,None,,,,,,,,,,,,,,,,,,,,423.44597140001133,423.9500095999683,0.5054976599640213,1.005796659970656,423.93337370001245,424.0500464999932,423.93337370001245,424.0500464999932,424.0333385000122,None,c,0,0.43843949999427423,424.0333385000122,None,,,,,m,,pk,2022_Mar_25_1152,training+cueing,2021.1.4,59.937161889426946,
Stranger.png,Stranger,Stranger,c,3,13,23,93,,,,,0,0,0,0,,,,,9,5,113,8,,,,,,,,,,,,,,,,,,,,,1.69,2.311,424.60698709997814,None,,,,,,,,,,,,,,,,,,,,425.14348149998114,425.65122050000355,0.5147270599845797,None,425.6346016000025,425.75124299997697,425.6346016000025,425.75124299997697,425.73459070001263,None,m,0,0.3851931000244804,425.73459070001263,None,,,,,m,,pk,2022_Mar_25_1152,training+cueing,2021.1.4,59.937161889426946,
Self.png,You,Self ,c,1,11,21,91,,,,,0,0,0,0,,,,,9,6,114,9,,,,,,,,,,,,,,,,,,,,,1.678,1.254,426.24156799999764,None,,,,,,,,,,,,,,,,,,,,426.7815218999749,427.2857775000157,0.5091675600269809,None,427.2691418000031,427.3691453000065,427.2691418000031,427.3691453000065,427.3691453000065,None,c,1,0.2866150999907404,427.3691453000065,None,,,,,m,,pk,2022_Mar_25_1152,training+cueing,2021.1.4,59.937161889426946,
Stranger.png,Stranger,Stranger,c,3,13,23,93,,,,,0,0,0,0,,,,,9,7,115,11,,,,,,,,,,,,,,,,,,,,,1.662,2.073,427.79251509997994,None,,,,,,,,,,,,,,,,,,,,428.3325743000023,428.83693759999005,0.5069382599904202,1.007232460018713,428.82026060001226,428.9369237999781,428.82026060001226,428.9369237999781,428.9202366999816,None,None,0,,428.9202366999816,None,,,,,m,,pk,2022_Mar_25_1152,training+cueing,2021.1.4,59.937161889426946,
Friend.png,You,Friend,m,1.2,14,24,94,,,,,0,0,0,0,,,,,9,8,116,3,,,,,,,,,,,,,,,,,,,,,1.513,1.263,430.69314370001666,None,,,,,,,,,,,,,,,,,,,,431.239659200015,431.73903529997915,0.5143146599293686,1.031279859947972,431.73903529997915,431.8390497000073,431.73903529997915,431.8390497000073,431.8390497000073,None,c,0,0.8247398000094108,431.8390497000073,None,,,,,m,,pk,2022_Mar_25_1152,training+cueing,2021.1.4,59.937161889426946,
Self.png,Friend,Self ,m,2.1,16,26,96,,,,,0,0,0,0,,,,,9,9,117,1,,,,,,,,,,,,,,,,,,,,,1.413,2.262,432.7957205999992,None,,,,,,,,,,,,,,,,,,,,433.3352789999917,433.84054760000436,0.5108984599937685,1.011194759979844,433.8238492999808,433.9405657000025,433.8238492999808,433.9405657000025,433.92384429997765,None,m,1,0.6119576999917626,433.92384429997765,None,,,,,m,,pk,2022_Mar_25_1152,training+cueing,2021.1.4,59.937161889426946,
Self.png,You,Self ,c,1,11,21,91,,,,,0,0,0,0,,,,,9,10,118,0,,,,,,,,,,,,,,,,,,,,,1.607,2.252,434.664612499997,None,,,,,,,,,,,,,,,,,,,,435.2037379000103,435.70856299996376,0.5084549600142054,1.00872286001686,435.6919071999728,435.79191869997885,435.6919071999728,435.79191869997885,435.79191869997885,None,m,0,0.5998064000159502,435.79191869997885,None,,,,,m,,pk,2022_Mar_25_1152,training+cueing,2021.1.4,59.937161889426946,
Friend.png,Friend,Friend,c,2,12,22,92,,,,,0,0,0,0,,,,,9,11,119,4,,,,,,,,,,,,,,,,,,,,,1.651,2.482,436.51565489999484,None,,,,,,,,,,,,,,,,,,,,437.05654239997966,437.55988259997685,0.5061543599586003,1.0064236599719152,437.54323559999466,437.6599150999682,437.54323559999466,437.6599150999682,437.64321939996444,None,c,1,1.1326433999929577,437.64321939996444,None,,,,,m,,pk,2022_Mar_25_1152,training+cueing,2021.1.4,59.937161889426946,
,,,,,,,,,,,,0,0,0,0,,,,,,,,,,,,,,,,,,,,,,,,,,,,,,,,,,,,,,,,,,,,,,,,,,,,,,,,,,,,,,,,,,,0.001331340055912733,None,,,m,,pk,2022_Mar_25_1152,training+cueing,2021.1.4,59.937161889426946,
Self.png,Stranger,Self ,m,3.1,18,28,98,,,,,1,0,1,0,0,0,0,2,,,,,,,,,,,,,,,,,439.41123269998934,None,space,28.835794399958104,2.0162770199240185,None,470.25040089996764,None,1.623,1.785,473.26687190000666,None,473.7999685999821,474.3031324999756,474.28652109997347,474.40316430001985,474.28652109997347,474.40316430001985,474.386457399989,None,c,0,474.386457399989,None,475.07078820001334,None,0.6613004000391811,,,,,,,,,,,,,,,,,,,,,,,,m,,pk,2022_Mar_25_1152,training+cueing,2021.1.4,59.937161889426946,
Stranger.png,You,Stranger,m,1.3,15,25,95,,,,,1,0,1,0,0,1,1,6,,,,,,,,,,,,,,,,,,,,,,,,,1.424,1.499,475.47128070000326,None,476.006516799971,476.5214119000011,476.5047631000052,476.6047846999718,476.5047631000052,476.6047846999718,476.6047846999718,None,m,1,476.6047846999718,None,476.9703337000101,None,0.34696809999877587,,,,,,,,,,,,,,,,,,,,,,,,m,,pk,2022_Mar_25_1152,training+cueing,2021.1.4,59.937161889426946,
Friend.png,Friend,Friend,c,2,12,22,92,,,,,1,0,1,0,0,2,2,10,,,,,,,,,,,,,,,,,,,,,,,,,1.506,2.427,477.3726467000088,None,477.91358190000756,478.42279209999833,478.4061648999923,478.52284539997345,478.4061648999923,478.52284539997345,478.52284539997345,None,None,0,478.52284539997345,None,480.0387242999859,None,,,,,,,,,,,,,,,,,,,,,,,,,m,,pk,2022_Mar_25_1152,training+cueing,2021.1.4,59.937161889426946,
Self.png,You,Self ,c,1,11,21,91,,,,,1,0,1,0,0,3,3,9,,,,,,,,,,,,,,,,,,,,,,,,,1.69,1.959,480.4410627000034,None,480.97583219996886,481.47503689996665,481.47503689996665,481.57504859997425,481.47503689996665,481.57504859997425,481.57504859997425,None,c,1,481.57504859997425,None,482.09226529998705,None,0.48081840004306287,,,,,,,,,,,,,,,,,,,,,,,,m,,pk,2022_Mar_25_1152,training+cueing,2021.1.4,59.937161889426946,
Friend.png,Friend,Friend,c,2,12,22,92,,,,,1,0,1,0,0,4,4,4,,,,,,,,,,,,,,,,,,,,,,,,,1.594,2.225,482.4924553000019,None,483.02212999999756,483.52660320000723,483.5099275999819,483.6266386999632,483.5099275999819,483.6266386999632,483.6099301999784,None,None,0,483.6099301999784,None,485.2111005000188,None,,,,,,,,,,,,,,,,,,,,,,,,,m,,pk,2022_Mar_25_1152,training+cueing,2021.1.4,59.937161889426946,
Friend.png,Stranger,Friend,m,3.2,19,29,99,,,,,1,0,1,0,0,5,5,5,,,,,,,,,,,,,,,,,,,,,,,,,1.709,2.338,485.6114827999845,None,486.1463091999758,486.64547599997604,486.64547599997604,486.74562269996386,486.64547599997604,486.74562269996386,486.74562269996386,None,c,0,486.74562269996386,None,487.64617459999863,None,0.8780902000144124,,,,,,,,,,,,,,,,,,,,,,,,m,,pk,2022_Mar_25_1152,training+cueing,2021.1.4,59.937161889426946,
Self.png,You,Self ,c,1,11,21,91,,,,,1,0,1,0,0,6,6,0,,,,,,,,,,,,,,,,,,,,,,,,,1.596,2.105,488.0464671999798,None,488.57524729997385,489.080526500009,489.0638419999741,489.1638634999981,489.0638419999741,489.1638634999981,489.1638634999981,None,c,1,489.1638634999981,None,489.5963950000005,None,0.4119222000008449,,,,,,,,,,,,,,,,,,,,,,,,m,,pk,2022_Mar_25_1152,training+cueing,2021.1.4,59.937161889426946,
Stranger.png,Stranger,Stranger,c,3,13,23,93,,,,,1,0,1,0,0,7,7,8,,,,,,,,,,,,,,,,,,,,,,,,,1.525,1.39,489.9978614000138,None,490.53105970000615,491.0319095000159,491.01527639996493,491.1319397999905,491.01527639996493,491.1319397999905,491.1152470000088,None,None,0,491.1152470000088,None,492.6476526000188,None,,,,,,,,,,,,,,,,,,,,,,,,,m,,pk,2022_Mar_25_1152,training+cueing,2021.1.4,59.937161889426946,
Friend.png,You,Friend,m,1.2,14,24,94,,,,,1,0,1,0,0,8,8,3,,,,,,,,,,,,,,,,,,,,,,,,,1.765,2.129,493.05022609996377,None,493.58496900001774,494.08414799999446,494.08414799999446,494.18418759998167,494.08414799999446,494.18418759998167,494.18418759998167,None,None,0,494.18418759998167,None,495.95217269996647,None,,,,,,,,,,,,,,,,,,,,,,,,,m,,pk,2022_Mar_25_1152,training+cueing,2021.1.4,59.937161889426946,
Stranger.png,Stranger,Stranger,c,3,13,23,93,,,,,1,0,1,0,0,9,9,11,,,,,,,,,,,,,,,,,,,,,,,,,1.741,1.776,496.3524385999772,None,496.8854009999777,497.3865143000148,497.36987890000455,497.48656519997166,497.36987890000455,497.48656519997166,497.48656519997166,None,c,1,497.48656519997166,None,498.0690006999648,None,0.5532880999962799,,,,,,,,,,,,,,,,,,,,,,,,m,,pk,2022_Mar_25_1152,training+cueing,2021.1.4,59.937161889426946,
Stranger.png,Friend,Stranger,m,2.3,17,27,97,,,,,1,0,1,0,0,10,10,7,,,,,,,,,,,,,,,,,,,,,,,,,1.767,2.342,498.47075189999305,None,499.0067491999944,499.5213538999669,499.504750699969,499.6214140999946,499.504750699969,499.6214140999946,499.60473819996696,None,None,0,499.60473819996696,None,501.3713998000021,None,,,,,,,,,,,,,,,,,,,,,,,,,m,,pk,2022_Mar_25_1152,training+cueing,2021.1.4,59.937161889426946,
Self.png,Friend,Self ,m,2.1,16,26,96,,,,,1,0,1,0,0,11,11,1,,,,,,,,,,,,,,,,,,,,,,,,,1.51,1.933,501.77328159997705,None,502.30958499998087,502.82381139998324,502.80720089998795,502.92384790000506,502.80720089998795,502.92384790000506,502.90714069997193,None,c,0,502.90714069997193,None,503.60775389999617,None,0.6846373999724165,,,,,,,,,,,,,,,,,,,,,,,,m,,pk,2022_Mar_25_1152,training+cueing,2021.1.4,59.937161889426946,
Stranger.png,Friend,Stranger,m,2.3,17,27,97,,,,,1,0,1,0,,,,,0,0,0,7,,,,,,,,,,,,,,,,,,,511.27997849998064,None,1.795,1.612,514.7966644999688,None,,,,,,,,,,,,,,,,504.0079865999869,None,0.013969519932288677,0.5117615199415013,515.3275781999691,515.8331742999726,0.5113675599568523,1.0116833599749953,515.8165556999738,515.933238699974,515.8165556999738,515.933238699974,515.9165375999874,None,c,0,0.8592921000090428,515.9165375999874,None,,,,,m,,pk,2022_Mar_25_1152,training+cueing,2021.1.4,59.937161889426946,
Stranger.png,Stranger,Stranger,c,3,13,23,93,,,,,1,0,1,0,,,,,0,1,1,11,,,,,,,,,,,,,,,,,,,,,1.596,2.019,516.9079321000027,None,,,,,,,,,,,,,,,,,,,,517.4473926000064,517.9514181999839,0.506752260029316,1.0070349600282498,517.9347654000157,518.05147820001,517.9347654000157,518.05147820001,518.0347263999865,None,m,0,0.6450595000060275,518.0347263999865,None,,,,,m,,pk,2022_Mar_25_1152,training+cueing,2021.1.4,59.937161889426946,
Self.png,Stranger,Self ,m,3.1,18,28,98,,,,,1,0,1,0,,,,,0,2,2,2,,,,,,,,,,,,,,,,,,,,,1.754,2.451,518.8114174999646,None,,,,,,,,,,,,,,,,,,,,519.3479927000008,519.8527867000084,0.5090972599573433,1.0093873599544168,519.8361258999794,519.952835300006,519.8361258999794,519.952835300006,519.93611900002,None,m,1,0.7116121000144631,519.93611900002,None,,,,,m,,pk,2022_Mar_25_1152,training+cueing,2021.1.4,59.937161889426946,
Self.png,You,Self ,c,1,11,21,91,,,,,1,0,1,0,,,,,0,3,3,9,,,,,,,,,,,,,,,,,,,,,1.639,2.485,520.7759850000148,None,,,,,,,,,,,,,,,,,,,,521.3172139999806,521.8208905999782,0.506986960012,1.0072567600291222,521.8042367000016,521.904250099964,521.8042367000016,521.904250099964,521.904250099964,None,c,1,0.4875410000095144,521.904250099964,None,,,,,m,,pk,2022_Mar_25_1152,training+cueing,2021.1.4,59.937161889426946,
Friend.png,Friend,Friend,c,2,12,22,92,,,,,1,0,1,0,,,,,0,4,4,4,,,,,,,,,,,,,,,,,,,,,1.541,1.912,522.5279694999917,None,,,,,,,,,,,,,,,,,,,,523.06529280002,523.5721347999643,0.5121122599230148,1.0123948599211872,523.5554978,523.6721796999918,523.5554978,523.6721796999918,523.6554885999649,None,m,0,0.8162750999908894,523.6554885999649,None,,,,,m,,pk,2022_Mar_25_1152,training+cueing,2021.1.4,59.937161889426946,
Self.png,You,Self ,c,1,11,21,91,,,,,1,0,1,0,,,,,0,5,5,0,,,,,,,,,,,,,,,,,,,,,1.642,1.693,524.5965075999848,None,,,,,,,,,,,,,,,,,,,,525.136511299992,525.640389600012,0.508387359965127,1.008691259950865,525.6236684999894,525.7236949999933,525.6236684999894,525.7236949999933,525.7236949999933,None,c,1,0.5240861999918707,525.7236949999933,None,,,,,m,,pk,2022_Mar_25_1152,training+cueing,2021.1.4,59.937161889426946,
Self.png,Friend,Self ,m,2.1,16,26,96,,,,,1,0,1,0,,,,,0,6,6,1,,,,,,,,,,,,,,,,,,,,,1.614,1.697,526.3810955999652,None,,,,,,,,,,,,,,,,,,,,526.9224602999748,527.4249219999765,0.506293159967754,1.006769859988708,527.4082907999982,527.525687300018,527.4082907999982,527.525687300018,527.5082757999771,None,c,0,0.5315418999525718,527.5082757999771,None,,,,,m,,pk,2022_Mar_25_1152,training+cueing,2021.1.4,59.937161889426946,
Friend.png,You,Friend,m,1.2,14,24,94,,,,,1,0,1,0,,,,,0,7,7,3,,,,,,,,,,,,,,,,,,,,,1.703,2.359,528.1657839000109,None,,,,,,,,,,,,,,,,,,,,528.7052015999798,529.2095977999852,0.506778159935493,1.007041759963613,529.1929477999802,529.2929650999722,529.1929477999802,529.2929650999722,529.2929650999722,None,m,1,0.7628171000396833,529.2929650999722,None,,,,,m,,pk,2022_Mar_25_1152,training+cueing,2021.1.4,59.937161889426946,
Stranger.png,Stranger,Stranger,c,3,13,23,93,,,,,1,0,1,0,,,,,0,8,8,8,,,,,,,,,,,,,,,,,,,,,1.677,1.908,530.1825627000071,None,,,,,,,,,,,,,,,,,,,,530.723564999993,531.2276615999872,0.5081725599593483,1.0084580599796027,531.2110358999926,531.3277186999912,531.2110358999926,531.3277186999912,531.3109923999873,None,m,0,0.6808139000204392,531.3109923999873,None,,,,,m,,pk,2022_Mar_25_1152,training+cueing,2021.1.4,59.937161889426946,
Friend.png,Friend,Friend,c,2,12,22,92,,,,,1,0,1,0,,,,,0,9,9,10,,,,,,,,,,,,,,,,,,,,,1.776,2.335,532.1174391999957,None,,,,,,,,,,,,,,,,,,,,532.6596852999646,533.1624720999971,0.5061702599632554,1.0063683599582873,533.1458253000164,533.2624938999652,533.1458253000164,533.2624938999652,533.2457773999777,None,c,1,0.6659961999976076,533.2457773999777,None,,,,,m,,pk,2022_Mar_25_1152,training+cueing,2021.1.4,59.937161889426946,
Stranger.png,You,Stranger,m,1.3,15,25,95,,,,,1,0,1,0,,,,,0,10,10,6,,,,,,,,,,,,,,,,,,,,,1.433,1.232,534.035610699968,None,,,,,,,,,,,,,,,,,,,,534.5770656999666,535.08045150002,0.5053876599995419,1.005686659947969,535.0638171000173,535.1638569000061,535.0638171000173,535.1638569000061,535.1638569000061,None,m,1,0.6358751999796368,535.1638569000061,None,,,,,m,,pk,2022_Mar_25_1152,training+cueing,2021.1.4,59.937161889426946,
Friend.png,Stranger,Friend,m,3.2,19,29,99,,,,,1,0,1,0,,,,,0,11,11,5,,,,,,,,,,,,,,,,,,,,,1.469,2.424,535.9371950000059,None,,,,,,,,,,,,,,,,,,,,536.4777158999932,536.9818470000173,0.5071103599620983,1.0074143599485978,536.9651970000123,537.08190499997,536.9651970000123,537.08190499997,537.0651779000182,None,m,1,0.8145443999674171,537.0651779000182,None,,,,,m,,pk,2022_Mar_25_1152,training+cueing,2021.1.4,59.937161889426946,
Self.png,You,Self ,c,1,11,21,91,,,,,1,0,1,0,,,,,1,0,12,0,,,,,,,,,,,,,,,,,,,,,1.451,2.404,538.0054215000127,None,,,,,,,,,,,,,,,,,,,,538.545854099968,539.050051499973,0.5069438600330614,1.00725316000171,539.0333566999761,539.1334085999988,539.0333566999761,539.1334085999988,539.1334085999988,None,c,1,0.5864169999840669,539.1334085999988,None,,,,,m,,pk,2022_Mar_25_1152,training+cueing,2021.1.4,59.937161889426946,
Self.png,Stranger,Self ,m,3.1,18,28,98,,,,,1,0,1,0,,,,,1,1,13,2,,,,,,,,,,,,,,,,,,,,,1.728,1.619,539.8566626000102,None,,,,,,,,,,,,,,,,,,,,540.3965522999642,540.9013725999976,0.5094401599490084,1.0097039599786513,540.8847428999725,541.0013973999885,540.8847428999725,541.0013973999885,540.9846937999828,None,m,1,0.8951603000168689,540.9846937999828,None,,,,,m,,pk,2022_Mar_25_1152,training+cueing,2021.1.4,59.937161889426946,
Friend.png,You,Friend,m,1.2,14,24,94,,,,,1,0,1,0,,,,,1,2,14,3,,,,,,,,,,,,,,,,,,,,,1.546,1.872,542.0083823999739,None,,,,,,,,,,,,,,,,,,,,542.5496900000144,543.0529453000054,0.506733659945894,1.0069824599777348,543.0362939999904,543.1362937999656,543.0362939999904,543.1362937999656,543.1362937999656,None,m,1,0.6634921000222676,543.1362937999656,None,,,,,m,,pk,2022_Mar_25_1152,training+cueing,2021.1.4,59.937161889426946,
Stranger.png,Stranger,Stranger,c,3,13,23,93,,,,,1,0,1,0,,,,,1,3,15,8,,,,,,,,,,,,,,,,,,,,,1.475,1.222,543.9264604999917,None,,,,,,,,,,,,,,,,,,,,544.4653097999981,544.9709633999737,0.509709460020531,1.0100559599814005,544.9542604999733,545.0710112999659,544.9542604999733,545.0710112999659,545.0542888999917,None,c,1,0.6494566000183113,545.0542888999917,None,,,,,m,,pk,2022_Mar_25_1152,training+cueing,2021.1.4,59.937161889426946,
Self.png,You,Self ,c,1,11,21,91,,,,,1,0,1,0,,,,,1,4,16,9,,,,,,,,,,,,,,,,,,,,,1.559,1.747,545.8277385999681,None,,,,,,,,,,,,,,,,,,,,546.3678788999678,546.8723570000147,0.5084904599934816,1.008791059954092,546.8556843000115,546.9557188000181,546.8556843000115,546.9557188000181,546.9557188000181,None,m,0,0.5241060000262223,546.9557188000181,None,,,,,m,,pk,2022_Mar_25_1152,training+cueing,2021.1.4,59.937161889426946,
Friend.png,Friend,Friend,c,2,12,22,92,,,,,1,0,1,0,,,,,1,5,17,10,,,,,,,,,,,,,,,,,,,,,1.729,1.729,547.6124411000055,None,,,,,,,,,,,,,,,,,,,,548.1534826999996,548.6570132999914,0.506812359963078,1.007152659993153,548.6403924999759,548.7571368999779,548.6403924999759,548.7571368999779,548.7404383000103,None,m,0,0.6114157999982126,548.7404383000103,None,,,,,m,,pk,2022_Mar_25_1152,training+cueing,2021.1.4,59.937161889426946,
Stranger.png,Stranger,Stranger,c,3,13,23,93,,,,,1,0,1,0,,,,,1,6,18,11,,,,,,,,,,,,,,,,,,,,,1.698,2.0,549.4804895999841,None,,,,,,,,,,,,,,,,,,,,550.0184028999647,550.5249854999711,0.5102572600007989,1.010528759972658,550.5083758999826,550.6250135999871,550.5083758999826,550.6250135999871,550.6083447000128,None,c,1,0.839398899988737,550.6083447000128,None,,,,,m,,pk,2022_Mar_25_1152,training+cueing,2021.1.4,59.937161889426946,
Stranger.png,Friend,Stranger,m,2.3,17,27,97,,,,,1,0,1,0,,,,,1,7,19,7,,,,,,,,,,,,,,,,,,,,,1.454,1.691,551.5815394999809,None,,,,,,,,,,,,,,,,,,,,552.1232934999862,552.626516499964,0.5066544599831104,1.0068830599775538,552.6099113000091,552.7265649000183,552.6099113000091,552.7265649000183,552.7098824999994,None,c,0,0.6579743000329472,552.7098824999994,None,,,,,m,,pk,2022_Mar_25_1152,training+cueing,2021.1.4,59.937161889426946,
Stranger.png,You,Stranger,m,1.3,15,25,95,,,,,1,0,1,0,,,,,1,8,20,6,,,,,,,,,,,,,,,,,,,,,1.629,1.366,553.4999338999623,None,,,,,,,,,,,,,,,,,,,,554.0405344999745,554.544558900001,0.5067793600028381,1.0070370599860325,554.5279317999957,554.6279735999997,554.5279317999957,554.6279735999997,554.6279735999997,None,m,1,0.7078150999732316,554.6279735999997,None,,,,,m,,pk,2022_Mar_25_1152,training+cueing,2021.1.4,59.937161889426946,
Friend.png,Friend,Friend,c,2,12,22,92,,,,,1,0,1,0,,,,,1,9,21,4,,,,,,,,,,,,,,,,,,,,,1.67,1.293,555.4674890000024,None,,,,,,,,,,,,,,,,,,,,556.0075921000098,556.5126578999916,0.5091869600000791,1.009519060025923,556.4959558999981,556.6127330000163,556.4959558999981,556.6127330000163,556.5959633999737,None,c,1,0.7557670999667607,556.5959633999737,None,,,,,m,,pk,2022_Mar_25_1152,training+cueing,2021.1.4,59.937161889426946,
Self.png,Friend,Self ,m,2.1,16,26,96,,,,,1,0,1,0,,,,,1,10,22,1,,,,,,,,,,,,,,,,,,,,,1.696,1.468,557.4863695999957,None,,,,,,,,,,,,,,,,,,,,558.0252755999682,558.5307964999811,0.5112103599822149,1.0114756599650718,558.5141750000184,558.6308666999685,558.5141750000184,558.6308666999685,558.6141713999677,None,c,0,0.6256809000042267,558.6141713999677,None,,,,,m,,pk,2022_Mar_25_1152,training+cueing,2021.1.4,59.937161889426946,
Friend.png,Stranger,Friend,m,3.2,19,29,99,,,,,1,0,1,0,,,,,1,11,23,5,,,,,,,,,,,,,,,,,,,,,1.626,1.812,559.3705229000188,None,,,,,,,,,,,,,,,,,,,,559.9085930999718,560.4155209999881,0.5111302599543706,1.0113927599741146,560.3988880999968,560.5155192000093,560.3988880999968,560.5155192000093,560.4988225999987,None,m,1,0.6769807999953628,560.4988225999987,None,,,,,m,,pk,2022_Mar_25_1152,training+cueing,2021.1.4,59.937161889426946,
Stranger.png,You,Stranger,m,1.3,15,25,95,,,,,1,0,1,0,,,,,2,0,24,6,,,,,,,,,,,,,,,,,,,,,1.789,1.561,561.3054604000063,None,,,,,,,,,,,,,,,,,,,,561.8456565999659,562.3501746999682,0.5089777600369416,1.0092610600404441,562.3335816999897,562.4336134999758,562.3335816999897,562.4336134999758,562.4336134999758,None,m,1,0.6461966999922879,562.4336134999758,None,,,,,m,,pk,2022_Mar_25_1152,training+cueing,2021.1.4,59.937161889426946,
Self.png,You,Self ,c,1,11,21,91,,,,,1,0,1,0,,,,,2,1,25,0,,,,,,,,,,,,,,,,,,,,,1.402,1.858,563.2067432000185,None,,,,,,,,,,,,,,,,,,,,563.7503430999932,564.2515943999751,0.5115289600216784,1.0118815600289963,564.2349590999656,564.3349869999802,564.2349590999656,564.3349869999802,564.3349869999802,None,c,1,0.5848219000035897,564.3349869999802,None,,,,,m,,pk,2022_Mar_25_1152,training+cueing,2021.1.4,59.937161889426946,
Self.png,You,Self ,c,1,11,21,91,,,,,1,0,1,0,,,,,2,2,26,9,,,,,,,,,,,,,,,,,,,,,1.411,1.619,565.0420138000045,None,,,,,,,,,,,,,,,,,,,,565.5773361999891,566.0862714999821,0.4992842600331642,None,566.0529298000038,566.1529512999696,566.0529298000038,566.1529512999696,566.1529512999696,None,c,1,0.3828474000329152,566.1529512999696,None,,,,,m,,pk,2022_Mar_25_1152,training+cueing,2021.1.4,59.937161889426946,
Friend.png,You,Friend,m,1.2,14,24,94,,,,,1,0,1,0,,,,,2,3,27,3,,,,,,,,,,,,,,,,,,,,,1.461,2.316,566.6598207000061,None,,,,,,,,,,,,,,,,,,,,567.1972608999931,567.7040985999629,0.5130097600049339,1.013352659996599,567.6874637000146,567.7874980999622,567.6874637000146,567.7874980999622,567.7874980999622,None,m,1,0.6042986999964342,567.7874980999622,None,,,,,m,,pk,2022_Mar_25_1152,training+cueing,2021.1.4,59.937161889426946,
Stranger.png,Stranger,Stranger,c,3,13,23,93,,,,,1,0,1,0,,,,,2,4,28,8,,,,,,,,,,,,,,,,,,,,,1.678,2.18,568.5274634999805,None,,,,,,,,,,,,,,,,,,,,569.0684604999842,569.5721414000145,0.5055262599489652,1.005741759960074,569.5555304000154,569.6721779999789,569.5555304000154,569.6721779999789,569.6554529999848,None,m,0,0.7202675000298768,569.6554529999848,None,,,,,m,,pk,2022_Mar_25_1152,training+cueing,2021.1.4,59.937161889426946,
Friend.png,Friend,Friend,c,2,12,22,92,,,,,1,0,1,0,,,,,2,5,29,10,,,,,,,,,,,,,,,,,,,,,1.513,1.682,570.5121623000014,None,,,,,,,,,,,,,,,,,,,,571.0520065000164,571.5568784999778,0.5109063599957153,1.0110951599781401,571.5403070999891,571.6569404000184,571.5403070999891,571.6569404000184,571.6402472999762,None,c,1,0.6714896999765188,571.6402472999762,None,,,,,m,,pk,2022_Mar_25_1152,training+cueing,2021.1.4,59.937161889426946,
Self.png,Stranger,Self ,m,3.1,18,28,98,,,,,1,0,1,0,,,,,2,6,30,2,,,,,,,,,,,,,,,,,,,,,1.713,1.27,572.4469409000012,None,,,,,,,,,,,,,,,,,,,,572.9889079999994,573.491620899993,0.5062516599427909,1.0065252599888481,573.4749684999697,573.5916835999815,573.4749684999697,573.5916835999815,573.5749642999726,None,m,1,0.6089160999981686,573.5749642999726,None,,,,,m,,pk,2022_Mar_25_1152,training+cueing,2021.1.4,59.937161889426946,
Stranger.png,Friend,Stranger,m,2.3,17,27,97,,,,,1,0,1,0,,,,,2,7,31,7,,,,,,,,,,,,,,,,,,,,,1.646,2.215,574.3142922999687,None,,,,,,,,,,,,,,,,,,,,574.8556113999803,575.3596524000168,0.5059480599593371,1.0062104599783197,575.3430337000173,575.4596975999884,575.3430337000173,575.4596975999884,575.4430128000095,None,m,1,0.5487760999822058,575.4430128000095,None,,,,,m,,pk,2022_Mar_25_1152,training+cueing,2021.1.4,59.937161889426946,
Friend.png,Friend,Friend,c,2,12,22,92,,,,,1,0,1,0,,,,,2,8,32,4,,,,,,,,,,,,,,,,,,,,,1.487,1.846,576.1163564000162,None,,,,,,,,,,,,,,,,,,,,576.6533259999705,577.1609038999886,0.49953835998894647,0.9999184599728324,577.1276065999991,577.2276539999875,577.1276065999991,577.2276539999875,577.2276539999875,None,m,0,0.908161300001666,577.2276539999875,None,,,,,m,,pk,2022_Mar_25_1152,training+cueing,2021.1.4,59.937161889426946,
Self.png,Friend,Self ,m,2.1,16,26,96,,,,,1,0,1,0,,,,,2,9,33,1,,,,,,,,,,,,,,,,,,,,,1.722,2.081,578.2688156999648,None,,,,,,,,,,,,,,,,,,,,578.8063627000083,579.3125614000019,0.5116875600069761,1.0125675600138493,579.295904700004,579.4125693999813,579.295904700004,579.4125693999813,579.3958721999661,None,m,1,0.5960052000009455,579.3958721999661,None,,,,,m,,pk,2022_Mar_25_1152,training+cueing,2021.1.4,59.937161889426946,
Friend.png,Stranger,Friend,m,3.2,19,29,99,,,,,1,0,1,0,,,,,2,10,34,5,,,,,,,,,,,,,,,,,,,,,1.631,1.232,580.1202415999724,None,,,,,,,,,,,,,,,,,,,,580.6588340000017,581.1638520999695,0.5073566600331105,1.0076453600195237,581.1471936000162,581.26391899999,581.1471936000162,581.26391899999,581.2472018999979,None,c,0,0.6325974999926984,581.2472018999979,None,,,,,m,,pk,2022_Mar_25_1152,training+cueing,2021.1.4,59.937161889426946,
Stranger.png,Stranger,Stranger,c,3,13,23,93,,,,,1,0,1,0,,,,,2,11,35,11,,,,,,,,,,,,,,,,,,,,,1.564,1.684,582.0042287000106,None,,,,,,,,,,,,,,,,,,,,582.5424415000016,583.0485243999865,0.5119579599704593,1.0122914599487558,583.0318833999918,583.148709799978,583.0318833999918,583.148709799978,583.132156800013,None,c,1,0.5875446000136435,583.132156800013,None,,,,,m,,pk,2022_Mar_25_1152,training+cueing,2021.1.4,59.937161889426946,
Self.png,You,Self ,c,1,11,21,91,,,,,1,0,1,0,,,,,3,0,36,0,,,,,,,,,,,,,,,,,,,,,1.717,2.119,583.8553525999887,None,,,,,,,,,,,,,,,,,,,,584.3949442000012,584.8999063000083,0.5075227600173093,1.00773976003984,584.8833039000165,584.9833066000137,584.8833039000165,584.9833066000137,584.9833066000137,None,c,1,0.5445719999843277,584.9833066000137,None,,,,,m,,pk,2022_Mar_25_1152,training+cueing,2021.1.4,59.937161889426946,
Self.png,Stranger,Self ,m,3.1,18,28,98,,,,,1,0,1,0,,,,,3,1,37,2,,,,,,,,,,,,,,,,,,,,,1.592,1.323,585.6565570000093,None,,,,,,,,,,,,,,,,,,,,586.1994458999834,586.7011936000199,0.5051325599779375,1.005470959993545,586.6845710999914,586.801240300003,586.6845710999914,586.801240300003,586.7845413999748,None,m,1,0.6473187999799848,586.7845413999748,None,,,,,m,,pk,2022_Mar_25_1152,training+cueing,2021.1.4,59.937161889426946,
Stranger.png,Stranger,Stranger,c,3,13,23,93,,,,,1,0,1,0,,,,,3,2,38,11,,,,,,,,,,,,,,,,,,,,,1.694,1.926,587.557744699996,None,,,,,,,,,,,,,,,,,,,,588.0947005999624,588.6026092999964,0.5159368599997833,1.0159653599839658,588.5861627999693,588.7026076000184,588.5861627999693,588.7026076000184,588.6859190000105,None,c,1,0.5378855000017211,588.6859190000105,None,,,,,m,,pk,2022_Mar_25_1152,training+cueing,2021.1.4,59.937161889426946,
Self.png,Friend,Self ,m,2.1,16,26,96,,,,,1,0,1,0,,,,,3,3,39,1,,,,,,,,,,,,,,,,,,,,,1.58,2.468,589.359208000009,None,,,,,,,,,,,,,,,,,,,,589.8990405999939,590.4038882000023,0.5072360600461252,1.0075010600266978,590.3872546000057,590.5039609000087,590.3872546000057,590.5039609000087,590.4872420000029,None,c,0,0.46454120002454147,590.4872420000029,None,,,,,m,,pk,2022_Mar_25_1152,training+cueing,2021.1.4,59.937161889426946,
Friend.png,Friend,Friend,c,2,12,22,92,,,,,1,0,1,0,,,,,3,4,40,4,,,,,,,,,,,,,,,,,,,,,1.604,2.485,591.0767666000174,None,,,,,,,,,,,,,,,,,,,,591.6159186000004,592.1218190999934,0.5115966600133106,1.0119032600196078,592.1051390999928,592.2218294999911,592.1051390999928,592.2218294999911,592.2051304000197,None,m,0,0.6187628000043333,592.2051304000197,None,,,,,m,,pk,2022_Mar_25_1152,training+cueing,2021.1.4,59.937161889426946,
Stranger.png,Friend,Stranger,m,2.3,17,27,97,,,,,1,0,1,0,,,,,3,5,41,7,,,,,,,,,,,,,,,,,,,,,1.743,1.632,592.9452339999843,None,,,,,,,,,,,,,,,,,,,,593.4818702999619,593.9898806000128,0.4991390600334853,0.9994577600155026,593.9566290999646,594.0566663999925,593.9566290999646,594.0566663999925,594.0566663999925,None,c,0,0.5590909000020474,594.0566663999925,None,,,,,m,,pk,2022_Mar_25_1152,training+cueing,2021.1.4,59.937161889426946,
Stranger.png,Stranger,Stranger,c,3,13,23,93,,,,,1,0,1,0,,,,,3,6,42,8,,,,,,,,,,,,,,,,,,,,,1.702,2.009,594.746346800006,None,,,,,,,,,,,,,,,,,,,,595.287110699981,595.7910830000183,0.506525459990371,1.006842959963251,595.7744772000005,595.8910932000144,595.7744772000005,595.8910932000144,595.8744650000008,None,m,0,0.5333475000225008,595.8744650000008,None,,,,,m,,pk,2022_Mar_25_1152,training+cueing,2021.1.4,59.937161889426946,
Friend.png,You,Friend,m,1.2,14,24,94,,,,,1,0,1,0,,,,,3,7,43,3,,,,,,,,,,,,,,,,,,,,,1.773,2.115,596.5314235999831,None,,,,,,,,,,,,,,,,,,,,597.07189989998,597.5757509999676,0.5073319600196555,1.0076025599846616,597.55910459999,597.6591281999717,597.55910459999,597.6591281999717,597.6591281999717,None,c,0,0.6527783000492491,597.6591281999717,None,,,,,m,,pk,2022_Mar_25_1152,training+cueing,2021.1.4,59.937161889426946,
Friend.png,Friend,Friend,c,2,12,22,92,,,,,1,0,1,0,,,,,3,8,44,10,,,,,,,,,,,,,,,,,,,,,1.631,2.316,598.4493364999653,None,,,,,,,,,,,,,,,,,,,,598.987897199986,599.4937731999671,0.5093730600201525,1.010300760040991,599.4771578999935,599.5938108999981,599.4771578999935,599.5938108999981,599.5771415999625,None,m,0,0.4310772999888286,599.5771415999625,None,,,,,m,,pk,2022_Mar_25_1152,training+cueing,2021.1.4,59.937161889426946,
Friend.png,Stranger,Friend,m,3.2,19,29,99,,,,,1,0,1,0,,,,,3,9,45,5,,,,,,,,,,,,,,,,,,,,,1.75,1.327,600.1363765000133,None,,,,,,,,,,,,,,,,,,,,600.6768513999996,601.1784495000029,0.5037620600196533,1.0040743600111455,601.1618327000178,601.2785147000104,601.1618327000178,601.2785147000104,601.261800599983,None,m,1,0.6660088000353426,601.261800599983,None,,,,,m,,pk,2022_Mar_25_1152,training+cueing,2021.1.4,59.937161889426946,
Self.png,You,Self ,c,1,11,21,91,,,,,1,0,1,0,,,,,3,10,46,9,,,,,,,,,,,,,,,,,,,,,1.437,1.379,602.0507749000099,None,,,,,,,,,,,,,,,,,,,,602.593328899995,603.0964077999815,0.5060197599814273,1.0063067600131035,603.0797783000162,603.1797843999811,603.0797783000162,603.1797843999811,603.1797843999811,None,c,1,0.3960042000398971,603.1797843999811,None,,,,,m,,pk,2022_Mar_25_1152,training+cueing,2021.1.4,59.937161889426946,
Stranger.png,You,Stranger,m,1.3,15,25,95,,,,,1,0,1,0,,,,,3,11,47,6,,,,,,,,,,,,,,,,,,,,,1.618,1.632,603.7032652999624,None,,,,,,,,,,,,,,,,,,,,604.238111499988,604.7476456000004,0.5001145599526353,1.0002815599436872,604.7143345999648,604.8142848999705,604.7143345999648,604.8142848999705,604.8142848999705,None,c,0,0.4575561000383459,604.8142848999705,None,,,,,m,,pk,2022_Mar_25_1152,training+cueing,2021.1.4,59.937161889426946,
Self.png,Stranger,Self ,m,3.1,18,28,98,,,,,1,0,1,0,,,,,4,0,48,2,,,,,,,,,,,,,,,,,,,,,1.443,2.182,605.4045844000066,None,,,,,,,,,,,,,,,,,,,,605.9445463999873,606.4488293000031,0.5080905600334518,1.0083833599928766,606.4321853999863,606.5488638000097,606.4321853999863,606.5488638000097,606.5321993000107,None,m,1,0.41956609999760985,606.5321993000107,None,,,,,m,,pk,2022_Mar_25_1152,training+cueing,2021.1.4,59.937161889426946,
Self.png,Friend,Self ,m,2.1,16,26,96,,,,,1,0,1,0,,,,,4,1,49,1,,,,,,,,,,,,,,,,,,,,,1.477,2.296,607.089157600014,None,,,,,,,,,,,,,,,,,,,,607.629973299976,608.1334139999817,0.5077675600186922,1.0080130599671975,608.1167863999726,608.2334482999868,608.1167863999726,608.2334482999868,608.2167020000052,None,m,1,0.6230985000147484,608.2167020000052,None,,,,,m,,pk,2022_Mar_25_1152,training+cueing,2021.1.4,59.937161889426946,
Friend.png,Stranger,Friend,m,3.2,19,29,99,,,,,1,0,1,0,,,,,4,2,50,5,,,,,,,,,,,,,,,,,,,,,1.74,2.151,608.9735184999881,None,,,,,,,,,,,,,,,,,,,,609.5114292000071,610.0180567000061,0.5112758600153029,1.0115641600568779,610.0014405999682,610.118114700017,610.0014405999682,610.118114700017,610.1014089999953,None,c,0,0.5623821000335738,610.1014089999953,None,,,,,m,,pk,2022_Mar_25_1152,training+cueing,2021.1.4,59.937161889426946,
Friend.png,Friend,Friend,c,2,12,22,92,,,,,1,0,1,0,,,,,4,3,51,10,,,,,,,,,,,,,,,,,,,,,1.594,2.108,610.7912833999726,None,,,,,,,,,,,,,,,,,,,,611.330322499969,611.8360654999851,0.5105861600022763,1.010893960017711,611.8193962000078,611.9361123999697,611.8193962000078,611.9361123999697,611.9194038999849,None,m,0,0.6483508000383154,611.9194038999849,None,,,,,m,,pk,2022_Mar_25_1152,training+cueing,2021.1.4,59.937161889426946,
Self.png,You,Self ,c,1,11,21,91,,,,,1,0,1,0,,,,,4,4,52,9,,,,,,,,,,,,,,,,,,,,,1.543,2.045,612.6925571999745,None,,,,,,,,,,,,,,,,,,,,613.2323182999971,613.7374328000005,0.5088221600162797,1.009084960038308,613.7207807999803,613.8207983999746,613.7207807999803,613.8207983999746,613.8207983999746,None,c,1,0.5231105000129901,613.8207983999746,None,,,,,m,,pk,2022_Mar_25_1152,training+cueing,2021.1.4,59.937161889426946,
Self.png,You,Self ,c,1,11,21,91,,,,,1,0,1,0,,,,,4,5,53,0,,,,,,,,,,,,,,,,,,,,,1.685,2.017,614.4772433000035,None,,,,,,,,,,,,,,,,,,,,615.0162402999704,615.5220788000152,0.5112385599059053,1.0115204599569552,615.5054422999965,615.6054564999649,615.5054422999965,615.6054564999649,615.6054564999649,None,c,1,0.41841260000364855,615.6054564999649,None,,,,,m,,pk,2022_Mar_25_1152,training+cueing,2021.1.4,59.937161889426946,
Friend.png,Friend,Friend,c,2,12,22,92,,,,,1,0,1,0,,,,,4,6,54,4,,,,,,,,,,,,,,,,,,,,,1.719,1.927,616.1617914999952,None,,,,,,,,,,,,,,,,,,,,616.7040219000191,617.2066330999951,0.5061581599875353,1.0063667600043118,617.1900032999692,617.3066855999641,617.1900032999692,617.3066855999641,617.2899603999685,None,c,1,0.5739175999769941,617.2899603999685,None,,,,,m,,pk,2022_Mar_25_1152,training+cueing,2021.1.4,59.937161889426946,
Stranger.png,Stranger,Stranger,c,3,13,23,93,,,,,1,0,1,0,,,,,4,7,55,11,,,,,,,,,,,,,,,,,,,,,1.74,1.783,617.9962010000017,None,,,,,,,,,,,,,,,,,,,,618.5354374999879,619.041230999981,0.5099911599536426,1.010640259948559,619.0246340999729,619.1420031000162,619.0246340999729,619.1420031000162,619.1246363999671,None,c,1,0.4513343999860808,619.1246363999671,None,,,,,m,,pk,2022_Mar_25_1152,training+cueing,2021.1.4,59.937161889426946,
Stranger.png,You,Stranger,m,1.3,15,25,95,,,,,1,0,1,0,,,,,4,8,56,6,,,,,,,,,,,,,,,,,,,,,1.625,1.589,619.7000668999972,None,,,,,,,,,,,,,,,,,,,,620.2397430000128,620.7425323000061,0.5067203600192443,1.0069982599816285,620.7258744999999,620.8258936000057,620.7258744999999,620.8258936000057,620.8258936000057,None,m,1,0.6538690999732353,620.8258936000057,None,,,,,m,,pk,2022_Mar_25_1152,training+cueing,2021.1.4,59.937161889426946,
Stranger.png,Friend,Stranger,m,2.3,17,27,97,,,,,1,0,1,0,,,,,4,9,57,7,,,,,,,,,,,,,,,,,,,,,1.789,2.223,621.615949900006,None,,,,,,,,,,,,,,,,,,,,622.1588446999667,622.6605917999987,0.5051601600134745,1.005387659999542,622.6439782999805,622.760615999985,622.6439782999805,622.760615999985,622.7439194999752,None,m,1,0.7198995999642648,622.7439194999752,None,,,,,m,,pk,2022_Mar_25_1152,training+cueing,2021.1.4,59.937161889426946,
Stranger.png,Stranger,Stranger,c,3,13,23,93,,,,,1,0,1,0,,,,,4,10,58,8,,,,,,,,,,,,,,,,,,,,,1.694,2.112,623.601068799966,None,,,,,,,,,,,,,,,,,,,,624.1395489000133,624.6453232999775,0.509442959970329,1.0097139599965885,624.6286925000022,624.7453599,624.6286925000022,624.7453599,624.7286658000085,None,m,0,0.7351153999916278,624.7286658000085,None,,,,,m,,pk,2022_Mar_25_1152,training+cueing,2021.1.4,59.937161889426946,
Friend.png,You,Friend,m,1.2,14,24,94,,,,,1,0,1,0,,,,,4,11,59,3,,,,,,,,,,,,,,,,,,,,,1.566,2.265,625.5855594999739,None,,,,,,,,,,,,,,,,,,,,626.1259908999782,626.630117499968,0.508773959998507,1.009047060040757,626.6134677999653,626.7134757000022,626.6134677999653,626.7134757000022,626.7134757000022,None,m,1,0.7982674000086263,626.7134757000022,None,,,,,m,,pk,2022_Mar_25_1152,training+cueing,2021.1.4,59.937161889426946,
Self.png,You,Self ,c,1,11,21,91,,,,,1,0,1,0,,,,,5,0,60,0,,,,,,,,,,,,,,,,,,,,,1.734,1.584,627.6370102000074,None,,,,,,,,,,,,,,,,,,,,628.1724496000097,628.681557599979,0.4999491600319743,1.000241459987592,628.6482773000025,628.748308899987,628.6482773000025,628.748308899987,628.748308899987,None,c,1,0.5715565999853425,628.748308899987,None,,,,,m,,pk,2022_Mar_25_1152,training+cueing,2021.1.4,59.937161889426946,
Stranger.png,You,Stranger,m,1.3,15,25,95,,,,,1,0,1,0,,,,,5,1,61,6,,,,,,,,,,,,,,,,,,,,,1.564,1.715,629.4552565999911,None,,,,,,,,,,,,,,,,,,,,629.992645899998,630.49960619997,0.5146614600089379,1.0154473599977791,630.4829371999949,630.5829579000128,630.4829371999949,630.5829579000128,630.5829579000128,None,m,1,0.6571212999988347,630.5829579000128,None,,,,,m,,pk,2022_Mar_25_1152,training+cueing,2021.1.4,59.937161889426946,
Self.png,Friend,Self ,m,2.1,16,26,96,,,,,1,0,1,0,,,,,5,2,62,1,,,,,,,,,,,,,,,,,,,,,1.431,2.376,631.3743397999788,None,,,,,,,,,,,,,,,,,,,,631.9158168999711,632.41764900001,0.5041111600003205,1.0043696599896066,632.4009953999775,632.5176820000052,632.4009953999775,632.5176820000052,632.5009588999674,None,c,0,0.8349109999835491,632.5009588999674,None,,,,,m,,pk,2022_Mar_25_1152,training+cueing,2021.1.4,59.937161889426946,
Friend.png,Friend,Friend,c,2,12,22,92,,,,,1,0,1,0,,,,,5,3,63,4,,,,,,,,,,,,,,,,,,,,,1.742,1.217,633.457711199997,None,,,,,,,,,,,,,,,,,,,,633.9939414999681,634.5024485000176,0.5149216599529609,1.0152461599791422,634.4858166999766,634.6025318999891,634.4858166999766,634.6025318999891,634.5858249000157,None,None,0,,634.5858249000157,None,,,,,m,,pk,2022_Mar_25_1152,training+cueing,2021.1.4,59.937161889426946,
Friend.png,You,Friend,m,1.2,14,24,94,,,,,1,0,1,0,,,,,5,4,64,3,,,,,,,,,,,,,,,,,,,,,1.438,1.523,636.441736400011,None,,,,,,,,,,,,,,,,,,,,636.9824689999805,637.4879781999625,0.5103597599663772,1.0106354599702172,637.4713569000014,637.571355299966,637.4713569000014,637.571355299966,637.571355299966,None,m,1,0.5323962000547908,637.571355299966,None,,,,,m,,pk,2022_Mar_25_1152,training+cueing,2021.1.4,59.937161889426946,
Stranger.png,Stranger,Stranger,c,3,13,23,93,,,,,1,0,1,0,,,,,5,5,65,8,,,,,,,,,,,,,,,,,,,,,1.446,1.76,638.2280332999653,None,,,,,,,,,,,,,,,,,,,,638.768705399998,639.2726907000178,0.50732605997473,1.0076701599755324,639.2559808999649,639.372744799999,639.2559808999649,639.372744799999,639.3560272000032,None,c,1,0.7798618999659084,639.3560272000032,None,,,,,m,,pk,2022_Mar_25_1152,training+cueing,2021.1.4,59.937161889426946,
Friend.png,Friend,Friend,c,2,12,22,92,,,,,1,0,1,0,,,,,5,6,66,10,,,,,,,,,,,,,,,,,,,,,1.442,1.252,640.2644096000004,None,,,,,,,,,,,,,,,,,,,,640.802435599966,641.3073776999954,0.5086929599638097,1.0089345599990338,641.2907853999641,641.4074513000087,641.2907853999641,641.4074513000087,641.3907504999661,None,m,0,0.5850480999797583,641.3907504999661,None,,,,,m,,pk,2022_Mar_25_1152,training+cueing,2021.1.4,59.937161889426946,
Stranger.png,Friend,Stranger,m,2.3,17,27,97,,,,,1,0,1,0,,,,,5,7,67,7,,,,,,,,,,,,,,,,,,,,,1.782,2.332,642.0974323999835,None,,,,,,,,,,,,,,,,,,,,642.6347142999875,643.1420689999941,0.5149118599947542,1.015221859968733,643.1254194999929,643.2421171999886,643.1254194999929,643.2421171999886,643.2254053999786,None,m,1,0.5904203999671154,643.2254053999786,None,,,,,m,,pk,2022_Mar_25_1152,training+cueing,2021.1.4,59.937161889426946,
Self.png,Stranger,Self ,m,3.1,18,28,98,,,,,1,0,1,0,,,,,5,8,68,2,,,,,,,,,,,,,,,,,,,,,1.785,1.797,643.9489154000184,None,,,,,,,,,,,,,,,,,,,,644.4894513000036,644.994280199986,0.5048786599654704,1.0061347599839792,644.9758554999717,645.0936298000161,644.9758554999717,645.0936298000161,645.0769058999722,None,m,1,0.6271415000082925,645.0769058999722,None,,,,,m,,pk,2022_Mar_25_1152,training+cueing,2021.1.4,59.937161889426946,
Self.png,You,Self ,c,1,11,21,91,,,,,1,0,1,0,,,,,5,9,69,9,,,,,,,,,,,,,,,,,,,,,1.481,2.198,645.8375937999808,None,,,,,,,,,,,,,,,,,,,,646.3725478000124,646.8780895000091,0.5103841599775478,1.0106829599826597,646.8614824999822,646.9614702999825,646.8614824999822,646.9614702999825,646.9614702999825,None,c,1,0.5503739999840036,646.9614702999825,None,,,,,m,,pk,2022_Mar_25_1152,training+cueing,2021.1.4,59.937161889426946,
Stranger.png,Stranger,Stranger,c,3,13,23,93,,,,,1,0,1,0,,,,,5,10,70,11,,,,,,,,,,,,,,,,,,,,,1.691,1.279,647.6345636000042,None,,,,,,,,,,,,,,,,,,,,648.1750198999653,648.6793851999682,0.5093718599528074,1.0096527599380352,648.6627699999954,648.7794485000195,648.6627699999954,648.7794485000195,648.7627559999819,None,m,0,0.6531034000217915,648.7627559999819,None,,,,,m,,pk,2022_Mar_25_1152,training+cueing,2021.1.4,59.937161889426946,
Friend.png,Stranger,Friend,m,3.2,19,29,99,,,,,1,0,1,0,,,,,5,11,71,5,,,,,,,,,,,,,,,,,,,,,1.532,1.296,649.5530878999853,None,,,,,,,,,,,,,,,,,,,,650.0902247999911,650.5974718999933,0.513286059955135,1.0135722599807195,650.5808286999818,650.6975148000056,650.5808286999818,650.6975148000056,650.6808214000193,None,m,1,0.5910521000041626,650.6808214000193,None,,,,,m,,pk,2022_Mar_25_1152,training+cueing,2021.1.4,59.937161889426946,
Self.png,You,Self ,c,1,11,21,91,,,,,1,0,1,0,,,,,6,0,72,0,,,,,,,,,,,,,,,,,,,,,1.743,1.917,651.4041640000069,None,,,,,,,,,,,,,,,,,,,,651.9455778999836,652.4488217000035,0.5069289599778131,1.0071596599882469,652.4322125000181,652.5321837000083,652.4322125000181,652.5321837000083,652.5321837000083,None,None,0,,652.5321837000083,None,,,,,m,,pk,2022_Mar_25_1152,training+cueing,2021.1.4,59.937161889426946,
Stranger.png,Friend,Stranger,m,2.3,17,27,97,,,,,1,0,1,0,,,,,6,1,73,7,,,,,,,,,,,,,,,,,,,,,1.606,1.376,654.3875864999718,None,,,,,,,,,,,,,,,,,,,,654.9281608000165,655.4343040999956,0.5121188599732704,1.012419359991327,655.4176611999865,655.5343901999877,655.4176611999865,655.5343901999877,655.517655899981,None,c,0,0.9064047999563627,655.517655899981,None,,,,,m,,pk,2022_Mar_25_1152,training+cueing,2021.1.4,59.937161889426946,
Friend.png,You,Friend,m,1.2,14,24,94,,,,,1,0,1,0,,,,,6,2,74,3,,,,,,,,,,,,,,,,,,,,,1.472,1.205,656.5581680000178,None,,,,,,,,,,,,,,,,,,,,657.0972925999667,657.6032378000091,0.5084961599786766,1.0088557599810883,657.5859359999886,657.6860245999997,657.5859359999886,657.6860245999997,657.6860245999997,None,m,1,0.5938319000415504,657.6860245999997,None,,,,,m,,pk,2022_Mar_25_1152,training+cueing,2021.1.4,59.937161889426946,
Stranger.png,You,Stranger,m,1.3,15,25,95,,,,,1,0,1,0,,,,,6,3,75,6,,,,,,,,,,,,,,,,,,,,,1.768,1.236,658.4092296999879,None,,,,,,,,,,,,,,,,,,,,658.9480855999864,659.4538907000097,0.5109420599765144,1.011231759970542,659.4372493000119,659.5372712999815,659.4372493000119,659.5372712999815,659.5372712999815,None,m,1,0.550666099996306,659.5372712999815,None,,,,,m,,pk,2022_Mar_25_1152,training+cueing,2021.1.4,59.937161889426946,
Stranger.png,Stranger,Stranger,c,3,13,23,93,,,,,1,0,1,0,,,,,6,4,76,11,,,,,,,,,,,,,,,,,,,,,1.477,2.057,660.2110671999981,None,,,,,,,,,,,,,,,,,,,,660.7496527999756,661.2552262999816,0.5091916599776596,1.0094693599967286,661.238538399979,661.355211499962,661.238538399979,661.355211499962,661.3385047999909,None,m,0,0.6373352000373416,661.3385047999909,None,,,,,m,,pk,2022_Mar_25_1152,training+cueing,2021.1.4,59.937161889426946,
Self.png,Stranger,Self ,m,3.1,18,28,98,,,,,1,0,1,0,,,,,6,5,77,2,,,,,,,,,,,,,,,,,,,,,1.645,1.389,662.1120804999955,None,,,,,,,,,,,,,,,,,,,,662.6502234999789,663.156566599966,0.5131328600109555,1.0134447599994019,663.1399082000135,663.2566180999856,663.1399082000135,663.2566180999856,663.2399178000051,None,m,1,0.6078831999911927,663.2399178000051,None,,,,,m,,pk,2022_Mar_25_1152,training+cueing,2021.1.4,59.937161889426946,
Friend.png,Friend,Friend,c,2,12,22,92,,,,,1,0,1,0,,,,,6,6,78,4,,,,,,,,,,,,,,,,,,,,,1.701,2.288,663.9795463000191,None,,,,,,,,,,,,,,,,,,,,664.5178195000044,665.0245887999772,0.5124903599498793,1.0127638599951752,665.0079296000185,665.1246405999991,665.0079296000185,665.1246405999991,665.107931800012,None,c,1,1.0118791999993846,665.107931800012,None,,,,,m,,pk,2022_Mar_25_1152,training+cueing,2021.1.4,59.937161889426946,
Friend.png,Friend,Friend,c,2,12,22,92,,,,,1,0,1,0,,,,,6,7,79,10,,,,,,,,,,,,,,,,,,,,,1.694,1.457,666.2477523999987,None,,,,,,,,,,,,,,,,,,,,666.7858705999679,667.2929064999917,0.5113750599557534,1.0116460599238053,667.2762942999834,667.3930252999999,667.2762942999834,667.3930252999999,667.3763542000088,None,m,0,0.6794603000162169,667.3763542000088,None,,,,,m,,pk,2022_Mar_25_1152,training+cueing,2021.1.4,59.937161889426946,
Self.png,Friend,Self ,m,2.1,16,26,96,,,,,1,0,1,0,,,,,6,8,80,1,,,,,,,,,,,,,,,,,,,,,1.442,2.319,668.1829667999991,None,,,,,,,,,,,,,,,,,,,,668.7188048000098,669.2277927999967,0.500985539983958,1.0012754399795085,669.2111292000045,669.3278267999995,669.2111292000045,669.3278267999995,669.3278267999995,None,m,1,0.7119863000116311,669.3278267999995,None,,,,,m,,pk,2022_Mar_25_1152,training+cueing,2021.1.4,59.937161889426946,
Self.png,You,Self ,c,1,11,21,91,,,,,1,0,1,0,,,,,6,9,81,9,,,,,,,,,,,,,,,,,,,,,1.404,1.78,670.1692303000018,None,,,,,,,,,,,,,,,,,,,,670.7084583999822,671.2123898999998,0.506659859966021,1.0069611599319614,671.1957491000067,671.2957900000038,671.1957491000067,671.2957900000038,671.2957900000038,None,c,1,0.647953299980145,671.2957900000038,None,,,,,m,,pk,2022_Mar_25_1152,training+cueing,2021.1.4,59.937161889426946,
Friend.png,Stranger,Friend,m,3.2,19,29,99,,,,,1,0,1,0,,,,,6,10,82,5,,,,,,,,,,,,,,,,,,,,,1.586,1.27,672.0690724999877,None,,,,,,,,,,,,,,,,,,,,672.6227537000086,673.1304515000083,0.5144171800347976,1.0146413799957372,673.1138229999924,673.2304797999677,673.1138229999924,673.2304797999677,673.2138084999751,None,m,1,0.8900045000482351,673.2138084999751,None,,,,,m,,pk,2022_Mar_25_1152,training+cueing,2021.1.4,59.937161889426946,
Stranger.png,Stranger,Stranger,c,3,13,23,93,,,,,1,0,1,0,,,,,6,11,83,8,,,,,,,,,,,,,,,,,,,,,1.641,1.915,674.2372942999937,None,,,,,,,,,,,,,,,,,,,,674.7748438999988,675.2819944999646,0.5150145600200631,1.0152764600352384,675.2654138999642,675.3820748999715,675.2654138999642,675.3820748999715,675.3653484999668,None,m,0,0.6904619999695569,675.3653484999668,None,,,,,m,,pk,2022_Mar_25_1152,training+cueing,2021.1.4,59.937161889426946,
Friend.png,Friend,Friend,c,2,12,22,92,,,,,1,0,1,0,,,,,7,0,84,10,,,,,,,,,,,,,,,,,,,,,1.672,1.328,676.1887709000148,None,,,,,,,,,,,,,,,,,,,,676.7294068000047,677.233427500003,0.5064435600070283,1.0067104600020684,677.2168021000107,677.3334624000126,677.2168021000107,677.3334624000126,677.3167677000165,None,c,1,0.6111030000029132,677.3167677000165,None,,,,,m,,pk,2022_Mar_25_1152,training+cueing,2021.1.4,59.937161889426946,
Stranger.png,Stranger,Stranger,c,3,13,23,93,,,,,1,0,1,0,,,,,7,1,85,11,,,,,,,,,,,,,,,,,,,,,1.583,2.284,678.0568229999626,None,,,,,,,,,,,,,,,,,,,,678.5963439000188,679.1014200999634,0.5106064599822275,1.010904959985055,679.0847754999995,679.2014855999732,679.0847754999995,679.2014855999732,679.1847622999921,None,c,1,0.6950323000201024,679.1847622999921,None,,,,,m,,pk,2022_Mar_25_1152,training+cueing,2021.1.4,59.937161889426946,
