Image,Name,Face,CorrAns,Match,Face_onset,CResponse_onset,IResponse_onset,Match.thisRepN,Match.thisTrialN,Match.thisN,Match.thisIndex,Blocks.thisRepN,Blocks.thisTrialN,Blocks.thisN,Blocks.thisIndex,trials.thisRepN,trials.thisTrialN,trials.thisN,trials.thisIndex,trials_2.thisRepN,trials_2.thisTrialN,trials_2.thisN,trials_2.thisIndex,text.started,text.stopped,p1.started,p1.stopped,MatchInstructions.started,MatchInstructions.stopped,Name1.started,Name1.stopped,Face_Relevance.started,Face_Relevance.stopped,MismatchInstructions.started,MismatchInstructions.stopped,Rest_trainingInstruct.started,Rest_trainingInstruct.stopped,next8.keys,next8.rt,next8.started,next8.stopped,Ready.started,Ready.stopped,delay_one_picked,delay_two_picked,blank0.started,blank0.stopped,FixationCross1.started,FixationCross1.stopped,Name3.started,Name3.stopped,Face_Relevance3.started,Face_Relevance3.stopped,responseTime.started,responseTime.stopped,resp.keys,resp.corr,resp.rt,resp.started,resp.stopped,Accuracy.started,Accuracy.stopped,questions.started,questions.stopped,p2.started,p2.stopped,FixationCross3.started,FixationCross3.stopped,port_Face_onset.started,port_Face_onset.stopped,Name4.started,Name4.stopped,Face_Relevance4.started,Face_Relevance4.stopped,responseTime2.started,responseTime2.stopped,Response.keys,Response.corr,Response.rt,Response.started,Response.stopped,p3.started,p3.stopped,Finish.started,Finish.stopped,gender,age,participant,date,expName,psychopyVersion,frameRate,
Self.png,You,,,,,,,0,0,0,0,,,,,,,,,,,,,13.577593700028956,None,0.01297930022701621,0.5420566003303975,16.591160700190812,None,18.749086800031364,None,18.749086800031364,None,,,,,,,,,,,,,,,,,,,,,,,,,,,,,,,,,,,,,,,,,,,,,,,,,,,,,,,pl2,2022_Apr_26_0940,training+cueing,2021.1.4,59.94650369564705,
Stranger.png,Stranger,,,,,,,0,1,1,2,,,,,,,,,,,,,,,,,,,38.649701700080186,None,38.649701700080186,None,,,,,,,,,,,,,,,,,,,,,,,,,,,,,,,,,,,,,,,,,,,,,,,,,,,,,,,pl2,2022_Apr_26_0940,training+cueing,2021.1.4,59.94650369564705,
Friend.png,Friend,,,,,,,0,2,2,1,,,,,,,,,,,,,,,,,,,58.656306200195104,None,58.656306200195104,None,,,,,,,,,,,,,,,,,,,,,,,,,,,,,,,,,,,,,,,,,,,,,,,,,,,,,,,pl2,2022_Apr_26_0940,training+cueing,2021.1.4,59.94650369564705,
Stranger.png,Stranger,Stranger,c,3,13,23,93,,,,,0,0,0,0,0,0,0,11,,,,,,,,,,,,,,,78.6052451999858,None,133.96191110019572,None,space,0.5440311999991536,2.007778499973938,None,136.5121377001051,None,1.404,1.589,139.53345039999112,None,140.16760460007936,140.66672600014135,140.66672600014135,140.76677810004912,140.66672600014135,140.76677810004912,140.76677810004912,None,m,0,1.0202866999898106,140.76677810004912,None,141.82726280018687,None,,,,,,,,,,,,,,,,,,,,,,,,,,pl2,2022_Apr_26_0940,training+cueing,2021.1.4,59.94650369564705,
Stranger.png,Stranger,Stranger,c,3,13,23,93,,,,,0,0,0,0,0,1,1,8,,,,,,,,,,,,,,,,,,,,,,,,,1.649,1.787,142.23457680013962,None,142.76744189998135,143.2685455000028,143.2518859000411,143.36862780014053,143.2518859000411,143.36862780014053,143.3519069000613,None,m,0,1.1708440999500453,143.3519069000613,None,144.55278650019318,None,,,,,,,,,,,,,,,,,,,,,,,,,,pl2,2022_Apr_26_0940,training+cueing,2021.1.4,59.94650369564705,
Self.png,You,Self ,c,1,11,21,91,,,,,0,0,0,0,0,2,2,0,,,,,,,,,,,,,,,,,,,,,,,,,1.695,1.203,144.9530976000242,None,145.5001048000995,146.00391210010275,145.98721750010736,146.08727840008214,145.98721750010736,146.08727840008214,146.08727840008214,None,c,1,0.9797727998811752,146.08727840008214,None,147.09845350007527,None,,,,,,,,,,,,,,,,,,,,,,,,,,pl2,2022_Apr_26_0940,training+cueing,2021.1.4,59.94650369564705,
Self.png,Stranger,Self ,m,3.1,18,28,98,,,,,0,0,0,0,0,3,3,2,,,,,,,,,,,,,,,,,,,,,,,,,1.426,2.045,147.50501710013486,None,148.03811570000835,148.53902630019002,148.5223716001492,148.63905320013873,148.5223716001492,148.63905320013873,148.63905320013873,None,m,1,1.1637398998718709,148.63905320013873,None,149.82332339999266,None,,,,,,,,,,,,,,,,,,,,,,,,,,pl2,2022_Apr_26_0940,training+cueing,2021.1.4,59.94650369564705,
Stranger.png,Friend,Stranger,m,2.3,17,27,97,,,,,0,0,0,0,0,4,4,7,,,,,,,,,,,,,,,,,,,,,,,,,1.757,1.734,150.22413960006088,None,150.76253080018796,151.27436130004935,151.25768960011192,151.37439300003462,151.25768960011192,151.37439300003462,151.35771900019608,None,None,0,,151.35771900019608,None,153.12381000001915,None,,,,,,,,,,,,,,,,,,,,,,,,,,pl2,2022_Apr_26_0940,training+cueing,2021.1.4,59.94650369564705,
Stranger.png,You,Stranger,m,1.3,15,25,95,,,,,0,0,0,0,0,5,5,6,,,,,,,,,,,,,,,,,,,,,,,,,1.586,2.027,153.52597060007975,None,154.07326920004562,154.57672290015034,154.56008339999244,154.6601335001178,154.56008339999244,154.6601335001178,154.6601335001178,None,c,0,0.8386214000638574,154.6601335001178,None,155.52739200019278,None,,,,,,,,,,,,,,,,,,,,,,,,,,pl2,2022_Apr_26_0940,training+cueing,2021.1.4,59.94650369564705,
Self.png,Friend,Self ,m,2.1,16,26,96,,,,,0,0,0,0,0,6,6,1,,,,,,,,,,,,,,,,,,,,,,,,,1.545,2.143,155.92771770013496,None,156.46027140016668,156.96180250006728,156.9451123001054,157.06190960016102,156.9451123001054,157.06190960016102,157.04522400000133,None,m,1,0.9015873000025749,157.04522400000133,None,157.9645730999764,None,,,,,,,,,,,,,,,,,,,,,,,,,,pl2,2022_Apr_26_0940,training+cueing,2021.1.4,59.94650369564705,
Friend.png,Friend,Friend,c,2,12,22,92,,,,,0,0,0,0,0,7,7,4,,,,,,,,,,,,,,,,,,,,,,,,,1.61,2.201,158.37964870012365,None,158.91498770006,159.43026920012198,159.41356200003065,159.53084600018337,159.41356200003065,159.53084600018337,159.51361670019105,None,c,1,1.3772867999505252,159.51361670019105,None,160.9130026001949,None,,,,,,,,,,,,,,,,,,,,,,,,,,pl2,2022_Apr_26_0940,training+cueing,2021.1.4,59.94650369564705,
Friend.png,Stranger,Friend,m,3.2,19,29,99,,,,,0,0,0,0,0,8,8,5,,,,,,,,,,,,,,,,,,,,,,,,,1.575,1.653,161.3154550001491,None,161.86396440002136,162.36572890006937,162.34714230010286,162.44903130014427,162.34714230010286,162.44903130014427,162.44903130014427,None,None,0,,162.44903130014427,None,164.03168070013635,None,,,,,,,,,,,,,,,,,,,,,,,,,,pl2,2022_Apr_26_0940,training+cueing,2021.1.4,59.94650369564705,
Friend.png,You,Friend,m,1.2,14,24,94,,,,,0,0,0,0,0,9,9,3,,,,,,,,,,,,,,,,,,,,,,,,,1.741,2.436,164.43387520010583,None,164.96609150012955,165.46791040012613,165.45128010003828,165.55133040016517,165.45128010003828,165.55133040016517,165.55133040016517,None,m,1,0.8754218998365104,165.55133040016517,None,166.46869660005905,None,,,,,,,,,,,,,,,,,,,,,,,,,,pl2,2022_Apr_26_0940,training+cueing,2021.1.4,59.94650369564705,
Self.png,You,Self ,c,1,11,21,91,,,,,0,0,0,0,0,10,10,9,,,,,,,,,,,,,,,,,,,,,,,,,1.604,1.343,166.86895680008456,None,167.40961210010573,167.91971600009128,167.90303210006095,168.0030820001848,167.90303210006095,168.0030820001848,168.0030820001848,None,c,1,0.6956509000156075,168.0030820001848,None,168.72032660013065,None,,,,,,,,,,,,,,,,,,,,,,,,,,pl2,2022_Apr_26_0940,training+cueing,2021.1.4,59.94650369564705,
Friend.png,Friend,Friend,c,2,12,22,92,,,,,0,0,0,0,0,11,11,10,,,,,,,,,,,,,,,,,,,,,,,,,1.698,1.893,169.120581000112,None,169.65261500002816,170.15465850010514,170.13794320006855,170.25465740007348,170.13794320006855,170.25465740007348,170.2379879001528,None,c,1,1.3248538000043482,170.2379879001528,None,171.60594030003995,None,,,,,,,,,,,,,,,,,,,,,,,,,,pl2,2022_Apr_26_0940,training+cueing,2021.1.4,59.94650369564705,
Friend.png,Friend,Friend,c,2,12,22,92,,,,,0,0,0,0,,,,,0,0,0,10,,,,,,,,,,,,,,,,,,,295.19499390013516,None,1.715,1.839,298.71540720015764,None,,,,,,,,,,,,,,,,172.00597090017982,None,0.014545000158250332,0.5132963000796735,299.34424250014126,299.84833740000613,0.505274600116536,1.0055545002687722,299.8316846000962,299.94837160012685,299.8316846000962,299.94837160012685,299.93170850002207,None,m,0,1.0708031000103801,299.93170850002207,None,,,,,,,pl2,2022_Apr_26_0940,training+cueing,2021.1.4,59.94650369564705,
Friend.png,Friend,Friend,c,2,12,22,92,,,,,0,0,0,0,,,,,0,1,1,4,,,,,,,,,,,,,,,,,,,,,1.419,1.425,301.1400543001946,None,,,,,,,,,,,,,,,,,,,,301.6787568000145,302.18339260015637,0.5084647000767291,1.0087200000416487,302.166712900158,302.28353060013615,302.166712900158,302.28353060013615,302.26693719998,None,c,1,1.1676300999242812,302.26693719998,None,,,,,,,pl2,2022_Apr_26_0940,training+cueing,2021.1.4,59.94650369564705,
Stranger.png,You,Stranger,m,1.3,15,25,95,,,,,0,0,0,0,,,,,0,2,2,6,,,,,,,,,,,,,,,,,,,,,1.455,2.366,303.55734240007587,None,,,,,,,,,,,,,,,,,,,,304.0981261001434,304.60183720011264,0.5070653997827321,1.007945999968797,304.5850775002036,304.68516250001267,304.5850775002036,304.68516250001267,304.68516250001267,None,c,0,0.8614791000727564,304.68516250001267,None,,,,,,,pl2,2022_Apr_26_0940,training+cueing,2021.1.4,59.94650369564705,
Self.png,Stranger,Self ,m,3.1,18,28,98,,,,,0,0,0,0,,,,,0,3,3,2,,,,,,,,,,,,,,,,,,,,,1.505,2.08,305.67588800005615,None,,,,,,,,,,,,,,,,,,,,306.2163275000639,306.72003630013205,0.5046509001404047,1.004919399973005,306.70332720014267,306.8200261001475,306.70332720014267,306.8200261001475,306.8032892001793,None,m,1,1.28711499995552,306.8032892001793,None,,,,,,,pl2,2022_Apr_26_0940,training+cueing,2021.1.4,59.94650369564705,
Friend.png,You,Friend,m,1.2,14,24,94,,,,,0,0,0,0,,,,,0,4,4,3,,,,,,,,,,,,,,,,,,,,,1.513,2.271,308.22733470005915,None,,,,,,,,,,,,,,,,,,,,308.77335490006953,309.28850460005924,0.5138777000829577,1.014125999994576,309.2718195000198,309.37187270005234,309.2718195000198,309.37187270005234,309.37187270005234,None,m,1,0.9907060000114143,309.37187270005234,None,,,,,,,pl2,2022_Apr_26_0940,training+cueing,2021.1.4,59.94650369564705,
Stranger.png,Friend,Stranger,m,2.3,17,27,97,,,,,0,0,0,0,,,,,0,5,5,7,,,,,,,,,,,,,,,,,,,,,1.415,1.231,310.495581000112,None,,,,,,,,,,,,,,,,,,,,311.03398080007173,311.5403316000011,0.5122648999094963,1.01238640001975,311.5237372000702,311.6403715000488,311.5237372000702,311.6403715000488,311.6236355002038,None,c,0,1.347034899983555,311.6236355002038,None,,,,,,,pl2,2022_Apr_26_0940,training+cueing,2021.1.4,59.94650369564705,
Stranger.png,Stranger,Stranger,c,3,13,23,93,,,,,0,0,0,0,,,,,0,6,6,8,,,,,,,,,,,,,,,,,,,,,1.619,2.056,313.09807840012945,None,,,,,,,,,,,,,,,,,,,,313.63697110000066,314.14201320009306,0.5087177001405507,1.009006300009787,314.12530490010977,314.24210700020194,314.12530490010977,314.24210700020194,314.2254410001915,None,m,0,1.3371202999260277,314.2254410001915,None,,,,,,,pl2,2022_Apr_26_0940,training+cueing,2021.1.4,59.94650369564705,
Self.png,You,Self ,c,1,11,21,91,,,,,0,0,0,0,,,,,0,7,7,0,,,,,,,,,,,,,,,,,,,,,1.541,1.643,315.6990801000502,None,,,,,,,,,,,,,,,,,,,,316.2374117001891,316.74389350018464,0.5116471000947058,1.0118905999697745,316.72724959999323,316.8272526001092,316.72724959999323,316.8272526001092,316.8272526001092,None,c,1,0.8632790001574904,316.8272526001092,None,,,,,,,pl2,2022_Apr_26_0940,training+cueing,2021.1.4,59.94650369564705,
Friend.png,Stranger,Friend,m,3.2,19,29,99,,,,,0,0,0,0,,,,,0,8,8,5,,,,,,,,,,,,,,,,,,,,,1.793,1.92,317.8170392001048,None,,,,,,,,,,,,,,,,,,,,318.35786370001733,318.8620496999938,0.5052499000448734,1.0055527000222355,318.84540730016306,318.9621186000295,318.84540730016306,318.9621186000295,318.9454411000479,None,None,0,,318.9454411000479,None,,,,,,,pl2,2022_Apr_26_0940,training+cueing,2021.1.4,59.94650369564705,
Self.png,Friend,Self ,m,2.1,16,26,96,,,,,0,0,0,0,,,,,0,9,9,1,,,,,,,,,,,,,,,,,,,,,1.786,2.089,320.8509735001717,None,,,,,,,,,,,,,,,,,,,,321.4064759002067,321.9143024000805,0.5148823999334127,1.015760799869895,321.8976076000836,322.01435140008107,321.8976076000836,322.01435140008107,321.9976340001449,None,None,0,,321.9976340001449,None,,,,,,,pl2,2022_Apr_26_0940,training+cueing,2021.1.4,59.94650369564705,
Self.png,You,Self ,c,1,11,21,91,,,,,0,0,0,0,,,,,0,10,10,9,,,,,,,,,,,,,,,,,,,,,1.629,1.504,323.90301270014606,None,,,,,,,,,,,,,,,,,,,,324.44568240013905,324.949805600103,0.5070332998875529,1.0073233998846263,324.93311209999956,325.03315100003965,324.93311209999956,325.03315100003965,325.03315100003965,None,c,1,0.6413426999934018,325.03315100003965,None,,,,,,,pl2,2022_Apr_26_0940,training+cueing,2021.1.4,59.94650369564705,
Stranger.png,Stranger,Stranger,c,3,13,23,93,,,,,0,0,0,0,,,,,0,11,11,11,,,,,,,,,,,,,,,,,,,,,1.457,2.359,325.80682220007293,None,,,,,,,,,,,,,,,,,,,,326.3460783001501,326.85119760013185,0.5081314998678863,1.008416200056672,326.8344877001364,326.951256000204,326.8344877001364,326.951256000204,326.9345174001064,None,None,0,,326.9345174001064,None,,,,,,,pl2,2022_Apr_26_0940,training+cueing,2021.1.4,59.94650369564705,
Stranger.png,Friend,Stranger,m,2.3,17,27,97,,,,,0,0,0,0,,,,,1,0,12,7,,,,,,,,,,,,,,,,,,,,,1.535,2.304,328.5065029000398,None,,,,,,,,,,,,,,,,,,,,329.0489770001732,329.55310450005345,0.5069240001030266,1.0071903001517057,329.53642780007794,329.6531944000162,329.53642780007794,329.6531944000162,329.63647780008614,None,m,1,1.4620898000430316,329.63647780008614,None,,,,,,,pl2,2022_Apr_26_0940,training+cueing,2021.1.4,59.94650369564705,
Stranger.png,You,Stranger,m,1.3,15,25,95,,,,,0,0,0,0,,,,,1,1,13,6,,,,,,,,,,,,,,,,,,,,,1.591,1.515,331.2285110000521,None,,,,,,,,,,,,,,,,,,,,331.7701405000407,332.2717705001123,0.5039492999203503,1.004273499827832,332.25507020018995,332.35514600016177,332.25507020018995,332.35514600016177,332.35514600016177,None,c,0,1.1273177999537438,332.35514600016177,None,,,,,,,pl2,2022_Apr_26_0940,training+cueing,2021.1.4,59.94650369564705,
Stranger.png,Stranger,Stranger,c,3,13,23,93,,,,,0,0,0,0,,,,,1,2,14,8,,,,,,,,,,,,,,,,,,,,,1.737,1.332,333.61192200006917,None,,,,,,,,,,,,,,,,,,,,334.17235540016554,334.67353260004893,0.5015571003314108,1.001926300348714,334.6568370000459,334.77366120018996,334.6568370000459,334.77366120018996,334.77366120018996,None,m,0,1.6209660000167787,334.77366120018996,None,,,,,,,pl2,2022_Apr_26_0940,training+cueing,2021.1.4,59.94650369564705,
Friend.png,You,Friend,m,1.2,14,24,94,,,,,0,0,0,0,,,,,1,3,15,3,,,,,,,,,,,,,,,,,,,,,1.677,1.655,336.53253630013205,None,,,,,,,,,,,,,,,,,,,,337.07345830020495,337.57561650010757,0.5045239999890327,1.0047708000056446,337.5589358001016,337.6589473001659,337.5589358001016,337.6589473001659,337.6589473001659,None,None,0,,337.6589473001659,None,,,,,,,pl2,2022_Apr_26_0940,training+cueing,2021.1.4,59.94650369564705,
Self.png,Stranger,Self ,m,3.1,18,28,98,,,,,0,0,0,0,,,,,1,4,16,2,,,,,,,,,,,,,,,,,,,,,1.69,1.828,339.4474034002051,None,,,,,,,,,,,,,,,,,,,,339.9905532000121,340.4943978001829,0.5050071002915502,1.0052827002946287,340.4777182000689,340.59441900020465,340.4777182000689,340.59441900020465,340.57773320004344,None,None,0,,340.57773320004344,None,,,,,,,pl2,2022_Apr_26_0940,training+cueing,2021.1.4,59.94650369564705,
Self.png,You,Self ,c,1,11,21,91,,,,,0,0,0,0,,,,,1,5,17,9,,,,,,,,,,,,,,,,,,,,,1.732,2.262,342.38398830010556,None,,,,,,,,,,,,,,,,,,,,342.92468490009196,343.42992570018396,0.5100775002501905,1.0103379001375288,343.4131485000253,343.5131840000395,343.4131485000253,343.5131840000395,343.5131840000395,None,c,1,0.7693042000755668,343.5131840000395,None,,,,,,,pl2,2022_Apr_26_0940,training+cueing,2021.1.4,59.94650369564705,
Friend.png,Friend,Friend,c,2,12,22,92,,,,,0,0,0,0,,,,,1,6,18,4,,,,,,,,,,,,,,,,,,,,,1.733,1.532,344.421555200126,None,,,,,,,,,,,,,,,,,,,,344.9635142001789,345.46469210018404,0.5026569000910968,1.0030156001448631,345.4479787000455,345.56471620011143,345.4479787000455,345.56471620011143,345.54799130000174,None,m,0,0.7185498999897391,345.54799130000174,None,,,,,,,pl2,2022_Apr_26_0940,training+cueing,2021.1.4,59.94650369564705,
Friend.png,Friend,Friend,c,2,12,22,92,,,,,0,0,0,0,,,,,1,7,19,10,,,,,,,,,,,,,,,,,,,,,1.631,2.016,346.3889599000104,None,,,,,,,,,,,,,,,,,,,,346.92462439998053,347.4326926001813,0.5148092000745237,1.0150999000761658,347.416066700127,347.53276500012726,347.416066700127,347.53276500012726,347.51608570013195,None,None,0,,347.51608570013195,None,,,,,,,pl2,2022_Apr_26_0940,training+cueing,2021.1.4,59.94650369564705,
Self.png,Friend,Self ,m,2.1,16,26,96,,,,,0,0,0,0,,,,,1,8,20,1,,,,,,,,,,,,,,,,,,,,,1.629,1.272,349.2548066000454,None,,,,,,,,,,,,,,,,,,,,349.79555799998343,350.3014401001856,0.5117942001670599,1.012087400071323,350.28478640015237,350.40149630000815,350.28478640015237,350.40149630000815,350.3848031000234,None,None,0,,350.3848031000234,None,,,,,,,pl2,2022_Apr_26_0940,training+cueing,2021.1.4,59.94650369564705,
Friend.png,Stranger,Friend,m,3.2,19,29,99,,,,,0,0,0,0,,,,,1,9,21,5,,,,,,,,,,,,,,,,,,,,,1.751,2.052,352.12342530000024,None,,,,,,,,,,,,,,,,,,,,352.66756710014306,353.1702988999896,0.5056603001430631,1.005832000169903,353.1536014000885,353.2702839002013,353.1536014000885,353.2702839002013,353.25356250000186,None,c,0,1.156837600050494,353.25356250000186,None,,,,,,,pl2,2022_Apr_26_0940,training+cueing,2021.1.4,59.94650369564705,
Self.png,You,Self ,c,1,11,21,91,,,,,0,0,0,0,,,,,1,10,22,0,,,,,,,,,,,,,,,,,,,,,1.441,2.472,354.5441473000683,None,,,,,,,,,,,,,,,,,,,,355.0841226000339,355.58863000012934,0.5068956001196057,1.0078941001556814,355.5719410001766,355.6719852001406,355.5719410001766,355.6719852001406,355.6719852001406,None,c,1,1.0106242001056671,355.6719852001406,None,,,,,,,pl2,2022_Apr_26_0940,training+cueing,2021.1.4,59.94650369564705,
Stranger.png,Stranger,Stranger,c,3,13,23,93,,,,,0,0,0,0,,,,,1,11,23,11,,,,,,,,,,,,,,,,,,,,,1.498,1.99,356.8135510000866,None,,,,,,,,,,,,,,,,,,,,357.35579459997825,357.85694080009125,0.5025823002215475,1.0028861002065241,357.84022190002725,357.95699390000664,357.84022190002725,357.95699390000664,357.940294300206,None,m,0,1.0942214000970125,357.940294300206,None,,,,,,,pl2,2022_Apr_26_0940,training+cueing,2021.1.4,59.94650369564705,
Stranger.png,Stranger,Stranger,c,3,13,23,93,,,,,0,0,0,0,,,,,2,0,24,8,,,,,,,,,,,,,,,,,,,,,1.527,1.305,359.1632126001641,None,,,,,,,,,,,,,,,,,,,,359.701720100129,360.2086680000648,0.5107050002552569,1.011024200124666,360.19195510004647,360.3087014001794,360.19195510004647,360.3087014001794,360.29197850008495,None,c,1,0.8705486999824643,360.29197850008495,None,,,,,,,pl2,2022_Apr_26_0940,training+cueing,2021.1.4,59.94650369564705,
Stranger.png,You,Stranger,m,1.3,15,25,95,,,,,0,0,0,0,,,,,2,1,25,6,,,,,,,,,,,,,,,,,,,,,1.463,2.444,361.2988481000066,None,,,,,,,,,,,,,,,,,,,,361.8395936000161,362.3435003000777,0.5072333002462983,1.0075417002663016,362.32678420003504,362.4268633001484,362.32678420003504,362.4268633001484,362.4268633001484,None,None,0,,362.4268633001484,None,,,,,,,pl2,2022_Apr_26_0940,training+cueing,2021.1.4,59.94650369564705,
Self.png,Friend,Self ,m,2.1,16,26,96,,,,,0,0,0,0,,,,,2,2,26,1,,,,,,,,,,,,,,,,,,,,,1.434,2.3,363.998359200079,None,,,,,,,,,,,,,,,,,,,,364.5423049000092,365.0454634001944,0.5058191998396069,1.0060139999259263,365.0288300001994,365.1454998999834,365.0288300001994,365.1454998999834,365.1288108001463,None,c,0,0.9136814000084996,365.1288108001463,None,,,,,,,pl2,2022_Apr_26_0940,training+cueing,2021.1.4,59.94650369564705,
Stranger.png,Stranger,Stranger,c,3,13,23,93,,,,,0,0,0,0,,,,,2,3,27,11,,,,,,,,,,,,,,,,,,,,,1.684,2.182,366.16931690019555,None,,,,,,,,,,,,,,,,,,,,366.70866110012867,367.21367090009153,0.5075641002040356,1.0078760001342744,367.19698480004445,367.3137285001576,367.19698480004445,367.3137285001576,367.2969863000326,None,None,0,,367.2969863000326,None,,,,,,,pl2,2022_Apr_26_0940,training+cueing,2021.1.4,59.94650369564705,
Self.png,You,Self ,c,1,11,21,91,,,,,0,0,0,0,,,,,2,4,28,9,,,,,,,,,,,,,,,,,,,,,1.427,1.405,369.0858177000191,None,,,,,,,,,,,,,,,,,,,,369.62834809999913,370.13246980006807,0.5074037001468241,1.007704800227657,370.1157901000697,370.21580690005794,370.1157901000697,370.21580690005794,370.21580690005794,None,c,1,0.7065981000196189,370.21580690005794,None,,,,,,,pl2,2022_Apr_26_0940,training+cueing,2021.1.4,59.94650369564705,
Friend.png,Stranger,Friend,m,3.2,19,29,99,,,,,0,0,0,0,,,,,2,5,29,5,,,,,,,,,,,,,,,,,,,,,1.794,1.268,371.0555998000782,None,,,,,,,,,,,,,,,,,,,,371.59826600016095,372.10058149998076,0.505309300031513,1.0057284999638796,372.08388360007666,372.20115410001017,372.08388360007666,372.20115410001017,372.1839223999996,None,c,0,1.3625589001458138,372.1839223999996,None,,,,,,,pl2,2022_Apr_26_0940,training+cueing,2021.1.4,59.94650369564705,
Stranger.png,Friend,Stranger,m,2.3,17,27,97,,,,,0,0,0,0,,,,,2,6,30,7,,,,,,,,,,,,,,,,,,,,,1.443,1.235,373.67524920008145,None,,,,,,,,,,,,,,,,,,,,374.21788190002553,374.7191076001618,0.5008230002131313,1.0010679000988603,374.7024846000131,374.8192183000501,374.7024846000131,374.8192183000501,374.8192183000501,None,None,0,,374.8192183000501,None,,,,,,,pl2,2022_Apr_26_0940,training+cueing,2021.1.4,59.94650369564705,
Friend.png,Friend,Friend,c,2,12,22,92,,,,,0,0,0,0,,,,,2,7,31,4,,,,,,,,,,,,,,,,,,,,,1.633,1.965,376.3745445001405,None,,,,,,,,,,,,,,,,,,,,376.92352479998954,377.4377717000898,0.5113336998037994,1.0115815997123718,377.4210873001721,377.53785030008294,377.4210873001721,377.53785030008294,377.5211064000614,None,None,0,,377.5211064000614,None,,,,,,,pl2,2022_Apr_26_0940,training+cueing,2021.1.4,59.94650369564705,
Friend.png,You,Friend,m,1.2,14,24,94,,,,,0,0,0,0,,,,,2,8,32,3,,,,,,,,,,,,,,,,,,,,,1.793,1.653,379.26308810012415,None,,,,,,,,,,,,,,,,,,,,379.8066347001586,380.3066608000081,0.514048800105229,1.014325600117445,380.3066608000081,380.4067065999843,380.3066608000081,380.4067065999843,380.4067065999843,None,m,1,0.8037181999534369,380.4067065999843,None,,,,,,,pl2,2022_Apr_26_0940,training+cueing,2021.1.4,59.94650369564705,
Friend.png,Friend,Friend,c,2,12,22,92,,,,,0,0,0,0,,,,,2,9,33,10,,,,,,,,,,,,,,,,,,,,,1.688,1.715,381.3478217001539,None,,,,,,,,,,,,,,,,,,,,381.8895805000793,382.39132010005414,0.5054341002833098,1.005731200100854,382.3746468999889,382.49136180011556,382.3746468999889,382.49136180011556,382.474700700026,None,m,0,1.0716517001856118,382.474700700026,None,,,,,,,pl2,2022_Apr_26_0940,training+cueing,2021.1.4,59.94650369564705,
Self.png,You,Self ,c,1,11,21,91,,,,,0,0,0,0,,,,,2,10,34,0,,,,,,,,,,,,,,,,,,,,,1.405,1.365,383.6824072001036,None,,,,,,,,,,,,,,,,,,,,384.2227808001917,384.7263303999789,0.507199700223282,1.007539400132373,384.7096763001755,384.80970520013943,384.7096763001755,384.80970520013943,384.80970520013943,None,c,1,0.6886034999042749,384.80970520013943,None,,,,,,,pl2,2022_Apr_26_0940,training+cueing,2021.1.4,59.94650369564705,
Self.png,Stranger,Self ,m,3.1,18,28,98,,,,,0,0,0,0,,,,,2,11,35,2,,,,,,,,,,,,,,,,,,,,,1.561,1.566,385.6334800000768,None,,,,,,,,,,,,,,,,,,,,386.1737800000701,386.67778550018556,0.5049076001159847,1.0052027001511306,386.66105180000886,386.7778159000445,386.66105180000886,386.7778159000445,386.7610893000383,None,c,0,1.0093068999703974,386.7610893000383,None,,,,,,,pl2,2022_Apr_26_0940,training+cueing,2021.1.4,59.94650369564705,
Stranger.png,Stranger,Stranger,c,3,13,23,93,,,,,0,0,0,0,,,,,3,0,36,8,,,,,,,,,,,,,,,,,,,,,1.523,1.794,387.90170580009,None,,,,,,,,,,,,,,,,,,,,388.4400466000661,388.9462478000205,0.5117859998717904,1.0119196998421103,388.9295442001894,389.0462909000926,388.9295442001894,389.0462909000926,389.02970810001716,None,c,1,0.6286904998123646,389.02970810001716,None,,,,,,,pl2,2022_Apr_26_0940,training+cueing,2021.1.4,59.94650369564705,
Friend.png,Stranger,Friend,m,3.2,19,29,99,,,,,0,0,0,0,,,,,3,1,37,5,,,,,,,,,,,,,,,,,,,,,1.676,1.934,389.78609120007604,None,,,,,,,,,,,,,,,,,,,,390.32554460014217,390.8307449000422,0.5111672000493854,1.011468700133264,390.81406050012447,390.93082580016926,390.81406050012447,390.93082580016926,390.9141086000018,None,None,0,,390.9141086000018,None,,,,,,,pl2,2022_Apr_26_0940,training+cueing,2021.1.4,59.94650369564705,
Stranger.png,Stranger,Stranger,c,3,13,23,93,,,,,0,0,0,0,,,,,3,2,38,11,,,,,,,,,,,,,,,,,,,,,1.531,1.303,392.7031638000626,None,,,,,,,,,,,,,,,,,,,,393.2414352002088,393.7496464001015,0.5136931997258216,1.013966599944979,393.73297370015644,393.84973120014183,393.73297370015644,393.84973120014183,393.8329956000671,None,m,0,0.7213727999478579,393.8329956000671,None,,,,,,,pl2,2022_Apr_26_0940,training+cueing,2021.1.4,59.94650369564705,
Friend.png,You,Friend,m,1.2,14,24,94,,,,,0,0,0,0,,,,,3,3,39,3,,,,,,,,,,,,,,,,,,,,,1.507,1.31,394.68924990016967,None,,,,,,,,,,,,,,,,,,,,395.23205990018323,395.7343236000743,0.505523799918592,1.0058442000299692,395.7176465000957,395.8176875000354,395.7176465000957,395.8176875000354,395.8176875000354,None,c,0,0.5447047001216561,395.8176875000354,None,,,,,,,pl2,2022_Apr_26_0940,training+cueing,2021.1.4,59.94650369564705,
Self.png,You,Self ,c,1,11,21,91,,,,,0,0,0,0,,,,,3,4,40,0,,,,,,,,,,,,,,,,,,,,,1.498,2.147,396.4915442999918,None,,,,,,,,,,,,,,,,,,,,397.0264437000733,397.5355905001052,0.499680700013414,0.9999704000074416,397.5022569000721,397.6023009000346,397.5022569000721,397.6023009000346,397.6023009000346,None,None,0,,397.6023009000346,None,,,,,,,pl2,2022_Apr_26_0940,training+cueing,2021.1.4,59.94650369564705,
Stranger.png,You,Stranger,m,1.3,15,25,95,,,,,0,0,0,0,,,,,3,5,41,6,,,,,,,,,,,,,,,,,,,,,1.557,2.183,399.20753050013445,None,,,,,,,,,,,,,,,,,,,,399.74701340007596,400.25422520004213,0.5144543000496924,1.0147720999084413,400.237513900036,400.3375818000641,400.237513900036,400.3375818000641,400.3375818000641,None,None,0,,400.3375818000641,None,,,,,,,pl2,2022_Apr_26_0940,training+cueing,2021.1.4,59.94650369564705,
Self.png,Stranger,Self ,m,3.1,18,28,98,,,,,0,0,0,0,,,,,3,6,42,2,,,,,,,,,,,,,,,,,,,,,1.466,1.84,402.0096712000668,None,,,,,,,,,,,,,,,,,,,,402.5524907000363,403.0562544001732,0.5079005002044141,1.0081685001496226,403.0396424001083,403.15627790009603,403.0396424001083,403.15627790009603,403.1395790001843,None,m,1,1.3829751999583095,403.1395790001843,None,,,,,,,pl2,2022_Apr_26_0940,training+cueing,2021.1.4,59.94650369564705,
Self.png,Friend,Self ,m,2.1,16,26,96,,,,,0,0,0,0,,,,,3,7,43,1,,,,,,,,,,,,,,,,,,,,,1.512,2.132,404.65092120016925,None,,,,,,,,,,,,,,,,,,,,405.1872992001008,405.6915476000868,0.5060667998623103,1.0063573997467756,405.6748242001049,405.7916260000784,405.6748242001049,405.7916260000784,405.77485420019366,None,c,0,0.7475761000532657,405.77485420019366,None,,,,,,,pl2,2022_Apr_26_0940,training+cueing,2021.1.4,59.94650369564705,
Self.png,You,Self ,c,1,11,21,91,,,,,0,0,0,0,,,,,3,8,44,9,,,,,,,,,,,,,,,,,,,,,1.547,1.999,406.64794580009766,None,,,,,,,,,,,,,,,,,,,,407.1898922000546,407.6929848000873,0.5065909000113606,1.006865399889648,407.67626209999435,407.77630150015466,407.67626209999435,407.77630150015466,407.77630150015466,None,c,1,0.7461115999612957,407.77630150015466,None,,,,,,,pl2,2022_Apr_26_0940,training+cueing,2021.1.4,59.94650369564705,
Stranger.png,Friend,Stranger,m,2.3,17,27,97,,,,,0,0,0,0,,,,,3,9,45,7,,,,,,,,,,,,,,,,,,,,,1.494,1.842,408.6493536999915,None,,,,,,,,,,,,,,,,,,,,409.2108128000982,409.71105330018327,0.5004407002124935,1.0006487001664937,409.6944734000135,409.81112680002116,409.6944734000135,409.81112680002116,409.81112680002116,None,c,0,1.0153773000929505,409.81112680002116,None,,,,,,,pl2,2022_Apr_26_0940,training+cueing,2021.1.4,59.94650369564705,
Friend.png,Friend,Friend,c,2,12,22,92,,,,,0,0,0,0,,,,,3,10,46,4,,,,,,,,,,,,,,,,,,,,,1.652,1.867,410.95505420002155,None,,,,,,,,,,,,,,,,,,,,411.4890500002075,411.99606570019387,0.5125228001270443,1.0127877001650631,411.97938280017115,412.09611980011687,411.97938280017115,412.09611980011687,412.0794122000225,None,m,0,1.1309366999194026,412.0794122000225,None,,,,,,,pl2,2022_Apr_26_0940,training+cueing,2021.1.4,59.94650369564705,
Friend.png,Friend,Friend,c,2,12,22,92,,,,,0,0,0,0,,,,,3,11,47,10,,,,,,,,,,,,,,,,,,,,,1.41,2.054,413.3361375001259,None,,,,,,,,,,,,,,,,,,,,413.8757245000452,414.3810948000755,0.5102321999147534,1.0106865998823196,414.3644086001441,414.4811583000701,414.3644086001441,414.4811583000701,414.464445900172,None,None,0,,414.464445900172,None,,,,,,,pl2,2022_Apr_26_0940,training+cueing,2021.1.4,59.94650369564705,
Stranger.png,Stranger,Stranger,c,3,13,23,93,,,,,0,0,0,0,,,,,4,0,48,8,,,,,,,,,,,,,,,,,,,,,1.791,2.141,415.9862075999845,None,,,,,,,,,,,,,,,,,,,,416.5271298000589,417.03303020005114,0.5096720999572426,1.0099814001005143,417.01631880016066,417.13308280007914,417.01631880016066,417.13308280007914,417.11638430017047,None,c,1,1.0219153999350965,417.11638430017047,None,,,,,,,pl2,2022_Apr_26_0940,training+cueing,2021.1.4,59.94650369564705,
Friend.png,Friend,Friend,c,2,12,22,92,,,,,0,0,0,0,,,,,4,1,49,10,,,,,,,,,,,,,,,,,,,,,1.432,1.898,418.2732645000797,None,,,,,,,,,,,,,,,,,,,,418.8155046000611,419.3180627000984,0.5060741000343114,1.0062082002405077,419.3014495000243,419.418106000172,419.3014495000243,419.418106000172,419.4013811000623,None,m,0,0.8169722999446094,419.4013811000623,None,,,,,,,pl2,2022_Apr_26_0940,training+cueing,2021.1.4,59.94650369564705,
Self.png,You,Self ,c,1,11,21,91,,,,,0,0,0,0,,,,,4,2,50,0,,,,,,,,,,,,,,,,,,,,,1.51,1.453,420.341312300181,None,,,,,,,,,,,,,,,,,,,,420.88228540006094,421.38630520016886,0.5073030001949519,1.0073774000629783,421.3696799001191,421.4695407000836,421.3696799001191,421.4695407000836,421.4695407000836,None,c,1,0.5731776000466198,421.4695407000836,None,,,,,,,pl2,2022_Apr_26_0940,training+cueing,2021.1.4,59.94650369564705,
Stranger.png,Stranger,Stranger,c,3,13,23,93,,,,,0,0,0,0,,,,,4,3,51,11,,,,,,,,,,,,,,,,,,,,,1.697,2.402,422.17620390001684,None,,,,,,,,,,,,,,,,,,,,422.71805110014975,423.22082510008477,0.5038173997309059,1.0040970998816192,423.2041615000926,423.32089740014635,423.2041615000926,423.32089740014635,423.3041920000687,None,m,0,1.0740618000272661,423.3041920000687,None,,,,,,,pl2,2022_Apr_26_0940,training+cueing,2021.1.4,59.94650369564705,
Self.png,Friend,Self ,m,2.1,16,26,96,,,,,0,0,0,0,,,,,4,4,52,1,,,,,,,,,,,,,,,,,,,,,1.437,2.442,424.51163220009767,None,,,,,,,,,,,,,,,,,,,,425.05229910020716,425.55587500007823,0.5059732000809163,1.0069141001440585,425.53918140009046,425.65589540009387,425.53918140009046,425.65589540009387,425.6392049000133,None,m,1,0.8670624999795109,425.6392049000133,None,,,,,,,pl2,2022_Apr_26_0940,training+cueing,2021.1.4,59.94650369564705,
Friend.png,You,Friend,m,1.2,14,24,94,,,,,0,0,0,0,,,,,4,5,53,3,,,,,,,,,,,,,,,,,,,,,1.747,1.68,426.62995530012995,None,,,,,,,,,,,,,,,,,,,,427.1755140000023,427.6908829000313,0.5131387000437826,1.0134978001005948,427.6741495002061,427.7742304999847,427.6741495002061,427.7742304999847,427.7742304999847,None,m,1,1.036262899870053,427.7742304999847,None,,,,,,,pl2,2022_Apr_26_0940,training+cueing,2021.1.4,59.94650369564705,
Stranger.png,You,Stranger,m,1.3,15,25,95,,,,,0,0,0,0,,,,,4,6,54,6,,,,,,,,,,,,,,,,,,,,,1.71,1.659,428.949117799988,None,,,,,,,,,,,,,,,,,,,,429.48585400008596,429.99255920015275,0.5107936998829246,1.010932199889794,429.97587419999763,430.07594590005465,429.97587419999763,430.07594590005465,430.07594590005465,None,c,0,0.8142854999750853,430.07594590005465,None,,,,,,,pl2,2022_Apr_26_0940,training+cueing,2021.1.4,59.94650369564705,
Stranger.png,Friend,Stranger,m,2.3,17,27,97,,,,,0,0,0,0,,,,,4,7,55,7,,,,,,,,,,,,,,,,,,,,,1.531,1.333,431.0159130000975,None,,,,,,,,,,,,,,,,,,,,431.55771810002625,432.06058430019766,0.5056822001934052,1.005965200252831,432.04390290006995,432.1606388001237,432.04390290006995,432.1606388001237,432.1439290000126,None,m,1,0.7944267999846488,432.1439290000126,None,,,,,,,pl2,2022_Apr_26_0940,training+cueing,2021.1.4,59.94650369564705,
Self.png,You,Self ,c,1,11,21,91,,,,,0,0,0,0,,,,,4,8,56,9,,,,,,,,,,,,,,,,,,,,,1.502,1.442,433.06685240007937,None,,,,,,,,,,,,,,,,,,,,433.619895900134,434.1287342000287,0.49982979986816645,1.0003295999486,434.0953683000989,434.1955757001415,434.0953683000989,434.1955757001415,434.1955757001415,None,c,1,0.5347443001810461,434.1955757001415,None,,,,,,,pl2,2022_Apr_26_0940,training+cueing,2021.1.4,59.94650369564705,
Friend.png,Friend,Friend,c,2,12,22,92,,,,,0,0,0,0,,,,,4,9,57,4,,,,,,,,,,,,,,,,,,,,,1.792,2.144,434.8524353001267,None,,,,,,,,,,,,,,,,,,,,435.39403260010295,435.89674039999954,0.5068257001694292,1.0072576003149152,435.88001770013943,435.9967463000212,435.88001770013943,435.9967463000212,435.98003950016573,None,m,0,0.7505377000197768,435.98003950016573,None,,,,,,,pl2,2022_Apr_26_0940,training+cueing,2021.1.4,59.94650369564705,
Self.png,Stranger,Self ,m,3.1,18,28,98,,,,,0,0,0,0,,,,,4,10,58,2,,,,,,,,,,,,,,,,,,,,,1.568,2.494,436.85450520017184,None,,,,,,,,,,,,,,,,,,,,437.3941973000765,437.8981387000531,0.5084824000950903,1.0088512001093477,437.8814425000455,437.9981829000171,437.8814425000455,437.9981829000171,437.9814489001874,None,c,0,0.5730840000323951,437.9814489001874,None,,,,,,,pl2,2022_Apr_26_0940,training+cueing,2021.1.4,59.94650369564705,
Friend.png,Stranger,Friend,m,3.2,19,29,99,,,,,0,0,0,0,,,,,4,11,59,5,,,,,,,,,,,,,,,,,,,,,1.768,2.08,438.68833300005645,None,,,,,,,,,,,,,,,,,,,,439.22524489997886,439.7327877001371,0.5117820000741631,1.012082600267604,439.7160862002056,439.83281280007213,439.7160862002056,439.83281280007213,439.8161228999961,None,c,0,1.3302005000878125,439.8161228999961,None,,,,,,,pl2,2022_Apr_26_0940,training+cueing,2021.1.4,59.94650369564705,
Friend.png,You,Friend,m,1.2,14,24,94,,,,,0,0,0,0,,,,,5,0,60,3,,,,,,,,,,,,,,,,,,,,,1.73,1.943,441.27308030007407,None,,,,,,,,,,,,,,,,,,,,441.813679800136,442.3180252001621,0.5075284999329597,1.0078437998890877,442.3013133001514,442.4013622000348,442.3013133001514,442.4013622000348,442.4013622000348,None,m,1,0.8249197001568973,442.4013622000348,None,,,,,,,pl2,2022_Apr_26_0940,training+cueing,2021.1.4,59.94650369564705,
Stranger.png,Stranger,Stranger,c,3,13,23,93,,,,,0,0,0,0,,,,,5,1,61,8,,,,,,,,,,,,,,,,,,,,,1.663,2.481,443.3578574000858,None,,,,,,,,,,,,,,,,,,,,443.8977571001742,444.4028325001709,0.510841199895367,1.0116912999656051,444.38614640012383,444.5034268000163,444.38614640012383,444.5034268000163,444.48617050005123,None,c,1,0.8201449001207948,444.48617050005123,None,,,,,,,pl2,2022_Apr_26_0940,training+cueing,2021.1.4,59.94650369564705,
Stranger.png,Stranger,Stranger,c,3,13,23,93,,,,,0,0,0,0,,,,,5,2,62,11,,,,,,,,,,,,,,,,,,,,,1.44,2.329,445.4430027001072,None,,,,,,,,,,,,,,,,,,,,445.98173170001246,446.48769780015573,0.5102768999058753,1.0105050997808576,446.47100959997624,446.58772370009683,446.47100959997624,446.58772370009683,446.571000700118,None,m,0,0.8473406000994146,446.571000700118,None,,,,,,,pl2,2022_Apr_26_0940,training+cueing,2021.1.4,59.94650369564705,
Self.png,You,Self ,c,1,11,21,91,,,,,0,0,0,0,,,,,5,3,63,0,,,,,,,,,,,,,,,,,,,,,1.488,2.371,447.544053300051,None,,,,,,,,,,,,,,,,,,,,448.08360730018467,448.5891866001766,0.5112016999628395,1.0120923998765647,448.57247980008833,448.67252820008434,448.57247980008833,448.67252820008434,448.67252820008434,None,c,1,0.47410829993896186,448.67252820008434,None,,,,,,,pl2,2022_Apr_26_0940,training+cueing,2021.1.4,59.94650369564705,
Friend.png,Stranger,Friend,m,3.2,19,29,99,,,,,0,0,0,0,,,,,5,4,64,5,,,,,,,,,,,,,,,,,,,,,1.689,1.555,449.28281290014274,None,,,,,,,,,,,,,,,,,,,,449.82222230010666,450.32866490003653,0.5014659001026303,1.0189839999657124,450.3071235001553,450.42384200007655,450.3071235001553,450.42384200007655,450.42384200007655,None,m,1,0.8825513001065701,450.42384200007655,None,,,,,,,pl2,2022_Apr_26_0940,training+cueing,2021.1.4,59.94650369564705,
Friend.png,Friend,Friend,c,2,12,22,92,,,,,0,0,0,0,,,,,5,5,65,4,,,,,,,,,,,,,,,,,,,,,1.488,2.174,451.43152200011536,None,,,,,,,,,,,,,,,,,,,,451.97033100016415,452.4753817000892,0.5103249000385404,1.0106071999762207,452.45868000015616,452.5754029999953,452.45868000015616,452.5754029999953,452.55868060002103,None,m,0,0.8276627000886947,452.55868060002103,None,,,,,,,pl2,2022_Apr_26_0940,training+cueing,2021.1.4,59.94650369564705,
Self.png,Friend,Self ,m,2.1,16,26,96,,,,,0,0,0,0,,,,,5,6,66,1,,,,,,,,,,,,,,,,,,,,,1.604,1.923,453.515482700197,None,,,,,,,,,,,,,,,,,,,,454.0695627001114,454.5770164001733,0.5146150002256036,1.014923000242561,454.5601355000399,454.6768949001562,454.5601355000399,454.6768949001562,454.66017120005563,None,m,1,1.1260935999453068,454.66017120005563,None,,,,,,,pl2,2022_Apr_26_0940,training+cueing,2021.1.4,59.94650369564705,
Stranger.png,Friend,Stranger,m,2.3,17,27,97,,,,,0,0,0,0,,,,,5,7,67,7,,,,,,,,,,,,,,,,,,,,,1.41,2.171,455.91693920013495,None,,,,,,,,,,,,,,,,,,,,456.45530750020407,456.9618867000099,0.5107869999483228,1.0110971999820322,456.9452186000999,457.0620356001891,456.9452186000999,457.0620356001891,457.0452714001294,None,c,0,0.8530417000874877,457.0452714001294,None,,,,,,,pl2,2022_Apr_26_0940,training+cueing,2021.1.4,59.94650369564705,
Stranger.png,You,Stranger,m,1.3,15,25,95,,,,,0,0,0,0,,,,,5,8,68,6,,,,,,,,,,,,,,,,,,,,,1.436,1.42,458.03484520013444,None,,,,,,,,,,,,,,,,,,,,458.574130800087,459.08010680018924,0.5108745999168605,1.011184100061655,459.06338439998217,459.16343650012277,459.06338439998217,459.16343650012277,459.16343650012277,None,c,0,0.6868702999781817,459.16343650012277,None,,,,,,,pl2,2022_Apr_26_0940,training+cueing,2021.1.4,59.94650369564705,
Self.png,Stranger,Self ,m,3.1,18,28,98,,,,,0,0,0,0,,,,,5,9,69,2,,,,,,,,,,,,,,,,,,,,,1.484,1.241,459.9872845001519,None,,,,,,,,,,,,,,,,,,,,460.5283014001325,461.03166670002975,0.5064302003011107,1.0068156002089381,461.01491580018774,461.13155260006897,461.01491580018774,461.13155260006897,461.1149054002017,None,c,0,1.2954591000452638,461.1149054002017,None,,,,,,,pl2,2022_Apr_26_0940,training+cueing,2021.1.4,59.94650369564705,
Friend.png,Friend,Friend,c,2,12,22,92,,,,,0,0,0,0,,,,,5,10,70,10,,,,,,,,,,,,,,,,,,,,,1.768,1.562,462.5403099001851,None,,,,,,,,,,,,,,,,,,,,463.0906507000327,463.5999672000762,0.4994214999023825,0.999725999776274,463.56668040016666,463.66672310000286,463.56668040016666,463.66672310000286,463.66672310000286,None,c,1,1.3037382999900728,463.66672310000286,None,,,,,,,pl2,2022_Apr_26_0940,training+cueing,2021.1.4,59.94650369564705,
Self.png,You,Self ,c,1,11,21,91,,,,,0,0,0,0,,,,,5,11,71,9,,,,,,,,,,,,,,,,,,,,,1.435,2.161,465.10865509998985,None,,,,,,,,,,,,,,,,,,,,465.6479760000948,466.15203580004163,0.5078732997644693,1.0081904998514801,466.135357900057,466.23544940003194,466.135357900057,466.23544940003194,466.23544940003194,None,c,1,0.6390692999120802,466.23544940003194,None,,,,,,,pl2,2022_Apr_26_0940,training+cueing,2021.1.4,59.94650369564705,
Stranger.png,You,Stranger,m,1.3,15,25,95,,,,,0,0,0,0,,,,,6,0,72,6,,,,,,,,,,,,,,,,,,,,,1.686,2.094,467.0097860000096,None,,,,,,,,,,,,,,,,,,,,467.5481616000179,468.05321840010583,0.5074570998549461,1.0083675999194384,468.03656650008634,468.1366288000718,468.03656650008634,468.1366288000718,468.1366288000718,None,c,0,0.6257154000923038,468.1366288000718,None,,,,,,,pl2,2022_Apr_26_0940,training+cueing,2021.1.4,59.94650369564705,
Friend.png,Friend,Friend,c,2,12,22,92,,,,,0,0,0,0,,,,,6,1,73,4,,,,,,,,,,,,,,,,,,,,,1.485,2.116,468.893891800195,None,,,,,,,,,,,,,,,,,,,,469.4342602000106,469.937933600042,0.507250500144437,1.0075572000350803,469.9212482001167,470.038000700064,469.9212482001167,470.038000700064,470.0212547001429,None,c,1,0.8850243000779301,470.0212547001429,None,,,,,,,pl2,2022_Apr_26_0940,training+cueing,2021.1.4,59.94650369564705,
Friend.png,Friend,Friend,c,2,12,22,92,,,,,0,0,0,0,,,,,6,2,74,10,,,,,,,,,,,,,,,,,,,,,1.539,1.907,471.02825230010785,None,,,,,,,,,,,,,,,,,,,,471.5677230001893,472.07279690005817,0.5111686000600457,1.0114705001469702,472.05615000007674,472.17286120005883,472.05615000007674,472.17286120005883,472.15620460011996,None,m,0,0.958090600091964,472.15620460011996,None,,,,,,,pl2,2022_Apr_26_0940,training+cueing,2021.1.4,59.94650369564705,
Self.png,You,Self ,c,1,11,21,91,,,,,0,0,0,0,,,,,6,3,75,9,,,,,,,,,,,,,,,,,,,,,1.557,1.507,473.24612700007856,None,,,,,,,,,,,,,,,,,,,,473.7866162999999,474.2910984000191,0.5069371000863612,1.0072170998901129,474.27442290005274,474.37446540012024,474.27442290005274,474.37446540012024,474.37446540012024,None,c,1,0.5637797999661416,474.37446540012024,None,,,,,,,pl2,2022_Apr_26_0940,training+cueing,2021.1.4,59.94650369564705,
Self.png,Stranger,Self ,m,3.1,18,28,98,,,,,0,0,0,0,,,,,6,4,76,2,,,,,,,,,,,,,,,,,,,,,1.468,1.593,475.06400650017895,None,,,,,,,,,,,,,,,,,,,,475.605838800082,476.1090677001048,0.5056536998599768,1.0059118999633938,476.0924014002085,476.20914930012077,476.0924014002085,476.20914930012077,476.1924332000781,None,m,1,1.130176099948585,476.1924332000781,None,,,,,,,pl2,2022_Apr_26_0940,training+cueing,2021.1.4,59.94650369564705,
Self.png,Friend,Self ,m,2.1,16,26,96,,,,,0,0,0,0,,,,,6,5,77,1,,,,,,,,,,,,,,,,,,,,,1.704,1.489,477.45355880004354,None,,,,,,,,,,,,,,,,,,,,477.992990200175,478.4941712000873,0.5024681000504643,1.002689199987799,478.47750909999013,478.59416180010885,478.47750909999013,478.59416180010885,478.5774873001501,None,c,0,0.45679059997200966,478.5774873001501,None,,,,,,,pl2,2022_Apr_26_0940,training+cueing,2021.1.4,59.94650369564705,
Friend.png,Stranger,Friend,m,3.2,19,29,99,,,,,0,0,0,0,,,,,6,6,78,5,,,,,,,,,,,,,,,,,,,,,1.797,1.37,479.16696120006964,None,,,,,,,,,,,,,,,,,,,,479.7071403001901,480.2119980000425,0.5079712998121977,1.0082968999631703,480.19538180017844,480.31206740019843,480.19538180017844,480.31206740019843,480.2953667000402,None,m,1,0.9148212999571115,480.2953667000402,None,,,,,,,pl2,2022_Apr_26_0940,training+cueing,2021.1.4,59.94650369564705,
Self.png,You,Self ,c,1,11,21,91,,,,,0,0,0,0,,,,,6,7,79,0,,,,,,,,,,,,,,,,,,,,,1.752,1.596,481.33542360016145,None,,,,,,,,,,,,,,,,,,,,481.87679310003296,482.38025670009665,0.5070265999529511,1.0073352998588234,482.3636054000817,482.463666100055,482.3636054000817,482.463666100055,482.463666100055,None,c,1,0.5385593001265079,482.463666100055,None,,,,,,,pl2,2022_Apr_26_0940,training+cueing,2021.1.4,59.94650369564705,
Friend.png,You,Friend,m,1.2,14,24,94,,,,,0,0,0,0,,,,,6,8,80,3,,,,,,,,,,,,,,,,,,,,,1.631,2.328,483.1373239001259,None,,,,,,,,,,,,,,,,,,,,483.6786541000474,484.1815928001888,0.503985800081864,None,484.16486400016584,484.26494630007073,484.16486400016584,484.26494630007073,484.26494630007073,None,c,0,0.3854319998063147,484.26494630007073,None,,,,,,,pl2,2022_Apr_26_0940,training+cueing,2021.1.4,59.94650369564705,
Stranger.png,Stranger,Stranger,c,3,13,23,93,,,,,0,0,0,0,,,,,6,9,81,11,,,,,,,,,,,,,,,,,,,,,1.624,2.212,484.7720008001197,None,,,,,,,,,,,,,,,,,,,,485.3129446001258,485.8160614001099,0.5064177999738604,1.006739699980244,485.7994372001849,485.9162286000792,485.7994372001849,485.9162286000792,485.8995690001175,None,None,0,,485.8995690001175,None,,,,,,,pl2,2022_Apr_26_0940,training+cueing,2021.1.4,59.94650369564705,
Stranger.png,Stranger,Stranger,c,3,13,23,93,,,,,0,0,0,0,,,,,6,10,82,8,,,,,,,,,,,,,,,,,,,,,1.45,1.735,487.6398792001419,None,,,,,,,,,,,,,,,,,,,,488.17827610019594,488.68481050012633,0.5117504000663757,1.0120566999539733,488.6681162000168,488.78485650010407,488.6681162000168,488.78485650010407,488.76816740003414,None,None,0,,488.76816740003414,None,,,,,,,pl2,2022_Apr_26_0940,training+cueing,2021.1.4,59.94650369564705,
Stranger.png,Friend,Stranger,m,2.3,17,27,97,,,,,0,0,0,0,,,,,6,11,83,7,,,,,,,,,,,,,,,,,,,,,1.406,1.509,490.32294830004685,None,,,,,,,,,,,,,,,,,,,,490.8664644001983,491.3701246001292,0.5060581001453102,1.0063478001393378,491.3534258999862,491.470204600133,491.3534258999862,491.470204600133,491.45364720001817,None,None,0,,491.45364720001817,None,,,,,,,pl2,2022_Apr_26_0940,training+cueing,2021.1.4,59.94650369564705,
Self.png,You,Self ,c,1,11,21,91,,,,,0,0,0,0,,,,,7,0,84,9,,,,,,,,,,,,,,,,,,,,,1.43,1.467,492.9751831002068,None,,,,,,,,,,,,,,,,,,,,493.5176447001286,494.02204730012454,0.5075233997777104,1.007808999856934,494.00535170012154,494.1054138999898,494.00535170012154,494.1054138999898,494.1054138999898,None,c,1,0.5928499998990446,494.1054138999898,None,,,,,,,pl2,2022_Apr_26_0940,training+cueing,2021.1.4,59.94650369564705,
Friend.png,Friend,Friend,c,2,12,22,92,,,,,0,0,0,0,,,,,7,1,85,4,,,,,,,,,,,,,,,,,,,,,1.529,1.7,494.8290697999764,None,,,,,,,,,,,,,,,,,,,,495.3721084999852,495.873350400012,0.5034735999070108,1.0038021998479962,495.85665130009875,495.9734108000994,495.85665130009875,495.9734108000994,495.95670050010085,None,c,1,1.2055363999679685,495.95670050010085,None,,,,,,,pl2,2022_Apr_26_0940,training+cueing,2021.1.4,59.94650369564705,
Friend.png,Friend,Friend,c,2,12,22,92,,,,,0,0,0,0,,,,,7,2,86,10,,,,,,,,,,,,,,,,,,,,,1.471,1.884,497.2972054001875,None,,,,,,,,,,,,,,,,,,,,497.8354247000534,498.3418285001535,0.5136807998642325,1.0114163998514414,498.32770160003565,498.4418837002013,498.32770160003565,498.4418837002013,498.4251631000079,None,c,1,0.6411707999650389,498.4251631000079,None,,,,,,,pl2,2022_Apr_26_0940,training+cueing,2021.1.4,59.94650369564705,
Self.png,You,Self ,c,1,11,21,91,,,,,0,0,0,0,,,,,7,3,87,0,,,,,,,,,,,,,,,,,,,,,1.465,1.232,499.1986672000494,None,,,,,,,,,,,,,,,,,,,,499.73879029997624,500.2431933002081,0.5079372001346201,1.0084259000141174,500.22651610011235,500.32653350010514,500.22651610011235,500.32653350010514,500.32653350010514,None,c,1,0.46769650001078844,500.32653350010514,None,,,,,,,pl2,2022_Apr_26_0940,training+cueing,2021.1.4,59.94650369564705,
Self.png,Friend,Self ,m,2.1,16,26,96,,,,,0,0,0,0,,,,,7,4,88,1,,,,,,,,,,,,,,,,,,,,,1.467,1.536,500.9172869999893,None,,,,,,,,,,,,,,,,,,,,501.4568374999799,501.9610622001346,0.5060674999840558,1.0063874998595566,501.9444259000011,502.06110789999366,501.9444259000011,502.06110789999366,502.0444779000245,None,c,0,0.5738339000381529,502.0444779000245,None,,,,,,,pl2,2022_Apr_26_0940,training+cueing,2021.1.4,59.94650369564705,
Stranger.png,Friend,Stranger,m,2.3,17,27,97,,,,,0,0,0,0,,,,,7,5,89,7,,,,,,,,,,,,,,,,,,,,,1.676,2.126,502.7513185001444,None,,,,,,,,,,,,,,,,,,,,503.2902763001621,503.7957607000135,0.511600699974224,1.0124699999578297,503.7790612000972,503.89637020020746,503.7790612000972,503.89637020020746,503.87963129999116,None,None,0,,503.87963129999116,None,,,,,,,pl2,2022_Apr_26_0940,training+cueing,2021.1.4,59.94650369564705,
Stranger.png,You,Stranger,m,1.3,15,25,95,,,,,0,0,0,0,,,,,7,6,90,6,,,,,,,,,,,,,,,,,,,,,1.621,1.889,505.66786410007626,None,,,,,,,,,,,,,,,,,,,,506.20945980004035,506.71451170020737,0.5091957999393344,1.0094542999286205,506.6979078000877,506.79793280013837,506.6979078000877,506.79793280013837,506.79793280013837,None,None,0,,506.79793280013837,None,,,,,,,pl2,2022_Apr_26_0940,training+cueing,2021.1.4,59.94650369564705,
Friend.png,You,Friend,m,1.2,14,24,94,,,,,0,0,0,0,,,,,7,7,91,3,,,,,,,,,,,,,,,,,,,,,1.403,2.201,508.53698350000195,None,,,,,,,,,,,,,,,,,,,,509.0767396001611,509.58327280008234,0.5116000000853091,1.0119590999092907,509.56654230016284,509.666613999987,509.56654230016284,509.666613999987,509.666613999987,None,m,1,0.7276240000501275,509.666613999987,None,,,,,,,pl2,2022_Apr_26_0940,training+cueing,2021.1.4,59.94650369564705,
Stranger.png,Stranger,Stranger,c,3,13,23,93,,,,,0,0,0,0,,,,,7,8,92,8,,,,,,,,,,,,,,,,,,,,,1.619,2.171,510.52398380008526,None,,,,,,,,,,,,,,,,,,,,511.0637808002066,511.5680458000861,0.5086406997870654,1.008881899761036,511.5513850999996,511.66810530005023,511.5513850999996,511.66810530005023,511.6514008999802,None,c,1,1.0630127000622451,511.6514008999802,None,,,,,,,pl2,2022_Apr_26_0940,training+cueing,2021.1.4,59.94650369564705,
Stranger.png,Stranger,Stranger,c,3,13,23,93,,,,,0,0,0,0,,,,,7,9,93,11,,,,,,,,,,,,,,,,,,,,,1.611,1.451,512.8448923001997,None,,,,,,,,,,,,,,,,,,,,513.379207600141,513.8865271001123,0.5141802001744509,1.014434200245887,513.8696889001876,513.9864289001562,513.8696889001876,513.9864289001562,513.9697906000074,None,None,0,,513.9697906000074,None,,,,,,,pl2,2022_Apr_26_0940,training+cueing,2021.1.4,59.94650369564705,
Friend.png,Stranger,Friend,m,3.2,19,29,99,,,,,0,0,0,0,,,,,7,10,94,5,,,,,,,,,,,,,,,,,,,,,1.591,1.779,515.6947244000621,None,,,,,,,,,,,,,,,,,,,,516.233521200018,516.7384346001782,0.5071878999006003,1.0074676999356598,516.7217704001814,516.8218131000176,516.7217704001814,516.8218131000176,516.8218131000176,None,m,1,1.2847176999785006,516.8218131000176,None,,,,,,,pl2,2022_Apr_26_0940,training+cueing,2021.1.4,59.94650369564705,
Self.png,Stranger,Self ,m,3.1,18,28,98,,,,,0,0,0,0,,,,,7,11,95,2,,,,,,,,,,,,,,,,,,,,,1.645,1.428,518.2299961000681,None,,,,,,,,,,,,,,,,,,,,518.7663186001591,519.2736693001352,0.5149776998441666,1.0154095999896526,519.2569302001502,519.3740765000694,519.2569302001502,519.3740765000694,519.3571355000604,None,m,1,1.1970714998897165,519.3571355000604,None,,,,,,,pl2,2022_Apr_26_0940,training+cueing,2021.1.4,59.94650369564705,
Friend.png,Friend,Friend,c,2,12,22,92,,,,,0,0,0,0,,,,,8,0,96,4,,,,,,,,,,,,,,,,,,,,,1.672,1.735,520.681117300177,None,,,,,,,,,,,,,,,,,,,,521.2185871000402,521.7253729000222,0.5113087000790983,1.0117462000343949,521.7087108001579,521.8256072001532,521.7087108001579,521.8256072001532,521.8088860001881,None,m,0,1.4334134000819176,521.8088860001881,None,,,,,,,pl2,2022_Apr_26_0940,training+cueing,2021.1.4,59.94650369564705,
Friend.png,Friend,Friend,c,2,12,22,92,,,,,0,0,0,0,,,,,8,1,97,10,,,,,,,,,,,,,,,,,,,,,1.663,1.775,523.3673771000467,None,,,,,,,,,,,,,,,,,,,,523.9060524001252,524.410686200019,0.508638700004667,1.0091129001230001,524.3939801000524,524.5106943000574,524.3939801000524,524.5106943000574,524.4939715000801,None,m,0,1.6283360999077559,524.4939715000801,None,,,,,,,pl2,2022_Apr_26_0940,training+cueing,2021.1.4,59.94650369564705,
Self.png,You,Self ,c,1,11,21,91,,,,,0,0,0,0,,,,,8,2,98,0,,,,,,,,,,,,,,,,,,,,,1.619,1.553,526.2522409001831,None,,,,,,,,,,,,,,,,,,,,526.8137961002067,527.312913000118,0.5153379002586007,1.0155963003635406,527.312913000118,527.4129769001156,527.312913000118,527.4129769001156,527.4129769001156,None,c,1,0.5492913001216948,527.4129769001156,None,,,,,,,pl2,2022_Apr_26_0940,training+cueing,2021.1.4,59.94650369564705,
Friend.png,Stranger,Friend,m,3.2,19,29,99,,,,,0,0,0,0,,,,,8,3,99,5,,,,,,,,,,,,,,,,,,,,,1.699,1.7,528.0877920000348,None,,,,,,,,,,,,,,,,,,,,528.628823600011,529.130752600031,0.5020172002259642,1.0023477000650018,529.1140988999978,529.2308096999768,529.1140988999978,529.2308096999768,529.2140887000132,None,None,0,,529.2140887000132,None,,,,,,,pl2,2022_Apr_26_0940,training+cueing,2021.1.4,59.94650369564705,
Self.png,You,Self ,c,1,11,21,91,,,,,0,0,0,0,,,,,8,4,100,9,,,,,,,,,,,,,,,,,,,,,1.418,2.058,531.0199039999861,None,,,,,,,,,,,,,,,,,,,,531.5789900000673,532.0828730000649,0.5068558000493795,1.0071636999491602,532.0661514000967,532.1662290000822,532.0661514000967,532.1662290000822,532.1662290000822,None,c,1,0.4519847999326885,532.1662290000822,None,,,,,,,pl2,2022_Apr_26_0940,training+cueing,2021.1.4,59.94650369564705,
Friend.png,You,Friend,m,1.2,14,24,94,,,,,0,0,0,0,,,,,8,5,101,3,,,,,,,,,,,,,,,,,,,,,1.69,2.348,532.75680870004,None,,,,,,,,,,,,,,,,,,,,533.2943610001821,533.8008063000161,0.5121224001049995,1.012561900075525,533.7841093000025,533.8841590001248,533.7841093000025,533.8841590001248,533.8841590001248,None,c,0,1.2621832001022995,533.8841590001248,None,,,,,,,pl2,2022_Apr_26_0940,training+cueing,2021.1.4,59.94650369564705,
Self.png,Friend,Self ,m,2.1,16,26,96,,,,,0,0,0,0,,,,,8,6,102,1,,,,,,,,,,,,,,,,,,,,,1.501,2.133,535.2757408001926,None,,,,,,,,,,,,,,,,,,,,535.8148386999965,536.3192443000153,0.5069064998533577,1.0072243998292834,536.302613100037,536.4193577000406,536.302613100037,536.4193577000406,536.4026116000023,None,None,0,,536.4026116000023,None,,,,,,,pl2,2022_Apr_26_0940,training+cueing,2021.1.4,59.94650369564705,
Stranger.png,Stranger,Stranger,c,3,13,23,93,,,,,0,0,0,0,,,,,8,7,103,8,,,,,,,,,,,,,,,,,,,,,1.643,1.987,538.0085885000881,None,,,,,,,,,,,,,,,,,,,,538.551291400101,539.0546355000697,0.5057507997844368,1.0062045997474343,539.0378871001303,539.1551740001887,539.0378871001303,539.1551740001887,539.137930800207,None,None,0,,539.137930800207,None,,,,,,,pl2,2022_Apr_26_0940,training+cueing,2021.1.4,59.94650369564705,
Stranger.png,Friend,Stranger,m,2.3,17,27,97,,,,,0,0,0,0,,,,,8,8,104,7,,,,,,,,,,,,,,,,,,,,,1.579,1.878,540.893897500122,None,,,,,,,,,,,,,,,,,,,,541.4358159999829,541.9399489001371,0.506696900120005,1.0068979002535343,541.9233280001208,542.0400233999826,541.9233280001208,542.0400233999826,542.0233682000544,None,m,1,0.9787554999347776,542.0233682000544,None,,,,,,,pl2,2022_Apr_26_0940,training+cueing,2021.1.4,59.94650369564705,
Self.png,Stranger,Self ,m,3.1,18,28,98,,,,,0,0,0,0,,,,,8,9,105,2,,,,,,,,,,,,,,,,,,,,,1.406,1.919,543.1299781000707,None,,,,,,,,,,,,,,,,,,,,543.673415500205,544.1749488001224,0.5040776000823826,1.0043581002391875,544.1582529000007,544.2750090002082,544.1582529000007,544.2750090002082,544.2583016001154,None,None,0,,544.2583016001154,None,,,,,,,pl2,2022_Apr_26_0940,training+cueing,2021.1.4,59.94650369564705,
Stranger.png,You,Stranger,m,1.3,15,25,95,,,,,0,0,0,0,,,,,8,10,106,6,,,,,,,,,,,,,,,,,,,,,1.666,1.376,545.7801491999999,None,,,,,,,,,,,,,,,,,,,,546.3298591000494,546.8435494999867,0.5060798998456448,1.0062782997265458,546.8102711001411,546.9102308000438,546.8102711001411,546.9102308000438,546.9102308000438,None,c,0,0.7959366999566555,546.9102308000438,None,,,,,,,pl2,2022_Apr_26_0940,training+cueing,2021.1.4,59.94650369564705,
Stranger.png,Stranger,Stranger,c,3,13,23,93,,,,,0,0,0,0,,,,,8,11,107,11,,,,,,,,,,,,,,,,,,,,,1.443,1.54,547.8337626000866,None,,,,,,,,,,,,,,,,,,,,548.3733940001111,548.8783389001619,0.5069893999025226,1.0072425999678671,548.8616943000816,548.9783554000314,548.8616943000816,548.9783554000314,548.9617041000165,None,None,0,,548.9617041000165,None,,,,,,,pl2,2022_Apr_26_0940,training+cueing,2021.1.4,59.94650369564705,
Friend.png,Friend,Friend,c,2,12,22,92,,,,,0,0,0,0,,,,,9,0,108,4,,,,,,,,,,,,,,,,,,,,,1.504,1.357,550.5169065999798,None,,,,,,,,,,,,,,,,,,,,551.0780439001974,551.5804141000845,0.5055306998547167,1.0058228999841958,551.5637106001377,551.6804942002054,551.5637106001377,551.6804942002054,551.6638034000061,None,None,0,,551.6638034000061,None,,,,,,,pl2,2022_Apr_26_0940,training+cueing,2021.1.4,59.94650369564705,
Stranger.png,Stranger,Stranger,c,3,13,23,93,,,,,0,0,0,0,,,,,9,1,109,8,,,,,,,,,,,,,,,,,,,,,1.604,2.201,553.2894618001301,None,,,,,,,,,,,,,,,,,,,,553.8310961001553,554.3322494002059,0.5021325000561774,1.0024250999558717,554.3156131000724,554.4323285000864,554.3156131000724,554.4323285000864,554.4156570001505,None,None,0,,554.4156570001505,None,,,,,,,pl2,2022_Apr_26_0940,training+cueing,2021.1.4,59.94650369564705,
Self.png,Stranger,Self ,m,3.1,18,28,98,,,,,0,0,0,0,,,,,9,2,110,2,,,,,,,,,,,,,,,,,,,,,1.603,1.354,556.137565900106,None,,,,,,,,,,,,,,,,,,,,556.6784451000858,557.1845067001414,0.5105385999195278,1.010843199910596,557.1676786001772,557.28437020001,557.1676786001772,557.28437020001,557.267725800164,None,c,0,1.030401499941945,557.267725800164,None,,,,,,,pl2,2022_Apr_26_0940,training+cueing,2021.1.4,59.94650369564705,
Stranger.png,Friend,Stranger,m,2.3,17,27,97,,,,,0,0,0,0,,,,,9,3,111,7,,,,,,,,,,,,,,,,,,,,,1.484,1.835,558.4249489000067,None,,,,,,,,,,,,,,,,,,,,558.9656931001227,559.4693398000672,0.5059335001278669,1.0062460999470204,559.4526311000809,559.5693934001029,559.4526311000809,559.5693934001029,559.552631800063,None,None,0,,559.552631800063,None,,,,,,,pl2,2022_Apr_26_0940,training+cueing,2021.1.4,59.94650369564705,
Stranger.png,Stranger,Stranger,c,3,13,23,93,,,,,0,0,0,0,,,,,9,4,112,11,,,,,,,,,,,,,,,,,,,,,1.619,2.178,561.1419810000807,None,,,,,,,,,,,,,,,,,,,,561.7037488999777,562.2046287001576,0.5008622000459582,1.0011869999580085,562.1879346000496,562.3046931000426,562.1879346000496,562.3046931000426,562.3046931000426,None,c,1,1.001446400070563,562.3046931000426,None,,,,,,,pl2,2022_Apr_26_0940,training+cueing,2021.1.4,59.94650369564705,
Friend.png,Stranger,Friend,m,3.2,19,29,99,,,,,0,0,0,0,,,,,9,5,113,5,,,,,,,,,,,,,,,,,,,,,1.719,1.339,563.4273433000781,None,,,,,,,,,,,,,,,,,,,,563.9665771999862,564.4729472000618,0.5122692999430001,1.0125964998733252,564.4562383000739,564.5730004000943,564.4562383000739,564.5730004000943,564.55630200007,None,m,1,1.4058634000830352,564.55630200007,None,,,,,,,pl2,2022_Apr_26_0940,training+cueing,2021.1.4,59.94650369564705,
Stranger.png,You,Stranger,m,1.3,15,25,95,,,,,0,0,0,0,,,,,9,6,114,6,,,,,,,,,,,,,,,,,,,,,1.489,2.473,566.0972800001036,None,,,,,,,,,,,,,,,,,,,,566.6374998001847,567.1415603000205,0.5077104999218136,1.007998500019312,567.1248709000647,567.2249148001429,567.1248709000647,567.2249148001429,567.2249148001429,None,c,0,0.5292120999656618,567.2249148001429,None,,,,,,,pl2,2022_Apr_26_0940,training+cueing,2021.1.4,59.94650369564705,
Friend.png,You,Friend,m,1.2,14,24,94,,,,,0,0,0,0,,,,,9,7,115,3,,,,,,,,,,,,,,,,,,,,,1.456,1.249,567.8806890000124,None,,,,,,,,,,,,,,,,,,,,568.4368561001029,568.9429662001785,0.5102521001826972,1.0105158002115786,568.9262751999777,569.0263088999782,568.9262751999777,569.0263088999782,569.0263088999782,None,m,1,0.9518609000369906,569.0263088999782,None,,,,,,,pl2,2022_Apr_26_0940,training+cueing,2021.1.4,59.94650369564705,
Self.png,Friend,Self ,m,2.1,16,26,96,,,,,0,0,0,0,,,,,9,8,116,1,,,,,,,,,,,,,,,,,,,,,1.619,1.415,570.1001995000988,None,,,,,,,,,,,,,,,,,,,,570.6424803000409,571.1444171001203,0.5059020000044256,1.006782100070268,571.1277981000021,571.2444766000845,571.1277981000021,571.2444766000845,571.2278150999919,None,m,1,0.8944823001511395,571.2278150999919,None,,,,,,,pl2,2022_Apr_26_0940,training+cueing,2021.1.4,59.94650369564705,
Friend.png,Friend,Friend,c,2,12,22,92,,,,,0,0,0,0,,,,,9,9,117,10,,,,,,,,,,,,,,,,,,,,,1.678,1.865,572.2524717000779,None,,,,,,,,,,,,,,,,,,,,572.7914500001352,573.2959565999918,0.509426600066945,1.0097012999467552,573.2793414001353,573.395985300187,573.2793414001353,573.395985300187,573.3793717001099,None,c,1,1.3026651002001017,573.3793717001099,None,,,,,,,pl2,2022_Apr_26_0940,training+cueing,2021.1.4,59.94650369564705,
Self.png,You,Self ,c,1,11,21,91,,,,,0,0,0,0,,,,,9,10,118,0,,,,,,,,,,,,,,,,,,,,,1.673,2.439,574.8199692000635,None,,,,,,,,,,,,,,,,,,,,575.3595009001438,575.864515800029,0.5071020999457687,1.0080037999432534,575.8478228000458,575.9478605000768,575.8478228000458,575.9478605000768,575.9478605000768,None,c,1,0.5105286999605596,575.9478605000768,None,,,,,,,pl2,2022_Apr_26_0940,training+cueing,2021.1.4,59.94650369564705,
Self.png,You,Self ,c,1,11,21,91,,,,,0,0,0,0,,,,,9,11,119,9,,,,,,,,,,,,,,,,,,,,,1.526,2.012,576.591468000086,None,,,,,,,,,,,,,,,,,,,,577.1494430000894,577.6491282000206,0.5155460999812931,1.0158710000105202,577.6491282000206,577.7491993000731,577.6491282000206,577.7491993000731,577.7491993000731,None,c,1,0.5969034999143332,577.7491993000731,None,,,,,,,pl2,2022_Apr_26_0940,training+cueing,2021.1.4,59.94650369564705,
,,,,,,,,,,,,0,0,0,0,,,,,,,,,,,,,,,,,,,,,,,,,,,,,,,,,,,,,,,,,,,,,,,,,,,,,,,,,,,,,,,,,,,0.001349500147625804,None,,,,,pl2,2022_Apr_26_0940,training+cueing,2021.1.4,59.94650369564705,
Stranger.png,Friend,Stranger,m,2.3,17,27,97,,,,,1,0,1,0,0,0,0,7,,,,,,,,,,,,,,,,,578.9834261001088,None,space,79.79357730015181,2.0165678998455405,None,660.7925697001629,None,1.76,1.956,663.8087371999864,None,664.3393478000071,664.8455400001258,664.8288047001697,664.9455803001765,664.8288047001697,664.9455803001765,664.9290816001594,None,None,0,,664.9290816001594,None,666.6955093999859,None,,,,,,,,,,,,,,,,,,,,,,,,,,pl2,2022_Apr_26_0940,training+cueing,2021.1.4,59.94650369564705,
Self.png,Friend,Self ,m,2.1,16,26,96,,,,,1,0,1,0,0,1,1,1,,,,,,,,,,,,,,,,,,,,,,,,,1.655,2.04,667.0972088000271,None,667.6301312001888,668.1312349000946,668.114536800189,668.2312871001195,668.114536800189,668.2312871001195,668.2145813000388,None,m,1,0.7874223999679089,668.2145813000388,None,669.0485867001116,None,,,,,,,,,,,,,,,,,,,,,,,,,,pl2,2022_Apr_26_0940,training+cueing,2021.1.4,59.94650369564705,
Stranger.png,You,Stranger,m,1.3,15,25,95,,,,,1,0,1,0,0,2,2,6,,,,,,,,,,,,,,,,,,,,,,,,,1.596,2.359,669.4488172000274,None,669.9788046001922,670.4829338002019,670.4662392002065,670.5662974000443,670.4662392002065,670.5662974000443,670.5662974000443,None,c,0,0.6117545000743121,670.5662974000443,None,671.199759399984,None,,,,,,,,,,,,,,,,,,,,,,,,,,pl2,2022_Apr_26_0940,training+cueing,2021.1.4,59.94650369564705,
Self.png,You,Self ,c,1,11,21,91,,,,,1,0,1,0,0,3,3,0,,,,,,,,,,,,,,,,,,,,,,,,,1.683,1.883,671.6004944001324,None,672.1315888999961,672.634480800014,672.6177694001235,672.7178509000223,672.6177694001235,672.7178509000223,672.7178509000223,None,None,0,,672.7178509000223,None,674.4024486001581,None,,,,,,,,,,,,,,,,,,,,,,,,,,pl2,2022_Apr_26_0940,training+cueing,2021.1.4,59.94650369564705,
Friend.png,Stranger,Friend,m,3.2,19,29,99,,,,,1,0,1,0,0,4,4,5,,,,,,,,,,,,,,,,,,,,,,,,,1.576,1.805,674.802853600122,None,675.3505289000459,675.8534666001797,675.8367817001417,675.9535378001165,675.8367817001417,675.9535378001165,675.9368061001878,None,c,0,1.433090099832043,675.9368061001878,None,677.387917800108,None,,,,,,,,,,,,,,,,,,,,,,,,,,pl2,2022_Apr_26_0940,training+cueing,2021.1.4,59.94650369564705,
Friend.png,Friend,Friend,c,2,12,22,92,,,,,1,0,1,0,0,5,5,4,,,,,,,,,,,,,,,,,,,,,,,,,1.53,1.677,677.7881472001318,None,678.3176196999848,678.8222651001997,678.8056095000356,678.9223199000116,678.8056095000356,678.9223199000116,678.9056445001625,None,None,0,,678.9056445001625,None,680.4401933001354,None,,,,,,,,,,,,,,,,,,,,,,,,,,pl2,2022_Apr_26_0940,training+cueing,2021.1.4,59.94650369564705,
Self.png,Stranger,Self ,m,3.1,18,28,98,,,,,1,0,1,0,0,6,6,2,,,,,,,,,,,,,,,,,,,,,,,,,1.64,1.442,680.8404830000363,None,681.3758429000154,681.8912094000261,681.8744711000472,681.9912400001194,681.8744711000472,681.9912400001194,681.9745116000995,None,m,1,0.755511499941349,681.9745116000995,None,682.7589054000564,None,,,,,,,,,,,,,,,,,,,,,,,,,,pl2,2022_Apr_26_0940,training+cueing,2021.1.4,59.94650369564705,
Self.png,You,Self ,c,1,11,21,91,,,,,1,0,1,0,0,7,7,9,,,,,,,,,,,,,,,,,,,,,,,,,1.42,1.302,683.1588467000984,None,683.6957620000467,684.2094941001851,684.1928088001441,684.2928594001569,684.1928088001441,684.2928594001569,684.2928594001569,None,c,1,0.9170758998952806,684.2928594001569,None,685.2269714002032,None,,,,,,,,,,,,,,,,,,,,,,,,,,pl2,2022_Apr_26_0940,training+cueing,2021.1.4,59.94650369564705,
Stranger.png,Stranger,Stranger,c,3,13,23,93,,,,,1,0,1,0,0,8,8,8,,,,,,,,,,,,,,,,,,,,,,,,,1.476,2.041,685.6271877000108,None,686.1581418002024,686.6613073002081,686.6446084000636,686.7613547001965,686.6446084000636,686.7613547001965,686.7446278000716,None,c,1,1.3933107999619097,686.7446278000716,None,688.1623443001881,None,,,,,,,,,,,,,,,,,,,,,,,,,,pl2,2022_Apr_26_0940,training+cueing,2021.1.4,59.94650369564705,
Friend.png,Friend,Friend,c,2,12,22,92,,,,,1,0,1,0,0,9,9,10,,,,,,,,,,,,,,,,,,,,,,,,,1.418,2.216,688.5626490002032,None,689.1127093001269,689.613372300053,689.5967484000139,689.7134462001268,689.5967484000139,689.7134462001268,689.6968225000892,None,c,1,1.1611089000944048,689.6968225000892,None,690.8810090001207,None,,,,,,,,,,,,,,,,,,,,,,,,,,pl2,2022_Apr_26_0940,training+cueing,2021.1.4,59.94650369564705,
Friend.png,You,Friend,m,1.2,14,24,94,,,,,1,0,1,0,0,10,10,3,,,,,,,,,,,,,,,,,,,,,,,,,1.452,1.924,691.2812659000047,None,691.8137388001196,692.3153384001926,692.2986847001594,692.3987358000595,692.2986847001594,692.3987358000595,692.3987358000595,None,m,1,0.747301499824971,692.3987358000595,None,693.1659609000199,None,,,,,,,,,,,,,,,,,,,,,,,,,,pl2,2022_Apr_26_0940,training+cueing,2021.1.4,59.94650369564705,
Stranger.png,Stranger,Stranger,c,3,13,23,93,,,,,1,0,1,0,0,11,11,11,,,,,,,,,,,,,,,,,,,,,,,,,1.557,1.993,693.5664515001699,None,694.108718500007,694.6169954000507,694.6003374999855,694.7170679001138,694.6003374999855,694.7170679001138,694.7004507000092,None,c,1,1.0215104999952018,694.7004507000092,None,695.751247700071,None,,,,,,,,,,,,,,,,,,,,,,,,,,pl2,2022_Apr_26_0940,training+cueing,2021.1.4,59.94650369564705,
Stranger.png,Stranger,Stranger,c,3,13,23,93,,,,,1,0,1,0,,,,,0,0,0,8,,,,,,,,,,,,,,,,,,,708.727362100035,None,1.656,1.825,712.2434839999769,None,,,,,,,,,,,,,,,,696.1516200001352,None,0.014444499975070357,0.5125690000131726,712.7816079000477,713.2806471001823,0.5139295000117272,1.0140980000142008,713.2806471001823,713.3805884001777,713.2806471001823,713.3805884001777,713.3805884001777,None,c,1,1.2693713000044227,713.3805884001777,None,,,,,,,pl2,2022_Apr_26_0940,training+cueing,2021.1.4,59.94650369564705,
Self.png,You,Self ,c,1,11,21,91,,,,,1,0,1,0,,,,,0,1,1,0,,,,,,,,,,,,,,,,,,,,,1.685,1.545,714.7930002000649,None,,,,,,,,,,,,,,,,,,,,715.3291472001001,715.8323904999997,0.5068820999003947,1.0074065998196602,715.8157138000242,715.9158439000603,715.8157138000242,715.9158439000603,715.9158439000603,None,c,1,0.478148499969393,715.9158439000603,None,,,,,,,pl2,2022_Apr_26_0940,training+cueing,2021.1.4,59.94650369564705,
Friend.png,Friend,Friend,c,2,12,22,92,,,,,1,0,1,0,,,,,0,2,2,10,,,,,,,,,,,,,,,,,,,,,1.673,2.372,716.5225647001062,None,,,,,,,,,,,,,,,,,,,,717.0779672001954,717.5836090000812,0.5106556999962777,1.0109671999234706,717.5669382000342,717.6837001000531,717.5669382000342,717.6837001000531,717.666969700018,None,c,1,0.7589386000763625,717.666969700018,None,,,,,,,pl2,2022_Apr_26_0940,training+cueing,2021.1.4,59.94650369564705,
Friend.png,You,Friend,m,1.2,14,24,94,,,,,1,0,1,0,,,,,0,3,3,3,,,,,,,,,,,,,,,,,,,,,1.702,2.418,718.5570327001624,None,,,,,,,,,,,,,,,,,,,,719.0976235000417,719.6017776001245,0.5076096998527646,1.0079181999899447,719.5850825000089,719.6853285999969,719.5850825000089,719.6853285999969,719.6853285999969,None,m,1,0.7566347999963909,719.6853285999969,None,,,,,,,pl2,2022_Apr_26_0940,training+cueing,2021.1.4,59.94650369564705,
Friend.png,Stranger,Friend,m,3.2,19,29,99,,,,,1,0,1,0,,,,,0,4,4,5,,,,,,,,,,,,,,,,,,,,,1.44,1.28,720.5758356000297,None,,,,,,,,,,,,,,,,,,,,721.116252399981,721.6199345001951,0.505712500307709,1.0059407001826912,721.6032801000401,721.7199583000038,721.6032801000401,721.7199583000038,721.7032118001953,None,m,1,0.8986395001411438,721.7032118001953,None,,,,,,,pl2,2022_Apr_26_0940,training+cueing,2021.1.4,59.94650369564705,
Stranger.png,Stranger,Stranger,c,3,13,23,93,,,,,1,0,1,0,,,,,0,5,5,11,,,,,,,,,,,,,,,,,,,,,1.651,2.2,722.7268102001399,None,,,,,,,,,,,,,,,,,,,,723.2638462001923,723.7714619000908,0.514872700208798,1.0151982002425939,723.7547396000009,723.8715057000518,723.7547396000009,723.8715057000518,723.8548032001127,None,c,1,0.9234189998824149,723.8548032001127,None,,,,,,,pl2,2022_Apr_26_0940,training+cueing,2021.1.4,59.94650369564705,
Stranger.png,You,Stranger,m,1.3,15,25,95,,,,,1,0,1,0,,,,,0,6,6,6,,,,,,,,,,,,,,,,,,,,,1.733,1.631,724.91198850004,None,,,,,,,,,,,,,,,,,,,,725.4522249000147,725.9563888001721,0.5072935002390295,1.0075484002009034,725.9396646001842,726.0396658000536,725.9396646001842,726.0396658000536,726.0396658000536,None,m,1,0.7702306001447141,726.0396658000536,None,,,,,,,pl2,2022_Apr_26_0940,training+cueing,2021.1.4,59.94650369564705,
Self.png,You,Self ,c,1,11,21,91,,,,,1,0,1,0,,,,,0,7,7,9,,,,,,,,,,,,,,,,,,,,,1.452,1.759,726.946685800096,None,,,,,,,,,,,,,,,,,,,,727.4846230000257,727.9911442000885,0.5112515999935567,1.0115776001475751,727.9744535000063,728.0745610999875,727.9744535000063,728.0745610999875,728.0745610999875,None,c,1,0.4312665001489222,728.0745610999875,None,,,,,,,pl2,2022_Apr_26_0940,training+cueing,2021.1.4,59.94650369564705,
Stranger.png,Friend,Stranger,m,2.3,17,27,97,,,,,1,0,1,0,,,,,0,8,8,7,,,,,,,,,,,,,,,,,,,,,1.474,1.798,728.6306664000731,None,,,,,,,,,,,,,,,,,,,,729.1727154001128,729.6759366001934,0.506343699991703,1.0066295999567956,729.6592358001508,729.77597409999,729.6592358001508,729.77597409999,729.7592852001544,None,None,0,,729.7592852001544,None,,,,,,,pl2,2022_Apr_26_0940,training+cueing,2021.1.4,59.94650369564705,
Self.png,Stranger,Self ,m,3.1,18,28,98,,,,,1,0,1,0,,,,,0,9,9,2,,,,,,,,,,,,,,,,,,,,,1.769,1.443,731.3477708999999,None,,,,,,,,,,,,,,,,,,,,731.8906336000655,732.3943492001854,0.5075622000731528,1.0081324002239853,732.3776507000439,732.4944023001008,732.3776507000439,732.4944023001008,732.4776944001205,None,c,0,1.1801833999343216,732.4776944001205,None,,,,,,,pl2,2022_Apr_26_0940,training+cueing,2021.1.4,59.94650369564705,
Self.png,Friend,Self ,m,2.1,16,26,96,,,,,1,0,1,0,,,,,0,10,10,1,,,,,,,,,,,,,,,,,,,,,1.439,1.601,733.7848751000129,None,,,,,,,,,,,,,,,,,,,,734.3258404000662,734.8294713001233,0.5050432002171874,1.0054374001920223,734.8128888001665,734.9295773000922,734.8128888001665,734.9295773000922,734.9128051002044,None,m,1,1.161262899870053,734.9128051002044,None,,,,,,,pl2,2022_Apr_26_0940,training+cueing,2021.1.4,59.94650369564705,
Friend.png,Friend,Friend,c,2,12,22,92,,,,,1,0,1,0,,,,,0,11,11,4,,,,,,,,,,,,,,,,,,,,,1.447,1.261,736.2045247000642,None,,,,,,,,,,,,,,,,,,,,736.7447487001773,737.2478668000549,0.5063495000358671,1.0066852001473308,737.2311725001782,737.3479132000357,737.2311725001782,737.3479132000357,737.3312327000313,None,c,1,0.7745892000384629,737.3312327000313,None,,,,,,,pl2,2022_Apr_26_0940,training+cueing,2021.1.4,59.94650369564705,
Friend.png,You,Friend,m,1.2,14,24,94,,,,,1,0,1,0,,,,,1,0,12,3,,,,,,,,,,,,,,,,,,,,,1.706,1.778,738.2379380001221,None,,,,,,,,,,,,,,,,,,,,738.7786630999763,739.2826646000613,0.5059291999787092,1.0062299999408424,739.2659729002044,739.3660240999889,739.2659729002044,739.3660240999889,739.3660240999889,None,m,1,0.6278411000967026,739.3660240999889,None,,,,,,,pl2,2022_Apr_26_0940,training+cueing,2021.1.4,59.94650369564705,
Stranger.png,Stranger,Stranger,c,3,13,23,93,,,,,1,0,1,0,,,,,1,1,13,8,,,,,,,,,,,,,,,,,,,,,1.666,1.998,740.1229042001069,None,,,,,,,,,,,,,,,,,,,,740.6659268001094,741.1674214000814,0.5035459001082927,1.0040621000807732,741.1507030001376,741.2679779001046,741.1507030001376,741.2679779001046,741.250909600174,None,c,1,1.1429154998622835,741.250909600174,None,,,,,,,pl2,2022_Apr_26_0940,training+cueing,2021.1.4,59.94650369564705,
Stranger.png,Stranger,Stranger,c,3,13,23,93,,,,,1,0,1,0,,,,,1,2,14,11,,,,,,,,,,,,,,,,,,,,,1.499,1.7,742.5239449001383,None,,,,,,,,,,,,,,,,,,,,743.0637203999795,743.5691186999902,0.5095437001436949,1.0098366001620889,743.5524027000647,743.6691404001322,743.5524027000647,743.6691404001322,743.6524314000271,None,c,1,0.8054285000544041,743.6524314000271,None,,,,,,,pl2,2022_Apr_26_0940,training+cueing,2021.1.4,59.94650369564705,
Self.png,You,Self ,c,1,11,21,91,,,,,1,0,1,0,,,,,1,3,15,9,,,,,,,,,,,,,,,,,,,,,1.535,1.207,744.5927716000006,None,,,,,,,,,,,,,,,,,,,,745.1454557001125,745.6541931000538,0.5156232002191246,1.0158019000664353,745.637609800091,745.7375199000817,745.637609800091,745.7375199000817,745.7375199000817,None,c,1,0.8483619000762701,745.7375199000817,None,,,,,,,pl2,2022_Apr_26_0940,training+cueing,2021.1.4,59.94650369564705,
Friend.png,Friend,Friend,c,2,12,22,92,,,,,1,0,1,0,,,,,1,4,16,4,,,,,,,,,,,,,,,,,,,,,1.478,2.439,746.7122091001365,None,,,,,,,,,,,,,,,,,,,,747.2537942000199,747.7554413999896,0.502974099945277,1.003475499805063,747.738821899984,747.8560238000937,747.738821899984,747.8560238000937,747.8388088000938,None,c,1,0.763134399894625,747.8388088000938,None,,,,,,,pl2,2022_Apr_26_0940,training+cueing,2021.1.4,59.94650369564705,
Self.png,Stranger,Self ,m,3.1,18,28,98,,,,,1,0,1,0,,,,,1,5,17,2,,,,,,,,,,,,,,,,,,,,,1.593,1.856,748.7300188001245,None,,,,,,,,,,,,,,,,,,,,749.2730994001031,749.7735541001894,0.5014315999578685,1.0016491999849677,749.7569447001442,749.8736196001992,749.7569447001442,749.8736196001992,749.8736196001992,None,m,1,0.7922936999239028,749.8736196001992,None,,,,,,,pl2,2022_Apr_26_0940,training+cueing,2021.1.4,59.94650369564705,
Friend.png,Friend,Friend,c,2,12,22,92,,,,,1,0,1,0,,,,,1,6,18,10,,,,,,,,,,,,,,,,,,,,,1.73,1.844,750.7975207001437,None,,,,,,,,,,,,,,,,,,,,751.3377694000956,751.8417885000817,0.5048521999269724,1.0051551000215113,751.8250589000527,751.9418085999787,751.8250589000527,751.9418085999787,751.925057800021,None,c,1,0.7567900000140071,751.925057800021,None,,,,,,,pl2,2022_Apr_26_0940,training+cueing,2021.1.4,59.94650369564705,
Stranger.png,Friend,Stranger,m,2.3,17,27,97,,,,,1,0,1,0,,,,,1,7,19,7,,,,,,,,,,,,,,,,,,,,,1.563,2.387,752.8153383000754,None,,,,,,,,,,,,,,,,,,,,753.3537173999939,753.8599126001354,0.5123294000513852,1.012590599944815,753.8432128001004,753.9599536000751,753.8432128001004,753.9599536000751,753.943227100186,None,m,1,0.7866628000047058,753.943227100186,None,,,,,,,pl2,2022_Apr_26_0940,training+cueing,2021.1.4,59.94650369564705,
Self.png,You,Self ,c,1,11,21,91,,,,,1,0,1,0,,,,,1,8,20,0,,,,,,,,,,,,,,,,,,,,,1.493,1.509,754.8664331000764,None,,,,,,,,,,,,,,,,,,,,755.4073209001217,755.9114041000139,0.5050812000408769,1.0051967999897897,755.8948365000542,755.9947576001287,755.8948365000542,755.9947576001287,755.9947576001287,None,c,1,0.591125100152567,755.9947576001287,None,,,,,,,pl2,2022_Apr_26_0940,training+cueing,2021.1.4,59.94650369564705,
Friend.png,Stranger,Friend,m,3.2,19,29,99,,,,,1,0,1,0,,,,,1,9,21,5,,,,,,,,,,,,,,,,,,,,,1.476,2.059,756.718596199993,None,,,,,,,,,,,,,,,,,,,,757.2744408000726,757.7793965002056,0.510236400179565,1.0104982000775635,757.7627171999775,757.879441200057,757.7627171999775,757.879441200057,757.8627270001452,None,None,0,,757.8627270001452,None,,,,,,,pl2,2022_Apr_26_0940,training+cueing,2021.1.4,59.94650369564705,
Self.png,Friend,Self ,m,2.1,16,26,96,,,,,1,0,1,0,,,,,1,10,22,1,,,,,,,,,,,,,,,,,,,,,1.525,1.405,759.4520517999772,None,,,,,,,,,,,,,,,,,,,,759.9938723000232,760.4979751000647,0.5082056000828743,1.0085485000163317,760.4813167999964,760.598040800076,760.4813167999964,760.598040800076,760.5814010000322,None,None,0,,760.5814010000322,None,,,,,,,pl2,2022_Apr_26_0940,training+cueing,2021.1.4,59.94650369564705,
Stranger.png,You,Stranger,m,1.3,15,25,95,,,,,1,0,1,0,,,,,1,11,23,6,,,,,,,,,,,,,,,,,,,,,1.5,1.288,762.2199999000877,None,,,,,,,,,,,,,,,,,,,,762.7621687999927,763.2666763002053,0.5072602999862283,1.0075207001063973,763.2499804000836,763.3500276000705,763.2499804000836,763.3500276000705,763.3500276000705,None,None,0,,763.3500276000705,None,,,,,,,pl2,2022_Apr_26_0940,training+cueing,2021.1.4,59.94650369564705,
Self.png,Friend,Self ,m,2.1,16,26,96,,,,,1,0,1,0,,,,,2,0,24,1,,,,,,,,,,,,,,,,,,,,,1.711,1.38,764.9562215001788,None,,,,,,,,,,,,,,,,,,,,765.4989220001735,766.0020175999962,0.5051479001995176,1.0054485001601279,765.9853434001561,766.1020651999861,765.9853434001561,766.1020651999861,766.085361600155,None,m,1,0.7083920000586659,766.085361600155,None,,,,,,,pl2,2022_Apr_26_0940,training+cueing,2021.1.4,59.94650369564705,
Stranger.png,Stranger,Stranger,c,3,13,23,93,,,,,1,0,1,0,,,,,2,1,25,8,,,,,,,,,,,,,,,,,,,,,1.699,1.253,766.9259103001095,None,,,,,,,,,,,,,,,,,,,,767.468513400061,767.9700982000213,0.5035817001480609,1.0038524002302438,767.9534188001417,768.0701523001771,767.9534188001417,768.0701523001771,768.0534518000204,None,c,1,0.7243957000318915,768.0534518000204,None,,,,,,,pl2,2022_Apr_26_0940,training+cueing,2021.1.4,59.94650369564705,
Self.png,Stranger,Self ,m,3.1,18,28,98,,,,,1,0,1,0,,,,,2,2,26,2,,,,,,,,,,,,,,,,,,,,,1.439,2.48,768.9098857000936,None,,,,,,,,,,,,,,,,,,,,769.4532966001425,769.9548055999912,0.5027993998955935,1.0030896998941898,769.9381784000434,770.0548881001305,769.9381784000434,770.0548881001305,770.038211400155,None,m,1,0.7398099999409169,770.038211400155,None,,,,,,,pl2,2022_Apr_26_0940,training+cueing,2021.1.4,59.94650369564705,
Friend.png,Friend,Friend,c,2,12,22,92,,,,,1,0,1,0,,,,,2,3,27,4,,,,,,,,,,,,,,,,,,,,,1.5,1.492,770.9113187000621,None,,,,,,,,,,,,,,,,,,,,771.4524688001256,771.9562586999964,0.5084872001316398,1.0087449001148343,771.9396560001187,772.0563195000868,771.9396560001187,772.0563195000868,772.0396688000765,None,c,1,0.7062477997969836,772.0396688000765,None,,,,,,,pl2,2022_Apr_26_0940,training+cueing,2021.1.4,59.94650369564705,
Stranger.png,Stranger,Stranger,c,3,13,23,93,,,,,1,0,1,0,,,,,2,4,28,11,,,,,,,,,,,,,,,,,,,,,1.703,2.011,772.87988280016,None,,,,,,,,,,,,,,,,,,,,773.4417243001517,773.9410211001523,0.5142353000119328,1.0149213999975473,773.9410211001523,774.041247599991,773.9410211001523,774.041247599991,774.041247599991,None,c,1,0.8966449000872672,774.041247599991,None,,,,,,,pl2,2022_Apr_26_0940,training+cueing,2021.1.4,59.94650369564705,
Stranger.png,Friend,Stranger,m,2.3,17,27,97,,,,,1,0,1,0,,,,,2,5,29,7,,,,,,,,,,,,,,,,,,,,,1.633,1.951,775.0656872000545,None,,,,,,,,,,,,,,,,,,,,775.6075217002071,776.1092805000953,0.5053307001944631,1.0060170001816005,776.0926584000699,776.2093234001659,776.0926584000699,776.2093234001659,776.1926635000855,None,m,1,0.8092378000728786,776.1926635000855,None,,,,,,,pl2,2022_Apr_26_0940,training+cueing,2021.1.4,59.94650369564705,
Self.png,You,Self ,c,1,11,21,91,,,,,1,0,1,0,,,,,2,6,30,9,,,,,,,,,,,,,,,,,,,,,1.722,2.32,777.1336500002071,None,,,,,,,,,,,,,,,,,,,,777.6879894000012,778.1941445001867,0.513443399919197,1.01373829995282,778.1774399999995,778.2775330001023,778.1774399999995,778.2775330001023,778.2775330001023,None,c,1,0.4842856000177562,778.2775330001023,None,,,,,,,pl2,2022_Apr_26_0940,training+cueing,2021.1.4,59.94650369564705,
Self.png,You,Self ,c,1,11,21,91,,,,,1,0,1,0,,,,,2,7,31,0,,,,,,,,,,,,,,,,,,,,,1.64,2.291,778.8843563001137,None,,,,,,,,,,,,,,,,,,,,779.4226834999863,779.9286956000142,0.5106516003143042,1.0109556003008038,779.9120556002017,780.0121106000151,779.9120556002017,780.0121106000151,780.0121106000151,None,c,1,0.7337474001105875,780.0121106000151,None,,,,,,,pl2,2022_Apr_26_0940,training+cueing,2021.1.4,59.94650369564705,
Friend.png,Friend,Friend,c,2,12,22,92,,,,,1,0,1,0,,,,,2,8,32,10,,,,,,,,,,,,,,,,,,,,,1.441,1.417,780.8688908000477,None,,,,,,,,,,,,,,,,,,,,781.4117806002032,781.9134932002053,0.5045715000014752,1.0048549000639468,781.8968001999892,782.0135635000188,781.8968001999892,782.0135635000188,781.996932500042,None,c,1,0.716812000144273,781.996932500042,None,,,,,,,pl2,2022_Apr_26_0940,training+cueing,2021.1.4,59.94650369564705,
Friend.png,You,Friend,m,1.2,14,24,94,,,,,1,0,1,0,,,,,2,9,33,3,,,,,,,,,,,,,,,,,,,,,1.645,1.444,782.8364205001853,None,,,,,,,,,,,,,,,,,,,,783.3794474001043,783.8817063001916,0.505550199886784,1.0056086999829859,783.8650518001523,783.9649368000682,783.8650518001523,783.9649368000682,783.9649368000682,None,m,1,0.7648019001353532,783.9649368000682,None,,,,,,,pl2,2022_Apr_26_0940,training+cueing,2021.1.4,59.94650369564705,
Stranger.png,You,Stranger,m,1.3,15,25,95,,,,,1,0,1,0,,,,,2,10,34,6,,,,,,,,,,,,,,,,,,,,,1.587,2.153,784.855206000153,None,,,,,,,,,,,,,,,,,,,,785.4107391000725,785.9163952001836,0.5088449998293072,1.0093740997835994,785.8997178000864,785.9997665002011,785.8997178000864,785.9997665002011,785.9997665002011,None,m,1,1.1941684999037534,785.9997665002011,None,,,,,,,pl2,2022_Apr_26_0940,training+cueing,2021.1.4,59.94650369564705,
Friend.png,Stranger,Friend,m,3.2,19,29,99,,,,,1,0,1,0,,,,,2,11,35,5,,,,,,,,,,,,,,,,,,,,,1.738,2.336,787.324872800149,None,,,,,,,,,,,,,,,,,,,,787.8684616000392,788.3681613001972,0.5007322998717427,1.0010508999694139,788.3514692999888,788.4681912001688,788.3514692999888,788.4681912001688,788.4681912001688,None,m,1,1.2376011998858303,788.4681912001688,None,,,,,,,pl2,2022_Apr_26_0940,training+cueing,2021.1.4,59.94650369564705,
Friend.png,Friend,Friend,c,2,12,22,92,,,,,1,0,1,0,,,,,3,0,36,4,,,,,,,,,,,,,,,,,,,,,1.698,2.08,789.8422958001029,None,,,,,,,,,,,,,,,,,,,,790.3824987001717,790.8869309001602,0.50565250008367,1.0059370999224484,790.8701246001292,790.9868547001388,790.8701246001292,790.9868547001388,790.9701687002089,None,c,1,0.9115601999219507,790.9701687002089,None,,,,,,,pl2,2022_Apr_26_0940,training+cueing,2021.1.4,59.94650369564705,
Stranger.png,Stranger,Stranger,c,3,13,23,93,,,,,1,0,1,0,,,,,3,1,37,11,,,,,,,,,,,,,,,,,,,,,1.499,2.102,792.0105014001019,None,,,,,,,,,,,,,,,,,,,,792.5533203000668,793.0549132002052,0.5043363003060222,1.004739100113511,793.0382265001535,793.154951200122,793.0382265001535,793.154951200122,793.1382165001705,None,c,1,0.8555467999540269,793.1382165001705,None,,,,,,,pl2,2022_Apr_26_0940,training+cueing,2021.1.4,59.94650369564705,
Friend.png,Friend,Friend,c,2,12,22,92,,,,,1,0,1,0,,,,,3,2,38,10,,,,,,,,,,,,,,,,,,,,,1.538,1.967,794.1287758001126,None,,,,,,,,,,,,,,,,,,,,794.6703887002077,795.1730888001621,0.5054035999346524,1.0056920999195427,795.1564099001698,795.2731646001339,795.1564099001698,795.2731646001339,795.2564537001308,None,m,0,0.5613738000392914,795.2564537001308,None,,,,,,,pl2,2022_Apr_26_0940,training+cueing,2021.1.4,59.94650369564705,
Friend.png,Stranger,Friend,m,3.2,19,29,99,,,,,1,0,1,0,,,,,3,3,39,5,,,,,,,,,,,,,,,,,,,,,1.667,1.737,795.9464061001781,None,,,,,,,,,,,,,,,,,,,,796.4891553001944,796.991087500006,0.5034185000695288,1.0036999001167715,796.9744016001932,797.0913164999802,796.9744016001932,797.0913164999802,797.0744470001664,None,c,0,0.9353612000122666,797.0744470001664,None,,,,,,,pl2,2022_Apr_26_0940,training+cueing,2021.1.4,59.94650369564705,
Stranger.png,You,Stranger,m,1.3,15,25,95,,,,,1,0,1,0,,,,,3,4,40,6,,,,,,,,,,,,,,,,,,,,,1.641,2.492,798.1315474000294,None,,,,,,,,,,,,,,,,,,,,798.6866813001689,799.1926617000718,0.5121072998736054,1.0124315000139177,799.1759297000244,799.2759997001849,799.1759297000244,799.2759997001849,799.2759997001849,None,None,0,,799.2759997001849,None,,,,,,,pl2,2022_Apr_26_0940,training+cueing,2021.1.4,59.94650369564705,
Stranger.png,Friend,Stranger,m,2.3,17,27,97,,,,,1,0,1,0,,,,,3,5,41,7,,,,,,,,,,,,,,,,,,,,,1.737,1.841,801.0323890000582,None,,,,,,,,,,,,,,,,,,,,801.5892525999807,802.0949014001526,0.5111042999196798,1.011348299914971,802.078253300162,802.1949411001988,802.078253300162,802.1949411001988,802.1782889000606,None,None,0,,802.1782889000606,None,,,,,,,pl2,2022_Apr_26_0940,training+cueing,2021.1.4,59.94650369564705,
Stranger.png,Stranger,Stranger,c,3,13,23,93,,,,,1,0,1,0,,,,,3,6,42,8,,,,,,,,,,,,,,,,,,,,,1.722,1.828,804.0341884000227,None,,,,,,,,,,,,,,,,,,,,804.5755501000676,805.080254800152,0.5063979998230934,1.0066857999190688,805.0635785001796,805.1803211001679,805.0635785001796,805.1803211001679,805.1636100001633,None,c,1,1.0060963998548687,805.1636100001633,None,,,,,,,pl2,2022_Apr_26_0940,training+cueing,2021.1.4,59.94650369564705,
Self.png,Friend,Self ,m,2.1,16,26,96,,,,,1,0,1,0,,,,,3,7,43,1,,,,,,,,,,,,,,,,,,,,,1.442,2.301,806.3041392001323,None,,,,,,,,,,,,,,,,,,,,806.8470020000823,807.3487254001666,0.5038262000307441,1.0040855999104679,807.3320427001454,807.4487375000026,807.3320427001454,807.4487375000026,807.4320513000712,None,m,1,0.6097744998987764,807.4320513000712,None,,,,,,,pl2,2022_Apr_26_0940,training+cueing,2021.1.4,59.94650369564705,
Self.png,Stranger,Self ,m,3.1,18,28,98,,,,,1,0,1,0,,,,,3,8,44,2,,,,,,,,,,,,,,,,,,,,,1.694,1.75,808.1736736001913,None,,,,,,,,,,,,,,,,,,,,808.7149597001262,809.2165849001613,0.502175300149247,1.0025915000587702,809.1999066001736,809.3166410999838,809.1999066001736,809.3166410999838,809.2999278001953,None,m,1,1.2059603999368846,809.2999278001953,None,,,,,,,pl2,2022_Apr_26_0940,training+cueing,2021.1.4,59.94650369564705,
Friend.png,You,Friend,m,1.2,14,24,94,,,,,1,0,1,0,,,,,3,9,45,3,,,,,,,,,,,,,,,,,,,,,1.417,2.109,810.6412266001571,None,,,,,,,,,,,,,,,,,,,,811.1833801001776,811.6850175000727,0.5045658003073186,1.0048670002724975,811.6683234001976,811.7683779001236,811.6683234001976,811.7683779001236,811.7683779001236,None,m,1,0.9293911000713706,811.7683779001236,None,,,,,,,pl2,2022_Apr_26_0940,training+cueing,2021.1.4,59.94650369564705,
Self.png,You,Self ,c,1,11,21,91,,,,,1,0,1,0,,,,,3,10,46,0,,,,,,,,,,,,,,,,,,,,,1.572,1.363,812.8253432000056,None,,,,,,,,,,,,,,,,,,,,813.3646462000906,813.8699098001234,0.5109446002170444,1.0112167000770569,813.8532909001224,813.9533059999812,813.8532909001224,813.9533059999812,813.9533059999812,None,c,1,0.7124090001452714,813.9533059999812,None,,,,,,,pl2,2022_Apr_26_0940,training+cueing,2021.1.4,59.94650369564705,
Self.png,You,Self ,c,1,11,21,91,,,,,1,0,1,0,,,,,3,11,47,9,,,,,,,,,,,,,,,,,,,,,1.697,1.985,814.7932110000402,None,,,,,,,,,,,,,,,,,,,,815.332035300089,815.8380289999768,0.5104167000390589,1.010745899984613,815.8212945000269,815.9213763000444,815.8212945000269,815.9213763000444,815.9213763000444,None,c,1,0.6323758000507951,815.9213763000444,None,,,,,,,pl2,2022_Apr_26_0940,training+cueing,2021.1.4,59.94650369564705,
Stranger.png,Stranger,Stranger,c,3,13,23,93,,,,,1,0,1,0,,,,,4,0,48,11,,,,,,,,,,,,,,,,,,,,,1.563,1.771,816.6774968001992,None,,,,,,,,,,,,,,,,,,,,817.2210759001318,817.7227266000118,0.5038228998892009,1.004087100038305,817.7060459000058,817.8227780000307,817.7060459000058,817.8227780000307,817.8060606999788,None,c,1,1.0836942000314593,817.8060606999788,None,,,,,,,pl2,2022_Apr_26_0940,training+cueing,2021.1.4,59.94650369564705,
Friend.png,You,Friend,m,1.2,14,24,94,,,,,1,0,1,0,,,,,4,1,49,3,,,,,,,,,,,,,,,,,,,,,1.406,2.011,819.0134439000394,None,,,,,,,,,,,,,,,,,,,,819.6110926000401,820.1245085999835,0.5109415999613702,1.0112081000115722,820.1077756001614,820.2078057001345,820.1077756001614,820.2078057001345,820.2078057001345,None,m,1,0.9061463000252843,820.2078057001345,None,,,,,,,pl2,2022_Apr_26_0940,training+cueing,2021.1.4,59.94650369564705,
Stranger.png,Stranger,Stranger,c,3,13,23,93,,,,,1,0,1,0,,,,,4,2,50,8,,,,,,,,,,,,,,,,,,,,,1.584,1.278,821.2521397999953,None,,,,,,,,,,,,,,,,,,,,821.7918558001984,822.292699099984,0.5007796001154929,1.0010714002419263,822.2760007001925,822.392765100114,822.2760007001925,822.392765100114,822.392765100114,None,m,0,1.2489930998999625,822.392765100114,None,,,,,,,pl2,2022_Apr_26_0940,training+cueing,2021.1.4,59.94650369564705,
Self.png,Stranger,Self ,m,3.1,18,28,98,,,,,1,0,1,0,,,,,4,3,51,2,,,,,,,,,,,,,,,,,,,,,1.524,1.774,823.7663618000224,None,,,,,,,,,,,,,,,,,,,,824.3134200000204,824.8278605001979,0.5118134999647737,1.0121103001292795,824.8111740001477,824.927915400127,824.8111740001477,824.927915400127,824.9112156999763,None,None,0,,824.9112156999763,None,,,,,,,pl2,2022_Apr_26_0940,training+cueing,2021.1.4,59.94650369564705,
Friend.png,Friend,Friend,c,2,12,22,92,,,,,1,0,1,0,,,,,4,4,52,10,,,,,,,,,,,,,,,,,,,,,1.575,1.676,826.550405499991,None,,,,,,,,,,,,,,,,,,,,827.0923068001866,827.5964925000444,0.5057171997614205,1.0060023998375982,827.57986659999,827.6965638000984,827.57986659999,827.6965638000984,827.679908900056,None,c,1,1.353896199958399,827.679908900056,None,,,,,,,pl2,2022_Apr_26_0940,training+cueing,2021.1.4,59.94650369564705,
Stranger.png,Friend,Stranger,m,2.3,17,27,97,,,,,1,0,1,0,,,,,4,5,53,7,,,,,,,,,,,,,,,,,,,,,1.45,2.313,829.1703161001205,None,,,,,,,,,,,,,,,,,,,,829.7184413000941,830.2317652001511,0.5096483000088483,1.010040800087154,830.2150795999914,830.3374361000024,830.2150795999914,830.3374361000024,830.3150880001485,None,m,1,0.6228829000610858,830.3150880001485,None,,,,,,,pl2,2022_Apr_26_0940,training+cueing,2021.1.4,59.94650369564705,
Self.png,You,Self ,c,1,11,21,91,,,,,1,0,1,0,,,,,4,6,54,9,,,,,,,,,,,,,,,,,,,,,1.433,1.582,831.0723494000267,None,,,,,,,,,,,,,,,,,,,,831.6130907000042,832.1164594001602,0.506310299737379,1.0066746999509633,832.0997568001039,832.1998054999858,832.0997568001039,832.1998054999858,832.1998054999858,None,c,1,0.7218532001134008,832.1998054999858,None,,,,,,,pl2,2022_Apr_26_0940,training+cueing,2021.1.4,59.94650369564705,
Friend.png,Friend,Friend,c,2,12,22,92,,,,,1,0,1,0,,,,,4,7,55,4,,,,,,,,,,,,,,,,,,,,,1.571,2.157,833.0567813001107,None,,,,,,,,,,,,,,,,,,,,833.5972475002054,834.1012163001578,0.505375900072977,1.0057165999896824,834.0845637000166,834.2012667001691,834.0845637000166,834.2012667001691,834.1845994000323,None,c,1,0.9610357999335974,834.1845994000323,None,,,,,,,pl2,2022_Apr_26_0940,training+cueing,2021.1.4,59.94650369564705,
Stranger.png,You,Stranger,m,1.3,15,25,95,,,,,1,0,1,0,,,,,4,8,56,6,,,,,,,,,,,,,,,,,,,,,1.531,1.275,835.274563500192,None,,,,,,,,,,,,,,,,,,,,835.813922100002,836.3194956001826,0.5105396001599729,1.0108624000567943,836.3028092000168,836.4028794001788,836.3028092000168,836.4028794001788,836.4028794001788,None,m,1,1.3508319999091327,836.4028794001788,None,,,,,,,pl2,2022_Apr_26_0940,training+cueing,2021.1.4,59.94650369564705,
Self.png,Friend,Self ,m,2.1,16,26,96,,,,,1,0,1,0,,,,,4,9,57,1,,,,,,,,,,,,,,,,,,,,,1.566,1.588,837.8766167000867,None,,,,,,,,,,,,,,,,,,,,838.4161336000543,838.9214934001211,0.5083820000290871,1.0100450001191348,838.9034556001425,839.0215075002052,838.9034556001425,839.0215075002052,839.0048440999817,None,m,1,1.1488769000861794,839.0048440999817,None,,,,,,,pl2,2022_Apr_26_0940,training+cueing,2021.1.4,59.94650369564705,
Friend.png,Stranger,Friend,m,3.2,19,29,99,,,,,1,0,1,0,,,,,4,10,58,5,,,,,,,,,,,,,,,,,,,,,1.549,1.407,840.2795708000194,None,,,,,,,,,,,,,,,,,,,,840.8213011000771,841.323149900185,0.5013503001537174,1.0018132000695914,841.3064590001013,841.4233462000266,841.3064590001013,841.4233462000266,841.4233462000266,None,None,0,,841.4233462000266,None,,,,,,,pl2,2022_Apr_26_0940,training+cueing,2021.1.4,59.94650369564705,
Self.png,You,Self ,c,1,11,21,91,,,,,1,0,1,0,,,,,4,11,59,0,,,,,,,,,,,,,,,,,,,,,1.624,2.443,843.0780633001123,None,,,,,,,,,,,,,,,,,,,,843.6216995001305,844.1251419000328,0.5063867999706417,1.0066821000073105,844.1084478001576,844.2084974001627,844.1084478001576,844.2084974001627,844.2084974001627,None,c,1,0.6972845999989659,844.2084974001627,None,,,,,,,pl2,2022_Apr_26_0940,training+cueing,2021.1.4,59.94650369564705,
Friend.png,Stranger,Friend,m,3.2,19,29,99,,,,,1,0,1,0,,,,,5,0,60,5,,,,,,,,,,,,,,,,,,,,,1.561,2.243,845.0319251001347,None,,,,,,,,,,,,,,,,,,,,845.5725608000066,846.0765788001008,0.5046016001142561,1.004974399926141,846.0598624001723,846.1768082000781,846.0598624001723,846.1768082000781,846.1599041000009,None,m,1,1.3540495000779629,846.1599041000009,None,,,,,,,pl2,2022_Apr_26_0940,training+cueing,2021.1.4,59.94650369564705,
Friend.png,Friend,Friend,c,2,12,22,92,,,,,1,0,1,0,,,,,5,1,61,10,,,,,,,,,,,,,,,,,,,,,1.422,2.256,847.6538178001065,None,,,,,,,,,,,,,,,,,,,,848.1939383000135,848.6951402002014,0.5025498000904918,1.0028556000906974,848.6784060001373,848.7951728000771,848.6784060001373,848.7951728000771,848.778442400042,None,c,1,0.911297099897638,848.778442400042,None,,,,,,,pl2,2022_Apr_26_0940,training+cueing,2021.1.4,59.94650369564705,
Self.png,You,Self ,c,1,11,21,91,,,,,1,0,1,0,,,,,5,2,62,9,,,,,,,,,,,,,,,,,,,,,1.768,1.711,849.8187465001829,None,,,,,,,,,,,,,,,,,,,,850.3582950001583,850.86337190005,0.5089994997251779,1.0092538997996598,850.8466694999952,850.9467951001134,850.8466694999952,850.9467951001134,850.9467951001134,None,c,1,0.6148427000734955,850.9467951001134,None,,,,,,,pl2,2022_Apr_26_0940,training+cueing,2021.1.4,59.94650369564705,
Stranger.png,Stranger,Stranger,c,3,13,23,93,,,,,1,0,1,0,,,,,5,3,63,11,,,,,,,,,,,,,,,,,,,,,1.471,2.234,851.6870209001936,None,,,,,,,,,,,,,,,,,,,,852.2284138000105,852.7313771001063,0.5046238999348134,1.0050142998807132,852.7147019000258,852.8315425000619,852.7147019000258,852.8315425000619,852.8147977001499,None,m,0,0.8909504001494497,852.8147977001499,None,,,,,,,pl2,2022_Apr_26_0940,training+cueing,2021.1.4,59.94650369564705,
Friend.png,You,Friend,m,1.2,14,24,94,,,,,1,0,1,0,,,,,5,4,64,3,,,,,,,,,,,,,,,,,,,,,1.526,2.157,853.8392139000352,None,,,,,,,,,,,,,,,,,,,,854.3786035000812,854.8829395000357,0.5086578000336885,1.0090477000921965,854.8662310000509,854.9663042000029,854.8662310000509,854.9663042000029,854.9663042000029,None,m,1,1.4435315001755953,854.9663042000029,None,,,,,,,pl2,2022_Apr_26_0940,training+cueing,2021.1.4,59.94650369564705,
Stranger.png,Stranger,Stranger,c,3,13,23,93,,,,,1,0,1,0,,,,,5,5,65,8,,,,,,,,,,,,,,,,,,,,,1.484,1.908,856.5418637001421,None,,,,,,,,,,,,,,,,,,,,857.0967180000152,857.6015953000169,0.5099563000258058,1.0102957000490278,857.5848635002039,857.7016265001148,857.5848635002039,857.7016265001148,857.6849225000478,None,c,1,0.7887737001292408,857.6849225000478,None,,,,,,,pl2,2022_Apr_26_0940,training+cueing,2021.1.4,59.94650369564705,
Stranger.png,Friend,Stranger,m,2.3,17,27,97,,,,,1,0,1,0,,,,,5,6,66,7,,,,,,,,,,,,,,,,,,,,,1.746,1.541,858.6081825001165,None,,,,,,,,,,,,,,,,,,,,859.1620678000618,859.6697767002042,0.5134118001442403,1.0136667999904603,859.6530770000536,859.7697835001163,859.6530770000536,859.7697835001163,859.7530869001057,None,m,1,0.6565477999392897,859.7530869001057,None,,,,,,,pl2,2022_Apr_26_0940,training+cueing,2021.1.4,59.94650369564705,
Friend.png,Friend,Friend,c,2,12,22,92,,,,,1,0,1,0,,,,,5,7,67,4,,,,,,,,,,,,,,,,,,,,,1.677,2.386,860.5429006000049,None,,,,,,,,,,,,,,,,,,,,861.0807771000545,861.6009937000927,0.530402900185436,1.0301342001184821,861.5883806000929,861.687986999983,861.5883806000929,861.687986999983,861.6712416000664,None,c,1,0.8504385999403894,861.6712416000664,None,,,,,,,pl2,2022_Apr_26_0940,training+cueing,2021.1.4,59.94650369564705,
Self.png,You,Self ,c,1,11,21,91,,,,,1,0,1,0,,,,,5,8,68,0,,,,,,,,,,,,,,,,,,,,,1.582,1.809,862.644270000048,None,,,,,,,,,,,,,,,,,,,,863.1851991000585,863.689300800208,0.5053308000788093,1.0056453999131918,863.6725710001774,863.7726485000458,863.6725710001774,863.7726485000458,863.7726485000458,None,c,1,0.5571161999832839,863.7726485000458,None,,,,,,,pl2,2022_Apr_26_0940,training+cueing,2021.1.4,59.94650369564705,
Stranger.png,You,Stranger,m,1.3,15,25,95,,,,,1,0,1,0,,,,,5,9,69,6,,,,,,,,,,,,,,,,,,,,,1.644,1.275,864.4624028000981,None,,,,,,,,,,,,,,,,,,,,865.0006518000737,865.5072960001417,0.5118299000896513,1.0121262001339346,865.4906145001296,865.5906423002016,865.4906145001296,865.5906423002016,865.5906423002016,None,m,1,0.6910411999560893,865.5906423002016,None,,,,,,,pl2,2022_Apr_26_0940,training+cueing,2021.1.4,59.94650369564705,
Self.png,Stranger,Self ,m,3.1,18,28,98,,,,,1,0,1,0,,,,,5,10,70,2,,,,,,,,,,,,,,,,,,,,,1.617,1.222,866.414246100001,None,,,,,,,,,,,,,,,,,,,,866.9564499000553,867.4587034001015,0.5043597002513707,1.0046025002375245,867.4420088001061,867.5587710000109,867.4420088001061,867.5587710000109,867.5420264001004,None,m,1,0.7399454999249429,867.5420264001004,None,,,,,,,pl2,2022_Apr_26_0940,training+cueing,2021.1.4,59.94650369564705,
Self.png,Friend,Self ,m,2.1,16,26,96,,,,,1,0,1,0,,,,,5,11,71,1,,,,,,,,,,,,,,,,,,,,,1.538,2.166,868.4148819001857,None,,,,,,,,,,,,,,,,,,,,868.9553871001117,869.4601408999879,0.5076535001862794,1.0079622003249824,869.4434235000517,869.5601771001238,869.4434235000517,869.5601771001238,869.5434793001041,None,None,0,,869.5434793001041,None,,,,,,,pl2,2022_Apr_26_0940,training+cueing,2021.1.4,59.94650369564705,
Self.png,Friend,Self ,m,2.1,16,26,96,,,,,1,0,1,0,,,,,6,0,72,1,,,,,,,,,,,,,,,,,,,,,1.696,1.867,871.1992191001773,None,,,,,,,,,,,,,,,,,,,,871.7394115000498,872.2455099001527,0.512001900235191,1.0122922002337873,872.2288224999793,872.3455641001929,872.2288224999793,872.3455641001929,872.3288463000208,None,None,0,,872.3288463000208,None,,,,,,,pl2,2022_Apr_26_0940,training+cueing,2021.1.4,59.94650369564705,
Self.png,You,Self ,c,1,11,21,91,,,,,1,0,1,0,,,,,6,1,73,9,,,,,,,,,,,,,,,,,,,,,1.727,1.862,874.1343466001563,None,,,,,,,,,,,,,,,,,,,,874.677415000042,875.1810604999773,0.5073995001148432,1.0081832001451403,875.1643090001307,875.2643707001116,875.1643090001307,875.2643707001116,875.2643707001116,None,c,1,0.5535116998944432,875.2643707001116,None,,,,,,,pl2,2022_Apr_26_0940,training+cueing,2021.1.4,59.94650369564705,
Self.png,Stranger,Self ,m,3.1,18,28,98,,,,,1,0,1,0,,,,,6,2,74,2,,,,,,,,,,,,,,,,,,,,,1.725,1.849,875.9581953000743,None,,,,,,,,,,,,,,,,,,,,876.4981259000488,876.9989072000608,0.5002491001505405,1.000553300138563,876.9822564001661,877.0989539001603,876.9822564001661,877.0989539001603,877.0989539001603,None,m,1,0.6547101000323892,877.0989539001603,None,,,,,,,pl2,2022_Apr_26_0940,training+cueing,2021.1.4,59.94650369564705,
Friend.png,Friend,Friend,c,2,12,22,92,,,,,1,0,1,0,,,,,6,3,75,10,,,,,,,,,,,,,,,,,,,,,1.524,1.33,877.8892400001641,None,,,,,,,,,,,,,,,,,,,,878.4302964999806,878.9336384001654,0.5066324998624623,1.0069393997546285,878.9169431000482,879.0337463000324,878.9169431000482,879.0337463000324,879.016988400137,None,c,1,0.7366885000374168,879.016988400137,None,,,,,,,pl2,2022_Apr_26_0940,training+cueing,2021.1.4,59.94650369564705,
Stranger.png,Stranger,Stranger,c,3,13,23,93,,,,,1,0,1,0,,,,,6,4,76,8,,,,,,,,,,,,,,,,,,,,,1.469,2.5,879.8905341001227,None,,,,,,,,,,,,,,,,,,,,880.4285269000102,880.9350793000776,0.5098280000966042,1.0104541000910103,880.9183722001035,881.0351303999778,880.9183722001035,881.0351303999778,881.0184565000236,None,c,1,0.8953977001365274,881.0184565000236,None,,,,,,,pl2,2022_Apr_26_0940,training+cueing,2021.1.4,59.94650369564705,
Self.png,You,Self ,c,1,11,21,91,,,,,1,0,1,0,,,,,6,5,77,0,,,,,,,,,,,,,,,,,,,,,1.587,2.321,882.0436448000837,None,,,,,,,,,,,,,,,,,,,,882.5851506001782,883.0866541001014,0.5039122002199292,1.0042213001288474,883.0700027002022,883.1700399001129,883.0700027002022,883.1700399001129,883.1700399001129,None,c,1,0.4235833000857383,883.1700399001129,None,,,,,,,pl2,2022_Apr_26_0940,training+cueing,2021.1.4,59.94650369564705,
Stranger.png,Friend,Stranger,m,2.3,17,27,97,,,,,1,0,1,0,,,,,6,6,78,7,,,,,,,,,,,,,,,,,,,,,1.585,2.242,883.7261224000249,None,,,,,,,,,,,,,,,,,,,,884.2663943001535,884.7713576001115,0.5091176000423729,1.0094378001522273,884.7546781001147,884.8718279001769,884.7546781001147,884.8718279001769,884.854724700097,None,m,1,0.5949667000677437,884.854724700097,None,,,,,,,pl2,2022_Apr_26_0940,training+cueing,2021.1.4,59.94650369564705,
Friend.png,You,Friend,m,1.2,14,24,94,,,,,1,0,1,0,,,,,6,7,79,3,,,,,,,,,,,,,,,,,,,,,1.775,2.098,885.5792186001781,None,,,,,,,,,,,,,,,,,,,,886.1180375001859,886.6225758001674,0.5067678999621421,1.0070887999609113,886.6058686000761,886.7060871000867,886.6058686000761,886.7060871000867,886.7060871000867,None,m,1,0.7274877999443561,886.7060871000867,None,,,,,,,pl2,2022_Apr_26_0940,training+cueing,2021.1.4,59.94650369564705,
Stranger.png,You,Stranger,m,1.3,15,25,95,,,,,1,0,1,0,,,,,6,8,80,6,,,,,,,,,,,,,,,,,,,,,1.704,1.892,887.5621492001228,None,,,,,,,,,,,,,,,,,,,,888.0998547000345,888.6073679002002,0.5152215000707656,1.0155327001120895,888.5906025001314,888.6906773000956,888.5906025001314,888.6906773000956,888.6906773000956,None,m,1,0.5990180000662804,888.6906773000956,None,,,,,,,pl2,2022_Apr_26_0940,training+cueing,2021.1.4,59.94650369564705,
Friend.png,Friend,Friend,c,2,12,22,92,,,,,1,0,1,0,,,,,6,9,81,4,,,,,,,,,,,,,,,,,,,,,1.501,1.756,889.4148870001081,None,,,,,,,,,,,,,,,,,,,,889.9554054001346,890.4586697001942,0.5066535000223666,1.0069228999782354,890.4420109000057,890.5587081999984,890.4420109000057,890.5587081999984,890.542018600041,None,c,1,1.1155678001232445,890.542018600041,None,,,,,,,pl2,2022_Apr_26_0940,training+cueing,2021.1.4,59.94650369564705,
Stranger.png,Stranger,Stranger,c,3,13,23,93,,,,,1,0,1,0,,,,,6,10,82,11,,,,,,,,,,,,,,,,,,,,,1.8,2.15,891.7827473999932,None,,,,,,,,,,,,,,,,,,,,892.3236878002062,892.8270384999923,0.5048170001246035,1.005514400312677,892.8105391000863,892.927044800017,892.8105391000863,892.927044800017,892.9104069001041,None,c,1,0.8433332000859082,892.9104069001041,None,,,,,,,pl2,2022_Apr_26_0940,training+cueing,2021.1.4,59.94650369564705,
Friend.png,Stranger,Friend,m,3.2,19,29,99,,,,,1,0,1,0,,,,,6,11,83,5,,,,,,,,,,,,,,,,,,,,,1.641,2.454,893.8849139001686,None,,,,,,,,,,,,,,,,,,,,894.4216387001798,894.928495900007,0.5128104998730123,1.013097899965942,894.9118964001536,895.0285745000001,894.9118964001536,895.0285745000001,895.0119235999882,None,m,1,0.6617701998911798,895.0119235999882,None,,,,,,,pl2,2022_Apr_26_0940,training+cueing,2021.1.4,59.94650369564705,
Friend.png,Friend,Friend,c,2,12,22,92,,,,,1,0,1,0,,,,,7,0,84,10,,,,,,,,,,,,,,,,,,,,,1.663,2.141,895.8021463002078,None,,,,,,,,,,,,,,,,,,,,896.3425327001605,896.8466078999918,0.5062783001922071,1.0065384001936764,896.8299416999798,896.9466725999955,896.8299416999798,896.9466725999955,896.9299575001933,None,m,0,0.6315941999200732,896.9299575001933,None,,,,,,,pl2,2022_Apr_26_0940,training+cueing,2021.1.4,59.94650369564705,
Self.png,You,Self ,c,1,11,21,91,,,,,1,0,1,0,,,,,7,1,85,0,,,,,,,,,,,,,,,,,,,,,1.419,2.416,897.6867603000719,None,,,,,,,,,,,,,,,,,,,,898.2260176001582,898.7312757000327,0.5106740000192076,1.0110009000636637,898.714610400144,898.8146912001539,898.714610400144,898.8146912001539,898.8146912001539,None,c,1,0.4429411001037806,898.8146912001539,None,,,,,,,pl2,2022_Apr_26_0940,training+cueing,2021.1.4,59.94650369564705,
Stranger.png,Friend,Stranger,m,2.3,17,27,97,,,,,1,0,1,0,,,,,7,2,86,7,,,,,,,,,,,,,,,,,,,,,1.624,1.444,899.3886338002048,None,,,,,,,,,,,,,,,,,,,,899.9294534001965,900.4325445999857,0.505969500169158,1.0063596002291888,900.4158532000147,900.532617200166,900.4158532000147,900.532617200166,900.5159035001416,None,m,1,0.8059797000605613,900.5159035001416,None,,,,,,,pl2,2022_Apr_26_0940,training+cueing,2021.1.4,59.94650369564705,
