Image,Name,Face,CorrAns,Match,Face_onset,CResponse_onset,IResponse_onset,Match.thisRepN,Match.thisTrialN,Match.thisN,Match.thisIndex,Blocks.thisRepN,Blocks.thisTrialN,Blocks.thisN,Blocks.thisIndex,trials.thisRepN,trials.thisTrialN,trials.thisN,trials.thisIndex,trials_2.thisRepN,trials_2.thisTrialN,trials_2.thisN,trials_2.thisIndex,text.started,text.stopped,p1.started,p1.stopped,MatchInstructions.started,MatchInstructions.stopped,Name1.started,Name1.stopped,Face_Relevance.started,Face_Relevance.stopped,MismatchInstructions.started,MismatchInstructions.stopped,Rest_trainingInstruct.started,Rest_trainingInstruct.stopped,next8.keys,next8.rt,next8.started,next8.stopped,Ready.started,Ready.stopped,delay_one_picked,delay_two_picked,blank0.started,blank0.stopped,FixationCross1.started,FixationCross1.stopped,Name3.started,Name3.stopped,Face_Relevance3.started,Face_Relevance3.stopped,responseTime.started,responseTime.stopped,resp.keys,resp.corr,resp.rt,resp.started,resp.stopped,Accuracy.started,Accuracy.stopped,questions.started,questions.stopped,p2.started,p2.stopped,FixationCross3.started,FixationCross3.stopped,port_Face_onset.started,port_Face_onset.stopped,Name4.started,Name4.stopped,Face_Relevance4.started,Face_Relevance4.stopped,responseTime2.started,responseTime2.stopped,Response.keys,Response.corr,Response.started,Response.stopped,Response.rt,p3.started,p3.stopped,Finish.started,Finish.stopped,gender,age,participant,date,expName,psychopyVersion,frameRate,
Stranger.png,Stranger,,,,,,,0,0,0,2,,,,,,,,,,,,,34.11527050007135,None,0.0077023201156407595,0.5307272200006992,36.291344000026584,None,38.44178260001354,None,38.44178260001354,None,,,,,,,,,,,,,,,,,,,,,,,,,,,,,,,,,,,,,,,,,,,,,,,,,,,,,,,pm2,2022_Apr_26_1137,training+cueing,2021.1.4,59.966562585562514,
Friend.png,Friend,,,,,,,0,1,1,1,,,,,,,,,,,,,,,,,,,58.34509510011412,None,58.34509510011412,None,,,,,,,,,,,,,,,,,,,,,,,,,,,,,,,,,,,,,,,,,,,,,,,,,,,,,,,pm2,2022_Apr_26_1137,training+cueing,2021.1.4,59.966562585562514,
Self.png,You,,,,,,,0,2,2,0,,,,,,,,,,,,,,,,,,,78.34172660019249,None,78.34172660019249,None,,,,,,,,,,,,,,,,,,,,,,,,,,,,,,,,,,,,,,,,,,,,,,,,,,,,,,,pm2,2022_Apr_26_1137,training+cueing,2021.1.4,59.966562585562514,
Self.png,You,Self ,c,1,11,21,91,,,,,0,0,0,0,0,0,0,9,,,,,,,,,,,,,,,98.30259480001405,None,101.50470950012095,None,space,-0.9896118000615388,2.008538859663531,None,103.50642019999214,None,1.622,1.479,106.52260280004703,None,107.14797230018303,107.65933290007524,107.64263810007833,107.74267540010624,107.64263810007833,107.74267540010624,107.74267540010624,None,c,1,0.6774348001927137,107.74267540010624,None,108.44279010011815,None,,,,,,,,,,,,,,,,,,,,,,,,,,pm2,2022_Apr_26_1137,training+cueing,2021.1.4,59.966562585562514,
Self.png,Friend,Self ,m,2.1,16,26,96,,,,,0,0,0,0,0,1,1,1,,,,,,,,,,,,,,,,,,,,,,,,,1.602,1.675,108.84359570010565,None,109.37776210019365,109.87762499996461,109.86108679999597,109.9778099001851,109.86108679999597,109.9778099001851,109.9778099001851,None,m,1,0.5863713000435382,109.9778099001851,None,110.59477260010317,None,,,,,,,,,,,,,,,,,,,,,,,,,,pm2,2022_Apr_26_1137,training+cueing,2021.1.4,59.966562585562514,
Self.png,You,Self ,c,1,11,21,91,,,,,0,0,0,0,0,2,2,0,,,,,,,,,,,,,,,,,,,,,,,,,1.728,2.455,110.99520520004444,None,111.53071289998479,112.04583379998803,112.02913360018283,112.12921599997208,112.02913360018283,112.12921599997208,112.12921599997208,None,m,0,0.49879730003885925,112.12921599997208,None,112.6470694001764,None,,,,,,,,,,,,,,,,,,,,,,,,,,pm2,2022_Apr_26_1137,training+cueing,2021.1.4,59.966562585562514,
Stranger.png,Stranger,Stranger,c,3,13,23,93,,,,,0,0,0,0,0,3,3,11,,,,,,,,,,,,,,,,,,,,,,,,,1.552,2.418,113.04651969997212,None,113.60443660011515,114.11398899997585,114.0972951001022,114.21404170012102,114.0972951001022,114.21404170012102,114.21404170012102,None,c,1,0.4620672999881208,114.21404170012102,None,114.71444260003045,None,,,,,,,,,,,,,,,,,,,,,,,,,,pm2,2022_Apr_26_1137,training+cueing,2021.1.4,59.966562585562514,
Stranger.png,Stranger,Stranger,c,3,13,23,93,,,,,0,0,0,0,0,4,4,8,,,,,,,,,,,,,,,,,,,,,,,,,1.752,1.754,115.11480420012958,None,115.6475659001153,116.14880890003406,116.13212840002961,116.2488663000986,116.13212840002961,116.2488663000986,116.23214530013502,None,c,1,0.7799521000124514,116.23214530013502,None,117.032772900071,None,,,,,,,,,,,,,,,,,,,,,,,,,,pm2,2022_Apr_26_1137,training+cueing,2021.1.4,59.966562585562514,
Friend.png,You,Friend,m,1.2,14,24,94,,,,,0,0,0,0,0,5,5,3,,,,,,,,,,,,,,,,,,,,,,,,,1.7,1.743,117.43308690004051,None,117.97737039998174,118.48377800011076,118.46708089997992,118.56712860008702,118.46708089997992,118.56712860008702,118.56712860008702,None,c,0,0.8450090000405908,118.56712860008702,None,119.43859150004573,None,,,,,,,,,,,,,,,,,,,,,,,,,,pm2,2022_Apr_26_1137,training+cueing,2021.1.4,59.966562585562514,
Self.png,Stranger,Self ,m,3.1,18,28,98,,,,,0,0,0,0,0,6,6,2,,,,,,,,,,,,,,,,,,,,,,,,,1.745,1.302,119.85152690019459,None,120.3869793000631,120.90224690013565,120.8855276000686,121.00225330004469,120.8855276000686,121.00225330004469,120.98551560007036,None,c,0,0.6984401000663638,120.98551560007036,None,121.7028565001674,None,,,,,,,,,,,,,,,,,,,,,,,,,,pm2,2022_Apr_26_1137,training+cueing,2021.1.4,59.966562585562514,
Friend.png,Stranger,Friend,m,3.2,19,29,99,,,,,0,0,0,0,0,7,7,5,,,,,,,,,,,,,,,,,,,,,,,,,1.626,1.354,122.10305780009367,None,122.63302629999816,123.13721429998986,123.1204690001905,123.23721650009975,123.1204690001905,123.23721650009975,123.22049880004488,None,c,0,0.8796037000138313,123.22049880004488,None,124.1211696001701,None,,,,,,,,,,,,,,,,,,,,,,,,,,pm2,2022_Apr_26_1137,training+cueing,2021.1.4,59.966562585562514,
Stranger.png,You,Stranger,m,1.3,15,25,95,,,,,0,0,0,0,0,8,8,6,,,,,,,,,,,,,,,,,,,,,,,,,1.536,1.309,124.52197380014695,None,125.06124339997768,125.57223789999261,125.55555020016618,125.6556438000407,125.55555020016618,125.6556438000407,125.6556438000407,None,c,0,0.8763400998432189,125.6556438000407,None,126.55633709998801,None,,,,,,,,,,,,,,,,,,,,,,,,,,pm2,2022_Apr_26_1137,training+cueing,2021.1.4,59.966562585562514,
Friend.png,Friend,Friend,c,2,12,22,92,,,,,0,0,0,0,0,9,9,10,,,,,,,,,,,,,,,,,,,,,,,,,1.794,2.072,126.9566463001538,None,127.49248590017669,128.00740860006772,127.99066280014813,128.10739820008166,127.99066280014813,128.10739820008166,128.0906950000208,None,c,1,1.209387700073421,128.0906950000208,None,129.32386370003223,None,,,,,,,,,,,,,,,,,,,,,,,,,,pm2,2022_Apr_26_1137,training+cueing,2021.1.4,59.966562585562514,
Stranger.png,Friend,Stranger,m,2.3,17,27,97,,,,,0,0,0,0,0,10,10,7,,,,,,,,,,,,,,,,,,,,,,,,,1.561,1.351,129.7252335001249,None,130.25661989999935,130.75933630019426,130.74262320017442,130.8593802000396,130.74262320017442,130.8593802000396,130.84265860007145,None,m,1,0.6014556000009179,130.84265860007145,None,131.4599290001206,None,,,,,,,,,,,,,,,,,,,,,,,,,,pm2,2022_Apr_26_1137,training+cueing,2021.1.4,59.966562585562514,
Friend.png,Friend,Friend,c,2,12,22,92,,,,,0,0,0,0,0,11,11,4,,,,,,,,,,,,,,,,,,,,,,,,,1.495,1.332,131.86016190005466,None,132.39536850014701,132.9108512001112,132.89417230011895,133.01088299998082,132.89417230011895,133.01088299998082,132.99423420010135,None,c,1,0.8657838001381606,132.99423420010135,None,133.87827750016004,None,,,,,,,,,,,,,,,,,,,,,,,,,,pm2,2022_Apr_26_1137,training+cueing,2021.1.4,59.966562585562514,
Friend.png,Friend,Friend,c,2,12,22,92,,,,,0,0,0,0,,,,,0,0,0,4,,,,,,,,,,,,,,,,,,,137.2808689000085,None,1.757,1.744,140.79644490010105,None,,,,,,,,,,,,,,,,134.27870810008608,None,0.014607359888032079,0.5128838599193841,141.42248140019365,141.93408649996854,0.5039494801312685,1.0046151799615473,141.9173944001086,142.03411790006794,141.9173944001086,142.03411790006794,142.0174048000481,None,None,0,142.0174048000481,None,,,,,,,,pm2,2022_Apr_26_1137,training+cueing,2021.1.4,59.966562585562514,
Stranger.png,Stranger,Stranger,c,3,13,23,93,,,,,0,0,0,0,,,,,0,1,1,11,,,,,,,,,,,,,,,,,,,,,1.762,2.214,143.89286880008876,None,,,,,,,,,,,,,,,,,,,,144.43643080000766,144.93621630012058,0.4994263800326735,0.9997258798684925,144.91953209997155,145.0362766000908,144.91953209997155,145.0362766000908,145.0362766000908,None,c,1,145.0362766000908,None,0.7437791000120342,,,,,,,pm2,2022_Apr_26_1137,training+cueing,2021.1.4,59.966562585562514,
Stranger.png,You,Stranger,m,1.3,15,25,95,,,,,0,0,0,0,,,,,0,2,2,6,,,,,,,,,,,,,,,,,,,,,1.488,1.214,145.90978020010516,None,,,,,,,,,,,,,,,,,,,,146.45275960001163,146.95432789996266,0.5038112797774374,1.0040778797119856,146.93767070001923,147.03767410013825,146.93767070001923,147.03767410013825,147.03767410013825,None,m,1,147.03767410013825,None,1.2063154000788927,,,,,,,pm2,2022_Apr_26_1137,training+cueing,2021.1.4,59.966562585562514,
Friend.png,Stranger,Friend,m,3.2,19,29,99,,,,,0,0,0,0,,,,,0,3,3,5,,,,,,,,,,,,,,,,,,,,,1.664,2.299,148.37778460001573,None,,,,,,,,,,,,,,,,,,,,148.92150850011967,149.42281970009208,0.5013370800297707,1.0015098799485713,149.40616630017757,149.52287330012769,149.40616630017757,149.52287330012769,149.52287330012769,None,c,0,149.52287330012769,None,1.4251532999332994,,,,,,,pm2,2022_Apr_26_1137,training+cueing,2021.1.4,59.966562585562514,
Self.png,You,Self ,c,1,11,21,91,,,,,0,0,0,0,,,,,0,4,4,0,,,,,,,,,,,,,,,,,,,,,1.418,2.12,151.08022780017927,None,,,,,,,,,,,,,,,,,,,,151.62310580001213,152.12467020004988,0.5041436799801886,1.004473980050534,152.10804189997725,152.2081337000709,152.10804189997725,152.2081337000709,152.2081337000709,None,c,1,152.2081337000709,None,0.8198399001266807,,,,,,,pm2,2022_Apr_26_1137,training+cueing,2021.1.4,59.966562585562514,
Self.png,Friend,Self ,m,2.1,16,26,96,,,,,0,0,0,0,,,,,0,5,5,1,,,,,,,,,,,,,,,,,,,,,1.597,1.571,153.1647109000478,None,,,,,,,,,,,,,,,,,,,,153.72306190012023,154.22626380017027,0.5074415400158614,1.008238439913839,154.2095968001522,154.32635640003718,154.2095968001522,154.32635640003718,154.30958750005811,None,m,1,154.30958750005811,None,1.2624993999488652,,,,,,,pm2,2022_Apr_26_1137,training+cueing,2021.1.4,59.966562585562514,
Stranger.png,Friend,Stranger,m,2.3,17,27,97,,,,,0,0,0,0,,,,,0,6,6,7,,,,,,,,,,,,,,,,,,,,,1.52,1.355,155.70099460007623,None,,,,,,,,,,,,,,,,,,,,156.2397648000624,156.7447774000466,0.5082610801327974,1.0085076799150556,156.7280908001121,156.8447660000529,156.7280908001121,156.8447660000529,156.82811770006083,None,c,0,156.82811770006083,None,1.0158502000849694,,,,,,,pm2,2022_Apr_26_1137,training+cueing,2021.1.4,59.966562585562514,
Self.png,Stranger,Self ,m,3.1,18,28,98,,,,,0,0,0,0,,,,,0,7,7,2,,,,,,,,,,,,,,,,,,,,,1.774,1.933,157.96856000018306,None,,,,,,,,,,,,,,,,,,,,158.5123678999953,159.0130727000069,0.5021379799582064,1.003075580112636,158.9963440001011,159.1131100000348,158.9963440001011,159.1131100000348,159.0963893001899,None,m,1,159.0963893001899,None,1.3556270999833941,,,,,,,pm2,2022_Apr_26_1137,training+cueing,2021.1.4,59.966562585562514,
Friend.png,You,Friend,m,1.2,14,24,94,,,,,0,0,0,0,,,,,0,8,8,3,,,,,,,,,,,,,,,,,,,,,1.637,2.021,160.58675140002742,None,,,,,,,,,,,,,,,,,,,,161.1374932001345,161.6482903000433,0.5029575799126178,1.0032429799903184,161.6315929000266,161.73167660017498,161.6315929000266,161.73167660017498,161.73167660017498,None,m,1,161.73167660017498,None,0.8482667999342084,,,,,,,pm2,2022_Apr_26_1137,training+cueing,2021.1.4,59.966562585562514,
Self.png,You,Self ,c,1,11,21,91,,,,,0,0,0,0,,,,,0,9,9,9,,,,,,,,,,,,,,,,,,,,,1.592,2.291,162.7054761000909,None,,,,,,,,,,,,,,,,,,,,163.2430765000172,163.74981410009786,0.5125090801157057,1.0127785801887512,163.7331249001436,163.8331818000879,163.7331249001436,163.8331818000879,163.8331818000879,None,c,1,163.8331818000879,None,0.6028263999614865,,,,,,,pm2,2022_Apr_26_1137,training+cueing,2021.1.4,59.966562585562514,
Stranger.png,Stranger,Stranger,c,3,13,23,93,,,,,0,0,0,0,,,,,0,10,10,8,,,,,,,,,,,,,,,,,,,,,1.407,1.395,164.57284949999303,None,,,,,,,,,,,,,,,,,,,,165.11655510007404,165.61782040004618,0.5025318798143417,1.0033872798085213,165.60113300010562,165.7178724000696,165.60113300010562,165.7178724000696,165.70122940000147,None,m,0,165.70122940000147,None,1.0229964000172913,,,,,,,pm2,2022_Apr_26_1137,training+cueing,2021.1.4,59.966562585562514,
Friend.png,Friend,Friend,c,2,12,22,92,,,,,0,0,0,0,,,,,0,11,11,10,,,,,,,,,,,,,,,,,,,,,1.574,1.705,166.85943080019206,None,,,,,,,,,,,,,,,,,,,,167.42135250009596,167.93628150015138,0.5129280399996787,1.013076940085739,167.9196358001791,168.03634089999832,167.9196358001791,168.03634089999832,168.0196850001812,None,c,1,168.0196850001812,None,0.44835070008412004,,,,,,,pm2,2022_Apr_26_1137,training+cueing,2021.1.4,59.966562585562514,
Friend.png,Friend,Friend,c,2,12,22,92,,,,,0,0,0,0,,,,,1,0,12,4,,,,,,,,,,,,,,,,,,,,,1.727,1.909,168.59258410008624,None,,,,,,,,,,,,,,,,,,,,169.13298090011813,169.63744250009768,0.5081595799420029,1.0084451797883958,169.62072080001235,169.73754850006662,169.62072080001235,169.73754850006662,169.72074190014973,None,c,1,169.72074190014973,None,0.6513247999828309,,,,,,,pm2,2022_Apr_26_1137,training+cueing,2021.1.4,59.966562585562514,
Self.png,You,Self ,c,1,11,21,91,,,,,0,0,0,0,,,,,1,1,13,0,,,,,,,,,,,,,,,,,,,,,1.694,2.192,170.4950445999857,None,,,,,,,,,,,,,,,,,,,,171.03435620013624,171.53874450013973,0.507669780170545,1.0079662802163512,171.52209310000762,171.6221339001786,171.52209310000762,171.6221339001786,171.6221339001786,None,c,1,171.6221339001786,None,0.5418728000950068,,,,,,,pm2,2022_Apr_26_1137,training+cueing,2021.1.4,59.966562585562514,
Stranger.png,Stranger,Stranger,c,3,13,23,93,,,,,0,0,0,0,,,,,1,2,14,11,,,,,,,,,,,,,,,,,,,,,1.539,1.933,172.2956748001743,None,,,,,,,,,,,,,,,,,,,,172.83844369999133,173.34008070011623,0.5022424797061831,1.0025520797353238,173.3233880000189,173.44012539996766,173.3233880000189,173.44012539996766,173.4233938001562,None,m,0,173.4233938001562,None,1.0126223000697792,,,,,,,pm2,2022_Apr_26_1137,training+cueing,2021.1.4,59.966562585562514,
Stranger.png,Stranger,Stranger,c,3,13,23,93,,,,,0,0,0,0,,,,,1,3,15,8,,,,,,,,,,,,,,,,,,,,,1.577,1.597,174.56362350005656,None,,,,,,,,,,,,,,,,,,,,175.11624750006013,175.6249796000775,0.5009936799760908,1.0012951798271388,175.60837230016477,175.7250555001665,175.60837230016477,175.7250555001665,175.7250555001665,None,c,1,175.7250555001665,None,0.80693249986507,,,,,,,pm2,2022_Apr_26_1137,training+cueing,2021.1.4,59.966562585562514,
Self.png,Friend,Self ,m,2.1,16,26,96,,,,,0,0,0,0,,,,,1,4,16,1,,,,,,,,,,,,,,,,,,,,,1.578,1.595,176.66524370014668,None,,,,,,,,,,,,,,,,,,,,177.2114909000229,177.72656390001066,0.5113084798213094,1.011632379842922,177.70982850017026,177.82679009996355,177.70982850017026,177.82679009996355,177.80988960014656,None,m,1,177.80988960014656,None,1.4261737000197172,,,,,,,pm2,2022_Apr_26_1137,training+cueing,2021.1.4,59.966562585562514,
Friend.png,Friend,Friend,c,2,12,22,92,,,,,0,0,0,0,,,,,1,5,17,10,,,,,,,,,,,,,,,,,,,,,1.455,1.768,179.36708370014094,None,,,,,,,,,,,,,,,,,,,,179.90708820009604,180.41183420014568,0.508379379985854,1.0086700799874961,180.39512410014868,180.51189640001394,180.39512410014868,180.51189640001394,180.4951554001309,None,c,1,180.4951554001309,None,1.060897400137037,,,,,,,pm2,2022_Apr_26_1137,training+cueing,2021.1.4,59.966562585562514,
Friend.png,You,Friend,m,1.2,14,24,94,,,,,0,0,0,0,,,,,1,6,18,3,,,,,,,,,,,,,,,,,,,,,1.546,1.933,181.68628190015443,None,,,,,,,,,,,,,,,,,,,,182.227838100167,182.73012770013884,0.503991779871285,1.0042989798821509,182.71345679997467,182.8135608001612,182.71345679997467,182.8135608001612,182.8135608001612,None,m,1,182.8135608001612,None,1.302499599987641,,,,,,,pm2,2022_Apr_26_1137,training+cueing,2021.1.4,59.966562585562514,
Friend.png,Stranger,Friend,m,3.2,19,29,99,,,,,0,0,0,0,,,,,1,7,19,5,,,,,,,,,,,,,,,,,,,,,1.686,2.381,184.23760590003803,None,,,,,,,,,,,,,,,,,,,,184.79943730006926,185.29867610009387,0.5139686402399093,1.014203940052539,185.29867610009387,185.398731400026,185.29867610009387,185.398731400026,185.398731400026,None,c,0,185.398731400026,None,1.1333081999327987,,,,,,,pm2,2022_Apr_26_1137,training+cueing,2021.1.4,59.966562585562514,
Self.png,Stranger,Self ,m,3.1,18,28,98,,,,,0,0,0,0,,,,,1,8,20,2,,,,,,,,,,,,,,,,,,,,,1.52,1.432,186.65671770018525,None,,,,,,,,,,,,,,,,,,,,187.19731810013764,187.70046010008082,0.504884579917416,1.00517918006517,187.68372410000302,187.80047330004163,187.68372410000302,187.80047330004163,187.78379190014675,None,m,1,187.78379190014675,None,1.2762724000494927,,,,,,,pm2,2022_Apr_26_1137,training+cueing,2021.1.4,59.966562585562514,
Self.png,You,Self ,c,1,11,21,91,,,,,0,0,0,0,,,,,1,9,21,9,,,,,,,,,,,,,,,,,,,,,1.749,1.69,189.1909531999845,None,,,,,,,,,,,,,,,,,,,,189.75075050001033,190.25224380008876,0.5041687400080264,1.0045003399718553,190.23554310016334,190.33564550010487,190.23554310016334,190.33564550010487,190.33564550010487,None,c,1,190.33564550010487,None,1.1883467000443488,,,,,,,pm2,2022_Apr_26_1137,training+cueing,2021.1.4,59.966562585562514,
Stranger.png,Friend,Stranger,m,2.3,17,27,97,,,,,0,0,0,0,,,,,1,10,22,7,,,,,,,,,,,,,,,,,,,,,1.431,2.026,191.6592621000018,None,,,,,,,,,,,,,,,,,,,,192.20246200007387,192.70403310004622,0.5026752799749374,1.0029715800192207,192.68734750011936,192.8040790001396,192.68734750011936,192.8040790001396,192.78736620000564,None,c,0,192.78736620000564,None,0.7846295000053942,,,,,,,pm2,2022_Apr_26_1137,training+cueing,2021.1.4,59.966562585562514,
Stranger.png,You,Stranger,m,1.3,15,25,95,,,,,0,0,0,0,,,,,1,11,23,6,,,,,,,,,,,,,,,,,,,,,1.765,1.654,193.69422880001366,None,,,,,,,,,,,,,,,,,,,,194.2445792001672,194.75564910005778,0.5052847799379379,1.0056010799016804,194.73877710010856,194.83886730019003,194.73877710010856,194.83886730019003,194.83886730019003,None,m,1,194.83886730019003,None,1.7092055999673903,,,,,,,pm2,2022_Apr_26_1137,training+cueing,2021.1.4,59.966562585562514,
Self.png,You,Self ,c,1,11,21,91,,,,,0,0,0,0,,,,,2,0,24,0,,,,,,,,,,,,,,,,,,,,,1.731,2.211,196.67910670000128,None,,,,,,,,,,,,,,,,,,,,197.21926060016267,197.72432540007867,0.5079765799455345,1.0083143799565732,197.70761599997059,197.8077128001023,197.70761599997059,197.8077128001023,197.8077128001023,None,c,1,197.8077128001023,None,0.628270799992606,,,,,,,pm2,2022_Apr_26_1137,training+cueing,2021.1.4,59.966562585562514,
Friend.png,Friend,Friend,c,2,12,22,92,,,,,0,0,0,0,,,,,2,1,25,10,,,,,,,,,,,,,,,,,,,,,1.451,1.357,198.5641938999761,None,,,,,,,,,,,,,,,,,,,,199.1086401999928,199.60895710019395,0.5010809800587595,1.0012962801847607,199.59241410018876,199.70903749996796,199.59241410018876,199.70903749996796,199.70903749996796,None,m,0,199.70903749996796,None,1.1430214000865817,,,,,,,pm2,2022_Apr_26_1137,training+cueing,2021.1.4,59.966562585562514,
Friend.png,Stranger,Friend,m,3.2,19,29,99,,,,,0,0,0,0,,,,,2,2,26,5,,,,,,,,,,,,,,,,,,,,,1.759,2.238,200.98286570003256,None,,,,,,,,,,,,,,,,,,,,201.5259513000492,202.0273844001349,0.5034494800493121,1.0037934801075608,202.01072850008495,202.12742320005782,202.01072850008495,202.12742320005782,202.1107807001099,None,c,0,202.1107807001099,None,0.7412823000922799,,,,,,,pm2,2022_Apr_26_1137,training+cueing,2021.1.4,59.966562585562514,
Self.png,Stranger,Self ,m,3.1,18,28,98,,,,,0,0,0,0,,,,,2,3,27,2,,,,,,,,,,,,,,,,,,,,,1.787,1.622,202.98365780012682,None,,,,,,,,,,,,,,,,,,,,203.52382960007526,204.02897540014237,0.5083570799324661,1.0086545797530562,204.01219040015712,204.12886660010554,204.01219040015712,204.12886660010554,204.11222660006024,None,m,1,204.11222660006024,None,1.2997045000083745,,,,,,,pm2,2022_Apr_26_1137,training+cueing,2021.1.4,59.966562585562514,
Stranger.png,Stranger,Stranger,c,3,13,23,93,,,,,0,0,0,0,,,,,2,4,28,11,,,,,,,,,,,,,,,,,,,,,1.684,2.379,205.5361542000901,None,,,,,,,,,,,,,,,,,,,,206.07536100014113,206.58069690014236,0.510421680053696,1.0113045799080282,206.56404650001787,206.68130469997413,206.56404650001787,206.68130469997413,206.6641037000809,None,None,0,206.6641037000809,None,,,,,,,,pm2,2022_Apr_26_1137,training+cueing,2021.1.4,59.966562585562514,
Stranger.png,You,Stranger,m,1.3,15,25,95,,,,,0,0,0,0,,,,,2,5,29,6,,,,,,,,,,,,,,,,,,,,,1.517,2.168,208.45283750002272,None,,,,,,,,,,,,,,,,,,,,208.99414950003847,209.49947859998792,0.5101685798726976,1.0104882798623294,209.48277680017054,209.58285800018348,209.48277680017054,209.58285800018348,209.58285800018348,None,m,1,209.58285800018348,None,1.381068600108847,,,,,,,pm2,2022_Apr_26_1137,training+cueing,2021.1.4,59.966562585562514,
Friend.png,Friend,Friend,c,2,12,22,92,,,,,0,0,0,0,,,,,2,6,30,4,,,,,,,,,,,,,,,,,,,,,1.638,1.479,211.08978260005824,None,,,,,,,,,,,,,,,,,,,,211.63172570010647,212.1347315001767,0.5048502800054848,1.0057174798566848,212.118035600055,212.23477219999768,212.118035600055,212.23477219999768,212.21806069999002,None,c,1,212.21806069999002,None,0.9378745001740754,,,,,,,pm2,2022_Apr_26_1137,training+cueing,2021.1.4,59.966562585562514,
Self.png,Friend,Self ,m,2.1,16,26,96,,,,,0,0,0,0,,,,,2,7,31,1,,,,,,,,,,,,,,,,,,,,,1.739,1.284,213.29172140010633,None,,,,,,,,,,,,,,,,,,,,213.83011950016953,214.33633249998093,0.5109766798559576,1.0112328799441457,214.31962550012395,214.43636070005596,214.31962550012395,214.43636070005596,214.41965449997224,None,None,0,214.41965449997224,None,,,,,,,,pm2,2022_Apr_26_1137,training+cueing,2021.1.4,59.966562585562514,
Self.png,You,Self ,c,1,11,21,91,,,,,0,0,0,0,,,,,2,8,32,9,,,,,,,,,,,,,,,,,,,,,1.787,1.565,216.2750642001629,None,,,,,,,,,,,,,,,,,,,,216.8160037000198,217.32179459999315,0.5097361798398197,1.010034279897809,217.3050883000251,217.4051274000667,217.3050883000251,217.4051274000667,217.4051274000667,None,c,1,217.4051274000667,None,1.0468192999251187,,,,,,,pm2,2022_Apr_26_1137,training+cueing,2021.1.4,59.966562585562514,
Stranger.png,Stranger,Stranger,c,3,13,23,93,,,,,0,0,0,0,,,,,2,9,33,8,,,,,,,,,,,,,,,,,,,,,1.637,2.052,218.57888960000128,None,,,,,,,,,,,,,,,,,,,,219.1205510001164,219.62345349998213,0.5049305798020214,1.0052128797397017,219.60676820017397,219.72347080009058,219.60676820017397,219.72347080009058,219.70680469996296,None,m,0,219.70680469996296,None,0.9851383999921381,,,,,,,pm2,2022_Apr_26_1137,training+cueing,2021.1.4,59.966562585562514,
Stranger.png,Friend,Stranger,m,2.3,17,27,97,,,,,0,0,0,0,,,,,2,10,34,7,,,,,,,,,,,,,,,,,,,,,1.51,2.277,220.81385130016133,None,,,,,,,,,,,,,,,,,,,,221.354777000146,221.85844140010886,0.5068738800473511,1.0071424799971282,221.84169530007057,221.95851980010048,221.84169530007057,221.95851980010048,221.94171140016988,None,c,0,221.94171140016988,None,0.8782830000855029,,,,,,,pm2,2022_Apr_26_1137,training+cueing,2021.1.4,59.966562585562514,
Friend.png,You,Friend,m,1.2,14,24,94,,,,,0,0,0,0,,,,,2,11,35,3,,,,,,,,,,,,,,,,,,,,,1.779,1.303,222.94918510015123,None,,,,,,,,,,,,,,,,,,,,223.48812640015967,223.9932403001003,0.508250679820776,1.008563179988414,223.97662040009163,224.07664670003578,223.97662040009163,224.07664670003578,224.07664670003578,None,m,1,224.07664670003578,None,1.3673272000160068,,,,,,,pm2,2022_Apr_26_1137,training+cueing,2021.1.4,59.966562585562514,
Friend.png,Friend,Friend,c,2,12,22,92,,,,,0,0,0,0,,,,,3,0,36,4,,,,,,,,,,,,,,,,,,,,,1.617,2.209,225.5687402000185,None,,,,,,,,,,,,,,,,,,,,226.1226958001498,226.62858610018156,0.5116116399876773,1.0119065400213003,226.611828800058,226.72860809997655,226.611828800058,226.72860809997655,226.7118532001041,None,c,1,226.7118532001041,None,0.8442291000392288,,,,,,,pm2,2022_Apr_26_1137,training+cueing,2021.1.4,59.966562585562514,
Stranger.png,Stranger,Stranger,c,3,13,23,93,,,,,0,0,0,0,,,,,3,1,37,11,,,,,,,,,,,,,,,,,,,,,1.446,2.095,227.68695610016584,None,,,,,,,,,,,,,,,,,,,,228.22935530007817,228.73004170018248,0.5015112799592316,1.0018251799046993,228.71336100017652,228.8301138000097,228.71336100017652,228.8301138000097,228.8301138000097,None,None,0,228.8301138000097,None,,,,,,,,pm2,2022_Apr_26_1137,training+cueing,2021.1.4,59.966562585562514,
Stranger.png,You,Stranger,m,1.3,15,25,95,,,,,0,0,0,0,,,,,3,2,38,6,,,,,,,,,,,,,,,,,,,,,1.551,1.65,230.38550240010954,None,,,,,,,,,,,,,,,,,,,,230.92600790015422,231.43195560015738,0.5109191800002009,1.0112007800489664,231.41534870001487,231.51536790002137,231.41534870001487,231.51536790002137,231.51536790002137,None,m,1,231.51536790002137,None,1.0484724999405444,,,,,,,pm2,2022_Apr_26_1137,training+cueing,2021.1.4,59.966562585562514,
Self.png,You,Self ,c,1,11,21,91,,,,,0,0,0,0,,,,,3,3,39,9,,,,,,,,,,,,,,,,,,,,,1.593,2.009,232.6898221001029,None,,,,,,,,,,,,,,,,,,,,233.22750460007228,233.7336423001252,0.5115045798011124,1.0117846799548715,233.7169861001894,233.8172551000025,233.7169861001894,233.8172551000025,233.8172551000025,None,c,1,233.8172551000025,None,0.5706705001648515,,,,,,,pm2,2022_Apr_26_1137,training+cueing,2021.1.4,59.966562585562514,
Friend.png,Stranger,Friend,m,3.2,19,29,99,,,,,0,0,0,0,,,,,3,4,40,5,,,,,,,,,,,,,,,,,,,,,1.518,2.222,234.5264636001084,None,,,,,,,,,,,,,,,,,,,,235.06473610014655,235.56832409999333,0.5051650800742209,1.005607879953459,235.55157310003415,235.668472800171,235.55157310003415,235.668472800171,235.65174130001105,None,m,1,235.65174130001105,None,1.1361841999460012,,,,,,,pm2,2022_Apr_26_1137,training+cueing,2021.1.4,59.966562585562514,
Self.png,Friend,Self ,m,2.1,16,26,96,,,,,0,0,0,0,,,,,3,5,41,1,,,,,,,,,,,,,,,,,,,,,1.599,1.505,236.92548810015433,None,,,,,,,,,,,,,,,,,,,,237.46691950014792,237.97005150001496,0.5063029800076038,1.0065913801081479,237.95335610001348,238.0700732001569,237.95335610001348,238.0700732001569,238.05339040001854,None,None,0,238.05339040001854,None,,,,,,,,pm2,2022_Apr_26_1137,training+cueing,2021.1.4,59.966562585562514,
Stranger.png,Friend,Stranger,m,2.3,17,27,97,,,,,0,0,0,0,,,,,3,6,42,7,,,,,,,,,,,,,,,,,,,,,1.616,2.473,239.75955169997178,None,,,,,,,,,,,,,,,,,,,,240.29841400007717,240.80539220012724,0.5132717799860984,1.013549879891798,240.78874620003626,240.9054736001417,240.78874620003626,240.9054736001417,240.88877930003218,None,None,0,240.88877930003218,None,,,,,,,,pm2,2022_Apr_26_1137,training+cueing,2021.1.4,59.966562585562514,
Friend.png,You,Friend,m,1.2,14,24,94,,,,,0,0,0,0,,,,,3,7,43,3,,,,,,,,,,,,,,,,,,,,,1.736,1.659,242.6108775001485,None,,,,,,,,,,,,,,,,,,,,243.1520426000934,243.65748270018958,0.5079356799833477,1.0082493799272925,243.64076120010577,243.74081720015965,243.64076120010577,243.74081720015965,243.74081720015965,None,m,1,243.74081720015965,None,1.1271721001248807,,,,,,,pm2,2022_Apr_26_1137,training+cueing,2021.1.4,59.966562585562514,
Friend.png,Friend,Friend,c,2,12,22,92,,,,,0,0,0,0,,,,,3,8,44,10,,,,,,,,,,,,,,,,,,,,,1.614,2.291,244.99791599996388,None,,,,,,,,,,,,,,,,,,,,245.53808750002645,246.04253440001048,0.508862679824233,1.0091404798440635,246.02589579997584,246.14255630015396,246.02589579997584,246.14255630015396,246.12587310001254,None,c,1,246.12587310001254,None,0.8220445001497865,,,,,,,pm2,2022_Apr_26_1137,training+cueing,2021.1.4,59.966562585562514,
Self.png,You,Self ,c,1,11,21,91,,,,,0,0,0,0,,,,,3,9,45,0,,,,,,,,,,,,,,,,,,,,,1.615,2.385,247.08328890008852,None,,,,,,,,,,,,,,,,,,,,247.64113920019008,248.14416190003976,0.5060346401296556,1.0063262400217354,248.12745700008236,248.22750580008142,248.12745700008236,248.22750580008142,248.22750580008142,None,c,1,248.22750580008142,None,0.46433120011352,,,,,,,pm2,2022_Apr_26_1137,training+cueing,2021.1.4,59.966562585562514,
Stranger.png,Stranger,Stranger,c,3,13,23,93,,,,,0,0,0,0,,,,,3,10,46,8,,,,,,,,,,,,,,,,,,,,,1.705,1.778,248.81787470006384,None,,,,,,,,,,,,,,,,,,,,249.37143010017462,249.87866010004655,0.5132506401278079,1.0135769401676953,249.86195869999938,249.9786986000836,249.86195869999938,249.9786986000836,249.9620944999624,None,m,0,249.9620944999624,None,0.6497528001200408,,,,,,,pm2,2022_Apr_26_1137,training+cueing,2021.1.4,59.966562585562514,
Self.png,Stranger,Self ,m,3.1,18,28,98,,,,,0,0,0,0,,,,,3,11,47,2,,,,,,,,,,,,,,,,,,,,,1.401,2.361,250.7358248999808,None,,,,,,,,,,,,,,,,,,,,251.28749190014787,251.796767400112,0.5017879798542708,1.0020636799745262,251.78002459998243,251.89677059999667,251.78002459998243,251.89677059999667,251.89677059999667,None,m,1,251.89677059999667,None,0.9394429998937994,,,,,,,pm2,2022_Apr_26_1137,training+cueing,2021.1.4,59.966562585562514,
Stranger.png,You,Stranger,m,1.3,15,25,95,,,,,0,0,0,0,,,,,4,0,48,6,,,,,,,,,,,,,,,,,,,,,1.787,2.474,252.9704297001008,None,,,,,,,,,,,,,,,,,,,,253.51025860011578,254.0149425000418,0.5073517798446119,1.0076127797365189,253.99833740014583,254.09834620007314,253.99833740014583,254.09834620007314,254.09834620007314,None,m,1,254.09834620007314,None,0.8015697000082582,,,,,,,pm2,2022_Apr_26_1137,training+cueing,2021.1.4,59.966562585562514,
Stranger.png,Friend,Stranger,m,2.3,17,27,97,,,,,0,0,0,0,,,,,4,1,49,7,,,,,,,,,,,,,,,,,,,,,1.52,1.294,255.02128300000913,None,,,,,,,,,,,,,,,,,,,,255.57854720018804,256.083099800162,0.5098712402395904,1.010207940125838,256.06647010007873,256.18316280003637,256.06647010007873,256.18316280003637,256.1664863000624,None,c,0,256.1664863000624,None,0.8934863000176847,,,,,,,pm2,2022_Apr_26_1137,training+cueing,2021.1.4,59.966562585562514,
Self.png,Stranger,Self ,m,3.1,18,28,98,,,,,0,0,0,0,,,,,4,2,50,2,,,,,,,,,,,,,,,,,,,,,1.642,2.318,257.19086490012705,None,,,,,,,,,,,,,,,,,,,,257.7314873000141,258.2346990001388,0.5056791799142957,1.0059582798276097,258.218005400151,258.33474600012414,258.218005400151,258.33474600012414,258.31804470019415,None,m,1,258.31804470019415,None,0.8218161000404507,,,,,,,pm2,2022_Apr_26_1137,training+cueing,2021.1.4,59.966562585562514,
Self.png,You,Self ,c,1,11,21,91,,,,,0,0,0,0,,,,,4,3,51,0,,,,,,,,,,,,,,,,,,,,,1.429,2.323,259.2751413001679,None,,,,,,,,,,,,,,,,,,,,259.8150611000601,260.3195493000094,0.5059899799525738,1.0063130799680948,260.3027914999984,260.4029292999767,260.3027914999984,260.4029292999767,260.4029292999767,None,c,1,260.4029292999767,None,0.5128923000302166,,,,,,,pm2,2022_Apr_26_1137,training+cueing,2021.1.4,59.966562585562514,
Self.png,Friend,Self ,m,2.1,16,26,96,,,,,0,0,0,0,,,,,4,4,52,1,,,,,,,,,,,,,,,,,,,,,1.541,2.144,261.04287450015545,None,,,,,,,,,,,,,,,,,,,,261.5834817001596,262.08747450006194,0.5086844798643142,1.0090026799589396,262.07077160011977,262.18750670016743,262.07077160011977,262.18750670016743,262.1707917000167,None,c,0,262.1707917000167,None,1.0490363000426441,,,,,,,pm2,2022_Apr_26_1137,training+cueing,2021.1.4,59.966562585562514,
Friend.png,Friend,Friend,c,2,12,22,92,,,,,0,0,0,0,,,,,4,5,53,4,,,,,,,,,,,,,,,,,,,,,1.507,2.194,263.34445099998266,None,,,,,,,,,,,,,,,,,,,,263.88358130003326,264.38917400012724,0.4991583798546344,0.9946591798216105,264.37052990007214,264.47246209997684,264.37052990007214,264.47246209997684,264.47246209997684,None,c,1,264.47246209997684,None,1.0674529001116753,,,,,,,pm2,2022_Apr_26_1137,training+cueing,2021.1.4,59.966562585562514,
Stranger.png,Stranger,Stranger,c,3,13,23,93,,,,,0,0,0,0,,,,,4,6,54,8,,,,,,,,,,,,,,,,,,,,,1.597,2.386,265.663411000045,None,,,,,,,,,,,,,,,,,,,,266.2042841000948,266.707493300084,0.503733379766345,1.0040334798395634,266.6907615000382,266.80752100003883,266.6907615000382,266.80752100003883,266.7907973001711,None,c,1,266.7907973001711,None,1.357013300061226,,,,,,,pm2,2022_Apr_26_1137,training+cueing,2021.1.4,59.966562585562514,
Stranger.png,Stranger,Stranger,c,3,13,23,93,,,,,0,0,0,0,,,,,4,7,55,11,,,,,,,,,,,,,,,,,,,,,1.721,1.924,268.2813950001728,None,,,,,,,,,,,,,,,,,,,,268.82021640008315,269.32604290009476,0.5103421797975898,1.0106229798402637,269.3093459000811,269.42611310002394,269.3093459000811,269.42611310002394,269.40937820007093,None,c,1,269.40937820007093,None,1.2504275999963284,,,,,,,pm2,2022_Apr_26_1137,training+cueing,2021.1.4,59.966562585562514,
Self.png,You,Self ,c,1,11,21,91,,,,,0,0,0,0,,,,,4,8,56,9,,,,,,,,,,,,,,,,,,,,,1.766,2.435,270.78343429998495,None,,,,,,,,,,,,,,,,,,,,271.334209300112,271.8445175001398,0.5021001799032092,1.0023799799382687,271.82782300002873,271.9278920001816,271.82782300002873,271.9278920001816,271.9278920001816,None,c,1,271.9278920001816,None,1.035949599929154,,,,,,,pm2,2022_Apr_26_1137,training+cueing,2021.1.4,59.966562585562514,
Friend.png,Stranger,Friend,m,3.2,19,29,99,,,,,0,0,0,0,,,,,4,9,57,5,,,,,,,,,,,,,,,,,,,,,1.473,1.626,273.1015714001842,None,,,,,,,,,,,,,,,,,,,,273.6446581000928,274.14618639997207,0.50456357980147,1.0047290800139308,274.12957490002736,274.2462257000152,274.12957490002736,274.2462257000152,274.22950700018555,None,m,1,274.22950700018555,None,1.2303799998480827,,,,,,,pm2,2022_Apr_26_1137,training+cueing,2021.1.4,59.966562585562514,
Friend.png,Friend,Friend,c,2,12,22,92,,,,,0,0,0,0,,,,,4,10,58,10,,,,,,,,,,,,,,,,,,,,,1.582,1.583,275.58701110002585,None,,,,,,,,,,,,,,,,,,,,276.1273016000632,276.6312920001801,0.506474080029875,1.0067652801517397,276.61463690013625,276.7313490000088,276.61463690013625,276.7313490000088,276.7146469000727,None,c,1,276.7146469000727,None,0.5532440999522805,,,,,,,pm2,2022_Apr_26_1137,training+cueing,2021.1.4,59.966562585562514,
Friend.png,You,Friend,m,1.2,14,24,94,,,,,0,0,0,0,,,,,4,11,59,3,,,,,,,,,,,,,,,,,,,,,1.638,2.091,277.4047693000175,None,,,,,,,,,,,,,,,,,,,,277.94541070004925,278.4492985000834,0.5059888800606132,1.0062981802038848,278.43256240012124,278.5326500001829,278.43256240012124,278.5326500001829,278.5326500001829,None,m,1,278.5326500001829,None,1.4551328998059034,,,,,,,pm2,2022_Apr_26_1137,training+cueing,2021.1.4,59.966562585562514,
Self.png,Stranger,Self ,m,3.1,18,28,98,,,,,0,0,0,0,,,,,5,0,60,2,,,,,,,,,,,,,,,,,,,,,1.514,2.103,280.12311820010655,None,,,,,,,,,,,,,,,,,,,,280.6642928000074,281.1679095001891,0.5066277799196541,1.0069224799517542,281.15121140005067,281.26796540012583,281.15121140005067,281.26796540012583,281.2512372999918,None,None,0,281.2512372999918,None,,,,,,,,pm2,2022_Apr_26_1137,training+cueing,2021.1.4,59.966562585562514,
Self.png,You,Self ,c,1,11,21,91,,,,,0,0,0,0,,,,,5,1,61,9,,,,,,,,,,,,,,,,,,,,,1.413,1.602,282.87284570001066,None,,,,,,,,,,,,,,,,,,,,283.4375924000051,283.93660879996605,0.5149260400794446,None,283.93660879996605,284.03668520017527,283.93660879996605,284.03668520017527,284.03668520017527,None,m,0,284.03668520017527,None,0.06321860011667013,,,,,,,pm2,2022_Apr_26_1137,training+cueing,2021.1.4,59.966562585562514,
Stranger.png,Stranger,Stranger,c,3,13,23,93,,,,,0,0,0,0,,,,,5,2,62,11,,,,,,,,,,,,,,,,,,,,,1.584,1.929,284.22660530009307,None,,,,,,,,,,,,,,,,,,,,284.7672519001644,285.2708744001575,0.5049749799072742,1.00529458001256,285.2541824001819,285.3709399001673,285.2541824001819,285.3709399001673,285.3541920001153,None,c,1,285.3541920001153,None,1.4816285001579672,,,,,,,pm2,2022_Apr_26_1137,training+cueing,2021.1.4,59.966562585562514,
Stranger.png,Stranger,Stranger,c,3,13,23,93,,,,,0,0,0,0,,,,,5,3,63,8,,,,,,,,,,,,,,,,,,,,,1.512,2.0,286.9617380001582,None,,,,,,,,,,,,,,,,,,,,287.49984519998543,288.0061574000865,0.5109836799092591,1.0112637800630182,287.9895292001311,288.1061925000977,287.9895292001311,288.1061925000977,288.0895519000478,None,None,0,288.0895519000478,None,,,,,,,,pm2,2022_Apr_26_1137,training+cueing,2021.1.4,59.966562585562514,
Friend.png,You,Friend,m,1.2,14,24,94,,,,,0,0,0,0,,,,,5,4,64,3,,,,,,,,,,,,,,,,,,,,,1.721,1.826,289.71089440002106,None,,,,,,,,,,,,,,,,,,,,290.25354860001244,290.7581571000628,0.5061471799854189,1.0070113798137754,290.74151600012556,290.84157479996793,290.74151600012556,290.84157479996793,290.84157479996793,None,m,1,290.84157479996793,None,0.7464203000999987,,,,,,,pm2,2022_Apr_26_1137,training+cueing,2021.1.4,59.966562585562514,
Self.png,Friend,Self ,m,2.1,16,26,96,,,,,0,0,0,0,,,,,5,5,65,1,,,,,,,,,,,,,,,,,,,,,1.511,1.901,291.71889690007083,None,,,,,,,,,,,,,,,,,,,,292.2628647000529,292.77626159996726,0.5099010800477117,1.0101552798878402,292.75966099998914,292.87631079996936,292.75966099998914,292.87631079996936,292.85966049996205,None,m,1,292.85966049996205,None,1.3521783999167383,,,,,,,pm2,2022_Apr_26_1137,training+cueing,2021.1.4,59.966562585562514,
Friend.png,Stranger,Friend,m,3.2,19,29,99,,,,,0,0,0,0,,,,,5,6,66,5,,,,,,,,,,,,,,,,,,,,,1.654,2.073,294.3335748000536,None,,,,,,,,,,,,,,,,,,,,294.87664510007016,295.37818660004996,0.5047638800460845,1.0056428799871355,295.3615056001581,295.47814400005154,295.3615056001581,295.47814400005154,295.46152370003983,None,None,0,295.46152370003983,None,,,,,,,,pm2,2022_Apr_26_1137,training+cueing,2021.1.4,59.966562585562514,
Friend.png,Friend,Friend,c,2,12,22,92,,,,,0,0,0,0,,,,,5,7,67,10,,,,,,,,,,,,,,,,,,,,,1.539,1.681,297.2336130000185,None,,,,,,,,,,,,,,,,,,,,297.7767415000126,298.2802464000415,0.5051605799235404,1.0054698798339814,298.2635937000159,298.3803277001716,298.2635937000159,298.3803277001716,298.3636233001016,None,c,1,298.3636233001016,None,0.9521564000751823,,,,,,,pm2,2022_Apr_26_1137,training+cueing,2021.1.4,59.966562585562514,
Stranger.png,You,Stranger,m,1.3,15,25,95,,,,,0,0,0,0,,,,,5,8,68,6,,,,,,,,,,,,,,,,,,,,,1.529,1.329,299.45445730001666,None,,,,,,,,,,,,,,,,,,,,299.99491750006564,300.4985283999704,0.5070651799906045,1.007366880076006,300.48186060017906,300.5819184000138,300.48186060017906,300.5819184000138,300.5819184000138,None,m,1,300.5819184000138,None,0.8459051998797804,,,,,,,pm2,2022_Apr_26_1137,training+cueing,2021.1.4,59.966562585562514,
Self.png,You,Self ,c,1,11,21,91,,,,,0,0,0,0,,,,,5,9,69,0,,,,,,,,,,,,,,,,,,,,,1.448,2.217,301.5557180000469,None,,,,,,,,,,,,,,,,,,,,302.09790579997934,302.6000228000339,0.504892879864201,1.0051620798185468,302.5834141999949,302.68343500001356,302.5834141999949,302.68343500001356,302.68343500001356,None,c,1,302.68343500001356,None,0.6323228001128882,,,,,,,pm2,2022_Apr_26_1137,training+cueing,2021.1.4,59.966562585562514,
Friend.png,Friend,Friend,c,2,12,22,92,,,,,0,0,0,0,,,,,5,10,70,4,,,,,,,,,,,,,,,,,,,,,1.644,2.035,303.439607599983,None,,,,,,,,,,,,,,,,,,,,303.9811500001233,304.4847703000996,0.5057051798794419,1.006068579852581,304.46808849996887,304.5848129000515,304.46808849996887,304.5848129000515,304.5680943999905,None,c,1,304.5680943999905,None,1.1636634999886155,,,,,,,pm2,2022_Apr_26_1137,training+cueing,2021.1.4,59.966562585562514,
Stranger.png,Friend,Stranger,m,2.3,17,27,97,,,,,0,0,0,0,,,,,5,11,71,7,,,,,,,,,,,,,,,,,,,,,1.439,2.459,305.85897930013016,None,,,,,,,,,,,,,,,,,,,,306.3975655999966,306.9032040000893,0.5115767801180482,1.0119564800988883,306.88650860008784,307.0032349000685,306.88650860008784,307.0032349000685,306.98652310017496,None,None,0,306.98652310017496,None,,,,,,,,pm2,2022_Apr_26_1137,training+cueing,2021.1.4,59.966562585562514,
Self.png,You,Self ,c,1,11,21,91,,,,,0,0,0,0,,,,,6,0,72,0,,,,,,,,,,,,,,,,,,,,,1.411,2.494,308.5420438000001,None,,,,,,,,,,,,,,,,,,,,309.08320710016415,309.58844500011764,0.5074111798312515,1.0076738798525184,309.5718047001865,309.6719786999747,309.5718047001865,309.6719786999747,309.6719786999747,None,c,1,309.6719786999747,None,0.7477728999219835,,,,,,,pm2,2022_Apr_26_1137,training+cueing,2021.1.4,59.966562585562514,
Stranger.png,Friend,Stranger,m,2.3,17,27,97,,,,,0,0,0,0,,,,,6,1,73,7,,,,,,,,,,,,,,,,,,,,,1.667,1.257,310.54624290019274,None,,,,,,,,,,,,,,,,,,,,311.08477850002237,311.5898679001257,0.5093257799744606,1.009787879884243,311.573241900187,311.6899135999847,311.573241900187,311.6899135999847,311.6733226000797,None,m,1,311.6733226000797,None,0.9865514000412077,,,,,,,pm2,2022_Apr_26_1137,training+cueing,2021.1.4,59.966562585562514,
Friend.png,Stranger,Friend,m,3.2,19,29,99,,,,,0,0,0,0,,,,,6,2,74,5,,,,,,,,,,,,,,,,,,,,,1.51,1.431,312.7981994000729,None,,,,,,,,,,,,,,,,,,,,313.3405842001084,313.8415573001839,0.5011222800239921,1.001961079891771,313.8248678999953,313.9415864001494,313.8248678999953,313.9415864001494,313.9415864001494,None,c,0,313.9415864001494,None,1.4062274999450892,,,,,,,pm2,2022_Apr_26_1137,training+cueing,2021.1.4,59.966562585562514,
Friend.png,Friend,Friend,c,2,12,22,92,,,,,0,0,0,0,,,,,6,3,75,4,,,,,,,,,,,,,,,,,,,,,1.736,2.26,315.48315790016204,None,,,,,,,,,,,,,,,,,,,,316.0204706999939,316.5267564000096,0.5098484801128507,1.0101203799713403,316.5101034999825,316.62685940018855,316.5101034999825,316.62685940018855,316.61013120017014,None,c,1,316.61013120017014,None,1.4416716999839991,,,,,,,pm2,2022_Apr_26_1137,training+cueing,2021.1.4,59.966562585562514,
Stranger.png,Stranger,Stranger,c,3,13,23,93,,,,,0,0,0,0,,,,,6,4,76,8,,,,,,,,,,,,,,,,,,,,,1.505,1.675,318.18417909997515,None,,,,,,,,,,,,,,,,,,,,318.7246332000941,319.2287455999758,0.5084837798494846,1.008775679860264,319.2120539001189,319.32880640006624,319.2120539001189,319.32880640006624,319.3120838999748,None,c,1,319.3120838999748,None,1.3477571001276374,,,,,,,pm2,2022_Apr_26_1137,training+cueing,2021.1.4,59.966562585562514,
Friend.png,You,Friend,m,1.2,14,24,94,,,,,0,0,0,0,,,,,6,5,77,3,,,,,,,,,,,,,,,,,,,,,1.462,1.332,320.7857139999978,None,,,,,,,,,,,,,,,,,,,,321.3255114001222,321.8306462999899,0.5096518797799945,1.0099215798545629,321.8139116000384,321.9139864000026,321.8139116000384,321.9139864000026,321.9139864000026,None,m,1,321.9139864000026,None,1.0978287998586893,,,,,,,pm2,2022_Apr_26_1137,training+cueing,2021.1.4,59.966562585562514,
Self.png,Stranger,Self ,m,3.1,18,28,98,,,,,0,0,0,0,,,,,6,6,78,2,,,,,,,,,,,,,,,,,,,,,1.657,2.441,323.1375973999966,None,,,,,,,,,,,,,,,,,,,,323.67945090006106,324.1822695999872,0.5042736798059195,1.0045650796964765,324.1656612001825,324.2823618000839,324.1656612001825,324.2823618000839,324.26571359997615,None,m,1,324.26571359997615,None,0.8580731002148241,,,,,,,pm2,2022_Apr_26_1137,training+cueing,2021.1.4,59.966562585562514,
Friend.png,Friend,Friend,c,2,12,22,92,,,,,0,0,0,0,,,,,6,7,79,10,,,,,,,,,,,,,,,,,,,,,1.644,1.836,325.25585050019436,None,,,,,,,,,,,,,,,,,,,,325.7969276001677,326.30049140006304,0.5061300797387958,1.0064157797023654,326.28387420019135,326.400543600088,326.28387420019135,326.400543600088,326.38391350000165,None,c,1,326.38391350000165,None,1.0278732001315802,,,,,,,pm2,2022_Apr_26_1137,training+cueing,2021.1.4,59.966562585562514,
Stranger.png,Stranger,Stranger,c,3,13,23,93,,,,,0,0,0,0,,,,,6,8,80,11,,,,,,,,,,,,,,,,,,,,,1.789,2.282,327.54091280000284,None,,,,,,,,,,,,,,,,,,,,328.08088760008104,328.585498200031,0.5073009799234569,1.0075940799433738,328.5688381001819,328.68559180013835,328.5688381001819,328.68559180013835,328.66885250015184,None,m,0,328.66885250015184,None,0.790927299996838,,,,,,,pm2,2022_Apr_26_1137,training+cueing,2021.1.4,59.966562585562514,
Stranger.png,You,Stranger,m,1.3,15,25,95,,,,,0,0,0,0,,,,,6,9,81,6,,,,,,,,,,,,,,,,,,,,,1.584,1.263,329.5917311999947,None,,,,,,,,,,,,,,,,,,,,330.1328614000231,330.63697370002046,0.5049334801733494,1.0071936801541597,330.6183331999928,330.7203552001156,330.6183331999928,330.7203552001156,330.7203552001156,None,m,1,330.7203552001156,None,0.899411299964413,,,,,,,pm2,2022_Apr_26_1137,training+cueing,2021.1.4,59.966562585562514,
Self.png,You,Self ,c,1,11,21,91,,,,,0,0,0,0,,,,,6,10,82,9,,,,,,,,,,,,,,,,,,,,,1.697,1.497,331.7434568000026,None,,,,,,,,,,,,,,,,,,,,332.2824175001588,332.7885472001508,0.5110788797028363,None,332.7718834001571,332.87191750016063,332.7718834001571,332.87191750016063,332.87191750016063,None,c,1,332.87191750016063,None,0.38001800002530217,,,,,,,pm2,2022_Apr_26_1137,training+cueing,2021.1.4,59.966562585562514,
Self.png,Friend,Self ,m,2.1,16,26,96,,,,,0,0,0,0,,,,,6,11,83,1,,,,,,,,,,,,,,,,,,,,,1.428,1.586,333.37967499997467,None,,,,,,,,,,,,,,,,,,,,333.92105970019475,334.4230408000294,0.5031099799089134,1.0035755799617618,334.40639110002667,334.52343460009433,334.40639110002667,334.52343460009433,334.506418999983,None,None,0,334.506418999983,None,,,,,,,,pm2,2022_Apr_26_1137,training+cueing,2021.1.4,59.966562585562514,
Friend.png,You,Friend,m,1.2,14,24,94,,,,,0,0,0,0,,,,,7,0,84,3,,,,,,,,,,,,,,,,,,,,,1.632,1.404,336.04562290012836,None,,,,,,,,,,,,,,,,,,,,336.5879391999915,337.0916305000428,0.5064560801256448,1.0067281799856573,337.07499720016494,337.17503749998286,337.07499720016494,337.17503749998286,337.17503749998286,None,None,0,337.17503749998286,None,,,,,,,,pm2,2022_Apr_26_1137,training+cueing,2021.1.4,59.966562585562514,
Stranger.png,Stranger,Stranger,c,3,13,23,93,,,,,0,0,0,0,,,,,7,1,85,8,,,,,,,,,,,,,,,,,,,,,1.754,1.973,338.9133541001938,None,,,,,,,,,,,,,,,,,,,,339.4569645000156,339.9603741001338,0.5062818799633533,1.0066059799864888,339.94372850004584,340.06043840013444,339.94372850004584,340.06043840013444,340.0437444001436,None,c,1,340.0437444001436,None,1.5920097001362592,,,,,,,pm2,2022_Apr_26_1137,training+cueing,2021.1.4,59.966562585562514,
Friend.png,Friend,Friend,c,2,12,22,92,,,,,0,0,0,0,,,,,7,2,86,4,,,,,,,,,,,,,,,,,,,,,1.599,2.392,341.76796249998733,None,,,,,,,,,,,,,,,,,,,,342.3081827000715,342.81244400003925,0.5065782798919827,1.0068551797885448,342.79580319998786,342.9124895001296,342.79580319998786,342.9124895001296,342.8958418001421,None,None,0,342.8958418001421,None,,,,,,,,pm2,2022_Apr_26_1137,training+cueing,2021.1.4,59.966562585562514,
Self.png,Friend,Self ,m,2.1,16,26,96,,,,,0,0,0,0,,,,,7,3,87,1,,,,,,,,,,,,,,,,,,,,,1.568,2.139,344.6006976000499,None,,,,,,,,,,,,,,,,,,,,345.1420869000722,345.6478503001854,0.5114467800594866,1.012333279941231,345.6311725000851,345.7480839001946,345.6311725000851,345.7480839001946,345.7312362000812,None,None,0,345.7312362000812,None,,,,,,,,pm2,2022_Apr_26_1137,training+cueing,2021.1.4,59.966562585562514,
Self.png,Stranger,Self ,m,3.1,18,28,98,,,,,0,0,0,0,,,,,7,4,88,2,,,,,,,,,,,,,,,,,,,,,1.57,2.342,347.4044051000383,None,,,,,,,,,,,,,,,,,,,,347.9462978001684,348.44989370019175,0.504913279786706,1.0051906798034906,348.43316440004855,348.55002359999344,348.43316440004855,348.55002359999344,348.53318520006724,None,None,0,348.53318520006724,None,,,,,,,,pm2,2022_Apr_26_1137,training+cueing,2021.1.4,59.966562585562514,
Friend.png,Stranger,Friend,m,3.2,19,29,99,,,,,0,0,0,0,,,,,7,5,89,5,,,,,,,,,,,,,,,,,,,,,1.617,1.764,350.22220130008645,None,,,,,,,,,,,,,,,,,,,,350.7634087000042,351.26859430014156,0.5106454801280051,1.0109419801738113,351.25188680016436,351.36863599997014,351.25188680016436,351.36863599997014,351.3519066001754,None,m,1,351.3519066001754,None,0.9557685998734087,,,,,,,pm2,2022_Apr_26_1137,training+cueing,2021.1.4,59.966562585562514,
Self.png,You,Self ,c,1,11,21,91,,,,,0,0,0,0,,,,,7,6,90,9,,,,,,,,,,,,,,,,,,,,,1.429,2.039,352.44212210015394,None,,,,,,,,,,,,,,,,,,,,352.98362950002775,353.486846400192,0.5061177797615528,1.006424579769373,353.47013390017673,353.57025550003164,353.47013390017673,353.57025550003164,353.57025550003164,None,c,1,353.57025550003164,None,0.6254851000849158,,,,,,,pm2,2022_Apr_26_1137,training+cueing,2021.1.4,59.966562585562514,
Stranger.png,Friend,Stranger,m,2.3,17,27,97,,,,,0,0,0,0,,,,,7,7,91,7,,,,,,,,,,,,,,,,,,,,,1.43,1.759,354.32699159998447,None,,,,,,,,,,,,,,,,,,,,354.86691060010344,355.37157199997455,0.506429280154407,1.0067222802899778,355.3548632999882,355.4715821000282,355.3548632999882,355.4715821000282,355.454859000165,None,m,1,355.454859000165,None,0.7408973998390138,,,,,,,pm2,2022_Apr_26_1137,training+cueing,2021.1.4,59.966562585562514,
Friend.png,Friend,Friend,c,2,12,22,92,,,,,0,0,0,0,,,,,7,8,92,10,,,,,,,,,,,,,,,,,,,,,1.444,1.85,356.32796270004474,None,,,,,,,,,,,,,,,,,,,,356.867346300045,357.3729950999841,0.5109803800005466,1.011296679964289,357.35624870005995,357.47302540019155,357.35624870005995,357.47302540019155,357.4563094000332,None,c,1,357.4563094000332,None,0.6594841000624001,,,,,,,pm2,2022_Apr_26_1137,training+cueing,2021.1.4,59.966562585562514,
Stranger.png,Stranger,Stranger,c,3,13,23,93,,,,,0,0,0,0,,,,,7,9,93,11,,,,,,,,,,,,,,,,,,,,,1.765,2.375,358.24673920008354,None,,,,,,,,,,,,,,,,,,,,358.7876155001577,359.2910359001253,0.505632079904899,1.0059345797635615,359.2743212999776,359.39107380015776,359.2743212999776,359.39107380015776,359.37436780007556,None,m,0,359.37436780007556,None,0.8533065000083297,,,,,,,pm2,2022_Apr_26_1137,training+cueing,2021.1.4,59.966562585562514,
Stranger.png,You,Stranger,m,1.3,15,25,95,,,,,0,0,0,0,,,,,7,10,94,6,,,,,,,,,,,,,,,,,,,,,1.688,2.126,360.36650310014375,None,,,,,,,,,,,,,,,,,,,,360.90491849998944,361.40926089999266,0.5068471801932901,1.0071039800532162,361.3925811999943,361.49260790017433,361.3925811999943,361.49260790017433,361.49260790017433,None,m,1,361.49260790017433,None,1.343123700004071,,,,,,,pm2,2022_Apr_26_1137,training+cueing,2021.1.4,59.966562585562514,
Self.png,You,Self ,c,1,11,21,91,,,,,0,0,0,0,,,,,7,11,95,0,,,,,,,,,,,,,,,,,,,,,1.689,1.282,362.9672406001482,None,,,,,,,,,,,,,,,,,,,,363.50360450008884,364.01125600002706,0.5146442800760269,1.014921179972589,363.99458860000595,364.0946315000765,363.99458860000595,364.0946315000765,364.0946315000765,None,c,1,364.0946315000765,None,0.5650736000388861,,,,,,,pm2,2022_Apr_26_1137,training+cueing,2021.1.4,59.966562585562514,
Friend.png,Stranger,Friend,m,3.2,19,29,99,,,,,0,0,0,0,,,,,8,0,96,5,,,,,,,,,,,,,,,,,,,,,1.488,2.224,364.78560740011744,None,,,,,,,,,,,,,,,,,,,,365.3260195001494,365.82911140006036,0.5045217799488455,1.0047969799488783,365.81243210006505,365.9291938999668,365.81243210006505,365.9291938999668,365.91245490009896,None,None,0,365.91245490009896,None,,,,,,,,pm2,2022_Apr_26_1137,training+cueing,2021.1.4,59.966562585562514,
Self.png,Stranger,Self ,m,3.1,18,28,98,,,,,0,0,0,0,,,,,8,1,97,2,,,,,,,,,,,,,,,,,,,,,1.462,2.128,367.51766680018045,None,,,,,,,,,,,,,,,,,,,,368.0586839001626,368.5643937999848,0.5111307797487825,1.0113958797883242,368.54771209997125,368.6644517001696,368.54771209997125,368.6644517001696,368.64769560005516,None,None,0,368.64769560005516,None,,,,,,,,pm2,2022_Apr_26_1137,training+cueing,2021.1.4,59.966562585562514,
Friend.png,You,Friend,m,1.2,14,24,94,,,,,0,0,0,0,,,,,8,2,98,3,,,,,,,,,,,,,,,,,,,,,1.683,1.394,370.2196525000036,None,,,,,,,,,,,,,,,,,,,,370.7632885000203,371.2663575001061,0.5068631798494607,1.0070929799694568,371.2497716001235,371.34975000005215,371.2497716001235,371.34975000005215,371.34975000005215,None,m,1,371.34975000005215,None,1.1499413000419736,,,,,,,pm2,2022_Apr_26_1137,training+cueing,2021.1.4,59.966562585562514,
Friend.png,Friend,Friend,c,2,12,22,92,,,,,0,0,0,0,,,,,8,3,99,4,,,,,,,,,,,,,,,,,,,,,1.552,1.819,372.62293760012835,None,,,,,,,,,,,,,,,,,,,,373.16403320012614,373.668122400064,0.5051979799754918,1.005474080098793,373.6514388001524,373.76819199998863,373.6514388001524,373.76819199998863,373.75145490001887,None,m,0,373.75145490001887,None,0.7161987998988479,,,,,,,pm2,2022_Apr_26_1137,training+cueing,2021.1.4,59.966562585562514,
Self.png,You,Self ,c,1,11,21,91,,,,,0,0,0,0,,,,,8,4,100,0,,,,,,,,,,,,,,,,,,,,,1.599,1.326,374.5911014000885,None,,,,,,,,,,,,,,,,,,,,375.1323200999759,375.6361775000114,0.5085426799487323,1.0088858800008893,375.61951000010595,375.7195594001096,375.61951000010595,375.7195594001096,375.7195594001096,None,c,1,375.7195594001096,None,0.8921348000876606,,,,,,,pm2,2022_Apr_26_1137,training+cueing,2021.1.4,59.966562585562514,
Self.png,You,Self ,c,1,11,21,91,,,,,0,0,0,0,,,,,8,5,101,9,,,,,,,,,,,,,,,,,,,,,1.486,2.461,376.74272400001064,None,,,,,,,,,,,,,,,,,,,,377.28271399997175,377.78770720004104,0.5101552798878402,1.0111108799465,377.77107860008255,377.87114479998127,377.77107860008255,377.87114479998127,377.87114479998127,None,c,1,377.87114479998127,None,0.5967728001996875,,,,,,,pm2,2022_Apr_26_1137,training+cueing,2021.1.4,59.966562585562514,
Stranger.png,Friend,Stranger,m,2.3,17,27,97,,,,,0,0,0,0,,,,,8,6,102,7,,,,,,,,,,,,,,,,,,,,,1.763,1.825,378.5985086001456,None,,,,,,,,,,,,,,,,,,,,379.13752720016055,379.6391061001923,0.5025365801993757,1.002867680042982,379.6223706000019,379.7393786001485,379.6223706000019,379.7393786001485,379.7226552001666,None,m,1,379.7226552001666,None,1.1771468999795616,,,,,,,pm2,2022_Apr_26_1137,training+cueing,2021.1.4,59.966562585562514,
Stranger.png,Stranger,Stranger,c,3,13,23,93,,,,,0,0,0,0,,,,,8,7,103,8,,,,,,,,,,,,,,,,,,,,,1.653,1.737,381.0306204999797,None,,,,,,,,,,,,,,,,,,,,381.5748821001034,382.0741240000352,0.5151497800834477,1.0154575800988823,382.0741240000352,382.17419230006635,382.0741240000352,382.17419230006635,382.17419230006635,None,m,0,382.17419230006635,None,0.5975715001113713,,,,,,,pm2,2022_Apr_26_1137,training+cueing,2021.1.4,59.966562585562514,
Stranger.png,You,Stranger,m,1.3,15,25,95,,,,,0,0,0,0,,,,,8,8,104,6,,,,,,,,,,,,,,,,,,,,,1.4,1.764,382.8975941000972,None,,,,,,,,,,,,,,,,,,,,383.4495256000664,383.9588789001573,0.5001940799411386,1.0004699800629169,383.94219660013914,384.04220540006645,383.94219660013914,384.04220540006645,384.04220540006645,None,None,0,384.04220540006645,None,,,,,,,,pm2,2022_Apr_26_1137,training+cueing,2021.1.4,59.966562585562514,
Friend.png,Friend,Friend,c,2,12,22,92,,,,,0,0,0,0,,,,,8,9,105,10,,,,,,,,,,,,,,,,,,,,,1.408,1.857,385.5483109999914,None,,,,,,,,,,,,,,,,,,,,386.09700409998186,386.6107775999699,0.5098003800958395,1.0100562800653279,386.59412909997627,386.71080310014077,386.59412909997627,386.71080310014077,386.6941629999783,None,c,1,386.6941629999783,None,0.7334807999432087,,,,,,,pm2,2022_Apr_26_1137,training+cueing,2021.1.4,59.966562585562514,
Stranger.png,Stranger,Stranger,c,3,13,23,93,,,,,0,0,0,0,,,,,8,10,106,11,,,,,,,,,,,,,,,,,,,,,1.77,1.405,387.5504088001326,None,,,,,,,,,,,,,,,,,,,,388.1030992001761,388.6122554000467,0.5016067798715085,1.0018775800708681,388.5955650000833,388.71229619998485,388.5955650000833,388.71229619998485,388.71229619998485,None,c,1,388.71229619998485,None,1.29142459994182,,,,,,,pm2,2022_Apr_26_1137,training+cueing,2021.1.4,59.966562585562514,
Self.png,Friend,Self ,m,2.1,16,26,96,,,,,0,0,0,0,,,,,8,11,107,1,,,,,,,,,,,,,,,,,,,,,1.429,2.112,390.13612250005826,None,,,,,,,,,,,,,,,,,,,,390.6760129001923,391.1808933999855,0.5070423798169941,1.007244479842484,391.16418449999765,391.2807696000673,391.16418449999765,391.2807696000673,391.2641519000754,None,None,0,391.2641519000754,None,,,,,,,,pm2,2022_Apr_26_1137,training+cueing,2021.1.4,59.966562585562514,
Friend.png,You,Friend,m,1.2,14,24,94,,,,,0,0,0,0,,,,,9,0,108,3,,,,,,,,,,,,,,,,,,,,,1.483,1.583,392.8030253001489,None,,,,,,,,,,,,,,,,,,,,393.34477240010165,393.84934870013967,0.5078696799464524,1.0081600798293948,393.8326225001365,393.93269180017523,393.8326225001365,393.93269180017523,393.93269180017523,None,m,1,393.93269180017523,None,1.3509050998836756,,,,,,,pm2,2022_Apr_26_1137,training+cueing,2021.1.4,59.966562585562514,
Friend.png,Stranger,Friend,m,3.2,19,29,99,,,,,0,0,0,0,,,,,9,1,109,5,,,,,,,,,,,,,,,,,,,,,1.442,1.974,395.406693500001,None,,,,,,,,,,,,,,,,,,,,395.94630900002085,396.4512561999727,0.5090002799406648,1.0092523801140487,396.4345333999954,396.55125280003995,396.4345333999954,396.55125280003995,396.53457400016487,None,None,0,396.53457400016487,None,,,,,,,,pm2,2022_Apr_26_1137,training+cueing,2021.1.4,59.966562585562514,
Stranger.png,Stranger,Stranger,c,3,13,23,93,,,,,0,0,0,0,,,,,9,2,110,11,,,,,,,,,,,,,,,,,,,,,1.621,1.88,398.08953420002945,None,,,,,,,,,,,,,,,,,,,,398.6287536001764,399.1364743001759,0.513086779974401,1.0133748799562454,399.11983830016106,399.2365333000198,399.11983830016106,399.2365333000198,399.21987250004895,None,None,0,399.21987250004895,None,,,,,,,,pm2,2022_Apr_26_1137,training+cueing,2021.1.4,59.966562585562514,
Stranger.png,You,Stranger,m,1.3,15,25,95,,,,,0,0,0,0,,,,,9,3,111,6,,,,,,,,,,,,,,,,,,,,,1.629,1.694,400.9588809001725,None,,,,,,,,,,,,,,,,,,,,401.5105074001476,402.0219054999761,0.5067411800846457,1.0072817800100893,402.00520010013133,402.1052662001457,402.00520010013133,402.1052662001457,402.1052662001457,None,m,1,402.1052662001457,None,1.3863785001449287,,,,,,,pm2,2022_Apr_26_1137,training+cueing,2021.1.4,59.966562585562514,
Self.png,Stranger,Self ,m,3.1,18,28,98,,,,,0,0,0,0,,,,,9,4,112,2,,,,,,,,,,,,,,,,,,,,,1.631,2.002,403.62879910017364,None,,,,,,,,,,,,,,,,,,,,404.17572379997,404.69051510002464,0.5096503798849881,1.0101488798391074,404.673811300192,404.79052809998393,404.673811300192,404.79052809998393,404.7738525001332,None,m,1,404.7738525001332,None,1.0698987999930978,,,,,,,pm2,2022_Apr_26_1137,training+cueing,2021.1.4,59.966562585562514,
Self.png,You,Self ,c,1,11,21,91,,,,,0,0,0,0,,,,,9,5,113,0,,,,,,,,,,,,,,,,,,,,,1.649,1.865,405.9819573999848,None,,,,,,,,,,,,,,,,,,,,406.5225035001058,407.02554600010626,0.5057828798890114,None,407.00886150007136,407.1089230000507,407.00886150007136,407.1089230000507,407.1089230000507,None,c,1,407.1089230000507,None,0.3348091000225395,,,,,,,pm2,2022_Apr_26_1137,training+cueing,2021.1.4,59.966562585562514,
Self.png,You,Self ,c,1,11,21,91,,,,,0,0,0,0,,,,,9,6,114,9,,,,,,,,,,,,,,,,,,,,,1.645,2.207,407.5664382001851,None,,,,,,,,,,,,,,,,,,,,408.1197285000235,408.62684310018085,0.4999557400587946,1.0004474399611354,408.5934999000747,408.6935566000175,408.5934999000747,408.6935566000175,408.6935566000175,None,c,1,408.6935566000175,None,0.46216929983347654,,,,,,,pm2,2022_Apr_26_1137,training+cueing,2021.1.4,59.966562585562514,
Friend.png,Friend,Friend,c,2,12,22,92,,,,,0,0,0,0,,,,,9,7,115,4,,,,,,,,,,,,,,,,,,,,,1.49,2.366,409.2845439000521,None,,,,,,,,,,,,,,,,,,,,409.8257442000322,410.327954800101,0.5029083797708154,1.0037098797038198,410.31131390016526,410.42811750015244,410.31131390016526,410.42811750015244,410.4113203000743,None,None,0,410.4113203000743,None,,,,,,,,pm2,2022_Apr_26_1137,training+cueing,2021.1.4,59.966562585562514,
Friend.png,Friend,Friend,c,2,12,22,92,,,,,0,0,0,0,,,,,9,8,116,10,,,,,,,,,,,,,,,,,,,,,1.52,1.901,412.0184103001375,None,,,,,,,,,,,,,,,,,,,,412.55739159998484,413.0632555000484,0.5107508797664195,1.0110396798700094,413.0465723001398,413.16329890000634,413.0465723001398,413.16329890000634,413.1466109000612,None,c,1,413.1466109000612,None,0.5530791999772191,,,,,,,pm2,2022_Apr_26_1137,training+cueing,2021.1.4,59.966562585562514,
Stranger.png,Friend,Stranger,m,2.3,17,27,97,,,,,0,0,0,0,,,,,9,9,117,7,,,,,,,,,,,,,,,,,,,,,1.573,1.26,413.8369122000877,None,,,,,,,,,,,,,,,,,,,,414.3747460001614,414.8812031999696,0.5127922799438238,1.0137446799781173,414.8645369000733,414.98124250001274,414.8645369000733,414.98124250001274,414.96458080015145,None,m,1,414.96458080015145,None,0.8311356001067907,,,,,,,pm2,2022_Apr_26_1137,training+cueing,2021.1.4,59.966562585562514,
Stranger.png,Stranger,Stranger,c,3,13,23,93,,,,,0,0,0,0,,,,,9,10,118,8,,,,,,,,,,,,,,,,,,,,,1.664,1.952,415.9225590999704,None,,,,,,,,,,,,,,,,,,,,416.46212909999304,416.96606200002134,0.5050673801451921,1.0053129801526666,416.9494024000596,417.06613270007074,416.9494024000596,417.06613270007074,417.04939360008575,None,c,1,417.04939360008575,None,1.018247699830681,,,,,,,pm2,2022_Apr_26_1137,training+cueing,2021.1.4,59.966562585562514,
Self.png,Friend,Self ,m,2.1,16,26,96,,,,,0,0,0,0,,,,,9,11,119,1,,,,,,,,,,,,,,,,,,,,,1.431,2.403,418.18927450012416,None,,,,,,,,,,,,,,,,,,,,418.7310320001561,419.2343660001643,0.505999679910019,1.0069333799183369,419.2176556000486,419.33440190018155,419.2176556000486,419.33440190018155,419.3176987001207,None,m,1,419.3176987001207,None,1.0380313999485224,,,,,,,pm2,2022_Apr_26_1137,training+cueing,2021.1.4,59.966562585562514,
,,,,,,,,,,,,0,0,0,0,,,,,,,,,,,,,,,,,,,,,,,,,,,,,,,,,,,,,,,,,,,,,,,,,,,,,,,,,,,,,,,,,,,0.00016302033327519894,None,,,,,pm2,2022_Apr_26_1137,training+cueing,2021.1.4,59.966562585562514,
Self.png,Friend,Self ,m,2.1,16,26,96,,,,,1,0,1,0,0,0,0,1,,,,,,,,,,,,,,,,,421.0028323000297,None,space,0.04039089987054467,2.0137679600156844,None,423.0539145001676,None,1.672,2.163,426.07071550004184,None,426.59948950004764,427.10668780002743,427.0900644999929,427.20674840011634,427.0900644999929,427.20674840011634,427.19005169998854,None,None,0,,427.19005169998854,None,428.89139200001955,None,,,,,,,,,,,,,,,,,,,,,,,,,,pm2,2022_Apr_26_1137,training+cueing,2021.1.4,59.966562585562514,
Friend.png,Friend,Friend,c,2,12,22,92,,,,,1,0,1,0,0,1,1,4,,,,,,,,,,,,,,,,,,,,,,,,,1.53,1.992,429.2916292999871,None,429.82070200005546,430.325794900069,430.3090347000398,430.4258077000268,430.3090347000398,430.4258077000268,430.4090670000296,None,None,0,,430.4090670000296,None,431.9437641000841,None,,,,,,,,,,,,,,,,,,,,,,,,,,pm2,2022_Apr_26_1137,training+cueing,2021.1.4,59.966562585562514,
Friend.png,Friend,Friend,c,2,12,22,92,,,,,1,0,1,0,0,2,2,10,,,,,,,,,,,,,,,,,,,,,,,,,1.427,1.703,432.3439421001822,None,432.8816943001002,433.3945687999949,433.3778673000634,433.4946571001783,433.3778673000634,433.4946571001783,433.4779416001402,None,None,0,,433.4779416001402,None,434.91291650012136,None,,,,,,,,,,,,,,,,,,,,,,,,,,pm2,2022_Apr_26_1137,training+cueing,2021.1.4,59.966562585562514,
Stranger.png,Friend,Stranger,m,2.3,17,27,97,,,,,1,0,1,0,0,3,3,7,,,,,,,,,,,,,,,,,,,,,,,,,1.429,1.891,435.31280079996213,None,435.85165530000813,436.3681694001425,436.34673430002294,436.4634687001817,436.34673430002294,436.4634687001817,436.4467044000048,None,None,0,,436.4467044000048,None,437.8812051001005,None,,,,,,,,,,,,,,,,,,,,,,,,,,pm2,2022_Apr_26_1137,training+cueing,2021.1.4,59.966562585562514,
Stranger.png,You,Stranger,m,1.3,15,25,95,,,,,1,0,1,0,0,4,4,6,,,,,,,,,,,,,,,,,,,,,,,,,1.664,1.734,438.28197070001625,None,438.81830340018496,439.3322395000141,439.31554690003395,439.41561909997836,439.31554690003395,439.41561909997836,439.41561909997836,None,None,0,,439.41561909997836,None,441.08355890004896,None,,,,,,,,,,,,,,,,,,,,,,,,,,pm2,2022_Apr_26_1137,training+cueing,2021.1.4,59.966562585562514,
Self.png,Stranger,Self ,m,3.1,18,28,98,,,,,1,0,1,0,0,5,5,2,,,,,,,,,,,,,,,,,,,,,,,,,1.565,2.465,441.48382230009884,None,442.0323698001448,442.53456440009177,442.5179167999886,442.6345941000618,442.5179167999886,442.6345941000618,442.6178727999795,None,c,0,0.44179670000448823,442.6178727999795,None,443.0849448000081,None,,,,,,,,,,,,,,,,,,,,,,,,,,pm2,2022_Apr_26_1137,training+cueing,2021.1.4,59.966562585562514,
Self.png,You,Self ,c,1,11,21,91,,,,,1,0,1,0,0,6,6,0,,,,,,,,,,,,,,,,,,,,,,,,,1.406,2.109,443.4851784000639,None,444.0149267001543,444.5193251001183,444.50260710017756,444.60266300011426,444.50260710017756,444.60266300011426,444.60266300011426,None,None,0,,444.60266300011426,None,446.02064600004815,None,,,,,,,,,,,,,,,,,,,,,,,,,,pm2,2022_Apr_26_1137,training+cueing,2021.1.4,59.966562585562514,
Friend.png,Stranger,Friend,m,3.2,19,29,99,,,,,1,0,1,0,0,7,7,5,,,,,,,,,,,,,,,,,,,,,,,,,1.703,1.664,446.42125110002235,None,446.97069109999575,447.4714864999987,447.45496260002255,447.5714784001466,447.45496260002255,447.5714784001466,447.55481320014223,None,None,0,,447.55481320014223,None,449.2727294000797,None,,,,,,,,,,,,,,,,,,,,,,,,,,pm2,2022_Apr_26_1137,training+cueing,2021.1.4,59.966562585562514,
Self.png,You,Self ,c,1,11,21,91,,,,,1,0,1,0,0,8,8,9,,,,,,,,,,,,,,,,,,,,,,,,,1.765,1.911,449.6730073001236,None,450.20304060005583,450.7071043001488,450.6904606001917,450.79052780009806,450.6904606001917,450.79052780009806,450.79052780009806,None,c,1,1.1011426001787186,450.79052780009806,None,451.90686230012216,None,,,,,,,,,,,,,,,,,,,,,,,,,,pm2,2022_Apr_26_1137,training+cueing,2021.1.4,59.966562585562514,
Stranger.png,Stranger,Stranger,c,3,13,23,93,,,,,1,0,1,0,0,9,9,11,,,,,,,,,,,,,,,,,,,,,,,,,1.73,1.251,452.30837340001017,None,452.8441572000738,453.35904710018076,453.34235609997995,453.45907040010206,453.34235609997995,453.45907040010206,453.4423669001553,None,m,0,0.8976751000154763,453.4423669001553,None,454.37281470000744,None,,,,,,,,,,,,,,,,,,,,,,,,,,pm2,2022_Apr_26_1137,training+cueing,2021.1.4,59.966562585562514,
Friend.png,You,Friend,m,1.2,14,24,94,,,,,1,0,1,0,0,10,10,3,,,,,,,,,,,,,,,,,,,,,,,,,1.435,2.18,454.7773337000981,None,455.3127381000668,455.8275238999631,455.810771800112,455.91088209999725,455.810771800112,455.91088209999725,455.91088209999725,None,m,1,0.9249352999031544,455.91088209999725,None,456.86875939997844,None,,,,,,,,,,,,,,,,,,,,,,,,,,pm2,2022_Apr_26_1137,training+cueing,2021.1.4,59.966562585562514,
Stranger.png,Stranger,Stranger,c,3,13,23,93,,,,,1,0,1,0,0,11,11,8,,,,,,,,,,,,,,,,,,,,,,,,,1.404,1.321,457.2786827001255,None,457.8181032000575,458.32929410017096,458.3125815000385,458.4293369001243,458.3125815000385,458.4293369001243,458.41263859998435,None,m,0,0.9668907001614571,458.41263859998435,None,459.3981630001217,None,,,,,,,,,,,,,,,,,,,,,,,,,,pm2,2022_Apr_26_1137,training+cueing,2021.1.4,59.966562585562514,
Friend.png,You,Friend,m,1.2,14,24,94,,,,,1,0,1,0,,,,,0,0,0,3,,,,,,,,,,,,,,,,,,,462.81602580007166,None,1.65,2.04,466.33758829999715,None,,,,,,,,,,,,,,,,459.8138162000105,None,0.014109359821304679,0.5122916598338634,466.87304960004985,467.38582710013725,0.5085733800660819,1.008880180073902,467.36913460004143,467.4691908999812,467.36913460004143,467.4691908999812,467.4691908999812,None,None,0,467.4691908999812,None,,,,,,,,pm2,2022_Apr_26_1137,training+cueing,2021.1.4,59.966562585562514,
Self.png,Friend,Self ,m,2.1,16,26,96,,,,,1,0,1,0,,,,,0,1,1,1,,,,,,,,,,,,,,,,,,,,,1.517,2.308,469.2255532001145,None,,,,,,,,,,,,,,,,,,,,469.7685557999648,470.27129780012183,0.5052575801964849,1.0055397800169885,470.2545878000092,470.37135160015896,470.2545878000092,470.37135160015896,470.3546137001831,None,m,1,470.3546137001831,None,0.6570532999467105,,,,,,,pm2,2022_Apr_26_1137,training+cueing,2021.1.4,59.966562585562514,
Stranger.png,Stranger,Stranger,c,3,13,23,93,,,,,1,0,1,0,,,,,0,2,2,8,,,,,,,,,,,,,,,,,,,,,1.679,1.271,471.1459067000542,None,,,,,,,,,,,,,,,,,,,,471.6852985001169,472.1892899000086,0.505209679948166,1.005509379785508,472.1726581000257,472.2893215001095,472.1726581000257,472.2893215001095,472.2726895001251,None,m,0,472.2726895001251,None,1.3147698999382555,,,,,,,pm2,2022_Apr_26_1137,training+cueing,2021.1.4,59.966562585562514,
Stranger.png,Friend,Stranger,m,2.3,17,27,97,,,,,1,0,1,0,,,,,0,3,3,7,,,,,,,,,,,,,,,,,,,,,1.551,2.165,473.7132836000528,None,,,,,,,,,,,,,,,,,,,,474.2543638001662,474.7578388999682,0.5076049799099565,1.0079139799345285,474.74119310011156,474.85787120019086,474.74119310011156,474.85787120019086,474.8412037000526,None,m,1,474.8412037000526,None,0.6183215999044478,,,,,,,pm2,2022_Apr_26_1137,training+cueing,2021.1.4,59.966562585562514,
Friend.png,Stranger,Friend,m,3.2,19,29,99,,,,,1,0,1,0,,,,,0,4,4,5,,,,,,,,,,,,,,,,,,,,,1.405,2.478,475.5813347999938,None,,,,,,,,,,,,,,,,,,,,476.13868650002405,476.64255530014634,0.5055564402136952,1.0058449401985854,476.62585159996524,476.74259280017577,476.62585159996524,476.74259280017577,476.7258884999901,None,m,1,476.7258884999901,None,1.0217659000772983,,,,,,,pm2,2022_Apr_26_1137,training+cueing,2021.1.4,59.966562585562514,
Stranger.png,Stranger,Stranger,c,3,13,23,93,,,,,1,0,1,0,,,,,0,5,5,11,,,,,,,,,,,,,,,,,,,,,1.601,2.322,477.88685840019025,None,,,,,,,,,,,,,,,,,,,,478.42288099997677,478.92749959998764,0.5096066799014807,1.0100127798505127,478.9108527000062,479.0275646999944,478.9108527000062,479.0275646999944,479.0109038001392,None,m,0,479.0109038001392,None,0.5287101999856532,,,,,,,pm2,2022_Apr_26_1137,training+cueing,2021.1.4,59.966562585562514,
Stranger.png,You,Stranger,m,1.3,15,25,95,,,,,1,0,1,0,,,,,0,6,6,6,,,,,,,,,,,,,,,,,,,,,1.792,1.279,479.6675844001584,None,,,,,,,,,,,,,,,,,,,,480.20882309996523,480.7121757999994,0.5060535799711943,1.0063720799516886,480.69544490007684,480.795509400079,480.69544490007684,480.795509400079,480.795509400079,None,m,1,480.795509400079,None,0.6960444999858737,,,,,,,pm2,2022_Apr_26_1137,training+cueing,2021.1.4,59.966562585562514,
Friend.png,Friend,Friend,c,2,12,22,92,,,,,1,0,1,0,,,,,0,7,7,4,,,,,,,,,,,,,,,,,,,,,1.445,1.97,481.6184424001258,None,,,,,,,,,,,,,,,,,,,,482.1596026001498,482.6635678000748,0.5061620799824595,1.0064208800904453,482.64686800003983,482.7636025000829,482.64686800003983,482.7636025000829,482.7469083999749,None,c,1,482.7469083999749,None,1.0486250000540167,,,,,,,pm2,2022_Apr_26_1137,training+cueing,2021.1.4,59.966562585562514,
Self.png,Stranger,Self ,m,3.1,18,28,98,,,,,1,0,1,0,,,,,0,8,8,2,,,,,,,,,,,,,,,,,,,,,1.587,2.285,483.92067470005713,None,,,,,,,,,,,,,,,,,,,,484.4612204001751,484.9657825999893,0.5076509797945619,1.0076526799239218,484.9489090000279,485.06530580017716,484.9489090000279,485.06530580017716,485.0486304999795,None,m,1,485.0486304999795,None,0.6189806999173015,,,,,,,pm2,2022_Apr_26_1137,training+cueing,2021.1.4,59.966562585562514,
Self.png,You,Self ,c,1,11,21,91,,,,,1,0,1,0,,,,,0,9,9,0,,,,,,,,,,,,,,,,,,,,,1.749,1.768,485.8057844999712,None,,,,,,,,,,,,,,,,,,,,486.36105680000037,486.86655770009384,0.5109995400998741,None,486.84995210007764,486.95002120011486,486.84995210007764,486.95002120011486,486.95002120011486,None,c,1,486.95002120011486,None,0.31754600000567734,,,,,,,pm2,2022_Apr_26_1137,training+cueing,2021.1.4,59.966562585562514,
Self.png,You,Self ,c,1,11,21,91,,,,,1,0,1,0,,,,,0,10,10,9,,,,,,,,,,,,,,,,,,,,,1.68,2.285,487.3897109001409,None,,,,,,,,,,,,,,,,,,,,487.92846770002507,488.43439569999464,0.5103297799360007,None,488.4176772001665,488.51774440007284,488.4176772001665,488.51774440007284,488.51774440007284,None,c,1,488.51774440007284,None,0.2699029000941664,,,,,,,pm2,2022_Apr_26_1137,training+cueing,2021.1.4,59.966562585562514,
Friend.png,Friend,Friend,c,2,12,22,92,,,,,1,0,1,0,,,,,0,11,11,10,,,,,,,,,,,,,,,,,,,,,1.458,1.459,488.92415630002506,None,,,,,,,,,,,,,,,,,,,,489.4635903001763,489.968802300049,0.5099947799462825,1.010300779948011,489.95218769996427,490.0688720000908,489.95218769996427,490.0688720000908,490.0521678000223,None,m,0,490.0521678000223,None,0.8153878999873996,,,,,,,pm2,2022_Apr_26_1137,training+cueing,2021.1.4,59.966562585562514,
Stranger.png,Stranger,Stranger,c,3,13,23,93,,,,,1,0,1,0,,,,,1,0,12,8,,,,,,,,,,,,,,,,,,,,,1.485,1.632,490.99209269997664,None,,,,,,,,,,,,,,,,,,,,491.55016350001097,492.0536405001767,0.5061086402274668,1.0064691402949393,492.0369722000323,492.15373690007254,492.0369722000323,492.15373690007254,492.1370733999647,None,m,0,492.1370733999647,None,0.7624855998437852,,,,,,,pm2,2022_Apr_26_1137,training+cueing,2021.1.4,59.966562585562514,
Friend.png,Stranger,Friend,m,3.2,19,29,99,,,,,1,0,1,0,,,,,1,1,13,5,,,,,,,,,,,,,,,,,,,,,1.664,2.209,493.026589400135,None,,,,,,,,,,,,,,,,,,,,493.56592359999195,494.07182060019113,0.5127124802675098,1.013007480185479,494.05510790017433,494.1718613000121,494.05510790017433,494.1718613000121,494.1551557001658,None,m,1,494.1551557001658,None,0.7124487000983208,,,,,,,pm2,2022_Apr_26_1137,training+cueing,2021.1.4,59.966562585562514,
Stranger.png,Friend,Stranger,m,2.3,17,27,97,,,,,1,0,1,0,,,,,1,2,14,7,,,,,,,,,,,,,,,,,,,,,1.66,2.045,494.9956338000484,None,,,,,,,,,,,,,,,,,,,,495.53775630006567,496.0400917001534,0.5056873799767345,1.0061958800069988,496.0232174000703,496.1401804999914,496.0232174000703,496.1401804999914,496.12354460009374,None,m,1,496.12354460009374,None,1.6086575000081211,,,,,,,pm2,2022_Apr_26_1137,training+cueing,2021.1.4,59.966562585562514,
Stranger.png,Stranger,Stranger,c,3,13,23,93,,,,,1,0,1,0,,,,,1,3,15,11,,,,,,,,,,,,,,,,,,,,,1.634,1.717,497.86492349999025,None,,,,,,,,,,,,,,,,,,,,498.4076811000705,498.9086478999816,0.5001772800460458,1.000722480006516,498.89194470015354,499.0087031000294,498.89194470015354,499.0087031000294,499.0087031000294,None,m,0,499.0087031000294,None,0.6269751000218093,,,,,,,pm2,2022_Apr_26_1137,training+cueing,2021.1.4,59.966562585562514,
Friend.png,Friend,Friend,c,2,12,22,92,,,,,1,0,1,0,,,,,1,4,16,4,,,,,,,,,,,,,,,,,,,,,1.677,2.38,499.76700190012343,None,,,,,,,,,,,,,,,,,,,,500.32779530016705,500.84334630006924,0.4997658401262015,1.0000308400485665,500.81003090017475,500.91008810000494,500.81003090017475,500.91008810000494,500.91008810000494,None,c,1,500.91008810000494,None,0.9334310998674482,,,,,,,pm2,2022_Apr_26_1137,training+cueing,2021.1.4,59.966562585562514,
Self.png,Stranger,Self ,m,3.1,18,28,98,,,,,1,0,1,0,,,,,1,5,17,2,,,,,,,,,,,,,,,,,,,,,1.482,1.564,501.96726429997943,None,,,,,,,,,,,,,,,,,,,,502.5099103001412,503.0116147999652,0.5048210797831416,1.0051033799536526,502.99490970000625,503.11163820000365,502.99490970000625,503.11163820000365,503.0949330001604,None,m,1,503.0949330001604,None,1.4366077999584377,,,,,,,pm2,2022_Apr_26_1137,training+cueing,2021.1.4,59.966562585562514,
Self.png,Friend,Self ,m,2.1,16,26,96,,,,,1,0,1,0,,,,,1,6,18,1,,,,,,,,,,,,,,,,,,,,,1.778,2.22,504.66893890011124,None,,,,,,,,,,,,,,,,,,,,505.20964760007337,505.71353269997053,0.5049654799513519,1.005163179943338,505.6969314001035,505.8136148999911,505.6969314001035,505.8136148999911,505.79690259997733,None,m,1,505.79690259997733,None,0.7664784002117813,,,,,,,pm2,2022_Apr_26_1137,training+cueing,2021.1.4,59.966562585562514,
Stranger.png,You,Stranger,m,1.3,15,25,95,,,,,1,0,1,0,,,,,1,7,19,6,,,,,,,,,,,,,,,,,,,,,1.713,2.313,506.6866864999756,None,,,,,,,,,,,,,,,,,,,,507.2277999999933,507.731702900026,0.5073929799254984,1.0076648800168186,507.71501340018585,507.8150912001729,507.71501340018585,507.8150912001729,507.8150912001729,None,c,0,507.8150912001729,None,0.5883621000684798,,,,,,,pm2,2022_Apr_26_1137,training+cueing,2021.1.4,59.966562585562514,
Friend.png,You,Friend,m,1.2,14,24,94,,,,,1,0,1,0,,,,,1,8,20,3,,,,,,,,,,,,,,,,,,,,,1.665,1.733,508.5383373000659,None,,,,,,,,,,,,,,,,,,,,509.09509790013544,509.59971039998345,0.5067673400044441,1.0070347401779145,509.58302750019357,509.6830598001834,509.58302750019357,509.6830598001834,509.6830598001834,None,m,1,509.6830598001834,None,0.9444868999999017,,,,,,,pm2,2022_Apr_26_1137,training+cueing,2021.1.4,59.966562585562514,
Self.png,You,Self ,c,1,11,21,91,,,,,1,0,1,0,,,,,1,9,21,0,,,,,,,,,,,,,,,,,,,,,1.484,1.361,510.7581818001345,None,,,,,,,,,,,,,,,,,,,,511.30799240013584,511.8179489001632,0.5023760800249875,1.002604880137369,511.8013032001909,511.9013355001807,511.8013032001909,511.9013355001807,511.9013355001807,None,c,1,511.9013355001807,None,0.5981167999561876,,,,,,,pm2,2022_Apr_26_1137,training+cueing,2021.1.4,59.966562585562514,
Self.png,You,Self ,c,1,11,21,91,,,,,1,0,1,0,,,,,1,10,22,9,,,,,,,,,,,,,,,,,,,,,1.416,1.711,512.6246746000834,None,,,,,,,,,,,,,,,,,,,,513.1639019001741,513.6692946001422,0.5111591799650341,1.011518680024892,513.6525737000629,513.7526553000789,513.6525737000629,513.7526553000789,513.7526553000789,None,c,1,513.7526553000789,None,0.5231027000118047,,,,,,,pm2,2022_Apr_26_1137,training+cueing,2021.1.4,59.966562585562514,
Friend.png,Friend,Friend,c,2,12,22,92,,,,,1,0,1,0,,,,,1,11,23,10,,,,,,,,,,,,,,,,,,,,,1.593,1.611,514.4130729001481,None,,,,,,,,,,,,,,,,,,,,514.952365900157,515.4540073000826,0.5024672800209373,1.002700180048123,515.4372803000733,515.5540085001849,515.4372803000733,515.5540085001849,515.5373001999687,None,m,0,515.5373001999687,None,1.2181313000619411,,,,,,,pm2,2022_Apr_26_1137,training+cueing,2021.1.4,59.966562585562514,
Self.png,You,Self ,c,1,11,21,91,,,,,1,0,1,0,,,,,2,0,24,0,,,,,,,,,,,,,,,,,,,,,1.663,2.051,516.877746200189,None,,,,,,,,,,,,,,,,,,,,517.4180234000087,517.9223685001489,0.5091711799614131,1.01003227988258,517.9057339001447,518.0057880000677,517.9057339001447,518.0057880000677,518.0057880000677,None,m,0,518.0057880000677,None,1.2137613000813872,,,,,,,pm2,2022_Apr_26_1137,training+cueing,2021.1.4,59.966562585562514,
Self.png,You,Self ,c,1,11,21,91,,,,,1,0,1,0,,,,,2,1,25,9,,,,,,,,,,,,,,,,,,,,,1.572,1.454,519.3467133000959,None,,,,,,,,,,,,,,,,,,,,519.8848345000297,520.3908832999878,0.5107115800492465,1.0110114798881114,520.3741370001808,520.4741636000108,520.3741370001808,520.4741636000108,520.4741636000108,None,m,0,520.4741636000108,None,0.4573695999570191,,,,,,,pm2,2022_Apr_26_1137,training+cueing,2021.1.4,59.966562585562514,
Stranger.png,You,Stranger,m,1.3,15,25,95,,,,,1,0,1,0,,,,,2,2,26,6,,,,,,,,,,,,,,,,,,,,,1.528,2.394,521.0640077001881,None,,,,,,,,,,,,,,,,,,,,521.6018532000016,522.1087789000012,0.5127431799191982,None,522.0920609000605,522.1921060001478,522.0920609000605,522.1921060001478,522.1921060001478,None,c,0,522.1921060001478,None,0.2754063999745995,,,,,,,pm2,2022_Apr_26_1137,training+cueing,2021.1.4,59.966562585562514,
Self.png,Friend,Self ,m,2.1,16,26,96,,,,,1,0,1,0,,,,,2,3,27,1,,,,,,,,,,,,,,,,,,,,,1.726,2.051,522.5992684999947,None,,,,,,,,,,,,,,,,,,,,523.1397063999902,523.6431534001604,0.5070853799115866,1.0074055797886103,523.6265352000482,523.7432411999907,523.6265352000482,523.7432411999907,523.7265616001096,None,m,1,523.7265616001096,None,0.8369397001806647,,,,,,,pm2,2022_Apr_26_1137,training+cueing,2021.1.4,59.966562585562514,
Friend.png,Stranger,Friend,m,3.2,19,29,99,,,,,1,0,1,0,,,,,2,4,28,5,,,,,,,,,,,,,,,,,,,,,1.601,1.99,524.7001271001063,None,,,,,,,,,,,,,,,,,,,,525.2393786001485,525.7447359999642,0.5082769799046218,1.008678879821673,525.7280527001712,525.8448479000945,525.7280527001712,525.8448479000945,525.8282081000507,None,None,0,525.8282081000507,None,,,,,,,,pm2,2022_Apr_26_1137,training+cueing,2021.1.4,59.966562585562514,
Stranger.png,Stranger,Stranger,c,3,13,23,93,,,,,1,0,1,0,,,,,2,5,29,8,,,,,,,,,,,,,,,,,,,,,1.6,2.482,527.5334628000855,None,,,,,,,,,,,,,,,,,,,,528.0737143000588,528.5800921001937,0.5140001801773906,1.0142896801698953,528.5634180000052,528.6801571000833,528.5634180000052,528.6801571000833,528.6634351999965,None,None,0,528.6634351999965,None,,,,,,,,pm2,2022_Apr_26_1137,training+cueing,2021.1.4,59.966562585562514,
Friend.png,Friend,Friend,c,2,12,22,92,,,,,1,0,1,0,,,,,2,6,30,10,,,,,,,,,,,,,,,,,,,,,1.788,2.216,530.3702903001104,None,,,,,,,,,,,,,,,,,,,,530.9241909000557,531.4322175001726,0.499554640147835,0.9997998401522636,531.3989079999737,531.4989702000748,531.3989079999737,531.4989702000748,531.4989702000748,None,c,1,531.4989702000748,None,0.7446107000578195,,,,,,,pm2,2022_Apr_26_1137,training+cueing,2021.1.4,59.966562585562514,
Self.png,Stranger,Self ,m,3.1,18,28,98,,,,,1,0,1,0,,,,,2,7,31,2,,,,,,,,,,,,,,,,,,,,,1.773,2.106,532.372587100137,None,,,,,,,,,,,,,,,,,,,,532.9128996999934,533.4169231001288,0.5047781800385565,1.0050825800281018,533.400225300109,533.5169802000746,533.400225300109,533.5169802000746,533.5002824000549,None,m,1,533.5002824000549,None,0.5991353001445532,,,,,,,pm2,2022_Apr_26_1137,training+cueing,2021.1.4,59.966562585562514,
Stranger.png,Stranger,Stranger,c,3,13,23,93,,,,,1,0,1,0,,,,,2,8,32,11,,,,,,,,,,,,,,,,,,,,,1.532,1.278,534.2238557999954,None,,,,,,,,,,,,,,,,,,,,534.7621149001643,535.2682944000699,0.5113032800145447,1.0117294800002128,535.2516066001263,535.3684529999737,535.2516066001263,535.3684529999737,535.3517332000192,None,m,0,535.3517332000192,None,1.323950899997726,,,,,,,pm2,2022_Apr_26_1137,training+cueing,2021.1.4,59.966562585562514,
Friend.png,You,Friend,m,1.2,14,24,94,,,,,1,0,1,0,,,,,2,9,33,3,,,,,,,,,,,,,,,,,,,,,1.654,1.893,536.8101011000108,None,,,,,,,,,,,,,,,,,,,,537.3499367001932,537.8534519001842,0.506965080043301,1.0072413799352944,537.8368075999897,537.9368118999992,537.8368075999897,537.9368118999992,537.9368118999992,None,m,1,537.9368118999992,None,1.5868240999989212,,,,,,,pm2,2022_Apr_26_1137,training+cueing,2021.1.4,59.966562585562514,
Friend.png,Friend,Friend,c,2,12,22,92,,,,,1,0,1,0,,,,,2,10,34,4,,,,,,,,,,,,,,,,,,,,,1.451,1.81,539.6620064000599,None,,,,,,,,,,,,,,,,,,,,540.2169509001542,540.7221967000514,0.5089127402752638,1.0097877401858568,540.7055681999773,540.8222542000003,540.7055681999773,540.8222542000003,540.8055916000158,None,c,1,540.8055916000158,None,0.8299786001443863,,,,,,,pm2,2022_Apr_26_1137,training+cueing,2021.1.4,59.966562585562514,
Stranger.png,Friend,Stranger,m,2.3,17,27,97,,,,,1,0,1,0,,,,,2,11,35,7,,,,,,,,,,,,,,,,,,,,,1.4,2.088,541.7636391001288,None,,,,,,,,,,,,,,,,,,,,542.302284500096,542.8070903001353,0.5104232800658792,1.0107090801466256,542.7903708000667,542.9071232001297,542.7903708000667,542.9071232001297,542.8904603000265,None,m,1,542.8904603000265,None,1.256995900068432,,,,,,,pm2,2022_Apr_26_1137,training+cueing,2021.1.4,59.966562585562514,
Friend.png,Friend,Friend,c,2,12,22,92,,,,,1,0,1,0,,,,,3,0,36,10,,,,,,,,,,,,,,,,,,,,,1.758,1.246,544.2811390999705,None,,,,,,,,,,,,,,,,,,,,544.818835800048,545.3255177000538,0.5107514797709882,1.0111645797733217,545.3088625001255,545.425582600059,545.3088625001255,545.425582600059,545.4089320001658,None,c,1,545.4089320001658,None,0.7385067001450807,,,,,,,pm2,2022_Apr_26_1137,training+cueing,2021.1.4,59.966562585562514,
Self.png,You,Self ,c,1,11,21,91,,,,,1,0,1,0,,,,,3,1,37,0,,,,,,,,,,,,,,,,,,,,,1.745,1.37,546.282358800061,None,,,,,,,,,,,,,,,,,,,,546.831833000062,547.3436324000359,0.5063120799604803,1.0065765799954534,547.3270159000531,547.4270566999912,547.3270159000531,547.4270566999912,547.4270566999912,None,c,1,547.4270566999912,None,0.8323735001031309,,,,,,,pm2,2022_Apr_26_1137,training+cueing,2021.1.4,59.966562585562514,
Stranger.png,Friend,Stranger,m,2.3,17,27,97,,,,,1,0,1,0,,,,,3,2,38,7,,,,,,,,,,,,,,,,,,,,,1.747,1.284,548.3843494001776,None,,,,,,,,,,,,,,,,,,,,548.9253965001553,549.4284894000739,0.5065427797380835,1.0068680797703564,549.4117956999689,549.5285720000975,549.4117956999689,549.5285720000975,549.511856400175,None,m,1,549.511856400175,None,1.5796387000009418,,,,,,,pm2,2022_Apr_26_1137,training+cueing,2021.1.4,59.966562585562514,
Friend.png,Stranger,Friend,m,3.2,19,29,99,,,,,1,0,1,0,,,,,3,3,39,5,,,,,,,,,,,,,,,,,,,,,1.686,2.113,551.2193671001587,None,,,,,,,,,,,,,,,,,,,,551.7609652001411,552.2639600001276,0.5040729797910899,1.0043468798976392,552.2472102001775,552.3647157000378,552.2472102001775,552.3647157000378,552.3472570001613,None,c,0,552.3472570001613,None,1.0481044999323785,,,,,,,pm2,2022_Apr_26_1137,training+cueing,2021.1.4,59.966562585562514,
Stranger.png,Stranger,Stranger,c,3,13,23,93,,,,,1,0,1,0,,,,,3,4,40,11,,,,,,,,,,,,,,,,,,,,,1.703,2.061,553.5208984001074,None,,,,,,,,,,,,,,,,,,,,554.0590331000276,554.5655765000265,0.5123922796919942,1.0126667798031121,554.5488850001711,554.6656142000575,554.5488850001711,554.6656142000575,554.6489189001732,None,m,0,554.6489189001732,None,1.4025665000081062,,,,,,,pm2,2022_Apr_26_1137,training+cueing,2021.1.4,59.966562585562514,
Self.png,Stranger,Self ,m,3.1,18,28,98,,,,,1,0,1,0,,,,,3,5,41,2,,,,,,,,,,,,,,,,,,,,,1.478,1.274,556.189802700188,None,,,,,,,,,,,,,,,,,,,,556.7280262000859,557.2341263999697,0.5112024801783264,1.011474580038339,557.217498900136,557.3344211999793,557.217498900136,557.3344211999793,557.3177583999932,None,m,1,557.3177583999932,None,1.2297023001592606,,,,,,,pm2,2022_Apr_26_1137,training+cueing,2021.1.4,59.966562585562514,
Stranger.png,Stranger,Stranger,c,3,13,23,93,,,,,1,0,1,0,,,,,3,6,42,8,,,,,,,,,,,,,,,,,,,,,1.748,2.333,558.6750642000698,None,,,,,,,,,,,,,,,,,,,,559.2139195001218,559.7193136999849,0.5088529798667878,1.0091589798685163,559.7026009000838,559.8193594000768,559.7026009000838,559.8193594000768,559.8026054000948,None,m,0,559.8026054000948,None,1.5128275000024587,,,,,,,pm2,2022_Apr_26_1137,training+cueing,2021.1.4,59.966562585562514,
Stranger.png,You,Stranger,m,1.3,15,25,95,,,,,1,0,1,0,,,,,3,7,43,6,,,,,,,,,,,,,,,,,,,,,1.582,2.144,561.4439237001352,None,,,,,,,,,,,,,,,,,,,,561.9848440999631,562.4879821001086,0.5066607799381018,1.00702168000862,562.4712820001878,562.5713329000864,562.4712820001878,562.5713329000864,562.5713329000864,None,m,1,562.5713329000864,None,1.1120990000199527,,,,,,,pm2,2022_Apr_26_1137,training+cueing,2021.1.4,59.966562585562514,
Friend.png,You,Friend,m,1.2,14,24,94,,,,,1,0,1,0,,,,,3,8,44,3,,,,,,,,,,,,,,,,,,,,,1.667,2.324,563.8113061999902,None,,,,,,,,,,,,,,,,,,,,564.3491557000671,564.8563379000407,0.5111721800640225,1.0114903799258173,564.8396650000941,564.9397261000704,564.8396650000941,564.9397261000704,564.9397261000704,None,m,1,564.9397261000704,None,1.1597342998720706,,,,,,,pm2,2022_Apr_26_1137,training+cueing,2021.1.4,59.966562585562514,
Self.png,Friend,Self ,m,2.1,16,26,96,,,,,1,0,1,0,,,,,3,9,45,1,,,,,,,,,,,,,,,,,,,,,1.669,2.058,566.2300959001295,None,,,,,,,,,,,,,,,,,,,,566.7725045001134,567.274723800132,0.5043315801303834,1.0046605800744146,567.2580804000609,567.3747801000718,567.2580804000609,567.3747801000718,567.3581291001756,None,m,1,567.3581291001756,None,1.1093142998870462,,,,,,,pm2,2022_Apr_26_1137,training+cueing,2021.1.4,59.966562585562514,
Self.png,You,Self ,c,1,11,21,91,,,,,1,0,1,0,,,,,3,10,46,9,,,,,,,,,,,,,,,,,,,,,1.432,1.705,568.5987710000481,None,,,,,,,,,,,,,,,,,,,,569.1506084001157,569.6597989001311,0.5015903799794614,1.0018390798941255,569.6431289000902,569.7431456001941,569.6431289000902,569.7431456001941,569.7431456001941,None,c,1,569.7431456001941,None,0.596338199917227,,,,,,,pm2,2022_Apr_26_1137,training+cueing,2021.1.4,59.966562585562514,
Friend.png,Friend,Friend,c,2,12,22,92,,,,,1,0,1,0,,,,,3,11,47,4,,,,,,,,,,,,,,,,,,,,,1.634,1.386,570.4661068001296,None,,,,,,,,,,,,,,,,,,,,571.0075793999713,571.511188399978,0.5047169798053801,1.004969379864633,571.4945034000557,571.6112008001655,571.4945034000557,571.6112008001655,571.5945413000882,None,c,1,571.5945413000882,None,1.5451927999965847,,,,,,,pm2,2022_Apr_26_1137,training+cueing,2021.1.4,59.966562585562514,
Stranger.png,You,Stranger,m,1.3,15,25,95,,,,,1,0,1,0,,,,,4,0,48,6,,,,,,,,,,,,,,,,,,,,,1.643,1.324,573.2719175000675,None,,,,,,,,,,,,,,,,,,,,573.8118026000448,574.3133599001449,0.5036901799030602,1.0039432800840586,574.2965206000954,574.3965666000731,574.2965206000954,574.3965666000731,574.3965666000731,None,m,1,574.3965666000731,None,0.7748994000721723,,,,,,,pm2,2022_Apr_26_1137,training+cueing,2021.1.4,59.966562585562514,
Self.png,You,Self ,c,1,11,21,91,,,,,1,0,1,0,,,,,4,1,49,9,,,,,,,,,,,,,,,,,,,,,1.424,1.902,575.3032293000724,None,,,,,,,,,,,,,,,,,,,,575.841842800146,576.3479722000193,0.5113681796938181,1.0116694797761738,576.3312768000178,576.4313256000169,576.3312768000178,576.4313256000169,576.4313256000169,None,m,0,576.4313256000169,None,1.2041974000167102,,,,,,,pm2,2022_Apr_26_1137,training+cueing,2021.1.4,59.966562585562514,
Self.png,Stranger,Self ,m,3.1,18,28,98,,,,,1,0,1,0,,,,,4,2,50,2,,,,,,,,,,,,,,,,,,,,,1.487,1.694,577.7728242999874,None,,,,,,,,,,,,,,,,,,,,578.3148337001912,578.8164195001591,0.5026169798802584,1.0030005800072104,578.7997401000466,578.916520900093,578.7997401000466,578.916520900093,578.8998364000581,None,m,1,578.8998364000581,None,0.8798105998430401,,,,,,,pm2,2022_Apr_26_1137,training+cueing,2021.1.4,59.966562585562514,
Friend.png,Stranger,Friend,m,3.2,19,29,99,,,,,1,0,1,0,,,,,4,3,51,5,,,,,,,,,,,,,,,,,,,,,1.595,1.907,579.9101189000066,None,,,,,,,,,,,,,,,,,,,,580.4477200000547,580.9513546000235,0.5065269800834358,1.006843380164355,580.9346352000721,581.0513908001594,580.9346352000721,581.0513908001594,581.0346860000864,None,m,1,581.0346860000864,None,1.1607856000773609,,,,,,,pm2,2022_Apr_26_1137,training+cueing,2021.1.4,59.966562585562514,
Stranger.png,Stranger,Stranger,c,3,13,23,93,,,,,1,0,1,0,,,,,4,4,52,8,,,,,,,,,,,,,,,,,,,,,1.682,1.826,582.325385000091,None,,,,,,,,,,,,,,,,,,,,582.8635680000298,583.3697381000966,0.5107099800370634,1.010949080111459,583.3530842000619,583.4697635001503,583.3530842000619,583.4697635001503,583.4530953001231,None,c,1,583.4530953001231,None,1.3982086000032723,,,,,,,pm2,2022_Apr_26_1137,training+cueing,2021.1.4,59.966562585562514,
Self.png,You,Self ,c,1,11,21,91,,,,,1,0,1,0,,,,,4,5,53,0,,,,,,,,,,,,,,,,,,,,,1.489,2.314,584.9766441001557,None,,,,,,,,,,,,,,,,,,,,585.518595200032,586.0216791001149,0.506436979630962,1.0066958796232939,586.0050045000389,586.1050203000195,586.0050045000389,586.1050203000195,586.1050203000195,None,c,1,586.1050203000195,None,0.7304603001102805,,,,,,,pm2,2022_Apr_26_1137,training+cueing,2021.1.4,59.966562585562514,
Friend.png,Friend,Friend,c,2,12,22,92,,,,,1,0,1,0,,,,,4,6,54,4,,,,,,,,,,,,,,,,,,,,,1.446,1.881,586.9627441000193,None,,,,,,,,,,,,,,,,,,,,587.5025188000873,588.0065455001313,0.5072730798274279,1.0075679798610508,587.9898688001558,588.1066116001457,587.9898688001558,588.1066116001457,588.089911499992,None,c,1,588.089911499992,None,1.0016318000853062,,,,,,,pm2,2022_Apr_26_1137,training+cueing,2021.1.4,59.966562585562514,
Self.png,Friend,Self ,m,2.1,16,26,96,,,,,1,0,1,0,,,,,4,7,55,1,,,,,,,,,,,,,,,,,,,,,1.575,2.009,589.214056600118,None,,,,,,,,,,,,,,,,,,,,589.7499619000591,590.25804230012,0.5138780800625682,1.0140822799876332,590.2413741000928,590.3580703001935,590.2413741000928,590.3580703001935,590.3413782001007,None,m,1,590.3413782001007,None,1.038015800062567,,,,,,,pm2,2022_Apr_26_1137,training+cueing,2021.1.4,59.966562585562514,
Stranger.png,Stranger,Stranger,c,3,13,23,93,,,,,1,0,1,0,,,,,4,8,56,11,,,,,,,,,,,,,,,,,,,,,1.472,2.084,591.5159326000139,None,,,,,,,,,,,,,,,,,,,,592.0580548001453,592.5596798001789,0.5045403800904751,1.0048463800922036,592.543025100138,592.6597251000348,592.543025100138,592.6597251000348,592.6430440000258,None,m,0,592.6430440000258,None,1.1363286999985576,,,,,,,pm2,2022_Apr_26_1137,training+cueing,2021.1.4,59.966562585562514,
Friend.png,Friend,Friend,c,2,12,22,92,,,,,1,0,1,0,,,,,4,9,57,10,,,,,,,,,,,,,,,,,,,,,1.704,1.753,593.9165670000948,None,,,,,,,,,,,,,,,,,,,,594.478586200159,594.978245300008,0.49933674023486674,0.9996213403064758,594.9615117001813,595.0784881000873,594.9615117001813,595.0784881000873,595.0784881000873,None,c,1,595.0784881000873,None,0.7170116999186575,,,,,,,pm2,2022_Apr_26_1137,training+cueing,2021.1.4,59.966562585562514,
Stranger.png,Friend,Stranger,m,2.3,17,27,97,,,,,1,0,1,0,,,,,4,10,58,7,,,,,,,,,,,,,,,,,,,,,1.643,1.785,595.9188637000043,None,,,,,,,,,,,,,,,,,,,,596.4590181000531,596.9630810001399,0.5053266801405698,1.0056271799840033,596.9461883001495,597.0629351001699,596.9461883001495,597.0629351001699,597.0462237000465,None,m,1,597.0462237000465,None,0.9251084998250008,,,,,,,pm2,2022_Apr_26_1137,training+cueing,2021.1.4,59.966562585562514,
Friend.png,You,Friend,m,1.2,14,24,94,,,,,1,0,1,0,,,,,4,11,59,3,,,,,,,,,,,,,,,,,,,,,1.704,2.062,598.1034643000457,None,,,,,,,,,,,,,,,,,,,,598.6424599001184,599.1477704001591,0.5102927801199257,1.0106107802130282,599.1311235001776,599.2311834001448,599.1311235001776,599.2311834001448,599.2311834001448,None,m,1,599.2311834001448,None,0.7081907000392675,,,,,,,pm2,2022_Apr_26_1137,training+cueing,2021.1.4,59.966562585562514,
Stranger.png,Stranger,Stranger,c,3,13,23,93,,,,,1,0,1,0,,,,,5,0,60,8,,,,,,,,,,,,,,,,,,,,,1.755,1.288,600.071016700007,None,,,,,,,,,,,,,,,,,,,,600.6121843000874,601.1158684999682,0.5051620800513774,1.005464080022648,601.0992389000021,601.2159247000236,601.0992389000021,601.2159247000236,601.1992562001105,None,m,0,601.1992562001105,None,1.4121043998748064,,,,,,,pm2,2022_Apr_26_1137,training+cueing,2021.1.4,59.966562585562514,
Self.png,You,Self ,c,1,11,21,91,,,,,1,0,1,0,,,,,5,1,61,9,,,,,,,,,,,,,,,,,,,,,1.677,1.579,602.7401723000221,None,,,,,,,,,,,,,,,,,,,,603.2806200999767,603.7845505999867,0.507268579909578,1.007525379769504,603.7678317001555,603.8678503001574,603.7678317001555,603.8678503001574,603.8678503001574,None,c,1,603.8678503001574,None,0.7595486000645906,,,,,,,pm2,2022_Apr_26_1137,training+cueing,2021.1.4,59.966562585562514,
Self.png,Friend,Self ,m,2.1,16,26,96,,,,,1,0,1,0,,,,,5,2,62,1,,,,,,,,,,,,,,,,,,,,,1.583,1.769,604.7581720000599,None,,,,,,,,,,,,,,,,,,,,605.3006510999985,605.8026290000416,0.5055074798874557,1.0057117799296975,605.7859643001575,605.9026672001928,605.7859643001575,605.9026672001928,605.8859566000756,None,m,1,605.8859566000756,None,0.66140849981457,,,,,,,pm2,2022_Apr_26_1137,training+cueing,2021.1.4,59.966562585562514,
Friend.png,Friend,Friend,c,2,12,22,92,,,,,1,0,1,0,,,,,5,3,63,4,,,,,,,,,,,,,,,,,,,,,1.557,1.464,606.6761915001553,None,,,,,,,,,,,,,,,,,,,,607.2142682999838,607.7206802000292,0.5108745798934251,1.0110586797818542,607.7040578001179,607.8207432001363,607.7040578001179,607.8207432001363,607.8040265999734,None,m,0,607.8040265999734,None,0.759378899820149,,,,,,,pm2,2022_Apr_26_1137,training+cueing,2021.1.4,59.966562585562514,
Friend.png,You,Friend,m,1.2,14,24,94,,,,,1,0,1,0,,,,,5,4,64,3,,,,,,,,,,,,,,,,,,,,,1.714,1.949,608.6941529000178,None,,,,,,,,,,,,,,,,,,,,609.2472924001049,609.7554397000931,0.4998564796987921,1.000145779689774,609.7388298001606,609.8388533000834,609.7388298001606,609.8388533000834,609.8388533000834,None,m,1,609.8388533000834,None,0.7087044999934733,,,,,,,pm2,2022_Apr_26_1137,training+cueing,2021.1.4,59.966562585562514,
Stranger.png,You,Stranger,m,1.3,15,25,95,,,,,1,0,1,0,,,,,5,5,65,6,,,,,,,,,,,,,,,,,,,,,1.449,1.536,610.6803526000585,None,,,,,,,,,,,,,,,,,,,,611.2206098001916,611.723553400021,0.5070528800133616,1.0073478799313307,611.7068938000593,611.80695810006,611.7068938000593,611.80695810006,611.80695810006,None,m,1,611.80695810006,None,1.0924116999376565,,,,,,,pm2,2022_Apr_26_1137,training+cueing,2021.1.4,59.966562585562514,
Self.png,You,Self ,c,1,11,21,91,,,,,1,0,1,0,,,,,5,6,66,0,,,,,,,,,,,,,,,,,,,,,1.457,1.274,613.030993900029,None,,,,,,,,,,,,,,,,,,,,613.5861890001688,614.0919314001221,0.5094444402493536,1.0097419400699437,614.075254800031,614.175349800149,614.075254800031,614.175349800149,614.175349800149,None,c,1,614.175349800149,None,0.6759651999454945,,,,,,,pm2,2022_Apr_26_1137,training+cueing,2021.1.4,59.966562585562514,
Friend.png,Friend,Friend,c,2,12,22,92,,,,,1,0,1,0,,,,,5,7,67,10,,,,,,,,,,,,,,,,,,,,,1.782,2.332,614.9819341001566,None,,,,,,,,,,,,,,,,,,,,615.5224972001743,616.026677899994,0.5081016798503697,1.0084101799875498,616.0100037001539,616.1267554000951,616.0100037001539,616.1267554000951,616.1100155999884,None,c,1,616.1100155999884,None,0.8533634000923485,,,,,,,pm2,2022_Apr_26_1137,training+cueing,2021.1.4,59.966562585562514,
Friend.png,Stranger,Friend,m,3.2,19,29,99,,,,,1,0,1,0,,,,,5,8,68,5,,,,,,,,,,,,,,,,,,,,,1.578,1.922,617.1002033001278,None,,,,,,,,,,,,,,,,,,,,617.6415234000888,618.1449268001597,0.5042690800037235,1.0045566798653454,618.128196200123,618.2449480001815,618.128196200123,618.2449480001815,618.2282383001875,None,m,1,618.2282383001875,None,0.6711077000945807,,,,,,,pm2,2022_Apr_26_1137,training+cueing,2021.1.4,59.966562585562514,
Self.png,Stranger,Self ,m,3.1,18,28,98,,,,,1,0,1,0,,,,,5,9,69,2,,,,,,,,,,,,,,,,,,,,,1.402,1.614,619.0349548000377,None,,,,,,,,,,,,,,,,,,,,619.5739436000586,620.0795972000342,0.5109154800884426,1.0112523802090436,620.0628735001665,620.1796800000593,620.0628735001665,620.1796800000593,620.1629421000835,None,m,1,620.1629421000835,None,0.976554200053215,,,,,,,pm2,2022_Apr_26_1137,training+cueing,2021.1.4,59.966562585562514,
Stranger.png,Friend,Stranger,m,2.3,17,27,97,,,,,1,0,1,0,,,,,5,10,70,7,,,,,,,,,,,,,,,,,,,,,1.789,1.855,621.2710015000775,None,,,,,,,,,,,,,,,,,,,,621.8119248000439,622.3145579001866,0.5048253799322993,1.0051267798990011,622.297868900001,622.4146865999792,622.297868900001,622.4146865999792,622.3979017001111,None,c,0,622.3979017001111,None,1.0294845001772046,,,,,,,pm2,2022_Apr_26_1137,training+cueing,2021.1.4,59.966562585562514,
Stranger.png,Stranger,Stranger,c,3,13,23,93,,,,,1,0,1,0,,,,,5,11,71,11,,,,,,,,,,,,,,,,,,,,,1.584,1.244,623.5553031000309,None,,,,,,,,,,,,,,,,,,,,624.0968369001057,624.5995444001164,0.5043522801715881,1.00475248019211,624.5829020000529,624.7001422001049,624.5829020000529,624.7001422001049,624.6829357000533,None,m,0,624.6829357000533,None,0.6483986000530422,,,,,,,pm2,2022_Apr_26_1137,training+cueing,2021.1.4,59.966562585562514,
Friend.png,Friend,Friend,c,2,12,22,92,,,,,1,0,1,0,,,,,6,0,72,10,,,,,,,,,,,,,,,,,,,,,1.439,2.181,625.4579273001291,None,,,,,,,,,,,,,,,,,,,,625.9988568001427,626.5009324001148,0.5041787796653807,1.0044847796671093,626.484235299984,626.6010207000654,626.484235299984,626.6010207000654,626.5843035001308,None,c,1,626.5843035001308,None,0.9229854000732303,,,,,,,pm2,2022_Apr_26_1137,training+cueing,2021.1.4,59.966562585562514,
Friend.png,Friend,Friend,c,2,12,22,92,,,,,1,0,1,0,,,,,6,1,73,4,,,,,,,,,,,,,,,,,,,,,1.414,2.08,627.6410656000953,None,,,,,,,,,,,,,,,,,,,,628.1953071001917,628.7027498001698,0.5153097403235734,1.0156070403754711,628.6859691001009,628.8027258999646,628.6859691001009,628.8027258999646,628.786009500036,None,m,0,628.786009500036,None,1.0414529000408947,,,,,,,pm2,2022_Apr_26_1137,training+cueing,2021.1.4,59.966562585562514,
Friend.png,You,Friend,m,1.2,14,24,94,,,,,1,0,1,0,,,,,6,2,74,3,,,,,,,,,,,,,,,,,,,,,1.712,1.622,629.9610254000872,None,,,,,,,,,,,,,,,,,,,,630.5025814000983,631.0041245999746,0.5024662800133228,1.0027481799479574,630.9875539999921,631.0875778000336,630.9875539999921,631.0875778000336,631.0875778000336,None,m,1,631.0875778000336,None,1.1077717000152916,,,,,,,pm2,2022_Apr_26_1137,training+cueing,2021.1.4,59.966562585562514,
Stranger.png,Stranger,Stranger,c,3,13,23,93,,,,,1,0,1,0,,,,,6,3,75,8,,,,,,,,,,,,,,,,,,,,,1.479,1.641,632.3281646000687,None,,,,,,,,,,,,,,,,,,,,632.8705705001485,633.3725370001048,0.504341279854998,1.0046294797211885,633.3558774001431,633.4725826999638,633.3558774001431,633.4725826999638,633.4559168000706,None,None,0,633.4559168000706,None,,,,,,,,pm2,2022_Apr_26_1137,training+cueing,2021.1.4,59.966562585562514,
Self.png,Friend,Self ,m,2.1,16,26,96,,,,,1,0,1,0,,,,,6,4,76,1,,,,,,,,,,,,,,,,,,,,,1.544,1.507,635.0445298000704,None,,,,,,,,,,,,,,,,,,,,635.5879657000769,636.0911533001345,0.5050345798954368,1.0052375798113644,636.074580400018,636.191208000062,636.074580400018,636.191208000062,636.1745418000501,None,m,1,636.1745418000501,None,0.8848119000904262,,,,,,,pm2,2022_Apr_26_1137,training+cueing,2021.1.4,59.966562585562514,
Self.png,You,Self ,c,1,11,21,91,,,,,1,0,1,0,,,,,6,5,77,9,,,,,,,,,,,,,,,,,,,,,1.468,1.796,637.1811501001939,None,,,,,,,,,,,,,,,,,,,,637.7223372000735,638.2260663001798,0.5071415798738599,1.007569279987365,638.2093585999683,638.3094047000632,638.2093585999683,638.3094047000632,638.3094047000632,None,c,1,638.3094047000632,None,0.3978649000637233,,,,,,,pm2,2022_Apr_26_1137,training+cueing,2021.1.4,59.966562585562514,
Stranger.png,You,Stranger,m,1.3,15,25,95,,,,,1,0,1,0,,,,,6,6,78,6,,,,,,,,,,,,,,,,,,,,,1.491,1.958,638.8326928000897,None,,,,,,,,,,,,,,,,,,,,639.3711541001685,639.8772781000007,0.5108642799314111,None,639.8605690000113,639.9606066001579,639.8605690000113,639.9606066001579,639.9606066001579,None,c,0,639.9606066001579,None,0.3627851998899132,,,,,,,pm2,2022_Apr_26_1137,training+cueing,2021.1.4,59.966562585562514,
Friend.png,Stranger,Friend,m,3.2,19,29,99,,,,,1,0,1,0,,,,,6,7,79,5,,,,,,,,,,,,,,,,,,,,,1.673,1.792,640.450654100161,None,,,,,,,,,,,,,,,,,,,,640.992813100107,641.4951155001763,0.5032493800390512,1.0035069801378995,641.4784250999801,641.5951055001933,641.4784250999801,641.5951055001933,641.5784499000292,None,m,1,641.5784499000292,None,1.5449026999995112,,,,,,,pm2,2022_Apr_26_1137,training+cueing,2021.1.4,59.966562585562514,
Self.png,Stranger,Self ,m,3.1,18,28,98,,,,,1,0,1,0,,,,,6,8,80,2,,,,,,,,,,,,,,,,,,,,,1.441,1.929,643.252748100087,None,,,,,,,,,,,,,,,,,,,,643.7901018001139,644.2971177999862,0.5141848800703883,1.0147160799242556,644.2804257001262,644.3971729001496,644.2804257001262,644.3971729001496,644.3804481001571,None,m,1,644.3804481001571,None,0.8869961998425424,,,,,,,pm2,2022_Apr_26_1137,training+cueing,2021.1.4,59.966562585562514,
Self.png,You,Self ,c,1,11,21,91,,,,,1,0,1,0,,,,,6,9,81,0,,,,,,,,,,,,,,,,,,,,,1.768,2.476,645.4047817001119,None,,,,,,,,,,,,,,,,,,,,645.945272800047,646.4487523001153,0.5064944799523801,1.0067506798077375,646.4320369001944,646.5320684001781,646.4320369001944,646.5320684001781,646.5320684001781,None,c,1,646.5320684001781,None,0.6073024999350309,,,,,,,pm2,2022_Apr_26_1137,training+cueing,2021.1.4,59.966562585562514,
Stranger.png,Friend,Stranger,m,2.3,17,27,97,,,,,1,0,1,0,,,,,6,10,82,7,,,,,,,,,,,,,,,,,,,,,1.619,2.011,647.2715716999955,None,,,,,,,,,,,,,,,,,,,,647.8117762000766,648.3166881001089,0.5072761799674481,1.0075922799296677,648.2999627001118,648.4167440000456,648.2999627001118,648.4167440000456,648.4000262999907,None,m,1,648.4000262999907,None,1.267277100123465,,,,,,,pm2,2022_Apr_26_1137,training+cueing,2021.1.4,59.966562585562514,
Stranger.png,Stranger,Stranger,c,3,13,23,93,,,,,1,0,1,0,,,,,6,11,83,11,,,,,,,,,,,,,,,,,,,,,1.651,1.802,649.7907569999807,None,,,,,,,,,,,,,,,,,,,,650.3469856001902,650.851881199982,0.5098748400341719,1.0101824400480837,650.8351943001617,650.951963200001,650.8351943001617,650.951963200001,650.9352305000648,None,m,0,650.9352305000648,None,0.6842904998920858,,,,,,,pm2,2022_Apr_26_1137,training+cueing,2021.1.4,59.966562585562514,
Stranger.png,Friend,Stranger,m,2.3,17,27,97,,,,,1,0,1,0,,,,,7,0,84,7,,,,,,,,,,,,,,,,,,,,,1.798,1.287,651.7418269000482,None,,,,,,,,,,,,,,,,,,,,652.28337560012,652.7866402000654,0.5045335800386965,1.0050060800276697,652.7698829001747,652.8866161999758,652.7698829001747,652.8866161999758,652.8699664999731,None,m,1,652.8699664999731,None,1.5013721000868827,,,,,,,pm2,2022_Apr_26_1137,training+cueing,2021.1.4,59.966562585562514,
