Image,Name,Face,CorrAns,Match,Face_onset,CResponse_onset,IResponse_onset,Match.thisRepN,Match.thisTrialN,Match.thisN,Match.thisIndex,Blocks.thisRepN,Blocks.thisTrialN,Blocks.thisN,Blocks.thisIndex,trials.thisRepN,trials.thisTrialN,trials.thisN,trials.thisIndex,trials_2.thisRepN,trials_2.thisTrialN,trials_2.thisN,trials_2.thisIndex,text.started,text.stopped,p1.started,p1.stopped,MatchInstructions.started,MatchInstructions.stopped,Name1.started,Name1.stopped,Face_Relevance.started,Face_Relevance.stopped,MismatchInstructions.started,MismatchInstructions.stopped,Rest_trainingInstruct.started,Rest_trainingInstruct.stopped,next8.keys,next8.rt,next8.started,next8.stopped,Ready.started,Ready.stopped,delay_one_picked,delay_two_picked,blank0.started,blank0.stopped,FixationCross1.started,FixationCross1.stopped,Name3.started,Name3.stopped,Face_Relevance3.started,Face_Relevance3.stopped,responseTime.started,responseTime.stopped,resp.keys,resp.corr,resp.rt,resp.started,resp.stopped,Accuracy.started,Accuracy.stopped,questions.started,questions.stopped,p2.started,p2.stopped,FixationCross3.started,FixationCross3.stopped,port_Face_onset.started,port_Face_onset.stopped,Name4.started,Name4.stopped,Face_Relevance4.started,Face_Relevance4.stopped,responseTime2.started,responseTime2.stopped,Response.keys,Response.corr,Response.rt,Response.started,Response.stopped,p3.started,p3.stopped,Finish.started,Finish.stopped,gender,age,participant,date,expName,psychopyVersion,frameRate,
Self.png,You,,,,,,,0,0,0,0,,,,,,,,,,,,,11.00486859981902,None,0.0046755599323660135,0.5256871599704027,12.995029899990186,None,15.1361256998498,None,15.1361256998498,None,,,,,,,,,,,,,,,,,,,,,,,,,,,,,,,,,,,,,,,,,,,,,,,,,,,,,,,po2,2022_Apr_08_1200,training+cueing,2021.1.4,59.929870020470986,
Stranger.png,Stranger,,,,,,,0,1,1,2,,,,,,,,,,,,,,,,,,,35.05529489996843,None,35.05529489996843,None,,,,,,,,,,,,,,,,,,,,,,,,,,,,,,,,,,,,,,,,,,,,,,,,,,,,,,,po2,2022_Apr_08_1200,training+cueing,2021.1.4,59.929870020470986,
Friend.png,Friend,,,,,,,0,2,2,1,,,,,,,,,,,,,,,,,,,55.041778799844906,None,55.041778799844906,None,,,,,,,,,,,,,,,,,,,,,,,,,,,,,,,,,,,,,,,,,,,,,,,,,,,,,,,po2,2022_Apr_08_1200,training+cueing,2021.1.4,59.929870020470986,
Self.png,You,Self ,c,1,11,21,91,,,,,0,0,0,0,0,0,0,9,,,,,,,,,,,,,,,75.0066592998337,None,77.12491779983975,None,space,-0.19237320008687675,2.0072574799414724,None,79.12653379980475,None,1.645,2.058,82.13538019987755,None,82.76275399979204,83.2628138998989,83.2628138998989,83.36267929989845,83.2628138998989,83.36267929989845,83.36267929989845,None,c,1,0.7227064999751747,83.36267929989845,None,84.11306569981389,None,,,,,,,,,,,,,,,,,,,,,,,,,,po2,2022_Apr_08_1200,training+cueing,2021.1.4,59.929870020470986,
Stranger.png,You,Stranger,m,1.3,15,25,95,,,,,0,0,0,0,0,1,1,6,,,,,,,,,,,,,,,,,,,,,,,,,1.446,1.563,84.51349099981599,None,85.04111150000244,85.54762869980186,85.53095079981722,85.63099679979496,85.53095079981722,85.63099679979496,85.63099679979496,None,m,1,1.142438700189814,85.63099679979496,None,86.79855139995925,None,,,,,,,,,,,,,,,,,,,,,,,,,,po2,2022_Apr_08_1200,training+cueing,2021.1.4,59.929870020470986,
Friend.png,You,Friend,m,1.2,14,24,94,,,,,0,0,0,0,0,2,2,3,,,,,,,,,,,,,,,,,,,,,,,,,1.562,1.335,87.19878099998459,None,87.72567269997671,88.23286719992757,88.21620929986238,88.3162672999315,88.21620929986238,88.3162672999315,88.3162672999315,None,m,1,0.7771115000359714,88.3162672999315,None,89.11692009982653,None,,,,,,,,,,,,,,,,,,,,,,,,,,po2,2022_Apr_08_1200,training+cueing,2021.1.4,59.929870020470986,
Friend.png,Friend,Friend,c,2,12,22,92,,,,,0,0,0,0,0,3,3,10,,,,,,,,,,,,,,,,,,,,,,,,,1.688,1.238,89.51716659986414,None,90.0460609998554,90.55124209984206,90.5345416998025,90.6512664000038,90.5345416998025,90.6512664000038,90.63451819983311,None,c,1,0.6028944998979568,90.63451819983311,None,91.26845350000076,None,,,,,,,,,,,,,,,,,,,,,,,,,,po2,2022_Apr_08_1200,training+cueing,2021.1.4,59.929870020470986,
Stranger.png,Stranger,Stranger,c,3,13,23,93,,,,,0,0,0,0,0,4,4,8,,,,,,,,,,,,,,,,,,,,,,,,,1.488,2.137,91.66883949982002,None,92.20613750000484,92.71947529981844,92.7028276999481,92.81951759988442,92.7028276999481,92.81951759988442,92.80280559998937,None,m,0,0.6746216998435557,92.80280559998937,None,93.50344649981707,None,,,,,,,,,,,,,,,,,,,,,,,,,,po2,2022_Apr_08_1200,training+cueing,2021.1.4,59.929870020470986,
Self.png,Friend,Self ,m,2.1,16,26,96,,,,,0,0,0,0,0,5,5,1,,,,,,,,,,,,,,,,,,,,,,,,,1.68,2.361,93.90362029988319,None,94.4324793999549,94.9376750998199,94.92105849995278,95.03777899988927,94.92105849995278,95.03777899988927,95.02107169991359,None,c,0,0.39228789997287095,95.02107169991359,None,95.43807669985108,None,,,,,,,,,,,,,,,,,,,,,,,,,,po2,2022_Apr_08_1200,training+cueing,2021.1.4,59.929870020470986,
Stranger.png,Stranger,Stranger,c,3,13,23,93,,,,,0,0,0,0,0,6,6,11,,,,,,,,,,,,,,,,,,,,,,,,,1.434,2.013,95.83895259979181,None,96.38474669982679,96.88913279981352,96.87250569998287,96.98976399982348,96.87250569998287,96.98976399982348,96.97305829985999,None,c,1,0.26432389998808503,96.97305829985999,None,97.25792399980128,None,,,,,,,,,,,,,,,,,,,,,,,,,,po2,2022_Apr_08_1200,training+cueing,2021.1.4,59.929870020470986,
Stranger.png,Friend,Stranger,m,2.3,17,27,97,,,,,0,0,0,0,0,7,7,7,,,,,,,,,,,,,,,,,,,,,,,,,1.6,1.487,97.67321509984322,None,98.20890149986371,98.72382029984146,98.70712079992518,98.82441179989837,98.70712079992518,98.82441179989837,98.80718319979496,None,m,1,0.6542072000447661,98.80718319979496,None,99.49110779981129,None,,,,,,,,,,,,,,,,,,,,,,,,,,po2,2022_Apr_08_1200,training+cueing,2021.1.4,59.929870020470986,
Self.png,Stranger,Self ,m,3.1,18,28,98,,,,,0,0,0,0,0,8,8,2,,,,,,,,,,,,,,,,,,,,,,,,,1.474,2.235,99.89129599998705,None,100.41963679995388,100.92539280001074,100.90871669980697,101.02542969980277,100.90871669980697,101.02542969980277,101.00875599985011,None,c,0,0.5645685000345111,101.00875599985011,None,101.59306799992919,None,,,,,,,,,,,,,,,,,,,,,,,,,,po2,2022_Apr_08_1200,training+cueing,2021.1.4,59.929870020470986,
Self.png,You,Self ,c,1,11,21,91,,,,,0,0,0,0,0,9,9,0,,,,,,,,,,,,,,,,,,,,,,,,,1.771,2.154,101.99280839995481,None,102.52230969979428,103.02692299988121,103.010228500003,103.11025219992734,103.010228500003,103.11025219992734,103.11025219992734,None,m,0,0.17514849989674985,103.11025219992734,None,103.31047949986532,None,,,,,,,,,,,,,,,,,,,,,,,,,,po2,2022_Apr_08_1200,training+cueing,2021.1.4,59.929870020470986,
Friend.png,Stranger,Friend,m,3.2,19,29,99,,,,,0,0,0,0,0,10,10,5,,,,,,,,,,,,,,,,,,,,,,,,,1.592,1.869,103.71073819999583,None,104.24046109989285,104.74483649991453,104.72815079987049,104.84484639996663,104.72815079987049,104.84484639996663,104.82815449987538,None,c,0,0.21719230012968183,104.82815449987538,None,105.06174999987707,None,,,,,,,,,,,,,,,,,,,,,,,,,,po2,2022_Apr_08_1200,training+cueing,2021.1.4,59.929870020470986,
Friend.png,Friend,Friend,c,2,12,22,92,,,,,0,0,0,0,0,11,11,4,,,,,,,,,,,,,,,,,,,,,,,,,1.64,1.841,105.46199519978836,None,105.99056839989498,106.49607389979064,106.47940939990804,106.59611379983835,106.47940939990804,106.59611379983835,106.57942470000125,None,c,1,0.14594279997982085,106.57942470000125,None,106.74494110001251,None,,,,,,,,,,,,,,,,,,,,,,,,,,po2,2022_Apr_08_1200,training+cueing,2021.1.4,59.929870020470986,
Self.png,You,Self ,c,1,11,21,91,,,,,0,0,0,0,,,,,0,0,0,0,,,,,,,,,,,,,,,,,,,110.14890089980327,None,1.547,1.965,113.67237009992823,None,,,,,,,,,,,,,,,,107.14661019993946,None,0.014502480160444975,0.5133315799757838,114.28728879988194,114.80208870000206,0.5106313398573548,1.0109449396841228,114.78543219994754,114.88546479982324,114.78543219994754,114.88546479982324,114.88546479982324,None,c,1,0.6558228000067174,114.88546479982324,None,,,,,,,po2,2022_Apr_08_1200,training+cueing,2021.1.4,59.929870020470986,
Stranger.png,Friend,Stranger,m,2.3,17,27,97,,,,,0,0,0,0,,,,,0,1,1,7,,,,,,,,,,,,,,,,,,,,,1.656,1.432,115.67684969981201,None,,,,,,,,,,,,,,,,,,,,116.21593299997039,116.72016669996083,0.5080907398369163,1.0083954399451613,116.70344650000334,116.8202045999933,116.70344650000334,116.8202045999933,116.80348089989275,None,c,0,0.7379234000109136,116.80348089989275,None,,,,,,,po2,2022_Apr_08_1200,training+cueing,2021.1.4,59.929870020470986,
Stranger.png,Stranger,Stranger,c,3,13,23,93,,,,,0,0,0,0,,,,,0,2,2,11,,,,,,,,,,,,,,,,,,,,,1.637,1.238,117.67708619986661,None,,,,,,,,,,,,,,,,,,,,118.21624420001172,118.72160319983959,0.511030739871785,None,118.70494089997374,118.82165089994669,118.70494089997374,118.82165089994669,118.80493799992837,None,m,0,0.35240800003521144,118.80493799992837,None,,,,,,,po2,2022_Apr_08_1200,training+cueing,2021.1.4,59.929870020470986,
Self.png,Friend,Self ,m,2.1,16,26,96,,,,,0,0,0,0,,,,,0,3,3,1,,,,,,,,,,,,,,,,,,,,,1.752,2.232,119.29522899980657,None,,,,,,,,,,,,,,,,,,,,119.83302509994246,120.3394196999725,0.5111615399364382,1.0114238399546593,120.32277569989674,120.43947129999287,120.32277569989674,120.43947129999287,120.42278599995188,None,c,0,1.4386079001706094,120.42278599995188,None,,,,,,,po2,2022_Apr_08_1200,training+cueing,2021.1.4,59.929870020470986,
Self.png,You,Self ,c,1,11,21,91,,,,,0,0,0,0,,,,,0,4,4,9,,,,,,,,,,,,,,,,,,,,,1.754,1.947,121.99481389997527,None,,,,,,,,,,,,,,,,,,,,122.53554899990559,123.04139679996297,0.5103043399285525,None,123.0247191998642,123.12476859986782,123.0247191998642,123.12476859986782,123.12476859986782,None,m,0,0.19261599984019995,123.12476859986782,None,,,,,,,po2,2022_Apr_08_1200,training+cueing,2021.1.4,59.929870020470986,
Friend.png,Stranger,Friend,m,3.2,19,29,99,,,,,0,0,0,0,,,,,0,5,5,5,,,,,,,,,,,,,,,,,,,,,1.796,1.315,123.44797599990852,None,,,,,,,,,,,,,,,,,,,,123.99164799996652,124.4924280999694,0.5017933398485184,1.002072739880532,124.47575939982198,124.5925088999793,124.47575939982198,124.5925088999793,124.5925088999793,None,c,0,0.5648753000423312,124.5925088999793,None,,,,,,,po2,2022_Apr_08_1200,training+cueing,2021.1.4,59.929870020470986,
Stranger.png,Stranger,Stranger,c,3,13,23,93,,,,,0,0,0,0,,,,,0,6,6,8,,,,,,,,,,,,,,,,,,,,,1.432,2.291,125.28274989989586,None,,,,,,,,,,,,,,,,,,,,125.8174691000022,126.32709059980698,0.5012579599861056,None,126.31042939983308,126.42714119981974,126.31042939983308,126.42714119981974,126.42714119981974,None,m,0,0.23428050009533763,126.42714119981974,None,,,,,,,po2,2022_Apr_08_1200,training+cueing,2021.1.4,59.929870020470986,
Self.png,Stranger,Self ,m,3.1,18,28,98,,,,,0,0,0,0,,,,,0,7,7,2,,,,,,,,,,,,,,,,,,,,,1.65,1.615,126.78364569996484,None,,,,,,,,,,,,,,,,,,,,127.31958849984221,127.82816159981303,0.5004720601718873,1.0007588602602482,127.8115083000157,127.92822709982283,127.8115083000157,127.92822709982283,127.92822709982283,None,c,0,0.6851611998863518,127.92822709982283,None,,,,,,,po2,2022_Apr_08_1200,training+cueing,2021.1.4,59.929870020470986,
Stranger.png,You,Stranger,m,1.3,15,25,95,,,,,0,0,0,0,,,,,0,8,8,6,,,,,,,,,,,,,,,,,,,,,1.48,1.942,128.73505949997343,None,,,,,,,,,,,,,,,,,,,,129.2725077997893,129.77958309999667,0.5111138399224728,None,129.76293520000763,129.86295849992894,129.76293520000763,129.86295849992894,129.86295849992894,None,c,0,0.17439519986510277,129.86295849992894,None,,,,,,,po2,2022_Apr_08_1200,training+cueing,2021.1.4,59.929870020470986,
Friend.png,Friend,Friend,c,2,12,22,92,,,,,0,0,0,0,,,,,0,9,9,10,,,,,,,,,,,,,,,,,,,,,1.625,1.99,130.16945399995893,None,,,,,,,,,,,,,,,,,,,,130.7085341999773,131.2139885998331,0.5107381399720907,1.0112887399736792,131.19729729997925,131.31404499989003,131.19729729997925,131.31404499989003,131.29733999981545,None,m,0,0.7080384001601487,131.29733999981545,None,,,,,,,po2,2022_Apr_08_1200,training+cueing,2021.1.4,59.929870020470986,
Friend.png,Friend,Friend,c,2,12,22,92,,,,,0,0,0,0,,,,,0,10,10,4,,,,,,,,,,,,,,,,,,,,,1.592,1.465,132.13921869988553,None,,,,,,,,,,,,,,,,,,,,132.67491770000197,133.18203529994935,0.5140485400334001,None,133.16537429997697,133.28231209982187,133.16537429997697,133.28231209982187,133.2654311999213,None,c,1,0.24398090015165508,133.2654311999213,None,,,,,,,po2,2022_Apr_08_1200,training+cueing,2021.1.4,59.929870020470986,
Friend.png,You,Friend,m,1.2,14,24,94,,,,,0,0,0,0,,,,,0,11,11,3,,,,,,,,,,,,,,,,,,,,,1.451,1.587,133.63817259995267,None,,,,,,,,,,,,,,,,,,,,134.1755873998627,134.68308499990962,0.5127993400674313,None,134.6664530998096,134.7664965998847,134.6664530998096,134.7664965998847,134.7664965998847,None,c,0,0.2948759999126196,134.7664965998847,None,,,,,,,po2,2022_Apr_08_1200,training+cueing,2021.1.4,59.929870020470986,
Self.png,You,Self ,c,1,11,21,91,,,,,0,0,0,0,,,,,1,0,12,0,,,,,,,,,,,,,,,,,,,,,1.752,2.185,135.18918400001712,None,,,,,,,,,,,,,,,,,,,,135.72492599999532,136.23424599994905,0.501449660398066,None,136.2175856998656,136.31764919986017,136.2175856998656,136.31764919986017,136.31764919986017,None,m,0,0.26379460003226995,136.31764919986017,None,,,,,,,po2,2022_Apr_08_1200,training+cueing,2021.1.4,59.929870020470986,
Stranger.png,Stranger,Stranger,c,3,13,23,93,,,,,0,0,0,0,,,,,1,1,13,11,,,,,,,,,,,,,,,,,,,,,1.464,1.807,136.70696669979952,None,,,,,,,,,,,,,,,,,,,,137.2457896999549,137.7520368997939,0.5119770399760455,None,137.735316199949,137.8521304000169,137.735316199949,137.8521304000169,137.8353547998704,None,c,1,0.3620525998994708,137.8353547998704,None,,,,,,,po2,2022_Apr_08_1200,training+cueing,2021.1.4,59.929870020470986,
Friend.png,Friend,Friend,c,2,12,22,92,,,,,0,0,0,0,,,,,1,2,14,10,,,,,,,,,,,,,,,,,,,,,1.7,2.477,138.3250613999553,None,,,,,,,,,,,,,,,,,,,,138.86275739991106,139.36991349980235,0.5118969399482012,None,139.3532040999271,139.4699222999625,139.3532040999271,139.4699222999625,139.45321249985136,None,c,1,0.18424780014902353,139.45321249985136,None,,,,,,,po2,2022_Apr_08_1200,training+cueing,2021.1.4,59.929870020470986,
Stranger.png,Friend,Stranger,m,2.3,17,27,97,,,,,0,0,0,0,,,,,1,3,15,7,,,,,,,,,,,,,,,,,,,,,1.78,1.997,139.75949359987862,None,,,,,,,,,,,,,,,,,,,,140.29611419979483,140.80419619986787,0.4999554397072643,None,140.77086999989115,140.87092239991762,140.77086999989115,140.87092239991762,140.87092239991762,None,m,1,0.2065054001286626,140.87092239991762,None,,,,,,,po2,2022_Apr_08_1200,training+cueing,2021.1.4,59.929870020470986,
Stranger.png,Stranger,Stranger,c,3,13,23,93,,,,,0,0,0,0,,,,,1,4,16,8,,,,,,,,,,,,,,,,,,,,,1.591,1.286,141.21070840000175,None,,,,,,,,,,,,,,,,,,,,141.749624799937,142.25530770001933,0.5097204397898167,None,142.23861689982004,142.3553628998343,142.23861689982004,142.3553628998343,142.3386059999466,None,c,1,0.19479239988140762,142.3386059999466,None,,,,,,,po2,2022_Apr_08_1200,training+cueing,2021.1.4,59.929870020470986,
Friend.png,Friend,Friend,c,2,12,22,92,,,,,0,0,0,0,,,,,1,5,17,4,,,,,,,,,,,,,,,,,,,,,1.508,1.633,142.661262499867,None,,,,,,,,,,,,,,,,,,,,143.1997278998606,143.7063851999119,0.5124616399407387,None,143.6896583000198,143.80639979988337,143.6896583000198,143.80639979988337,143.78967439988628,None,c,1,0.13574810000136495,143.78967439988628,None,,,,,,,po2,2022_Apr_08_1200,training+cueing,2021.1.4,59.929870020470986,
Self.png,Stranger,Self ,m,3.1,18,28,98,,,,,0,0,0,0,,,,,1,6,18,2,,,,,,,,,,,,,,,,,,,,,1.547,2.312,144.06218859995715,None,,,,,,,,,,,,,,,,,,,,144.6046668998897,145.10735860001296,0.5050375401042402,None,145.09069380001165,145.2073993999511,145.09069380001165,145.2073993999511,145.19068240001798,None,m,1,0.2226285000797361,145.19068240001798,None,,,,,,,po2,2022_Apr_08_1200,training+cueing,2021.1.4,59.929870020470986,
Friend.png,You,Friend,m,1.2,14,24,94,,,,,0,0,0,0,,,,,1,7,19,3,,,,,,,,,,,,,,,,,,,,,1.633,2.093,145.5473061997909,None,,,,,,,,,,,,,,,,,,,,146.0841647000052,146.59174499986693,0.5130859399214387,None,146.57510349992663,146.67513299989514,146.57510349992663,146.67513299989514,146.67513299989514,None,c,0,0.06626749993301928,146.67513299989514,None,,,,,,,po2,2022_Apr_08_1200,training+cueing,2021.1.4,59.929870020470986,
Stranger.png,You,Stranger,m,1.3,15,25,95,,,,,0,0,0,0,,,,,1,8,20,6,,,,,,,,,,,,,,,,,,,,,1.713,1.522,146.86472680000588,None,,,,,,,,,,,,,,,,,,,,147.40074489987455,147.90935559989884,0.5008767601102591,None,147.89269469981082,147.99274669983424,147.89269469981082,147.99274669983424,147.99274669983424,None,c,0,0.1726407001260668,147.99274669983424,None,,,,,,,po2,2022_Apr_08_1200,training+cueing,2021.1.4,59.929870020470986,
Self.png,You,Self ,c,1,11,21,91,,,,,0,0,0,0,,,,,1,9,21,9,,,,,,,,,,,,,,,,,,,,,1.598,1.316,148.299276500009,None,,,,,,,,,,,,,,,,,,,,148.83488449989818,149.34378120000474,0.5009253600146621,None,149.32717429986224,149.4271399998106,149.32717429986224,149.4271399998106,149.4271399998106,None,m,0,0.1622653000522405,149.4271399998106,None,,,,,,,po2,2022_Apr_08_1200,training+cueing,2021.1.4,59.929870020470986,
Self.png,Friend,Self ,m,2.1,16,26,96,,,,,0,0,0,0,,,,,1,10,22,1,,,,,,,,,,,,,,,,,,,,,1.513,2.147,149.71663649985567,None,,,,,,,,,,,,,,,,,,,,150.25410939985886,150.7614480999764,0.5119310398586094,None,150.7448010998778,150.86146899987943,150.7448010998778,150.86146899987943,150.84477099985816,None,m,1,0.2166548001114279,150.84477099985816,None,,,,,,,po2,2022_Apr_08_1200,training+cueing,2021.1.4,59.929870020470986,
Friend.png,Stranger,Friend,m,3.2,19,29,99,,,,,0,0,0,0,,,,,1,11,23,5,,,,,,,,,,,,,,,,,,,,,1.615,1.703,151.1847108998336,None,,,,,,,,,,,,,,,,,,,,151.72411299985833,152.22918059979565,0.5108108397107571,None,152.21248119999655,152.3292064999696,152.21248119999655,152.3292064999696,152.31250319979154,None,c,0,0.12487270007841289,152.31250319979154,None,,,,,,,po2,2022_Apr_08_1200,training+cueing,2021.1.4,59.929870020470986,
Friend.png,Friend,Friend,c,2,12,22,92,,,,,0,0,0,0,,,,,2,0,24,4,,,,,,,,,,,,,,,,,,,,,1.665,1.822,152.56841870001517,None,,,,,,,,,,,,,,,,,,,,153.10641089989804,153.61347559979185,0.5121444398537278,None,153.59682479989715,153.71353599987924,153.59682479989715,153.71353599987924,153.69684299989603,None,c,1,0.10054689995013177,153.69684299989603,None,,,,,,,po2,2022_Apr_08_1200,training+cueing,2021.1.4,59.929870020470986,
Friend.png,Stranger,Friend,m,3.2,19,29,99,,,,,0,0,0,0,,,,,2,1,25,5,,,,,,,,,,,,,,,,,,,,,1.652,1.792,153.9193078998942,None,,,,,,,,,,,,,,,,,,,,154.45860539982095,154.9644597999286,0.5118240399751812,None,154.94781869999133,155.0644841999747,154.94781869999133,155.0644841999747,155.04780569998547,None,m,1,0.18954489985480905,155.04780569998547,None,,,,,,,po2,2022_Apr_08_1200,training+cueing,2021.1.4,59.929870020470986,
Stranger.png,Stranger,Stranger,c,3,13,23,93,,,,,0,0,0,0,,,,,2,2,26,11,,,,,,,,,,,,,,,,,,,,,1.644,1.554,155.37080359994434,None,,,,,,,,,,,,,,,,,,,,155.9065759999212,156.41553819994442,0.5006675601471215,None,156.3988578999415,156.5155889999587,156.3988578999415,156.5155889999587,156.5155889999587,None,c,1,0.11372120003215969,156.5155889999587,None,,,,,,,po2,2022_Apr_08_1200,training+cueing,2021.1.4,59.929870020470986,
Stranger.png,You,Stranger,m,1.3,15,25,95,,,,,0,0,0,0,,,,,2,3,27,6,,,,,,,,,,,,,,,,,,,,,1.559,2.07,156.754986200016,None,,,,,,,,,,,,,,,,,,,,157.29343670001253,157.79986729985103,0.5113401398994029,1.011614739894867,157.78322310000658,157.88321509980597,157.78322310000658,157.88321509980597,157.88321509980597,None,m,1,1.3061798999551684,157.88321509980597,None,,,,,,,po2,2022_Apr_08_1200,training+cueing,2021.1.4,59.929870020470986,
Friend.png,Friend,Friend,c,2,12,22,92,,,,,0,0,0,0,,,,,2,4,28,10,,,,,,,,,,,,,,,,,,,,,1.679,1.642,159.3241679999046,None,,,,,,,,,,,,,,,,,,,,159.8621083998587,160.3683956998866,0.5124881400261074,None,160.35172059992328,160.46839930000715,160.35172059992328,160.46839930000715,160.45174449984916,None,m,0,0.04966669995337725,160.45174449984916,None,,,,,,,po2,2022_Apr_08_1200,training+cueing,2021.1.4,59.929870020470986,
Self.png,Friend,Self ,m,2.1,16,26,96,,,,,0,0,0,0,,,,,2,5,29,1,,,,,,,,,,,,,,,,,,,,,1.716,2.21,160.62421699985862,None,,,,,,,,,,,,,,,,,,,,161.15995339979418,161.66938439989462,0.5007456599269062,None,161.6526569998823,161.76935169985518,161.6526569998823,161.76935169985518,161.76935169985518,None,c,0,0.22006199997849762,161.76935169985518,None,,,,,,,po2,2022_Apr_08_1200,training+cueing,2021.1.4,59.929870020470986,
Self.png,Stranger,Self ,m,3.1,18,28,98,,,,,0,0,0,0,,,,,2,6,30,2,,,,,,,,,,,,,,,,,,,,,1.487,1.98,162.12592729995959,None,,,,,,,,,,,,,,,,,,,,162.6635739998892,163.17040860000998,0.5111121400259435,None,163.15374979982153,163.270442500012,163.15374979982153,163.270442500012,163.25378829985857,None,c,0,0.2875541001558304,163.25378829985857,None,,,,,,,po2,2022_Apr_08_1200,training+cueing,2021.1.4,59.929870020470986,
Stranger.png,Stranger,Stranger,c,3,13,23,93,,,,,0,0,0,0,,,,,2,7,31,8,,,,,,,,,,,,,,,,,,,,,1.567,2.402,163.6769512000028,None,,,,,,,,,,,,,,,,,,,,164.21314649982378,164.72154309996404,0.5005892601329833,None,164.7048648998607,164.82157839997672,164.7048648998607,164.82157839997672,164.82157839997672,None,m,0,0.17585070012137294,164.82157839997672,None,,,,,,,po2,2022_Apr_08_1200,training+cueing,2021.1.4,59.929870020470986,
Stranger.png,Friend,Stranger,m,2.3,17,27,97,,,,,0,0,0,0,,,,,2,8,32,7,,,,,,,,,,,,,,,,,,,,,1.639,1.214,165.1283224998042,None,,,,,,,,,,,,,,,,,,,,165.66517799999565,166.17257619998418,0.5123428399674594,None,166.15590079990216,166.2726174998097,166.15590079990216,166.2726174998097,166.25592569983564,None,c,0,0.14943320001475513,166.25592569983564,None,,,,,,,po2,2022_Apr_08_1200,training+cueing,2021.1.4,59.929870020470986,
Friend.png,You,Friend,m,1.2,14,24,94,,,,,0,0,0,0,,,,,2,9,33,3,,,,,,,,,,,,,,,,,,,,,1.552,2.34,166.5292310998775,None,,,,,,,,,,,,,,,,,,,,167.06670379987918,167.57357160001993,0.5136178398970515,None,167.55692999996245,167.65696970000863,167.55692999996245,167.65696970000863,167.65696970000863,None,m,1,0.15643619978800416,167.65696970000863,None,,,,,,,po2,2022_Apr_08_1200,training+cueing,2021.1.4,59.929870020470986,
Self.png,You,Self ,c,1,11,21,91,,,,,0,0,0,0,,,,,2,10,34,9,,,,,,,,,,,,,,,,,,,,,1.65,2.094,167.94634639983997,None,,,,,,,,,,,,,,,,,,,,168.48267009994015,168.9912839999888,0.5011534602381289,1.0014308602549136,168.97463199985214,169.07465789979324,168.97463199985214,169.07465789979324,169.07465789979324,None,c,1,0.6587396000977606,169.07465789979324,None,,,,,,,po2,2022_Apr_08_1200,training+cueing,2021.1.4,59.929870020470986,
Self.png,You,Self ,c,1,11,21,91,,,,,0,0,0,0,,,,,2,11,35,0,,,,,,,,,,,,,,,,,,,,,1.517,1.464,169.87046339991502,None,,,,,,,,,,,,,,,,,,,,170.40023939986713,170.90938409999944,0.5000854399986565,None,170.87599699990824,170.97602669987828,170.87599699990824,170.97602669987828,170.97602669987828,None,c,1,0.22939469991251826,170.97602669987828,None,,,,,,,po2,2022_Apr_08_1200,training+cueing,2021.1.4,59.929870020470986,
Stranger.png,Stranger,Stranger,c,3,13,23,93,,,,,0,0,0,0,,,,,3,0,36,8,,,,,,,,,,,,,,,,,,,,,1.751,2.338,171.3322741999291,None,,,,,,,,,,,,,,,,,,,,171.87122779991478,172.3770404998213,0.511138639645651,None,172.36038819979876,172.47712559998035,172.36038819979876,172.47712559998035,172.46060330001637,None,m,0,0.20081249997019768,172.46060330001637,None,,,,,,,po2,2022_Apr_08_1200,training+cueing,2021.1.4,59.929870020470986,
Self.png,You,Self ,c,1,11,21,91,,,,,0,0,0,0,,,,,3,1,37,0,,,,,,,,,,,,,,,,,,,,,1.418,1.718,172.78355149994604,None,,,,,,,,,,,,,,,,,,,,173.3219496998936,173.82811919995584,0.5122766396962106,None,173.81146549992263,173.91149559989572,173.81146549992263,173.91149559989572,173.91149559989572,None,c,1,0.14190189982764423,173.91149559989572,None,,,,,,,po2,2022_Apr_08_1200,training+cueing,2021.1.4,59.929870020470986,
Self.png,You,Self ,c,1,11,21,91,,,,,0,0,0,0,,,,,3,2,38,9,,,,,,,,,,,,,,,,,,,,,1.656,2.41,174.1847237998154,None,,,,,,,,,,,,,,,,,,,,174.7197061998304,175.22911309986375,0.4999331401195377,None,175.19576839986257,175.29587129992433,175.19576839986257,175.29587129992433,175.29587129992433,None,c,1,0.08558700000867248,175.29587129992433,None,,,,,,,po2,2022_Apr_08_1200,training+cueing,2021.1.4,59.929870020470986,
Friend.png,Stranger,Friend,m,3.2,19,29,99,,,,,0,0,0,0,,,,,3,3,39,5,,,,,,,,,,,,,,,,,,,,,1.539,2.367,175.51884649996646,None,,,,,,,,,,,,,,,,,,,,176.0577111998573,176.56344569986686,0.5121338397730142,None,176.5467697000131,176.66348099987954,176.5467697000131,176.66348099987954,176.6467970998492,None,c,0,0.3026197999715805,176.6467970998492,None,,,,,,,po2,2022_Apr_08_1200,training+cueing,2021.1.4,59.929870020470986,
Self.png,Friend,Self ,m,2.1,16,26,96,,,,,0,0,0,0,,,,,3,4,40,1,,,,,,,,,,,,,,,,,,,,,1.665,1.504,177.08685710001737,None,,,,,,,,,,,,,,,,,,,,177.62368879979476,178.13123349985108,0.5121594399679452,1.0126661399845034,178.11454899981618,178.23184869997203,178.11454899981618,178.23184869997203,178.2145691998303,None,None,0,,178.2145691998303,None,,,,,,,po2,2022_Apr_08_1200,training+cueing,2021.1.4,59.929870020470986,
Stranger.png,Friend,Stranger,m,2.3,17,27,97,,,,,0,0,0,0,,,,,3,5,41,7,,,,,,,,,,,,,,,,,,,,,1.56,1.324,179.98680719989352,None,,,,,,,,,,,,,,,,,,,,180.5244789000135,181.0333083998412,0.5001226398162544,None,180.9999874997884,181.10004699998535,180.9999874997884,181.10004699998535,181.10004699998535,None,m,1,0.20138749992474914,181.10004699998535,None,,,,,,,po2,2022_Apr_08_1200,training+cueing,2021.1.4,59.929870020470986,
Stranger.png,You,Stranger,m,1.3,15,25,95,,,,,0,0,0,0,,,,,3,6,42,6,,,,,,,,,,,,,,,,,,,,,1.476,1.25,181.42338399984874,None,,,,,,,,,,,,,,,,,,,,181.96184129989706,182.46772239985876,0.5121989396866411,None,182.45105269993655,182.5510849999264,182.45105269993655,182.5510849999264,182.5510849999264,None,c,0,0.14232919993810356,182.5510849999264,None,,,,,,,po2,2022_Apr_08_1200,training+cueing,2021.1.4,59.929870020470986,
Friend.png,Friend,Friend,c,2,12,22,92,,,,,0,0,0,0,,,,,3,7,43,10,,,,,,,,,,,,,,,,,,,,,1.661,2.399,182.82395799993537,None,,,,,,,,,,,,,,,,,,,,183.36189039982855,183.86873779981397,0.5107930400408804,None,183.8520640998613,183.96877879998647,183.8520640998613,183.96877879998647,183.95208580000326,None,c,1,0.18128459993749857,183.95208580000326,None,,,,,,,po2,2022_Apr_08_1200,training+cueing,2021.1.4,59.929870020470986,
Stranger.png,Stranger,Stranger,c,3,13,23,93,,,,,0,0,0,0,,,,,3,8,44,11,,,,,,,,,,,,,,,,,,,,,1.785,1.94,184.2585492997896,None,,,,,,,,,,,,,,,,,,,,184.79727340000682,185.3031335999258,0.5120234400965273,None,185.2865064998623,185.40313959983177,185.2865064998623,185.40313959983177,185.3864291999489,None,c,1,0.17101890011690557,185.3864291999489,None,,,,,,,po2,2022_Apr_08_1200,training+cueing,2021.1.4,59.929870020470986,
Friend.png,You,Friend,m,1.2,14,24,94,,,,,0,0,0,0,,,,,3,9,45,3,,,,,,,,,,,,,,,,,,,,,1.533,1.831,185.6920780998189,None,,,,,,,,,,,,,,,,,,,,186.24780419981107,186.75414589978755,0.5136081199161708,1.0138884200714529,186.7374581999611,186.83751519978978,186.7374581999611,186.83751519978978,186.83751519978978,None,c,0,1.4558352001477033,186.83751519978978,None,,,,,,,po2,2022_Apr_08_1200,training+cueing,2021.1.4,59.929870020470986,
Friend.png,Friend,Friend,c,2,12,22,92,,,,,0,0,0,0,,,,,3,10,46,4,,,,,,,,,,,,,,,,,,,,,1.764,1.631,188.42766409995966,None,,,,,,,,,,,,,,,,,,,,188.96525189979002,189.47278889990412,0.5123254400677979,None,189.45609269989654,189.5734021998942,189.45609269989654,189.5734021998942,189.55612739990465,None,c,1,0.1613819000776857,189.55612739990465,None,,,,,,,po2,2022_Apr_08_1200,training+cueing,2021.1.4,59.929870020470986,
Self.png,Stranger,Self ,m,3.1,18,28,98,,,,,0,0,0,0,,,,,3,11,47,2,,,,,,,,,,,,,,,,,,,,,1.592,1.438,189.84717019996606,None,,,,,,,,,,,,,,,,,,,,190.38634189986624,190.89049499994144,0.509360239841044,1.009610939770937,190.87383509986103,190.99048509984277,190.87383509986103,190.99048509984277,190.97382649988867,None,m,1,0.6956285999622196,190.97382649988867,None,,,,,,,po2,2022_Apr_08_1200,training+cueing,2021.1.4,59.929870020470986,
Stranger.png,Stranger,Stranger,c,3,13,23,93,,,,,0,0,0,0,,,,,4,0,48,8,,,,,,,,,,,,,,,,,,,,,1.544,2.035,191.79743359982967,None,,,,,,,,,,,,,,,,,,,,192.3317046999,192.8418526998721,0.5003209400456399,None,192.8085085998755,192.90856549981982,192.8085085998755,192.90856549981982,192.90856549981982,None,m,0,0.16890150005929172,192.90856549981982,None,,,,,,,po2,2022_Apr_08_1200,training+cueing,2021.1.4,59.929870020470986,
Self.png,You,Self ,c,1,11,21,91,,,,,0,0,0,0,,,,,4,1,49,9,,,,,,,,,,,,,,,,,,,,,1.486,1.783,193.2153758998029,None,,,,,,,,,,,,,,,,,,,,193.75329499994405,194.25956439995207,0.5126684398856014,None,194.24290269985795,194.34295019996352,194.24290269985795,194.34295019996352,194.34295019996352,None,c,1,0.14247489999979734,194.34295019996352,None,,,,,,,po2,2022_Apr_08_1200,training+cueing,2021.1.4,59.929870020470986,
Stranger.png,Stranger,Stranger,c,3,13,23,93,,,,,0,0,0,0,,,,,4,2,50,11,,,,,,,,,,,,,,,,,,,,,1.473,2.363,194.61641959985718,None,,,,,,,,,,,,,,,,,,,,195.1551893998403,195.66062899981625,0.5113132398109883,None,195.64391139987856,195.7606267000083,195.64391139987856,195.7606267000083,195.74393869983032,None,c,1,0.13347030011937022,195.74393869983032,None,,,,,,,po2,2022_Apr_08_1200,training+cueing,2021.1.4,59.929870020470986,
Friend.png,Stranger,Friend,m,3.2,19,29,99,,,,,0,0,0,0,,,,,4,3,51,5,,,,,,,,,,,,,,,,,,,,,1.666,1.372,196.00060929986648,None,,,,,,,,,,,,,,,,,,,,196.53483679983765,197.04487279988825,0.50028604012914,1.0011436401400715,197.01157809980214,197.1115904999897,197.01157809980214,197.1115904999897,197.1115904999897,None,m,1,1.038109199842438,197.1115904999897,None,,,,,,,po2,2022_Apr_08_1200,training+cueing,2021.1.4,59.929870020470986,
Self.png,Stranger,Self ,m,3.1,18,28,98,,,,,0,0,0,0,,,,,4,4,52,2,,,,,,,,,,,,,,,,,,,,,1.693,1.828,198.28770249988884,None,,,,,,,,,,,,,,,,,,,,198.8229835999664,199.32993999985047,0.5138157396577299,None,199.3132595999632,199.42997329984792,199.3132595999632,199.42997329984792,199.4132417999208,None,c,0,0.16020900011062622,199.4132417999208,None,,,,,,,po2,2022_Apr_08_1200,training+cueing,2021.1.4,59.929870020470986,
Self.png,You,Self ,c,1,11,21,91,,,,,0,0,0,0,,,,,4,5,53,0,,,,,,,,,,,,,,,,,,,,,1.411,1.437,199.70292089995928,None,,,,,,,,,,,,,,,,,,,,200.24087799992412,200.74761949991807,0.513263939647004,None,200.73094749986194,200.83097899984568,200.73094749986194,200.83097899984568,200.83097899984568,None,m,0,0.2944200001657009,200.83097899984568,None,,,,,,,po2,2022_Apr_08_1200,training+cueing,2021.1.4,59.929870020470986,
Friend.png,Friend,Friend,c,2,12,22,92,,,,,0,0,0,0,,,,,4,6,54,4,,,,,,,,,,,,,,,,,,,,,1.402,1.636,201.2541560998652,None,,,,,,,,,,,,,,,,,,,,201.79129739990458,202.29871259978972,0.5125272399745882,None,202.2820774000138,202.39878719998524,202.2820774000138,202.39878719998524,202.38206819980405,None,c,1,0.2794189997948706,202.38206819980405,None,,,,,,,po2,2022_Apr_08_1200,training+cueing,2021.1.4,59.929870020470986,
Friend.png,Friend,Friend,c,2,12,22,92,,,,,0,0,0,0,,,,,4,7,55,10,,,,,,,,,,,,,,,,,,,,,1.594,2.465,202.78799869981594,None,,,,,,,,,,,,,,,,,,,,203.32460039993748,203.83316899999045,0.5005274598952383,None,203.816469399957,203.93321659998037,203.816469399957,203.93321659998037,203.93321659998037,None,m,0,0.07217649999074638,203.93321659998037,None,,,,,,,po2,2022_Apr_08_1200,training+cueing,2021.1.4,59.929870020470986,
Self.png,Friend,Self ,m,2.1,16,26,96,,,,,0,0,0,0,,,,,4,8,56,1,,,,,,,,,,,,,,,,,,,,,1.76,1.333,204.13863409985788,None,,,,,,,,,,,,,,,,,,,,204.67446979996748,205.18414519983344,0.5011833601165563,1.0014433600008488,205.16748970001936,205.28421769989654,205.16748970001936,205.28421769989654,205.28421769989654,None,m,1,1.1533283002208918,205.28421769989654,None,,,,,,,po2,2022_Apr_08_1200,training+cueing,2021.1.4,59.929870020470986,
Friend.png,You,Friend,m,1.2,14,24,94,,,,,0,0,0,0,,,,,4,9,57,3,,,,,,,,,,,,,,,,,,,,,1.566,2.109,206.57570859999396,None,,,,,,,,,,,,,,,,,,,,207.1124586998485,207.61923049995676,0.5122802399564534,None,207.60257859993726,207.70261929999106,207.60257859993726,207.70261929999106,207.70261929999106,None,m,1,0.20673019997775555,207.70261929999106,None,,,,,,,po2,2022_Apr_08_1200,training+cueing,2021.1.4,59.929870020470986,
Stranger.png,Friend,Stranger,m,2.3,17,27,97,,,,,0,0,0,0,,,,,4,10,58,7,,,,,,,,,,,,,,,,,,,,,1.499,2.056,208.04240429983474,None,,,,,,,,,,,,,,,,,,,,208.5806244998239,209.0869896998629,0.5118363399524242,None,209.07030749996193,209.18703799997456,209.07030749996193,209.18703799997456,209.17032339982688,None,m,1,0.17906820005737245,209.17032339982688,None,,,,,,,po2,2022_Apr_08_1200,training+cueing,2021.1.4,59.929870020470986,
Stranger.png,You,Stranger,m,1.3,15,25,95,,,,,0,0,0,0,,,,,4,11,59,6,,,,,,,,,,,,,,,,,,,,,1.723,1.653,209.47620629984885,None,,,,,,,,,,,,,,,,,,,,210.01378639996983,210.52132589998655,0.5127210400532931,None,210.50467639998533,210.6047069998458,210.50467639998533,210.6047069998458,210.6047069998458,None,c,0,0.18474470009095967,210.6047069998458,None,,,,,,,po2,2022_Apr_08_1200,training+cueing,2021.1.4,59.929870020470986,
Self.png,Stranger,Self ,m,3.1,18,28,98,,,,,0,0,0,0,,,,,5,0,60,2,,,,,,,,,,,,,,,,,,,,,1.568,1.916,210.91156449983828,None,,,,,,,,,,,,,,,,,,,,211.45080499979667,211.95573389995843,0.5101526398211718,None,211.93905689986423,212.0557722998783,211.93905689986423,212.0557722998783,212.03908049990423,None,c,0,0.1903558000922203,212.03908049990423,None,,,,,,,po2,2022_Apr_08_1200,training+cueing,2021.1.4,59.929870020470986,
Stranger.png,Friend,Stranger,m,2.3,17,27,97,,,,,0,0,0,0,,,,,5,1,61,7,,,,,,,,,,,,,,,,,,,,,1.613,2.333,212.36271859984845,None,,,,,,,,,,,,,,,,,,,,212.9261529999785,213.44010120001622,0.5122303201351315,None,213.42363439989276,213.54030619980767,213.42363439989276,213.54030619980767,213.52350769983605,None,c,0,0.0978927998803556,213.52350769983605,None,,,,,,,po2,2022_Apr_08_1200,training+cueing,2021.1.4,59.929870020470986,
Friend.png,Friend,Friend,c,2,12,22,92,,,,,0,0,0,0,,,,,5,2,62,4,,,,,,,,,,,,,,,,,,,,,1.533,1.696,213.74664589995518,None,,,,,,,,,,,,,,,,,,,,214.28203219990246,214.79106239997782,0.5002249397803098,None,214.7579404998105,214.85784209985286,214.7579404998105,214.85784209985286,214.85784209985286,None,c,1,0.1555188000202179,214.85784209985286,None,,,,,,,po2,2022_Apr_08_1200,training+cueing,2021.1.4,59.929870020470986,
Stranger.png,You,Stranger,m,1.3,15,25,95,,,,,0,0,0,0,,,,,5,3,63,6,,,,,,,,,,,,,,,,,,,,,1.687,1.417,215.14755409979261,None,,,,,,,,,,,,,,,,,,,,215.68587629985996,216.19212579983287,0.5122202399652451,None,216.17546629998833,216.2755054999143,216.17546629998833,216.2755054999143,216.2755054999143,None,c,0,0.033883400028571486,216.2755054999143,None,,,,,,,po2,2022_Apr_08_1200,training+cueing,2021.1.4,59.929870020470986,
Stranger.png,Stranger,Stranger,c,3,13,23,93,,,,,0,0,0,0,,,,,5,4,64,8,,,,,,,,,,,,,,,,,,,,,1.76,1.945,216.43187019997276,None,,,,,,,,,,,,,,,,,,,,216.9701454997994,217.47641399991699,0.5110446398612112,None,217.4600021999795,217.57643659994937,217.4600021999795,217.57643659994937,217.55971439997666,None,c,1,0.38169760000891984,217.55971439997666,None,,,,,,,po2,2022_Apr_08_1200,training+cueing,2021.1.4,59.929870020470986,
Self.png,You,Self ,c,1,11,21,91,,,,,0,0,0,0,,,,,5,5,65,9,,,,,,,,,,,,,,,,,,,,,1.439,2.469,218.06623180001043,None,,,,,,,,,,,,,,,,,,,,218.6208253998775,219.12758410000242,0.5142192200291902,None,219.11090189986862,219.21094959997572,219.11090189986862,219.21094959997572,219.21094959997572,None,m,0,0.1704601999372244,219.21094959997572,None,,,,,,,po2,2022_Apr_08_1200,training+cueing,2021.1.4,59.929870020470986,
Self.png,Friend,Self ,m,2.1,16,26,96,,,,,0,0,0,0,,,,,5,6,66,1,,,,,,,,,,,,,,,,,,,,,1.486,1.202,219.51733319996856,None,,,,,,,,,,,,,,,,,,,,220.05701359990053,220.56196610000916,0.5103905398864299,None,220.54528879979625,220.66200199979357,220.54528879979625,220.66200199979357,220.64529369981028,None,c,0,0.12816069996915758,220.64529369981028,None,,,,,,,po2,2022_Apr_08_1200,training+cueing,2021.1.4,59.929870020470986,
Friend.png,You,Friend,m,1.2,14,24,94,,,,,0,0,0,0,,,,,5,7,67,3,,,,,,,,,,,,,,,,,,,,,1.5,1.725,220.9010588999372,None,,,,,,,,,,,,,,,,,,,,221.43975089979358,221.94633009983227,0.5114873400889337,None,221.92959549999796,222.02971169981174,221.92959549999796,222.02971169981174,222.02971169981174,None,c,0,0.135751600144431,222.02971169981174,None,,,,,,,po2,2022_Apr_08_1200,training+cueing,2021.1.4,59.929870020470986,
Stranger.png,Stranger,Stranger,c,3,13,23,93,,,,,0,0,0,0,,,,,5,8,68,11,,,,,,,,,,,,,,,,,,,,,1.793,2.109,222.3029184998013,None,,,,,,,,,,,,,,,,,,,,222.8428464999888,223.34731350000948,0.5083934399299324,None,223.3306499000173,223.4473519998137,223.3306499000173,223.4473519998137,223.43065899983048,None,m,0,0.1267847998533398,223.43065899983048,None,,,,,,,po2,2022_Apr_08_1200,training+cueing,2021.1.4,59.929870020470986,
Friend.png,Stranger,Friend,m,3.2,19,29,99,,,,,0,0,0,0,,,,,5,9,69,5,,,,,,,,,,,,,,,,,,,,,1.566,2.471,223.68707249988802,None,,,,,,,,,,,,,,,,,,,,224.2231029998511,224.73157489998266,0.4993578400462866,None,224.69830139982514,224.7983390998561,224.69830139982514,224.7983390998561,224.7983390998561,None,m,1,0.16710620000958443,224.7983390998561,None,,,,,,,po2,2022_Apr_08_1200,training+cueing,2021.1.4,59.929870020470986,
Self.png,You,Self ,c,1,11,21,91,,,,,0,0,0,0,,,,,5,10,70,0,,,,,,,,,,,,,,,,,,,,,1.667,1.696,225.08849269989878,None,,,,,,,,,,,,,,,,,,,,225.625231300015,226.1326152998954,0.5120628401637077,None,226.11595679982565,226.21601229999214,226.11595679982565,226.21601229999214,226.21601229999214,None,c,1,0.04546759999357164,226.21601229999214,None,,,,,,,po2,2022_Apr_08_1200,training+cueing,2021.1.4,59.929870020470986,
Friend.png,Friend,Friend,c,2,12,22,92,,,,,0,0,0,0,,,,,5,11,71,10,,,,,,,,,,,,,,,,,,,,,1.464,2.24,226.38797499984503,None,,,,,,,,,,,,,,,,,,,,226.9356164999772,227.45028369990177,0.5128669398836792,None,227.43360079987906,227.55031489999965,227.43360079987906,227.55031489999965,227.53360059997067,None,m,0,0.10380010004155338,227.53360059997067,None,,,,,,,po2,2022_Apr_08_1200,training+cueing,2021.1.4,59.929870020470986,
Stranger.png,Stranger,Stranger,c,3,13,23,93,,,,,0,0,0,0,,,,,6,0,72,11,,,,,,,,,,,,,,,,,,,,,1.433,2.341,227.7734485999681,None,,,,,,,,,,,,,,,,,,,,228.31169329979457,228.81799239991233,0.5101427400950342,None,228.80123299988918,228.91796039999463,228.80123299988918,228.91796039999463,228.90125290001743,None,c,1,0.04811240010894835,228.90125290001743,None,,,,,,,po2,2022_Apr_08_1200,training+cueing,2021.1.4,59.929870020470986,
Self.png,Stranger,Self ,m,3.1,18,28,98,,,,,0,0,0,0,,,,,6,1,73,2,,,,,,,,,,,,,,,,,,,,,1.677,1.372,229.07422049995512,None,,,,,,,,,,,,,,,,,,,,229.6245726000052,230.13556710002013,0.5077801398001611,None,230.11888889991678,230.23557339981198,230.11888889991678,230.23557339981198,230.21887460001744,None,c,0,0.15453399997204542,230.21887460001744,None,,,,,,,po2,2022_Apr_08_1200,training+cueing,2021.1.4,59.929870020470986,
Self.png,Friend,Self ,m,2.1,16,26,96,,,,,0,0,0,0,,,,,6,2,74,1,,,,,,,,,,,,,,,,,,,,,1.667,2.386,230.5081006998662,None,,,,,,,,,,,,,,,,,,,,231.04678679979406,231.55323869991116,0.5121161399874836,1.012377840001136,231.5365775998216,231.6532740998082,231.5365775998216,231.6532740998082,231.63659819983877,None,c,0,1.2328433999791741,231.63659819983877,None,,,,,,,po2,2022_Apr_08_1200,training+cueing,2021.1.4,59.929870020470986,
Friend.png,You,Friend,m,1.2,14,24,94,,,,,0,0,0,0,,,,,6,3,75,3,,,,,,,,,,,,,,,,,,,,,1.741,1.282,232.9942657998763,None,,,,,,,,,,,,,,,,,,,,233.53227570001036,234.03838359983638,0.5107582397758961,None,234.02169429999776,234.12173579982482,234.02169429999776,234.12173579982482,234.12173579982482,None,c,0,0.1555979000404477,234.12173579982482,None,,,,,,,po2,2022_Apr_08_1200,training+cueing,2021.1.4,59.929870020470986,
Stranger.png,Stranger,Stranger,c,3,13,23,93,,,,,0,0,0,0,,,,,6,4,76,8,,,,,,,,,,,,,,,,,,,,,1.429,1.367,234.41157260001637,None,,,,,,,,,,,,,,,,,,,,234.95012579998001,235.4560604998842,0.5108066399116069,1.0111302398145199,235.4393598998431,235.55611009988934,235.4393598998431,235.55611009988934,235.53940999996848,None,m,0,0.5620057000778615,235.53940999996848,None,,,,,,,po2,2022_Apr_08_1200,training+cueing,2021.1.4,59.929870020470986,
Friend.png,Friend,Friend,c,2,12,22,92,,,,,0,0,0,0,,,,,6,5,77,10,,,,,,,,,,,,,,,,,,,,,1.707,2.259,236.2291915998794,None,,,,,,,,,,,,,,,,,,,,236.76784359989688,237.27421800000593,0.5119001402053982,None,237.25733309984207,237.3740532998927,237.25733309984207,237.3740532998927,237.35738749988377,None,m,0,0.15201730001717806,237.35738749988377,None,,,,,,,po2,2022_Apr_08_1200,training+cueing,2021.1.4,59.929870020470986,
Friend.png,Friend,Friend,c,2,12,22,92,,,,,0,0,0,0,,,,,6,6,78,4,,,,,,,,,,,,,,,,,,,,,1.601,1.451,237.64673519995995,None,,,,,,,,,,,,,,,,,,,,238.1824107998982,238.69169799983501,0.5004452401772141,None,238.65840089996345,238.75841739983298,238.65840089996345,238.75841739983298,238.75841739983298,None,c,1,0.1269904999062419,238.75841739983298,None,,,,,,,po2,2022_Apr_08_1200,training+cueing,2021.1.4,59.929870020470986,
Self.png,You,Self ,c,1,11,21,91,,,,,0,0,0,0,,,,,6,7,79,9,,,,,,,,,,,,,,,,,,,,,1.591,1.221,239.0150768000167,None,,,,,,,,,,,,,,,,,,,,239.55347319995053,240.05940339993685,0.5125335399061441,None,240.04272019979544,240.14277829998173,240.04272019979544,240.14277829998173,240.14277829998173,None,m,0,0.2786206998862326,240.14277829998173,None,,,,,,,po2,2022_Apr_08_1200,training+cueing,2021.1.4,59.929870020470986,
Stranger.png,Friend,Stranger,m,2.3,17,27,97,,,,,0,0,0,0,,,,,6,8,80,7,,,,,,,,,,,,,,,,,,,,,1.769,1.918,240.54951919987798,None,,,,,,,,,,,,,,,,,,,,241.086407299852,241.5938479998149,0.5120556398760527,None,241.5771433999762,241.69389039999805,241.5771433999762,241.69389039999805,241.67716789990664,None,c,0,0.15224410011433065,241.67716789990664,None,,,,,,,po2,2022_Apr_08_1200,training+cueing,2021.1.4,59.929870020470986,
Friend.png,Stranger,Friend,m,3.2,19,29,99,,,,,0,0,0,0,,,,,6,9,81,5,,,,,,,,,,,,,,,,,,,,,1.455,1.612,241.96692089992575,None,,,,,,,,,,,,,,,,,,,,242.50588359986432,243.01153469993733,0.5105710399802774,None,242.99487139983103,243.11157559999265,242.99487139983103,243.11157559999265,243.09489139984362,None,c,0,0.27058580005541444,243.09489139984362,None,,,,,,,po2,2022_Apr_08_1200,training+cueing,2021.1.4,59.929870020470986,
Stranger.png,You,Stranger,m,1.3,15,25,95,,,,,0,0,0,0,,,,,6,10,82,6,,,,,,,,,,,,,,,,,,,,,1.503,1.967,243.5013895998709,None,,,,,,,,,,,,,,,,,,,,244.03952549980022,244.5459719998762,0.5128363398835063,None,244.5293006999418,244.62932619987987,244.5293006999418,244.62932619987987,244.62932619987987,None,m,1,0.24011359992437065,244.62932619987987,None,,,,,,,po2,2022_Apr_08_1200,training+cueing,2021.1.4,59.929870020470986,
Self.png,You,Self ,c,1,11,21,91,,,,,0,0,0,0,,,,,6,11,83,0,,,,,,,,,,,,,,,,,,,,,1.587,2.488,245.00214469991624,None,,,,,,,,,,,,,,,,,,,,245.5369791998528,246.04710069997236,0.5005976599641144,None,246.03038849984296,246.13038899982348,246.03038849984296,246.13038899982348,246.13038899982348,None,c,1,0.003028600011020899,246.13038899982348,None,,,,,,,po2,2022_Apr_08_1200,training+cueing,2021.1.4,59.929870020470986,
Stranger.png,You,Stranger,m,1.3,15,25,95,,,,,0,0,0,0,,,,,7,0,84,6,,,,,,,,,,,,,,,,,,,,,1.582,1.324,246.2553268999327,None,,,,,,,,,,,,,,,,,,,,246.79107139981352,247.29802529979497,0.5131040399428457,1.0133164399303496,247.28135329997167,247.38133779983036,247.28135329997167,247.38133779983036,247.38133779983036,None,m,1,0.6240278000477701,247.38133779983036,None,,,,,,,po2,2022_Apr_08_1200,training+cueing,2021.1.4,59.929870020470986,
Stranger.png,Stranger,Stranger,c,3,13,23,93,,,,,0,0,0,0,,,,,7,1,85,11,,,,,,,,,,,,,,,,,,,,,1.649,1.675,248.1384433999192,None,,,,,,,,,,,,,,,,,,,,248.67677849996835,249.1826128999237,0.5114140396472067,None,249.1659997999668,249.2827614999842,249.1659997999668,249.2827614999842,249.26601129979827,None,m,0,0.17948480020277202,249.26601129979827,None,,,,,,,po2,2022_Apr_08_1200,training+cueing,2021.1.4,59.929870020470986,
Friend.png,Friend,Friend,c,2,12,22,92,,,,,0,0,0,0,,,,,7,2,86,10,,,,,,,,,,,,,,,,,,,,,1.729,2.309,249.57211929978803,None,,,,,,,,,,,,,,,,,,,,250.11082790000364,250.61706269998103,0.5102899398189038,None,250.60039019980468,250.7171310998965,250.60039019980468,250.7171310998965,250.7003777998034,None,c,1,0.16906369989737868,250.7003777998034,None,,,,,,,po2,2022_Apr_08_1200,training+cueing,2021.1.4,59.929870020470986,
Friend.png,Stranger,Friend,m,3.2,19,29,99,,,,,0,0,0,0,,,,,7,3,87,5,,,,,,,,,,,,,,,,,,,,,1.73,1.603,251.00678509986028,None,,,,,,,,,,,,,,,,,,,,251.54603550001048,252.0514030000195,0.5107617401517928,None,252.03473099996336,252.15144129982218,252.03473099996336,252.15144129982218,252.13474739994854,None,c,0,0.3666497999802232,252.13474739994854,None,,,,,,,po2,2022_Apr_08_1200,training+cueing,2021.1.4,59.929870020470986,
Stranger.png,Stranger,Stranger,c,3,13,23,93,,,,,0,0,0,0,,,,,7,4,88,8,,,,,,,,,,,,,,,,,,,,,1.705,1.467,252.62404999998398,None,,,,,,,,,,,,,,,,,,,,253.16182069992647,253.66924519999884,0.5122556400019675,1.0127611400093883,253.65258140000515,253.76926589990035,253.65258140000515,253.76926589990035,253.75259749987163,None,c,1,1.1168102000374347,253.75259749987163,None,,,,,,,po2,2022_Apr_08_1200,training+cueing,2021.1.4,59.929870020470986,
Self.png,Stranger,Self ,m,3.1,18,28,98,,,,,0,0,0,0,,,,,7,5,89,2,,,,,,,,,,,,,,,,,,,,,1.504,1.74,254.9930890998803,None,,,,,,,,,,,,,,,,,,,,255.52881990000606,256.0376102998853,0.4997770399786532,None,256.004260199843,256.1043121998664,256.004260199843,256.1043121998664,256.1043121998664,None,c,0,0.23717969981953502,256.1043121998664,None,,,,,,,po2,2022_Apr_08_1200,training+cueing,2021.1.4,59.929870020470986,
Friend.png,Friend,Friend,c,2,12,22,92,,,,,0,0,0,0,,,,,7,6,90,4,,,,,,,,,,,,,,,,,,,,,1.499,1.492,256.4769980998244,None,,,,,,,,,,,,,,,,,,,,257.0161112998612,257.52202539984137,0.5111236399970949,None,257.5053485999815,257.622102699941,257.5053485999815,257.622102699941,257.6053809998557,None,c,1,0.17601400008425117,257.6053809998557,None,,,,,,,po2,2022_Apr_08_1200,training+cueing,2021.1.4,59.929870020470986,
Friend.png,You,Friend,m,1.2,14,24,94,,,,,0,0,0,0,,,,,7,7,91,3,,,,,,,,,,,,,,,,,,,,,1.593,1.743,257.9117856998928,None,,,,,,,,,,,,,,,,,,,,258.4506613998674,258.9563882998191,0.5096362398471683,None,258.9397410999518,259.03980519995093,258.9397410999518,259.03980519995093,259.03980519995093,None,m,1,0.1495916999410838,259.03980519995093,None,,,,,,,po2,2022_Apr_08_1200,training+cueing,2021.1.4,59.929870020470986,
Stranger.png,Friend,Stranger,m,2.3,17,27,97,,,,,0,0,0,0,,,,,7,8,92,7,,,,,,,,,,,,,,,,,,,,,1.794,2.478,259.3131335999351,None,,,,,,,,,,,,,,,,,,,,259.85279069980606,260.35742529993877,0.5101993400603533,None,260.3407592999283,260.45746389986016,260.3407592999283,260.45746389986016,260.4407639999408,None,m,1,0.23666860000230372,260.4407639999408,None,,,,,,,po2,2022_Apr_08_1200,training+cueing,2021.1.4,59.929870020470986,
Self.png,Friend,Self ,m,2.1,16,26,96,,,,,0,0,0,0,,,,,7,9,93,1,,,,,,,,,,,,,,,,,,,,,1.791,2.354,260.8133343998343,None,,,,,,,,,,,,,,,,,,,,261.35258099995553,261.85852279979736,0.5126547398976982,1.0129567398689687,261.84182339999825,261.9585421998054,261.84182339999825,261.9585421998054,261.9418298997916,None,m,1,1.7435932999942452,261.9418298997916,None,,,,,,,po2,2022_Apr_08_1200,training+cueing,2021.1.4,59.929870020470986,
Self.png,You,Self ,c,1,11,21,91,,,,,0,0,0,0,,,,,7,10,94,9,,,,,,,,,,,,,,,,,,,,,1.489,1.433,263.81599779985845,None,,,,,,,,,,,,,,,,,,,,264.35355059988797,264.8607034999877,0.5131050399504602,None,264.8440348999575,264.94403579994105,264.8440348999575,264.94403579994105,264.94403579994105,None,m,0,0.18131170002743602,264.94403579994105,None,,,,,,,po2,2022_Apr_08_1200,training+cueing,2021.1.4,59.929870020470986,
Self.png,You,Self ,c,1,11,21,91,,,,,0,0,0,0,,,,,7,11,95,0,,,,,,,,,,,,,,,,,,,,,1.715,2.442,265.2499156999402,None,,,,,,,,,,,,,,,,,,,,265.7866752999835,266.29508059984073,0.4999577400740236,None,266.261731099803,266.36174939991906,266.261731099803,266.36174939991906,266.36174939991906,None,c,1,0.2037271000444889,266.36174939991906,None,,,,,,,po2,2022_Apr_08_1200,training+cueing,2021.1.4,59.929870020470986,
Self.png,You,Self ,c,1,11,21,91,,,,,0,0,0,0,,,,,8,0,96,0,,,,,,,,,,,,,,,,,,,,,1.673,1.957,266.70180449984036,None,,,,,,,,,,,,,,,,,,,,267.23650439991616,267.7461033000145,0.4997685397975147,None,267.7127218998503,267.8127839998342,267.7127218998503,267.8127839998342,267.8127839998342,None,c,1,0.0806124999653548,267.8127839998342,None,,,,,,,po2,2022_Apr_08_1200,training+cueing,2021.1.4,59.929870020470986,
Friend.png,Stranger,Friend,m,3.2,19,29,99,,,,,0,0,0,0,,,,,8,1,97,5,,,,,,,,,,,,,,,,,,,,,1.774,2.258,268.01872959989123,None,,,,,,,,,,,,,,,,,,,,268.55843699979596,269.0637330999598,0.5108507398981601,None,269.0470423998777,269.1637374998536,269.0470423998777,269.1637374998536,269.1470480998978,None,m,1,0.026427200064063072,269.1470480998978,None,,,,,,,po2,2022_Apr_08_1200,training+cueing,2021.1.4,59.929870020470986,
Stranger.png,You,Stranger,m,1.3,15,25,95,,,,,0,0,0,0,,,,,8,2,98,6,,,,,,,,,,,,,,,,,,,,,1.579,1.745,269.30400379979983,None,,,,,,,,,,,,,,,,,,,,269.84514390002005,270.3479880997911,0.5064128399826586,None,270.3313253999222,270.4313533999957,270.3313253999222,270.4313533999957,270.4313533999957,None,c,0,0.006071799900382757,270.4313533999957,None,,,,,,,po2,2022_Apr_08_1200,training+cueing,2021.1.4,59.929870020470986,
Friend.png,Friend,Friend,c,2,12,22,92,,,,,0,0,0,0,,,,,8,3,99,10,,,,,,,,,,,,,,,,,,,,,1.55,1.865,270.5716327999253,None,,,,,,,,,,,,,,,,,,,,271.10970779997297,271.61555449990556,0.5099985396955162,None,271.5988946999423,271.7155973999761,271.5988946999423,271.7155973999761,271.69890909991227,None,c,1,0.09851390006951988,271.69890909991227,None,,,,,,,po2,2022_Apr_08_1200,training+cueing,2021.1.4,59.929870020470986,
Stranger.png,Stranger,Stranger,c,3,13,23,93,,,,,0,0,0,0,,,,,8,4,100,8,,,,,,,,,,,,,,,,,,,,,1.608,2.043,271.92205509985797,None,,,,,,,,,,,,,,,,,,,,272.46320639993064,272.96657499996945,0.507389839971438,1.007895239861682,272.9498776998371,273.0665874998085,272.9498776998371,273.0665874998085,273.04991569998674,None,c,1,1.2274872998241335,273.04991569998674,None,,,,,,,po2,2022_Apr_08_1200,training+cueing,2021.1.4,59.929870020470986,
Self.png,Friend,Self ,m,2.1,16,26,96,,,,,0,0,0,0,,,,,8,5,101,1,,,,,,,,,,,,,,,,,,,,,1.577,1.42,274.4065826998558,None,,,,,,,,,,,,,,,,,,,,274.9465394997969,275.4517117999494,0.5102775399573147,None,275.43500209995545,275.55173529987223,275.43500209995545,275.55173529987223,275.53500469983555,None,c,0,0.022428000112995505,275.53500469983555,None,,,,,,,po2,2022_Apr_08_1200,training+cueing,2021.1.4,59.929870020470986,
Self.png,You,Self ,c,1,11,21,91,,,,,0,0,0,0,,,,,8,6,102,9,,,,,,,,,,,,,,,,,,,,,1.679,1.28,275.69159860000946,None,,,,,,,,,,,,,,,,,,,,276.22899079998024,276.7359603999648,0.5120459399186075,None,276.7192825998645,276.81930789980106,276.7192825998645,276.81930789980106,276.81930789980106,None,m,0,0.24214249989017844,276.81930789980106,None,,,,,,,po2,2022_Apr_08_1200,training+cueing,2021.1.4,59.929870020470986,
Stranger.png,Friend,Stranger,m,2.3,17,27,97,,,,,0,0,0,0,,,,,8,7,103,7,,,,,,,,,,,,,,,,,,,,,1.4,1.886,277.19187049986795,None,,,,,,,,,,,,,,,,,,,,277.7316536998842,278.23706879979,0.5113382400013506,None,278.2203535998706,278.33706199983135,278.2203535998706,278.33706199983135,278.320389600005,None,c,0,0.14912689989432693,278.320389600005,None,,,,,,,po2,2022_Apr_08_1200,training+cueing,2021.1.4,59.929870020470986,
Stranger.png,Stranger,Stranger,c,3,13,23,93,,,,,0,0,0,0,,,,,8,8,104,11,,,,,,,,,,,,,,,,,,,,,1.625,2.364,278.5946223998908,None,,,,,,,,,,,,,,,,,,,,279.1338348998688,279.63805339997634,0.5065427396912128,None,279.62138829985633,279.7380764998961,279.62138829985633,279.7380764998961,279.72137639997527,None,c,1,0.12404419993981719,279.72137639997527,None,,,,,,,po2,2022_Apr_08_1200,training+cueing,2021.1.4,59.929870020470986,
Friend.png,You,Friend,m,1.2,14,24,94,,,,,0,0,0,0,,,,,8,9,105,3,,,,,,,,,,,,,,,,,,,,,1.465,1.87,279.977576199919,None,,,,,,,,,,,,,,,,,,,,280.51652619987726,281.02239459985867,0.511307539884001,None,281.0056926999241,281.10576509987004,281.0056926999241,281.10576509987004,281.10576509987004,None,m,1,0.1316029999870807,281.10576509987004,None,,,,,,,po2,2022_Apr_08_1200,training+cueing,2021.1.4,59.929870020470986,
Friend.png,Friend,Friend,c,2,12,22,92,,,,,0,0,0,0,,,,,8,10,106,4,,,,,,,,,,,,,,,,,,,,,1.796,2.447,281.3624020998832,None,,,,,,,,,,,,,,,,,,,,281.9017525999807,282.40673779998906,0.5099045399110764,None,282.39007019996643,282.5067617997993,282.39007019996643,282.5067617997993,282.4900454999879,None,c,1,0.12336059985682368,282.4900454999879,None,,,,,,,po2,2022_Apr_08_1200,training+cueing,2021.1.4,59.929870020470986,
Self.png,Stranger,Self ,m,3.1,18,28,98,,,,,0,0,0,0,,,,,8,11,107,2,,,,,,,,,,,,,,,,,,,,,1.6,1.603,282.7465425999835,None,,,,,,,,,,,,,,,,,,,,283.2890655999072,283.7910652998835,0.5028434400446713,None,283.77443369990215,283.8910542000085,283.77443369990215,283.8910542000085,283.87442359980196,None,c,0,0.16299330000765622,283.87442359980196,None,,,,,,,po2,2022_Apr_08_1200,training+cueing,2021.1.4,59.929870020470986,
Friend.png,You,Friend,m,1.2,14,24,94,,,,,0,0,0,0,,,,,9,0,108,3,,,,,,,,,,,,,,,,,,,,,1.486,1.351,284.1639954999555,None,,,,,,,,,,,,,,,,,,,,284.702769999858,285.2087373000104,0.5118952398188412,1.012180439895019,285.19204799993895,285.2921525000129,285.19204799993895,285.2921525000129,285.2921525000129,None,None,0,,285.2921525000129,None,,,,,,,po2,2022_Apr_08_1200,training+cueing,2021.1.4,59.929870020470986,
Self.png,Friend,Self ,m,2.1,16,26,96,,,,,0,0,0,0,,,,,9,1,109,1,,,,,,,,,,,,,,,,,,,,,1.787,2.053,286.89721199986525,None,,,,,,,,,,,,,,,,,,,,287.4376339998562,287.94404869992286,0.5118375399615616,None,287.92735649994574,288.0441091998946,287.92735649994574,288.0441091998946,288.02742089983076,None,m,1,0.2180560000706464,288.02742089983076,None,,,,,,,po2,2022_Apr_08_1200,training+cueing,2021.1.4,59.929870020470986,
Stranger.png,You,Stranger,m,1.3,15,25,95,,,,,0,0,0,0,,,,,9,2,110,6,,,,,,,,,,,,,,,,,,,,,1.74,1.808,288.3672533999197,None,,,,,,,,,,,,,,,,,,,,288.90424810000695,289.411800700007,0.5121960397809744,None,289.3951415999327,289.4951593999285,289.3951415999327,289.4951593999285,289.4951593999285,None,c,0,0.3023309998679906,289.4951593999285,None,,,,,,,po2,2022_Apr_08_1200,training+cueing,2021.1.4,59.929870020470986,
Self.png,Stranger,Self ,m,3.1,18,28,98,,,,,0,0,0,0,,,,,9,3,111,2,,,,,,,,,,,,,,,,,,,,,1.453,1.756,289.9345481998753,None,,,,,,,,,,,,,,,,,,,,290.4746226000134,290.97960760002024,0.5097918401006609,1.0100672401022166,290.96293549984694,291.07966389996,290.96293549984694,291.07966389996,291.06292469985783,None,c,0,1.278544700006023,291.06292469985783,None,,,,,,,po2,2022_Apr_08_1200,training+cueing,2021.1.4,59.929870020470986,
Stranger.png,Stranger,Stranger,c,3,13,23,93,,,,,0,0,0,0,,,,,9,4,112,8,,,,,,,,,,,,,,,,,,,,,1.772,1.219,292.4702623998746,None,,,,,,,,,,,,,,,,,,,,293.0044974000193,293.5147186999675,0.5140994398389012,1.0172880399040878,293.4797848998569,293.58146629994735,293.4797848998569,293.58146629994735,293.58146629994735,None,None,0,,293.58146629994735,None,,,,,,,po2,2022_Apr_08_1200,training+cueing,2021.1.4,59.929870020470986,
Friend.png,Stranger,Friend,m,3.2,19,29,99,,,,,0,0,0,0,,,,,9,5,113,5,,,,,,,,,,,,,,,,,,,,,1.644,1.343,295.47023749980144,None,,,,,,,,,,,,,,,,,,,,296.0078613997903,296.51687299995683,0.5002052397467196,1.00049683987163,296.48355549992993,296.5836111998651,296.48355549992993,296.5836111998651,296.5836111998651,None,None,0,,296.5836111998651,None,,,,,,,po2,2022_Apr_08_1200,training+cueing,2021.1.4,59.929870020470986,
Stranger.png,Stranger,Stranger,c,3,13,23,93,,,,,0,0,0,0,,,,,9,6,114,11,,,,,,,,,,,,,,,,,,,,,1.685,1.867,298.34209349984303,None,,,,,,,,,,,,,,,,,,,,298.87805689987727,299.3856840999797,0.5137183398474008,1.0139815397560596,299.3690112999175,299.4857089999132,299.3690112999175,299.4857089999132,299.4690119000152,None,None,0,,299.4690119000152,None,,,,,,,po2,2022_Apr_08_1200,training+cueing,2021.1.4,59.929870020470986,
Self.png,You,Self ,c,1,11,21,91,,,,,0,0,0,0,,,,,9,7,115,0,,,,,,,,,,,,,,,,,,,,,1.767,2.393,301.25805770000443,None,,,,,,,,,,,,,,,,,,,,301.7970246998593,302.3044790998101,0.5125116398558021,None,302.2878403000068,302.3878126000054,302.2878403000068,302.3878126000054,302.3878126000054,None,c,1,0.33762039989233017,302.3878126000054,None,,,,,,,po2,2022_Apr_08_1200,training+cueing,2021.1.4,59.929870020470986,
Friend.png,Friend,Friend,c,2,12,22,92,,,,,0,0,0,0,,,,,9,8,116,4,,,,,,,,,,,,,,,,,,,,,1.56,2.286,302.86139889992774,None,,,,,,,,,,,,,,,,,,,,303.40007509989664,303.90562759991735,0.5122095400001854,None,303.8889246999752,304.0056676999666,303.8889246999752,304.0056676999666,303.9889475000091,None,m,0,0.33649789984337986,303.9889475000091,None,,,,,,,po2,2022_Apr_08_1200,training+cueing,2021.1.4,59.929870020470986,
Stranger.png,Friend,Stranger,m,2.3,17,27,97,,,,,0,0,0,0,,,,,9,9,117,7,,,,,,,,,,,,,,,,,,,,,1.681,2.175,304.46220459998585,None,,,,,,,,,,,,,,,,,,,,304.99787799990736,305.5067588998936,0.5002799399662763,None,305.47339469986036,305.5735509998631,305.47339469986036,305.5735509998631,305.5735509998631,None,c,0,0.19192720018327236,305.5735509998631,None,,,,,,,po2,2022_Apr_08_1200,training+cueing,2021.1.4,59.929870020470986,
Friend.png,Friend,Friend,c,2,12,22,92,,,,,0,0,0,0,,,,,9,10,118,10,,,,,,,,,,,,,,,,,,,,,1.595,1.624,305.8963423999958,None,,,,,,,,,,,,,,,,,,,,306.43116779997945,306.9410832999274,0.500242639798671,None,306.9077973999083,307.007847199915,306.9077973999083,307.007847199915,307.007847199915,None,m,0,0.2295961999334395,307.007847199915,None,,,,,,,po2,2022_Apr_08_1200,training+cueing,2021.1.4,59.929870020470986,
Self.png,You,Self ,c,1,11,21,91,,,,,0,0,0,0,,,,,9,11,119,9,,,,,,,,,,,,,,,,,,,,,1.476,2.419,307.36476769996807,None,,,,,,,,,,,,,,,,,,,,307.90080599999055,308.408852199791,0.5154137401841581,None,308.3921492998488,308.4921899999026,308.3921492998488,308.4921899999026,308.4921899999026,None,c,1,0.18521659984253347,308.4921899999026,None,,,,,,,po2,2022_Apr_08_1200,training+cueing,2021.1.4,59.929870020470986,
,,,,,,,,,,,,0,0,0,0,,,,,,,,,,,,,,,,,,,,,,,,,,,,,,,,,,,,,,,,,,,,,,,,,,,,,,,,,,,,,,,,,,,0.0004858600441366434,None,,,,,po2,2022_Apr_08_1200,training+cueing,2021.1.4,59.929870020470986,
Stranger.png,Friend,Stranger,m,2.3,17,27,97,,,,,1,0,1,0,0,0,0,7,,,,,,,,,,,,,,,,,309.3268183998298,None,space,16.02227049996145,2.0137292803265154,None,327.35596489999443,None,1.521,1.848,330.3756684998516,None,330.90104919997975,331.40888419980183,331.3922244999558,331.5089530998375,331.3922244999558,331.5089530998375,331.4922172999941,None,c,0,0.8810950999613851,331.4922172999941,None,332.39446479990147,None,,,,,,,,,,,,,,,,,,,,,,,,,,po2,2022_Apr_08_1200,training+cueing,2021.1.4,59.929870020470986,
Friend.png,You,Friend,m,1.2,14,24,94,,,,,1,0,1,0,0,1,1,3,,,,,,,,,,,,,,,,,,,,,,,,,1.765,2.023,332.80985559988767,None,333.33492099982686,333.844084299868,333.81064889999107,333.91067189979367,333.81064889999107,333.91067189979367,333.91067189979367,None,c,0,0.4948134000878781,333.91067189979367,None,334.42773839994334,None,,,,,,,,,,,,,,,,,,,,,,,,,,po2,2022_Apr_08_1200,training+cueing,2021.1.4,59.929870020470986,
Friend.png,Friend,Friend,c,2,12,22,92,,,,,1,0,1,0,0,2,2,10,,,,,,,,,,,,,,,,,,,,,,,,,1.471,2.148,334.82798539986834,None,335.35725050000474,335.86212089983746,335.84542429982685,335.9621474999003,335.84542429982685,335.9621474999003,335.94543730001897,None,m,0,0.18799539981409907,335.94543730001897,None,336.1622992998455,None,,,,,,,,,,,,,,,,,,,,,,,,,,po2,2022_Apr_08_1200,training+cueing,2021.1.4,59.929870020470986,
Friend.png,Friend,Friend,c,2,12,22,92,,,,,1,0,1,0,0,3,3,4,,,,,,,,,,,,,,,,,,,,,,,,,1.644,1.654,336.56269729998894,None,337.08716799994,337.5966241999995,337.56332259997725,337.66334739979357,337.56332259997725,337.66334739979357,337.66334739979357,None,m,0,0.3259717000182718,337.66334739979357,None,338.01363569987006,None,,,,,,,,,,,,,,,,,,,,,,,,,,po2,2022_Apr_08_1200,training+cueing,2021.1.4,59.929870020470986,
Stranger.png,Stranger,Stranger,c,3,13,23,93,,,,,1,0,1,0,0,4,4,11,,,,,,,,,,,,,,,,,,,,,,,,,1.565,2.345,338.41452389978804,None,338.9518159998115,339.46468369988725,339.44802769995295,339.5647338000126,339.44802769995295,339.5647338000126,339.54802359989844,None,c,1,0.18533460004255176,339.54802359989844,None,339.7631452998612,None,,,,,,,,,,,,,,,,,,,,,,,,,,po2,2022_Apr_08_1200,training+cueing,2021.1.4,59.929870020470986,
Self.png,Friend,Self ,m,2.1,16,26,96,,,,,1,0,1,0,0,5,5,1,,,,,,,,,,,,,,,,,,,,,,,,,1.557,2.12,340.16534669999965,None,340.70632909983397,341.2159900998231,341.19933529989794,341.3160110998433,341.19933529989794,341.3160110998433,341.2993181999773,None,c,0,0.9300899999216199,341.2993181999773,None,342.25056259986013,None,,,,,,,,,,,,,,,,,,,,,,,,,,po2,2022_Apr_08_1200,training+cueing,2021.1.4,59.929870020470986,
Self.png,You,Self ,c,1,11,21,91,,,,,1,0,1,0,0,6,6,0,,,,,,,,,,,,,,,,,,,,,,,,,1.634,2.071,342.65034309984185,None,343.17858669999987,343.6844019999262,343.6677427999675,343.7677853999194,343.6677427999675,343.7677853999194,343.7677853999194,None,m,0,0.3176937000826001,343.7677853999194,None,344.10141619993374,None,,,,,,,,,,,,,,,,,,,,,,,,,,po2,2022_Apr_08_1200,training+cueing,2021.1.4,59.929870020470986,
Stranger.png,Stranger,Stranger,c,3,13,23,93,,,,,1,0,1,0,0,7,7,8,,,,,,,,,,,,,,,,,,,,,,,,,1.745,2.49,344.50167739996687,None,345.04012459982187,345.5524463998154,345.5357454000041,345.6524976999499,345.5357454000041,345.6524976999499,345.63575739995576,None,c,1,0.24629230005666614,345.63575739995576,None,345.90168349980377,None,,,,,,,,,,,,,,,,,,,,,,,,,,po2,2022_Apr_08_1200,training+cueing,2021.1.4,59.929870020470986,
Stranger.png,You,Stranger,m,1.3,15,25,95,,,,,1,0,1,0,0,8,8,6,,,,,,,,,,,,,,,,,,,,,,,,,1.779,2.39,346.30312910000794,None,346.83273269981146,347.3370726997964,347.32042359979823,347.4204342998564,347.32042359979823,347.4204342998564,347.4204342998564,None,c,0,0.1689897000323981,347.4204342998564,None,347.62084459979087,None,,,,,,,,,,,,,,,,,,,,,,,,,,po2,2022_Apr_08_1200,training+cueing,2021.1.4,59.929870020470986,
Friend.png,Stranger,Friend,m,3.2,19,29,99,,,,,1,0,1,0,0,9,9,5,,,,,,,,,,,,,,,,,,,,,,,,,1.722,2.291,348.02087779995054,None,348.5503534998279,349.05497289984487,349.0383134998847,349.1550256998744,349.0383134998847,349.1550256998744,349.138282999862,None,m,1,0.1631072999443859,349.138282999862,None,349.3207289997954,None,,,,,,,,,,,,,,,,,,,,,,,,,,po2,2022_Apr_08_1200,training+cueing,2021.1.4,59.929870020470986,
Self.png,You,Self ,c,1,11,21,91,,,,,1,0,1,0,0,10,10,9,,,,,,,,,,,,,,,,,,,,,,,,,1.687,2.061,349.7221513998229,None,350.24963119998574,350.75620519998483,350.73954079998657,350.8396446998231,350.73954079998657,350.8396446998231,350.8396446998231,None,m,0,0.14180120010860264,350.8396446998231,None,351.00737819983624,None,,,,,,,,,,,,,,,,,,,,,,,,,,po2,2022_Apr_08_1200,training+cueing,2021.1.4,59.929870020470986,
Self.png,Stranger,Self ,m,3.1,18,28,98,,,,,1,0,1,0,0,11,11,2,,,,,,,,,,,,,,,,,,,,,,,,,1.405,1.852,351.4066592999734,None,351.9361511999741,352.4407806999516,352.4240904999897,352.5408052999992,352.4240904999897,352.5408052999992,352.5241082999855,None,c,0,1.0013862999621779,352.5241082999855,None,353.54156889999285,None,,,,,,,,,,,,,,,,,,,,,,,,,,po2,2022_Apr_08_1200,training+cueing,2021.1.4,59.929870020470986,
Friend.png,Friend,Friend,c,2,12,22,92,,,,,1,0,1,0,,,,,0,0,0,4,,,,,,,,,,,,,,,,,,,359.46252389997244,None,1.53,1.936,362.97165379999205,None,,,,,,,,,,,,,,,,353.94184649991803,None,0.01420538011007011,0.5121343801729381,363.5107166999951,364.0158098998945,0.5096693399827927,1.0099568399600685,363.99912429996766,364.11587459989823,363.99912429996766,364.11587459989823,364.09913959982805,None,None,0,,364.09913959982805,None,,,,,,,po2,2022_Apr_08_1200,training+cueing,2021.1.4,59.929870020470986,
Friend.png,Friend,Friend,c,2,12,22,92,,,,,1,0,1,0,,,,,0,1,1,10,,,,,,,,,,,,,,,,,,,,,1.552,1.202,365.7390277998056,None,,,,,,,,,,,,,,,,,,,,366.2765803998336,366.78450589999557,0.515711440006271,None,366.7678305997979,366.88452899991535,366.7678305997979,366.88452899991535,366.86783749982715,None,m,0,0.27360209985636175,366.86783749982715,None,,,,,,,po2,2022_Apr_08_1200,training+cueing,2021.1.4,59.929870020470986,
Friend.png,Stranger,Friend,m,3.2,19,29,99,,,,,1,0,1,0,,,,,0,2,2,5,,,,,,,,,,,,,,,,,,,,,1.403,1.411,367.27426679991186,None,,,,,,,,,,,,,,,,,,,,367.8125298998784,368.31897239992395,0.5103691399563104,1.0106423399411142,368.3022576000076,368.41898309998214,368.3022576000076,368.41898309998214,368.40222869999707,None,None,0,,368.40222869999707,None,,,,,,,po2,2022_Apr_08_1200,training+cueing,2021.1.4,59.929870020470986,
Friend.png,You,Friend,m,1.2,14,24,94,,,,,1,0,1,0,,,,,0,3,3,3,,,,,,,,,,,,,,,,,,,,,1.755,2.121,369.9240564999636,None,,,,,,,,,,,,,,,,,,,,370.4637525998987,370.97085849987343,0.5130041399970651,None,370.95416179997846,371.0541800998617,370.95416179997846,371.0541800998617,371.0541800998617,None,c,0,0.24727099994197488,371.0541800998617,None,,,,,,,po2,2022_Apr_08_1200,training+cueing,2021.1.4,59.929870020470986,
Stranger.png,Stranger,Stranger,c,3,13,23,93,,,,,1,0,1,0,,,,,0,4,4,8,,,,,,,,,,,,,,,,,,,,,1.554,2.071,371.4273831997998,None,,,,,,,,,,,,,,,,,,,,371.9674217000138,372.4719329997897,0.5063405395485461,None,372.4552479998674,372.5719824999105,372.4552479998674,372.5719824999105,372.55526669998653,None,m,0,0.18623590003699064,372.55526669998653,None,,,,,,,po2,2022_Apr_08_1200,training+cueing,2021.1.4,59.929870020470986,
Self.png,You,Self ,c,1,11,21,91,,,,,1,0,1,0,,,,,0,5,5,9,,,,,,,,,,,,,,,,,,,,,1.481,2.312,372.87844119989313,None,,,,,,,,,,,,,,,,,,,,373.4250076999888,373.9396664998494,0.512179640121758,None,373.922984899953,374.0230842998717,373.922984899953,374.0230842998717,374.0230842998717,None,m,0,0.19039190001785755,374.0230842998717,None,,,,,,,po2,2022_Apr_08_1200,training+cueing,2021.1.4,59.929870020470986,
Stranger.png,Friend,Stranger,m,2.3,17,27,97,,,,,1,0,1,0,,,,,0,6,6,7,,,,,,,,,,,,,,,,,,,,,1.714,2.192,374.34633089997806,None,,,,,,,,,,,,,,,,,,,,374.88641559984535,375.39075969997793,0.5095673399046063,1.0098265397828072,375.3740597998258,375.49078819993883,375.3740597998258,375.49078819993883,375.4740592997987,None,c,0,0.4514530999585986,375.4740592997987,None,,,,,,,po2,2022_Apr_08_1200,training+cueing,2021.1.4,59.929870020470986,
Stranger.png,Stranger,Stranger,c,3,13,23,93,,,,,1,0,1,0,,,,,0,7,7,11,,,,,,,,,,,,,,,,,,,,,1.702,1.458,376.04764559981413,None,,,,,,,,,,,,,,,,,,,,376.58550109993666,377.0919600999914,0.5105050399433821,None,377.07526229997166,377.1920079998672,377.07526229997166,377.1920079998672,377.1752721997909,None,c,1,0.17418000008910894,377.1752721997909,None,,,,,,,po2,2022_Apr_08_1200,training+cueing,2021.1.4,59.929870020470986,
Stranger.png,You,Stranger,m,1.3,15,25,95,,,,,1,0,1,0,,,,,0,8,8,6,,,,,,,,,,,,,,,,,,,,,1.77,1.745,377.4816911998205,None,,,,,,,,,,,,,,,,,,,,378.0217800999526,378.52633139980026,0.509658640017733,None,378.5096473998856,378.60968479979783,378.5096473998856,378.60968479979783,378.60968479979783,None,m,1,0.22773659997619689,378.60968479979783,None,,,,,,,po2,2022_Apr_08_1200,training+cueing,2021.1.4,59.929870020470986,
Self.png,You,Self ,c,1,11,21,91,,,,,1,0,1,0,,,,,0,9,9,0,,,,,,,,,,,,,,,,,,,,,1.509,1.465,378.9660783999134,None,,,,,,,,,,,,,,,,,,,,379.50179439992644,380.0107220998034,0.5007529600989074,None,379.9940445998218,380.0941103999503,379.9940445998218,380.0941103999503,380.0941103999503,None,m,0,0.18340089987032115,380.0941103999503,None,,,,,,,po2,2022_Apr_08_1200,training+cueing,2021.1.4,59.929870020470986,
Self.png,Friend,Self ,m,2.1,16,26,96,,,,,1,0,1,0,,,,,0,10,10,1,,,,,,,,,,,,,,,,,,,,,1.413,1.912,380.4011737999972,None,,,,,,,,,,,,,,,,,,,,380.9377555998508,381.4451152998954,0.5115436397027224,1.0118344398215413,381.4284181999974,381.5452032999601,381.4284181999974,381.5452032999601,381.52839919994585,None,c,0,1.2771106001455337,381.52839919994585,None,,,,,,,po2,2022_Apr_08_1200,training+cueing,2021.1.4,59.929870020470986,
Self.png,Stranger,Self ,m,3.1,18,28,98,,,,,1,0,1,0,,,,,0,11,11,2,,,,,,,,,,,,,,,,,,,,,1.683,1.906,382.9359622998163,None,,,,,,,,,,,,,,,,,,,,383.4800511999056,383.9802696998231,0.5006705396808684,1.000963939819485,383.96361589990556,384.08027539984323,383.96361589990556,384.08027539984323,384.08027539984323,None,m,1,0.3891164001543075,384.08027539984323,None,,,,,,,po2,2022_Apr_08_1200,training+cueing,2021.1.4,59.929870020470986,
Stranger.png,You,Stranger,m,1.3,15,25,95,,,,,1,0,1,0,,,,,1,0,12,6,,,,,,,,,,,,,,,,,,,,,1.447,1.958,384.6038774999324,None,,,,,,,,,,,,,,,,,,,,385.1407120998483,385.6481422998477,0.5126898400485516,None,385.6314277998172,385.73148329998367,385.6314277998172,385.73148329998367,385.73148329998367,None,c,0,0.22603279980830848,385.73148329998367,None,,,,,,,po2,2022_Apr_08_1200,training+cueing,2021.1.4,59.929870020470986,
Friend.png,Stranger,Friend,m,3.2,19,29,99,,,,,1,0,1,0,,,,,1,1,13,5,,,,,,,,,,,,,,,,,,,,,1.693,2.419,386.08820050000213,None,,,,,,,,,,,,,,,,,,,,386.6275602998212,387.1325648999773,0.5098871395457536,1.0101718397345394,387.1158873999957,387.2326177000068,387.1158873999957,387.2326177000068,387.21590829989873,None,m,1,0.437522399937734,387.21590829989873,None,,,,,,,po2,2022_Apr_08_1200,training+cueing,2021.1.4,59.929870020470986,
Stranger.png,Friend,Stranger,m,2.3,17,27,97,,,,,1,0,1,0,,,,,1,2,14,7,,,,,,,,,,,,,,,,,,,,,1.689,1.586,387.78919219993986,None,,,,,,,,,,,,,,,,,,,,388.32750209979713,388.8337863998022,0.5121568397153169,1.0125243398360908,388.8171127999667,388.9338449998759,388.8171127999667,388.9338449998759,388.9171353999991,None,c,0,0.5283474000170827,388.9171353999991,None,,,,,,,po2,2022_Apr_08_1200,training+cueing,2021.1.4,59.929870020470986,
Friend.png,Friend,Friend,c,2,12,22,92,,,,,1,0,1,0,,,,,1,3,15,10,,,,,,,,,,,,,,,,,,,,,1.449,2.15,389.57403039978817,None,,,,,,,,,,,,,,,,,,,,390.1092577998061,390.61838549980894,0.4997823399025947,None,390.58506079996005,390.6853277999908,390.58506079996005,390.6853277999908,390.6853277999908,None,c,1,0.024146500043570995,390.6853277999908,None,,,,,,,po2,2022_Apr_08_1200,training+cueing,2021.1.4,59.929870020470986,
Stranger.png,Stranger,Stranger,c,3,13,23,93,,,,,1,0,1,0,,,,,1,4,16,11,,,,,,,,,,,,,,,,,,,,,1.406,1.896,390.8414117000066,None,,,,,,,,,,,,,,,,,,,,391.38007029984146,391.88600399997085,0.5116253399755806,1.0119210400152951,391.8693177998066,391.9860252998769,391.8693177998066,391.9860252998769,391.96933709993027,None,m,0,0.6281008999794722,391.96933709993027,None,,,,,,,po2,2022_Apr_08_1200,training+cueing,2021.1.4,59.929870020470986,
Self.png,You,Self ,c,1,11,21,91,,,,,1,0,1,0,,,,,1,5,17,0,,,,,,,,,,,,,,,,,,,,,1.584,1.381,392.72639489988796,None,,,,,,,,,,,,,,,,,,,,393.26539819990285,393.7707522998098,0.5097938398830593,1.0100596400443465,393.75402739993297,393.8540736997966,393.75402739993297,393.8540736997966,393.8540736997966,None,None,0,,393.8540736997966,None,,,,,,,po2,2022_Apr_08_1200,training+cueing,2021.1.4,59.929870020470986,
Self.png,Stranger,Self ,m,3.1,18,28,98,,,,,1,0,1,0,,,,,1,6,18,2,,,,,,,,,,,,,,,,,,,,,1.444,2.19,395.54225499997847,None,,,,,,,,,,,,,,,,,,,,396.08385459985584,396.58939569978975,0.5082720399368554,None,396.57273709983565,396.6894470998086,396.57273709983565,396.6894470998086,396.6727537999395,None,c,0,0.06868780008517206,396.6727537999395,None,,,,,,,po2,2022_Apr_08_1200,training+cueing,2021.1.4,59.929870020470986,
Self.png,Friend,Self ,m,2.1,16,26,96,,,,,1,0,1,0,,,,,1,7,19,1,,,,,,,,,,,,,,,,,,,,,1.439,2.349,396.8790106999222,None,,,,,,,,,,,,,,,,,,,,397.4199859998189,397.92368999985047,0.5073828399181366,1.0076026399619877,397.9070494999178,398.0237250998616,397.9070494999178,398.0237250998616,398.0070398999378,None,c,0,1.1503818999044597,398.0070398999378,None,,,,,,,po2,2022_Apr_08_1200,training+cueing,2021.1.4,59.929870020470986,
Friend.png,You,Friend,m,1.2,14,24,94,,,,,1,0,1,0,,,,,1,8,20,3,,,,,,,,,,,,,,,,,,,,,1.577,2.242,399.2812168998644,None,,,,,,,,,,,,,,,,,,,,399.81823709979653,400.32542139990255,0.5125936400145292,1.0129099402111024,400.30875530000776,400.4088084998075,400.30875530000776,400.4088084998075,400.4088084998075,None,c,0,0.6206600000150502,400.4088084998075,None,,,,,,,po2,2022_Apr_08_1200,training+cueing,2021.1.4,59.929870020470986,
Self.png,You,Self ,c,1,11,21,91,,,,,1,0,1,0,,,,,1,9,21,9,,,,,,,,,,,,,,,,,,,,,1.431,1.67,401.16601449996233,None,,,,,,,,,,,,,,,,,,,,401.7019189998973,402.2101425000001,0.500157339964062,None,402.1767785998527,402.276858399855,402.1767785998527,402.276858399855,402.276858399855,None,c,1,0.22460060007870197,402.276858399855,None,,,,,,,po2,2022_Apr_08_1200,training+cueing,2021.1.4,59.929870020470986,
Friend.png,Friend,Friend,c,2,12,22,92,,,,,1,0,1,0,,,,,1,10,22,4,,,,,,,,,,,,,,,,,,,,,1.69,1.928,402.6328103998676,None,,,,,,,,,,,,,,,,,,,,403.1714557998348,403.67784179979935,0.5121064400300384,None,403.66119359992445,403.7779061999172,403.66119359992445,403.7779061999172,403.7612118998077,None,m,0,0.18043210008181632,403.7612118998077,None,,,,,,,po2,2022_Apr_08_1200,training+cueing,2021.1.4,59.929870020470986,
Stranger.png,Stranger,Stranger,c,3,13,23,93,,,,,1,0,1,0,,,,,1,11,23,8,,,,,,,,,,,,,,,,,,,,,1.444,1.787,404.07163229980506,None,,,,,,,,,,,,,,,,,,,,404.6067066998221,405.11224849987775,0.5076856396626681,1.007952539715916,405.09556999988854,405.2123161999043,405.09556999988854,405.2123161999043,405.19559459993616,None,None,0,,405.19559459993616,None,,,,,,,po2,2022_Apr_08_1200,training+cueing,2021.1.4,59.929870020470986,
Self.png,You,Self ,c,1,11,21,91,,,,,1,0,1,0,,,,,2,0,24,0,,,,,,,,,,,,,,,,,,,,,1.641,1.481,406.750901899999,None,,,,,,,,,,,,,,,,,,,,407.2918643997982,407.79752109991387,0.5109656399581581,1.0112498397938907,407.78084829985164,407.8808908998035,407.78084829985164,407.8808908998035,407.8808908998035,None,m,0,0.5406275000423193,407.8808908998035,None,,,,,,,po2,2022_Apr_08_1200,training+cueing,2021.1.4,59.929870020470986,
Friend.png,Friend,Friend,c,2,12,22,92,,,,,1,0,1,0,,,,,2,1,25,10,,,,,,,,,,,,,,,,,,,,,1.608,2.333,408.55424159998074,None,,,,,,,,,,,,,,,,,,,,409.0917523999233,409.5988008999266,0.5134073398075998,1.013683839701116,409.58216579980217,409.6988588999957,409.58216579980217,409.6988588999957,409.68212319980375,None,None,0,,409.68212319980375,None,,,,,,,po2,2022_Apr_08_1200,training+cueing,2021.1.4,59.929870020470986,
Self.png,You,Self ,c,1,11,21,91,,,,,1,0,1,0,,,,,2,2,26,9,,,,,,,,,,,,,,,,,,,,,1.616,1.619,411.4042905999813,None,,,,,,,,,,,,,,,,,,,,411.9444110998884,412.4508969997987,0.5116810398176312,1.0119718397036195,412.43419699999504,412.53424409986474,412.43419699999504,412.53424409986474,412.53424409986474,None,m,0,0.7192252001259476,412.53424409986474,None,,,,,,,po2,2022_Apr_08_1200,training+cueing,2021.1.4,59.929870020470986,
Stranger.png,Stranger,Stranger,c,3,13,23,93,,,,,1,0,1,0,,,,,2,3,27,11,,,,,,,,,,,,,,,,,,,,,1.563,2.037,413.3908918998204,None,,,,,,,,,,,,,,,,,,,,413.93143649981357,414.43569419998676,0.5089603397063911,1.0093415395822376,414.4189994998742,414.5358162999619,414.4189994998742,414.5358162999619,414.519118799828,None,None,0,,414.519118799828,None,,,,,,,po2,2022_Apr_08_1200,training+cueing,2021.1.4,59.929870020470986,
Friend.png,Stranger,Friend,m,3.2,19,29,99,,,,,1,0,1,0,,,,,2,4,28,5,,,,,,,,,,,,,,,,,,,,,1.454,2.266,416.19448859989643,None,,,,,,,,,,,,,,,,,,,,416.7313573998399,417.2377049999777,0.5109367398545146,None,417.22103069978766,417.3377467999235,417.22103069978766,417.3377467999235,417.321076199878,None,c,0,0.3803732998203486,417.321076199878,None,,,,,,,po2,2022_Apr_08_1200,training+cueing,2021.1.4,59.929870020470986,
Stranger.png,Friend,Stranger,m,2.3,17,27,97,,,,,1,0,1,0,,,,,2,5,29,7,,,,,,,,,,,,,,,,,,,,,1.5,2.154,417.82771189999767,None,,,,,,,,,,,,,,,,,,,,418.36679150001146,418.87222349992953,0.5113980399910361,None,418.8555111999158,418.97225899994373,418.8555111999158,418.97225899994373,418.955567299854,None,m,1,0.1859199998434633,418.955567299854,None,,,,,,,po2,2022_Apr_08_1200,training+cueing,2021.1.4,59.929870020470986,
Self.png,Stranger,Self ,m,3.1,18,28,98,,,,,1,0,1,0,,,,,2,6,30,2,,,,,,,,,,,,,,,,,,,,,1.435,1.245,419.2790750998538,None,,,,,,,,,,,,,,,,,,,,419.81859699985944,420.32325969985686,0.5103133397642523,None,420.3065738999285,420.42329599987715,420.3065738999285,420.42329599987715,420.40660839993507,None,m,1,0.3508119999896735,420.40660839993507,None,,,,,,,po2,2022_Apr_08_1200,training+cueing,2021.1.4,59.929870020470986,
Self.png,Friend,Self ,m,2.1,16,26,96,,,,,1,0,1,0,,,,,2,7,31,1,,,,,,,,,,,,,,,,,,,,,1.64,2.235,420.8798510998022,None,,,,,,,,,,,,,,,,,,,,421.4173351000063,421.924408899853,0.5122337397187948,None,421.907779000001,422.02446240000427,421.907779000001,422.02446240000427,422.0077780999709,None,c,0,0.2537077001761645,422.0077780999709,None,,,,,,,po2,2022_Apr_08_1200,training+cueing,2021.1.4,59.929870020470986,
Stranger.png,Stranger,Stranger,c,3,13,23,93,,,,,1,0,1,0,,,,,2,8,32,8,,,,,,,,,,,,,,,,,,,,,1.708,2.106,422.3978136999067,None,,,,,,,,,,,,,,,,,,,,422.9366989999544,423.4421802998986,0.5100964398588985,None,423.4255128998775,423.54230939992703,423.4255128998775,423.54230939992703,423.52559199999087,None,c,1,0.3359387000091374,423.52559199999087,None,,,,,,,po2,2022_Apr_08_1200,training+cueing,2021.1.4,59.929870020470986,
Friend.png,You,Friend,m,1.2,14,24,94,,,,,1,0,1,0,,,,,2,9,33,3,,,,,,,,,,,,,,,,,,,,,1.543,2.039,423.9987862999551,None,,,,,,,,,,,,,,,,,,,,424.5699406999629,425.076958599966,0.514849399914965,None,425.0602502999827,425.1604163998272,425.0602502999827,425.1604163998272,425.1604163998272,None,c,0,0.23704369994811714,425.1604163998272,None,,,,,,,po2,2022_Apr_08_1200,training+cueing,2021.1.4,59.929870020470986,
Friend.png,Friend,Friend,c,2,12,22,92,,,,,1,0,1,0,,,,,2,10,34,4,,,,,,,,,,,,,,,,,,,,,1.645,1.264,425.53374419989996,None,,,,,,,,,,,,,,,,,,,,426.0713684000075,426.5777919997927,0.5112814398016781,None,426.56111379992217,426.677821099991,426.56111379992217,426.677821099991,426.66118769999593,None,m,0,0.19231169996783137,426.66118769999593,None,,,,,,,po2,2022_Apr_08_1200,training+cueing,2021.1.4,59.929870020470986,
Stranger.png,You,Stranger,m,1.3,15,25,95,,,,,1,0,1,0,,,,,2,11,35,6,,,,,,,,,,,,,,,,,,,,,1.501,1.636,426.9839498999063,None,,,,,,,,,,,,,,,,,,,,427.5223411999177,428.02883719978854,0.5129485398065299,1.0132546399254352,428.01214809995145,428.1122110998258,428.01214809995145,428.1122110998258,428.1122110998258,None,None,0,,428.1122110998258,None,,,,,,,po2,2022_Apr_08_1200,training+cueing,2021.1.4,59.929870020470986,
Stranger.png,Stranger,Stranger,c,3,13,23,93,,,,,1,0,1,0,,,,,3,0,36,8,,,,,,,,,,,,,,,,,,,,,1.452,1.587,429.717536999844,None,,,,,,,,,,,,,,,,,,,,430.257413999876,430.7641687998548,0.511359839932993,None,430.7475075998809,430.86421199981123,430.7475075998809,430.86421199981123,430.84751089988276,None,c,1,0.30998519994318485,430.84751089988276,None,,,,,,,po2,2022_Apr_08_1200,training+cueing,2021.1.4,59.929870020470986,
Stranger.png,You,Stranger,m,1.3,15,25,95,,,,,1,0,1,0,,,,,3,1,37,6,,,,,,,,,,,,,,,,,,,,,1.786,1.537,431.2877144999802,None,,,,,,,,,,,,,,,,,,,,431.82562529994175,432.3319739999715,0.511586939683184,None,432.3153083999641,432.415336899925,432.3153083999641,432.415336899925,432.415336899925,None,m,1,0.0701208000537008,432.415336899925,None,,,,,,,po2,2022_Apr_08_1200,training+cueing,2021.1.4,59.929870020470986,
Self.png,You,Self ,c,1,11,21,91,,,,,1,0,1,0,,,,,3,2,38,0,,,,,,,,,,,,,,,,,,,,,1.484,1.936,432.62164309993386,None,,,,,,,,,,,,,,,,,,,,433.1575803000014,433.66629849979654,0.49968263995833695,None,433.63289539981633,433.7329435998108,433.63289539981633,433.7329435998108,433.7329435998108,None,m,0,0.3044957001693547,433.7329435998108,None,,,,,,,po2,2022_Apr_08_1200,training+cueing,2021.1.4,59.929870020470986,
Self.png,Friend,Self ,m,2.1,16,26,96,,,,,1,0,1,0,,,,,3,3,39,1,,,,,,,,,,,,,,,,,,,,,1.616,1.832,434.1727748999838,None,,,,,,,,,,,,,,,,,,,,434.7113327998668,435.21740480000153,0.5099125399719924,None,435.20070729986764,435.317438500002,435.20070729986764,435.317438500002,435.3007474998012,None,m,1,0.11270359996706247,435.3007474998012,None,,,,,,,po2,2022_Apr_08_1200,training+cueing,2021.1.4,59.929870020470986,
Friend.png,Stranger,Friend,m,3.2,19,29,99,,,,,1,0,1,0,,,,,3,4,40,5,,,,,,,,,,,,,,,,,,,,,1.463,1.244,435.5401198999025,None,,,,,,,,,,,,,,,,,,,,436.08005029987544,436.585064999992,0.5096363397315145,None,436.56839419994503,436.68512439983897,436.56839419994503,436.68512439983897,436.66839369991794,None,m,1,0.15307910018600523,436.66839369991794,None,,,,,,,po2,2022_Apr_08_1200,training+cueing,2021.1.4,59.929870020470986,
Friend.png,Friend,Friend,c,2,12,22,92,,,,,1,0,1,0,,,,,3,5,41,10,,,,,,,,,,,,,,,,,,,,,1.675,1.971,436.95766449999064,None,,,,,,,,,,,,,,,,,,,,437.4973402998876,438.0027617998421,0.5103368400596082,None,437.9860790998209,438.1027735997923,437.9860790998209,438.1027735997923,438.08608759986237,None,m,0,0.09535359987057745,438.08608759986237,None,,,,,,,po2,2022_Apr_08_1200,training+cueing,2021.1.4,59.929870020470986,
Stranger.png,Friend,Stranger,m,2.3,17,27,97,,,,,1,0,1,0,,,,,3,6,42,7,,,,,,,,,,,,,,,,,,,,,1.686,1.775,438.30940679996274,None,,,,,,,,,,,,,,,,,,,,438.8457625999581,439.35372399981134,0.5144838399719447,None,439.3370755999349,439.45375279989094,439.3370755999349,439.45375279989094,439.4370486999396,None,m,1,0.02435500011779368,439.4370486999396,None,,,,,,,po2,2022_Apr_08_1200,training+cueing,2021.1.4,59.929870020470986,
Self.png,Stranger,Self ,m,3.1,18,28,98,,,,,1,0,1,0,,,,,3,7,43,2,,,,,,,,,,,,,,,,,,,,,1.418,1.552,439.59328129980713,None,,,,,,,,,,,,,,,,,,,,440.19019789993763,440.70490129990503,0.5121412798762321,None,440.6881796999369,440.804896999849,440.6881796999369,440.804896999849,440.7881997998338,None,m,1,0.19329380011186004,440.7881997998338,None,,,,,,,po2,2022_Apr_08_1200,training+cueing,2021.1.4,59.929870020470986,
Self.png,You,Self ,c,1,11,21,91,,,,,1,0,1,0,,,,,3,8,44,9,,,,,,,,,,,,,,,,,,,,,1.603,1.249,441.1110326999333,None,,,,,,,,,,,,,,,,,,,,441.64925279980525,442.15576879982837,0.5107136396691203,None,442.13910559983924,442.23912819987163,442.13910559983924,442.23912819987163,442.23912819987163,None,c,1,0.08629290014505386,442.23912819987163,None,,,,,,,po2,2022_Apr_08_1200,training+cueing,2021.1.4,59.929870020470986,
Stranger.png,Stranger,Stranger,c,3,13,23,93,,,,,1,0,1,0,,,,,3,9,45,11,,,,,,,,,,,,,,,,,,,,,1.658,2.483,442.46213629981503,None,,,,,,,,,,,,,,,,,,,,443.0017956998199,443.5067646999378,0.5096545398700982,None,443.49009449989535,443.6067760998849,443.49009449989535,443.6067760998849,443.5901096998714,None,m,0,0.0793627998791635,443.5901096998714,None,,,,,,,po2,2022_Apr_08_1200,training+cueing,2021.1.4,59.929870020470986,
Friend.png,You,Friend,m,1.2,14,24,94,,,,,1,0,1,0,,,,,3,10,46,3,,,,,,,,,,,,,,,,,,,,,1.696,2.312,443.7965225998778,None,,,,,,,,,,,,,,,,,,,,444.33559219981544,444.84115999983624,0.5116014399100095,None,444.82433709991165,444.9243742998224,444.82433709991165,444.9243742998224,444.9243742998224,None,m,1,0.009002499980852008,444.9243742998224,None,,,,,,,po2,2022_Apr_08_1200,training+cueing,2021.1.4,59.929870020470986,
Friend.png,Friend,Friend,c,2,12,22,92,,,,,1,0,1,0,,,,,3,11,47,4,,,,,,,,,,,,,,,,,,,,,1.752,1.496,445.06500980001874,None,,,,,,,,,,,,,,,,,,,,445.6130661999341,446.125282399822,0.5061967398505658,None,446.1086126000155,446.22531659994274,446.1086126000155,446.22531659994274,446.2086417998653,None,m,0,0.06880229990929365,446.2086417998653,None,,,,,,,po2,2022_Apr_08_1200,training+cueing,2021.1.4,59.929870020470986,
Friend.png,Stranger,Friend,m,3.2,19,29,99,,,,,1,0,1,0,,,,,4,0,48,5,,,,,,,,,,,,,,,,,,,,,1.488,1.684,446.41539689991623,None,,,,,,,,,,,,,,,,,,,,446.9539854999166,447.45961709995754,0.5109032401815057,None,447.44289839989506,447.5596356999595,447.44289839989506,447.5596356999595,447.5429083998315,None,m,1,0.04658180009573698,447.5429083998315,None,,,,,,,po2,2022_Apr_08_1200,training+cueing,2021.1.4,59.929870020470986,
Self.png,Friend,Self ,m,2.1,16,26,96,,,,,1,0,1,0,,,,,4,1,49,1,,,,,,,,,,,,,,,,,,,,,1.468,1.452,447.716138899792,None,,,,,,,,,,,,,,,,,,,,448.2550815998111,448.7605672997888,0.5120462398044765,None,448.74386289995164,448.8605753998272,448.74386289995164,448.8605753998272,448.84386959997937,None,m,1,0.15357980015687644,448.84386959997937,None,,,,,,,po2,2022_Apr_08_1200,training+cueing,2021.1.4,59.929870020470986,
Stranger.png,Stranger,Stranger,c,3,13,23,93,,,,,1,0,1,0,,,,,4,2,50,8,,,,,,,,,,,,,,,,,,,,,1.409,2.363,449.1339893999975,None,,,,,,,,,,,,,,,,,,,,449.6715152999386,450.1782170999795,0.5111963397357613,None,450.161535799969,450.2783121999819,450.161535799969,450.2783121999819,450.2616030999925,None,m,0,0.17577379988506436,450.2616030999925,None,,,,,,,po2,2022_Apr_08_1200,training+cueing,2021.1.4,59.929870020470986,
Friend.png,Friend,Friend,c,2,12,22,92,,,,,1,0,1,0,,,,,4,3,51,4,,,,,,,,,,,,,,,,,,,,,1.558,1.958,450.56857079989277,None,,,,,,,,,,,,,,,,,,,,451.1063278999645,451.6125947998371,0.5118429400026798,None,451.5958973998204,451.7126674999017,451.5958973998204,451.7126674999017,451.69598449999467,None,c,1,0.2454055999405682,451.69598449999467,None,,,,,,,po2,2022_Apr_08_1200,training+cueing,2021.1.4,59.929870020470986,
Friend.png,You,Friend,m,1.2,14,24,94,,,,,1,0,1,0,,,,,4,4,52,3,,,,,,,,,,,,,,,,,,,,,1.756,1.215,452.0697245998308,None,,,,,,,,,,,,,,,,,,,,452.60650200000964,453.1137070998084,0.5121109397150576,None,453.0970255997963,453.1970389999915,453.0970255997963,453.1970389999915,453.1970389999915,None,m,1,0.15243449993431568,453.1970389999915,None,,,,,,,po2,2022_Apr_08_1200,training+cueing,2021.1.4,59.929870020470986,
Stranger.png,You,Stranger,m,1.3,15,25,95,,,,,1,0,1,0,,,,,4,5,53,6,,,,,,,,,,,,,,,,,,,,,1.597,1.8,453.48683770000935,None,,,,,,,,,,,,,,,,,,,,454.02572009991854,454.5313906997908,0.5112861397210509,None,454.5147434999235,454.61475639999844,454.5147434999235,454.61475639999844,454.61475639999844,None,m,1,0.04673409997485578,454.61475639999844,None,,,,,,,po2,2022_Apr_08_1200,training+cueing,2021.1.4,59.929870020470986,
Stranger.png,Friend,Stranger,m,2.3,17,27,97,,,,,1,0,1,0,,,,,4,6,54,7,,,,,,,,,,,,,,,,,,,,,1.455,1.372,454.78742279997095,None,,,,,,,,,,,,,,,,,,,,455.3282568999566,455.83233969984576,0.5082181401085109,None,455.8157476999331,455.93235479993746,455.8157476999331,455.93235479993746,455.9156700000167,None,m,1,0.0097785999532789,455.9156700000167,None,,,,,,,po2,2022_Apr_08_1200,training+cueing,2021.1.4,59.929870020470986,
Self.png,You,Self ,c,1,11,21,91,,,,,1,0,1,0,,,,,4,7,55,0,,,,,,,,,,,,,,,,,,,,,1.674,1.418,456.05512609984726,None,,,,,,,,,,,,,,,,,,,,456.59367590001784,457.09988729981706,0.5107169395778328,None,457.0832119998522,457.18327379995026,457.0832119998522,457.18327379995026,457.18327379995026,None,m,0,0.054163899971172214,457.18327379995026,None,,,,,,,po2,2022_Apr_08_1200,training+cueing,2021.1.4,59.929870020470986,
Self.png,You,Self ,c,1,11,21,91,,,,,1,0,1,0,,,,,4,8,56,9,,,,,,,,,,,,,,,,,,,,,1.751,1.243,457.37343899998814,None,,,,,,,,,,,,,,,,,,,,457.9095623998437,458.4175231999252,0.49940703995525837,0.9996963399462402,458.3841453997884,458.48420739988796,458.3841453997884,458.48420739988796,458.48420739988796,None,m,0,0.49727599998004735,458.48420739988796,None,,,,,,,po2,2022_Apr_08_1200,training+cueing,2021.1.4,59.929870020470986,
Self.png,Stranger,Self ,m,3.1,18,28,98,,,,,1,0,1,0,,,,,4,9,57,2,,,,,,,,,,,,,,,,,,,,,1.751,1.733,459.10707299993373,None,,,,,,,,,,,,,,,,,,,,459.64621069980785,460.15215469989926,0.5120349400676787,None,460.13544689980336,460.25216149981134,460.13544689980336,460.25216149981134,460.2354491997976,None,c,0,0.010093699907884002,460.2354491997976,None,,,,,,,po2,2022_Apr_08_1200,training+cueing,2021.1.4,59.929870020470986,
Stranger.png,Stranger,Stranger,c,3,13,23,93,,,,,1,0,1,0,,,,,4,10,58,11,,,,,,,,,,,,,,,,,,,,,1.682,1.968,460.37554779998027,None,,,,,,,,,,,,,,,,,,,,460.9109441000037,461.41971599985845,0.5156363400164992,None,461.40304549993016,461.5197848000098,461.40304549993016,461.5197848000098,461.5030347998254,None,m,0,0.1663932001683861,461.5030347998254,None,,,,,,,po2,2022_Apr_08_1200,training+cueing,2021.1.4,59.929870020470986,
Friend.png,Friend,Friend,c,2,12,22,92,,,,,1,0,1,0,,,,,4,11,59,10,,,,,,,,,,,,,,,,,,,,,1.542,1.366,461.79326789989136,None,,,,,,,,,,,,,,,,,,,,462.33270399994217,462.8374085999094,0.5087762400507927,None,462.82076069992036,462.93744759983383,462.82076069992036,462.93744759983383,462.9207463997882,None,c,1,0.012752699898555875,462.9207463997882,None,,,,,,,po2,2022_Apr_08_1200,training+cueing,2021.1.4,59.929870020470986,
Stranger.png,Stranger,Stranger,c,3,13,23,93,,,,,1,0,1,0,,,,,5,0,60,11,,,,,,,,,,,,,,,,,,,,,1.659,1.478,463.059949999908,None,,,,,,,,,,,,,,,,,,,,463.5982936997898,464.10494229989126,0.5114223398268223,None,464.08833499997854,464.2050187999848,464.08833499997854,464.2050187999848,464.18830469995737,None,m,0,0.025107000023126602,464.18830469995737,None,,,,,,,po2,2022_Apr_08_1200,training+cueing,2021.1.4,59.929870020470986,
Self.png,Stranger,Self ,m,3.1,18,28,98,,,,,1,0,1,0,,,,,5,1,61,2,,,,,,,,,,,,,,,,,,,,,1.598,2.139,464.3450420999434,None,,,,,,,,,,,,,,,,,,,,464.8805203998927,465.3892051000148,0.4997329399921,None,465.35585769987665,465.4559791998472,465.35585769987665,465.4559791998472,465.4559791998472,None,c,0,0.2774960999377072,465.4559791998472,None,,,,,,,po2,2022_Apr_08_1200,training+cueing,2021.1.4,59.929870020470986,
Friend.png,Friend,Friend,c,2,12,22,92,,,,,1,0,1,0,,,,,5,2,62,10,,,,,,,,,,,,,,,,,,,,,1.545,1.558,465.862129899906,None,,,,,,,,,,,,,,,,,,,,466.3997847000137,466.9069966999814,0.5137332398444414,None,466.8903326999862,467.0072504999116,466.8903326999862,467.0072504999116,466.9903496999759,None,c,1,0.2150697000324726,466.9903496999759,None,,,,,,,po2,2022_Apr_08_1200,training+cueing,2021.1.4,59.929870020470986,
Stranger.png,Stranger,Stranger,c,3,13,23,93,,,,,1,0,1,0,,,,,5,3,63,8,,,,,,,,,,,,,,,,,,,,,1.608,1.749,467.33065619994886,None,,,,,,,,,,,,,,,,,,,,467.8685502000153,468.37489919993095,0.5099274402018636,None,468.35806749993935,468.47479749983177,468.35806749993935,468.47479749983177,468.45805639983155,None,c,1,0.37944719986990094,468.45805639983155,None,,,,,,,po2,2022_Apr_08_1200,training+cueing,2021.1.4,59.929870020470986,
Self.png,Friend,Self ,m,2.1,16,26,96,,,,,1,0,1,0,,,,,5,4,64,1,,,,,,,,,,,,,,,,,,,,,1.649,1.907,468.96496489993297,None,,,,,,,,,,,,,,,,,,,,469.504989199806,470.009263999993,0.5092940398026258,None,469.99258189997636,470.10931939980946,469.99258189997636,470.10931939980946,470.09260779991746,None,m,1,0.34488660003989935,470.09260779991746,None,,,,,,,po2,2022_Apr_08_1200,training+cueing,2021.1.4,59.929870020470986,
Self.png,You,Self ,c,1,11,21,91,,,,,1,0,1,0,,,,,5,5,65,0,,,,,,,,,,,,,,,,,,,,,1.562,2.467,470.5658892998472,None,,,,,,,,,,,,,,,,,,,,471.10452399984933,471.61040219990537,0.5123193399049342,1.0125647399108857,471.59376869979315,471.6937884998042,471.59376869979315,471.6937884998042,471.6937884998042,None,m,0,0.6156390001997352,471.6937884998042,None,,,,,,,po2,2022_Apr_08_1200,training+cueing,2021.1.4,59.929870020470986,
Friend.png,Stranger,Friend,m,3.2,19,29,99,,,,,1,0,1,0,,,,,5,6,66,5,,,,,,,,,,,,,,,,,,,,,1.602,2.234,472.4342956999317,None,,,,,,,,,,,,,,,,,,,,472.9724240999203,473.4784304997884,0.5105363400653005,None,473.46174199995585,473.5784876998514,473.46174199995585,473.5784876998514,473.5617560998071,None,c,0,0.027688800124451518,473.5617560998071,None,,,,,,,po2,2022_Apr_08_1200,training+cueing,2021.1.4,59.929870020470986,
Self.png,You,Self ,c,1,11,21,91,,,,,1,0,1,0,,,,,5,7,67,9,,,,,,,,,,,,,,,,,,,,,1.742,1.507,473.71820129989646,None,,,,,,,,,,,,,,,,,,,,474.25629699998535,474.7628120998852,0.5127619397826493,None,474.74616499990225,474.846200699918,474.74616499990225,474.846200699918,474.846200699918,None,c,1,0.23118550004437566,474.846200699918,None,,,,,,,po2,2022_Apr_08_1200,training+cueing,2021.1.4,59.929870020470986,
Friend.png,Friend,Friend,c,2,12,22,92,,,,,1,0,1,0,,,,,5,8,68,4,,,,,,,,,,,,,,,,,,,,,1.488,1.635,475.202812399948,None,,,,,,,,,,,,,,,,,,,,475.73963299999014,476.2470941999927,0.5126680398825556,None,476.23043649992906,476.34714440000243,476.23043649992906,476.34714440000243,476.3304480998777,None,m,0,0.18702799989841878,476.3304480998777,None,,,,,,,po2,2022_Apr_08_1200,training+cueing,2021.1.4,59.929870020470986,
Stranger.png,You,Stranger,m,1.3,15,25,95,,,,,1,0,1,0,,,,,5,9,69,6,,,,,,,,,,,,,,,,,,,,,1.778,2.279,476.6536210998893,None,,,,,,,,,,,,,,,,,,,,477.19177059992217,477.69810349983163,0.5122032398357987,None,477.6814786999021,477.78150649997406,477.6814786999021,477.78150649997406,477.78150649997406,None,c,0,0.07997379987500608,477.78150649997406,None,,,,,,,po2,2022_Apr_08_1200,training+cueing,2021.1.4,59.929870020470986,
Friend.png,You,Friend,m,1.2,14,24,94,,,,,1,0,1,0,,,,,5,10,70,3,,,,,,,,,,,,,,,,,,,,,1.623,2.173,477.9876304999925,None,,,,,,,,,,,,,,,,,,,,478.5230369998608,479.03246019990183,0.5012590601108968,None,479.0157775999978,479.11578969983384,479.0157775999978,479.11578969983384,479.11578969983384,None,m,1,0.12162089999765158,479.11578969983384,None,,,,,,,po2,2022_Apr_08_1200,training+cueing,2021.1.4,59.929870020470986,
Stranger.png,Friend,Stranger,m,2.3,17,27,97,,,,,1,0,1,0,,,,,5,11,71,7,,,,,,,,,,,,,,,,,,,,,1.462,1.507,479.3724219999276,None,,,,,,,,,,,,,,,,,,,,479.9093520999886,480.4167779998388,0.5120254398789257,None,480.400123299798,480.5168269998394,480.400123299798,480.5168269998394,480.5001284999307,None,c,0,0.17741640005260706,480.5001284999307,None,,,,,,,po2,2022_Apr_08_1200,training+cueing,2021.1.4,59.929870020470986,
Stranger.png,Friend,Stranger,m,2.3,17,27,97,,,,,1,0,1,0,,,,,6,0,72,7,,,,,,,,,,,,,,,,,,,,,1.536,2.5,480.8069976998959,None,,,,,,,,,,,,,,,,,,,,481.34266749978997,481.8511632999871,0.5012091600801796,1.0015079600270838,481.8344858000055,481.9511986998841,481.8344858000055,481.9511986998841,481.9511986998841,None,m,1,1.302250999957323,481.9511986998841,None,,,,,,,po2,2022_Apr_08_1200,training+cueing,2021.1.4,59.929870020470986,
Friend.png,You,Friend,m,1.2,14,24,94,,,,,1,0,1,0,,,,,6,1,73,3,,,,,,,,,,,,,,,,,,,,,1.626,1.58,483.3753026998602,None,,,,,,,,,,,,,,,,,,,,483.9133398998529,484.4197164999787,0.5119754399638623,None,484.40301140001975,484.5030697998591,484.40301140001975,484.5030697998591,484.5030697998591,None,m,1,0.22236229991540313,484.5030697998591,None,,,,,,,po2,2022_Apr_08_1200,training+cueing,2021.1.4,59.929870020470986,
Self.png,You,Self ,c,1,11,21,91,,,,,1,0,1,0,,,,,6,2,74,0,,,,,,,,,,,,,,,,,,,,,1.705,1.436,484.85928859980777,None,,,,,,,,,,,,,,,,,,,,485.3951469999738,485.90407479996793,0.49959724000655115,0.9999258401803672,485.87071089982055,485.9707788999658,485.87071089982055,485.9707788999658,485.9707788999658,None,m,0,0.4507615000475198,485.9707788999658,None,,,,,,,po2,2022_Apr_08_1200,training+cueing,2021.1.4,59.929870020470986,
Stranger.png,Stranger,Stranger,c,3,13,23,93,,,,,1,0,1,0,,,,,6,3,75,11,,,,,,,,,,,,,,,,,,,,,1.515,1.886,486.5446615999099,None,,,,,,,,,,,,,,,,,,,,487.0827538999729,487.5886812999379,0.5120180398225784,None,487.5719951998908,487.6886993998196,487.5719951998908,487.6886993998196,487.6719827998895,None,m,0,0.30148250004276633,487.6719827998895,None,,,,,,,po2,2022_Apr_08_1200,training+cueing,2021.1.4,59.929870020470986,
Friend.png,Friend,Friend,c,2,12,22,92,,,,,1,0,1,0,,,,,6,4,76,4,,,,,,,,,,,,,,,,,,,,,1.46,1.36,488.09509580000304,None,,,,,,,,,,,,,,,,,,,,488.6337168000173,489.1398055998143,0.5102118400391191,None,489.12311499984935,489.23982389993034,489.12311499984935,489.23982389993034,489.22307549999095,None,m,0,0.1903838999569416,489.22307549999095,None,,,,,,,po2,2022_Apr_08_1200,training+cueing,2021.1.4,59.929870020470986,
Self.png,Stranger,Self ,m,3.1,18,28,98,,,,,1,0,1,0,,,,,6,5,77,2,,,,,,,,,,,,,,,,,,,,,1.417,2.277,489.5457315999083,None,,,,,,,,,,,,,,,,,,,,490.08543509989977,490.59084379998967,0.5100933399517089,1.0103709399700165,490.574151000008,490.69086429988965,490.574151000008,490.69086429988965,490.6741690998897,None,c,0,0.8192985998466611,490.6741690998897,None,,,,,,,po2,2022_Apr_08_1200,training+cueing,2021.1.4,59.929870020470986,
Friend.png,Friend,Friend,c,2,12,22,92,,,,,1,0,1,0,,,,,6,6,78,10,,,,,,,,,,,,,,,,,,,,,1.667,1.276,491.6313783999067,None,,,,,,,,,,,,,,,,,,,,492.1692227998283,492.67564339982346,0.5114523398224264,1.0117659396491945,492.65898509998806,492.77572009991854,492.65898509998806,492.77572009991854,492.75902729993686,None,m,0,1.1504199001938105,492.75902729993686,None,,,,,,,po2,2022_Apr_08_1200,training+cueing,2021.1.4,59.929870020470986,
Self.png,You,Self ,c,1,11,21,91,,,,,1,0,1,0,,,,,6,7,79,9,,,,,,,,,,,,,,,,,,,,,1.439,1.882,494.03275669994764,None,,,,,,,,,,,,,,,,,,,,494.56855709990487,495.0773795999121,0.5153302396647632,None,495.06073379982263,495.1607774000149,495.06073379982263,495.1607774000149,495.1607774000149,None,m,0,0.09272129996679723,495.1607774000149,None,,,,,,,po2,2022_Apr_08_1200,training+cueing,2021.1.4,59.929870020470986,
Stranger.png,You,Stranger,m,1.3,15,25,95,,,,,1,0,1,0,,,,,6,8,80,6,,,,,,,,,,,,,,,,,,,,,1.667,2.241,495.38368169986643,None,,,,,,,,,,,,,,,,,,,,495.9194716999773,496.42837229999714,0.5013992600142956,None,496.41168359993026,496.51173779997043,496.41168359993026,496.51173779997043,496.51173779997043,None,m,1,0.19765420001931489,496.51173779997043,None,,,,,,,po2,2022_Apr_08_1200,training+cueing,2021.1.4,59.929870020470986,
Self.png,Friend,Self ,m,2.1,16,26,96,,,,,1,0,1,0,,,,,6,9,81,1,,,,,,,,,,,,,,,,,,,,,1.745,2.118,496.8349697999656,None,,,,,,,,,,,,,,,,,,,,497.37348259985447,497.8773783999495,0.5126538397744298,None,497.8627772999462,497.9800309999846,497.8627772999462,497.9800309999846,497.9633378998842,None,m,1,0.07471080007962883,497.9633378998842,None,,,,,,,po2,2022_Apr_08_1200,training+cueing,2021.1.4,59.929870020470986,
Friend.png,Stranger,Friend,m,3.2,19,29,99,,,,,1,0,1,0,,,,,6,10,82,5,,,,,,,,,,,,,,,,,,,,,1.462,2.113,498.1731646999251,None,,,,,,,,,,,,,,,,,,,,498.7078746999614,499.21392479981296,0.5096358398441225,None,499.19723599986173,499.31379239982925,499.19723599986173,499.31379239982925,499.2972728998866,None,m,1,0.1641271999105811,499.2972728998866,None,,,,,,,po2,2022_Apr_08_1200,training+cueing,2021.1.4,59.929870020470986,
Stranger.png,Stranger,Stranger,c,3,13,23,93,,,,,1,0,1,0,,,,,6,11,83,8,,,,,,,,,,,,,,,,,,,,,1.471,1.945,499.58684799983166,None,,,,,,,,,,,,,,,,,,,,500.1225215999875,500.6313661998138,0.500131739769131,None,500.5980729998555,500.69812829978764,500.5980729998555,500.69812829978764,500.69812829978764,None,m,0,0.23536240006797016,500.69812829978764,None,,,,,,,po2,2022_Apr_08_1200,training+cueing,2021.1.4,59.929870020470986,
Friend.png,Friend,Friend,c,2,12,22,92,,,,,1,0,1,0,,,,,7,0,84,10,,,,,,,,,,,,,,,,,,,,,1.67,1.37,501.0711675998755,None,,,,,,,,,,,,,,,,,,,,501.60763799981214,502.1158329998143,0.5145191398914903,1.014804339967668,502.0991634998936,502.2158929000143,502.0991634998936,502.2158929000143,502.1992046998348,None,c,1,0.49431199999526143,502.1992046998348,None,,,,,,,po2,2022_Apr_08_1200,training+cueing,2021.1.4,59.929870020470986,
Self.png,Stranger,Self ,m,3.1,18,28,98,,,,,1,0,1,0,,,,,7,1,85,2,,,,,,,,,,,,,,,,,,,,,1.714,1.559,502.8228044998832,None,,,,,,,,,,,,,,,,,,,,503.37680629990064,503.8837925000116,0.5147524198982865,None,503.86710449983366,503.9839850999415,503.86710449983366,503.9839850999415,503.96725719980896,None,m,1,0.11822339985519648,503.96725719980896,None,,,,,,,po2,2022_Apr_08_1200,training+cueing,2021.1.4,59.929870020470986,
Friend.png,Stranger,Friend,m,3.2,19,29,99,,,,,1,0,1,0,,,,,7,2,86,5,,,,,,,,,,,,,,,,,,,,,1.477,2.344,504.207312699873,None,,,,,,,,,,,,,,,,,,,,504.74344909982756,505.2515199999325,0.5004362401086837,None,505.2182630999014,505.3181554998737,505.2182630999014,505.3181554998737,505.3181554998737,None,m,1,0.25525619997642934,505.3181554998737,None,,,,,,,po2,2022_Apr_08_1200,training+cueing,2021.1.4,59.929870020470986,
Stranger.png,Stranger,Stranger,c,3,13,23,93,,,,,1,0,1,0,,,,,7,3,87,8,,,,,,,,,,,,,,,,,,,,,1.545,2.128,505.7084740998689,None,,,,,,,,,,,,,,,,,,,,506.2421116998885,506.75256379996426,0.5016391603276134,None,506.73587259999476,506.8525795999449,506.73587259999476,506.8525795999449,506.8525795999449,None,m,0,0.3048473000526428,506.8525795999449,None,,,,,,,po2,2022_Apr_08_1200,training+cueing,2021.1.4,59.929870020470986,
