Image,Name,Face,CorrAns,Match,Face_onset,CResponse_onset,IResponse_onset,Match.thisRepN,Match.thisTrialN,Match.thisN,Match.thisIndex,Blocks.thisRepN,Blocks.thisTrialN,Blocks.thisN,Blocks.thisIndex,trials.thisRepN,trials.thisTrialN,trials.thisN,trials.thisIndex,trials_2.thisRepN,trials_2.thisTrialN,trials_2.thisN,trials_2.thisIndex,text.started,text.stopped,p1.started,p1.stopped,MatchInstructions.started,MatchInstructions.stopped,Name1.started,Name1.stopped,Face_Relevance.started,Face_Relevance.stopped,MismatchInstructions.started,MismatchInstructions.stopped,Rest_trainingInstruct.started,Rest_trainingInstruct.stopped,next8.keys,next8.rt,next8.started,next8.stopped,Ready.started,Ready.stopped,delay_one_picked,delay_two_picked,blank0.started,blank0.stopped,FixationCross1.started,FixationCross1.stopped,Name3.started,Name3.stopped,Face_Relevance3.started,Face_Relevance3.stopped,responseTime.started,responseTime.stopped,resp.keys,resp.corr,resp.started,resp.stopped,Accuracy.started,Accuracy.stopped,resp.rt,questions.started,questions.stopped,p2.started,p2.stopped,FixationCross3.started,FixationCross3.stopped,port_Face_onset.started,port_Face_onset.stopped,Name4.started,Name4.stopped,Face_Relevance4.started,Face_Relevance4.stopped,responseTime2.started,responseTime2.stopped,Response.keys,Response.corr,Response.rt,Response.started,Response.stopped,p3.started,p3.stopped,Finish.started,Finish.stopped,gender,age,participant,date,expName,psychopyVersion,frameRate,
Stranger.png,Stranger,,,,,,,0,0,0,2,,,,,,,,,,,,,16.301020300015807,None,0.005976349813863635,0.5293128499761224,18.29381940001622,None,20.456059199990705,None,20.456059199990705,None,,,,,,,,,,,,,,,,,,,,,,,,,,,,,,,,,,,,,,,,,,,,,,,,,,,,,,,pp,2022_Apr_05_0930,training+cueing,2021.1.4,59.93428807646222,
Self.png,You,,,,,,,0,1,1,0,,,,,,,,,,,,,,,,,,,40.35526799992658,None,40.35526799992658,None,,,,,,,,,,,,,,,,,,,,,,,,,,,,,,,,,,,,,,,,,,,,,,,,,,,,,,,pp,2022_Apr_05_0930,training+cueing,2021.1.4,59.93428807646222,
Friend.png,Friend,,,,,,,0,2,2,1,,,,,,,,,,,,,,,,,,,60.35275540011935,None,60.35275540011935,None,,,,,,,,,,,,,,,,,,,,,,,,,,,,,,,,,,,,,,,,,,,,,,,,,,,,,,,pp,2022_Apr_05_0930,training+cueing,2021.1.4,59.93428807646222,
Friend.png,Stranger,Friend,m,3.2,19,29,99,,,,,0,0,0,0,0,0,0,5,,,,,,,,,,,,,,,80.30551189999096,None,82.30660040001385,None,space,1.5312959000002593,2.0087113499175757,None,85.842919500079,None,1.601,1.924,88.84894770011306,None,89.48903649998829,89.99575320002623,89.97907550004311,90.09580189990811,89.97907550004311,90.09580189990811,90.07910380000249,None,None,0,90.07910380000249,None,91.67843500012532,None,,,,,,,,,,,,,,,,,,,,,,,,,,,pp,2022_Apr_05_0930,training+cueing,2021.1.4,59.93428807646222,
Stranger.png,You,Stranger,m,1.3,15,25,95,,,,,0,0,0,0,0,1,1,6,,,,,,,,,,,,,,,,,,,,,,,,,1.403,2.347,92.08075470011681,None,92.61760250013322,93.13133460003883,93.11466550012119,93.21470870007761,93.11466550012119,93.21470870007761,93.21470870007761,None,m,1,93.21470870007761,None,94.51569789997302,None,1.264606500044465,,,,,,,,,,,,,,,,,,,,,,,,,,pp,2022_Apr_05_0930,training+cueing,2021.1.4,59.93428807646222,
Self.png,You,Self ,c,1,11,21,91,,,,,0,0,0,0,0,2,2,9,,,,,,,,,,,,,,,,,,,,,,,,,1.705,1.543,94.91651199990883,None,95.44446899998002,95.95002759993076,95.93333550007083,96.03342369990423,95.93333550007083,96.03342369990423,96.03342369990423,None,c,1,96.03342369990423,None,97.51785499998368,None,1.4538672000635415,,,,,,,,,,,,,,,,,,,,,,,,,,pp,2022_Apr_05_0930,training+cueing,2021.1.4,59.93428807646222,
Stranger.png,Stranger,Stranger,c,3,13,23,93,,,,,0,0,0,0,0,3,3,11,,,,,,,,,,,,,,,,,,,,,,,,,1.45,1.72,97.91839549993165,None,98.45906709996052,98.9688381999731,98.93556550005451,99.03559170011431,98.93556550005451,99.03559170011431,99.03559170011431,None,c,1,99.03559170011431,None,99.8528666999191,None,0.7876563998870552,,,,,,,,,,,,,,,,,,,,,,,,,,pp,2022_Apr_05_0930,training+cueing,2021.1.4,59.93428807646222,
Self.png,You,Self ,c,1,11,21,91,,,,,0,0,0,0,0,4,4,0,,,,,,,,,,,,,,,,,,,,,,,,,1.642,2.092,100.25319979991764,None,100.78676829999313,101.28726739995182,101.27060539997183,101.37060620007105,101.27060539997183,101.37060620007105,101.37060620007105,None,c,1,101.37060620007105,None,102.22127999993972,None,0.8261130000464618,,,,,,,,,,,,,,,,,,,,,,,,,,pp,2022_Apr_05_0930,training+cueing,2021.1.4,59.93428807646222,
Friend.png,Friend,Friend,c,2,12,22,92,,,,,0,0,0,0,0,5,5,10,,,,,,,,,,,,,,,,,,,,,,,,,1.796,1.294,102.6215297000017,None,103.15478450013325,103.6556094000116,103.63892409997061,103.75585049996153,103.63892409997061,103.75585049996153,103.75585049996153,None,c,1,103.75585049996153,None,104.85649139992893,None,1.0754468999803066,,,,,,,,,,,,,,,,,,,,,,,,,,pp,2022_Apr_05_0930,training+cueing,2021.1.4,59.93428807646222,
Self.png,Stranger,Self ,m,3.1,18,28,98,,,,,0,0,0,0,0,6,6,2,,,,,,,,,,,,,,,,,,,,,,,,,1.554,1.704,105.25707129994407,None,105.79384930012748,106.307489000028,106.29086449998431,106.40758080012165,106.29086449998431,106.40758080012165,106.3908963999711,None,m,1,106.3908963999711,None,107.5945971000474,None,1.1767188999801874,,,,,,,,,,,,,,,,,,,,,,,,,,pp,2022_Apr_05_0930,training+cueing,2021.1.4,59.93428807646222,
Stranger.png,Friend,Stranger,m,2.3,17,27,97,,,,,0,0,0,0,0,7,7,7,,,,,,,,,,,,,,,,,,,,,,,,,1.409,2.217,108.00881029991433,None,108.5432623999659,109.04281409992836,109.04281409992836,109.14287400012836,109.04281409992836,109.14287400012836,109.14287400012836,None,m,1,109.14287400012836,None,110.17702069994994,None,1.0163551000878215,,,,,,,,,,,,,,,,,,,,,,,,,,pp,2022_Apr_05_0930,training+cueing,2021.1.4,59.93428807646222,
Friend.png,You,Friend,m,1.2,14,24,94,,,,,0,0,0,0,0,8,8,3,,,,,,,,,,,,,,,,,,,,,,,,,1.616,1.377,110.5773901999928,None,111.1155318999663,111.6280944000464,111.61151459999382,111.71143119991757,111.61151459999382,111.71143119991757,111.71143119991757,None,c,0,111.71143119991757,None,112.83390299999155,None,1.087915100157261,,,,,,,,,,,,,,,,,,,,,,,,,,pp,2022_Apr_05_0930,training+cueing,2021.1.4,59.93428807646222,
Friend.png,Friend,Friend,c,2,12,22,92,,,,,0,0,0,0,0,9,9,4,,,,,,,,,,,,,,,,,,,,,,,,,1.728,1.365,113.24621549993753,None,113.78886259999126,114.29686630005017,114.28018909995444,114.39669009996578,114.28018909995444,114.39669009996578,114.38000000012107,None,m,0,114.38000000012107,None,114.99717599991709,None,0.5952953000087291,,,,,,,,,,,,,,,,,,,,,,,,,,pp,2022_Apr_05_0930,training+cueing,2021.1.4,59.93428807646222,
Self.png,Friend,Self ,m,2.1,16,26,96,,,,,0,0,0,0,0,10,10,1,,,,,,,,,,,,,,,,,,,,,,,,,1.644,1.632,115.39754400006495,None,115.9359615999274,116.44824830000289,116.43161699990742,116.54823670000769,116.43161699990742,116.54823670000769,116.53155490010977,None,None,0,116.53155490010977,None,118.18323480011895,None,,,,,,,,,,,,,,,,,,,,,,,,,,,pp,2022_Apr_05_0930,training+cueing,2021.1.4,59.93428807646222,
Stranger.png,Stranger,Stranger,c,3,13,23,93,,,,,0,0,0,0,0,11,11,8,,,,,,,,,,,,,,,,,,,,,,,,,1.471,1.667,118.58321140008047,None,119.12570740003139,119.63386910012923,119.61716399993747,119.73387659993023,119.61716399993747,119.73387659993023,119.7172040999867,None,c,1,119.7172040999867,None,120.55006320006214,None,0.810051399981603,,,,,,,,,,,,,,,,,,,,,,,,,,pp,2022_Apr_05_0930,training+cueing,2021.1.4,59.93428807646222,
Stranger.png,Friend,Stranger,m,2.3,17,27,97,,,,,0,0,0,0,,,,,0,0,0,7,,,,,,,,,,,,,,,,,,,135.5121943000704,None,1.48,2.332,139.02292970009148,None,,,,,,,,,,,,,,,,120.95144880004227,None,0.014405149966478348,0.5124965501017869,139.6546581001021,140.16550219990313,0.5030933001544327,1.003207900095731,140.14885289990343,140.26555070001632,140.14885289990343,140.26555070001632,140.24891759990714,None,m,1,1.2382980999536812,140.24891759990714,None,,,,,,,pp,2022_Apr_05_0930,training+cueing,2021.1.4,59.93428807646222,
Friend.png,Friend,Friend,c,2,12,22,92,,,,,0,0,0,0,,,,,0,1,1,4,,,,,,,,,,,,,,,,,,,,,1.47,1.38,141.62374660000205,None,,,,,,,,,,,,,,,,,,,,142.1630671999883,142.66739240009338,0.5078370501287282,1.0081166501622647,142.65058779995888,142.76733670011163,142.65058779995888,142.76733670011163,142.75063919997774,None,c,1,1.1046106999274343,142.75063919997774,None,,,,,,,pp,2022_Apr_05_0930,training+cueing,2021.1.4,59.93428807646222,
Self.png,Friend,Self ,m,2.1,16,26,96,,,,,0,0,0,0,,,,,0,2,2,1,,,,,,,,,,,,,,,,,,,,,1.415,2.192,143.99091159994714,None,,,,,,,,,,,,,,,,,,,,144.5299305000808,145.03553949994966,0.5096631499473006,1.0099557498469949,145.01886710012332,145.13560570008121,145.01886710012332,145.13560570008121,145.1188868000172,None,None,0,,145.1188868000172,None,,,,,,,pp,2022_Apr_05_0930,training+cueing,2021.1.4,59.93428807646222,
Stranger.png,Stranger,Stranger,c,3,13,23,93,,,,,0,0,0,0,,,,,0,3,3,8,,,,,,,,,,,,,,,,,,,,,1.726,1.605,146.64119160012342,None,,,,,,,,,,,,,,,,,,,,147.18562130001374,147.6874643000774,0.5033395497594029,1.0036061499267817,147.67080989992246,147.787529299967,147.67080989992246,147.787529299967,147.77081910008565,None,c,1,0.8045033998787403,147.77081910008565,None,,,,,,,pp,2022_Apr_05_0930,training+cueing,2021.1.4,59.93428807646222,
Friend.png,Stranger,Friend,m,3.2,19,29,99,,,,,0,0,0,0,,,,,0,4,4,5,,,,,,,,,,,,,,,,,,,,,1.704,2.027,148.71103590005077,None,,,,,,,,,,,,,,,,,,,,149.2571815000847,149.77233620011248,0.5135643500834703,1.0138461499009281,149.75564730004407,149.87235229997896,149.75564730004407,149.87235229997896,149.85565900010988,None,m,1,1.151734899962321,149.85565900010988,None,,,,,,,pp,2022_Apr_05_0930,training+cueing,2021.1.4,59.93428807646222,
Self.png,You,Self ,c,1,11,21,91,,,,,0,0,0,0,,,,,0,5,5,0,,,,,,,,,,,,,,,,,,,,,1.622,1.88,151.13096689991653,None,,,,,,,,,,,,,,,,,,,,151.67324490007013,152.17405049991794,0.5018614502623677,1.0021850501652807,152.1573372001294,152.2574203000404,152.1573372001294,152.2574203000404,152.2574203000404,None,c,1,0.973749800119549,152.2574203000404,None,,,,,,,pp,2022_Apr_05_0930,training+cueing,2021.1.4,59.93428807646222,
Self.png,Stranger,Self ,m,3.1,18,28,98,,,,,0,0,0,0,,,,,0,6,6,2,,,,,,,,,,,,,,,,,,,,,1.404,2.046,153.3649093999993,None,,,,,,,,,,,,,,,,,,,,153.90698620001785,154.40900720003992,0.5034489498939365,1.0036488499026746,154.39237880008295,154.50907279993407,154.39237880008295,154.50907279993407,154.49234939995222,None,m,1,0.9309044000692666,154.49234939995222,None,,,,,,,pp,2022_Apr_05_0930,training+cueing,2021.1.4,59.93428807646222,
Stranger.png,You,Stranger,m,1.3,15,25,95,,,,,0,0,0,0,,,,,0,7,7,6,,,,,,,,,,,,,,,,,,,,,1.654,1.947,155.54900899995118,None,,,,,,,,,,,,,,,,,,,,156.09087390010245,156.59392710006796,0.5057234501000494,1.0059866502415389,156.5772561999038,156.67727430001833,156.5772561999038,156.67727430001833,156.67727430001833,None,m,1,1.1300419999752194,156.67727430001833,None,,,,,,,pp,2022_Apr_05_0930,training+cueing,2021.1.4,59.93428807646222,
Friend.png,Friend,Friend,c,2,12,22,92,,,,,0,0,0,0,,,,,0,8,8,10,,,,,,,,,,,,,,,,,,,,,1.742,1.788,157.9343552000355,None,,,,,,,,,,,,,,,,,,,,158.47492780000903,158.9789855000563,0.5057279500178993,1.0062016500160098,158.96226630010642,159.07901370013133,158.96226630010642,159.07901370013133,159.06232029991224,None,c,1,0.9530298998579383,159.06232029991224,None,,,,,,,pp,2022_Apr_05_0930,training+cueing,2021.1.4,59.93428807646222,
Self.png,You,Self ,c,1,11,21,91,,,,,0,0,0,0,,,,,0,9,9,9,,,,,,,,,,,,,,,,,,,,,1.773,1.849,160.15351730003022,None,,,,,,,,,,,,,,,,,,,,160.6946485999506,161.19725689990446,0.5056307499762625,1.0064776500221342,161.18058550008573,161.2806315999478,161.18058550008573,161.2806315999478,161.2806315999478,None,c,1,0.7348167998716235,161.2806315999478,None,,,,,,,pp,2022_Apr_05_0930,training+cueing,2021.1.4,59.93428807646222,
Friend.png,You,Friend,m,1.2,14,24,94,,,,,0,0,0,0,,,,,0,10,10,3,,,,,,,,,,,,,,,,,,,,,1.652,1.331,162.13856069999747,None,,,,,,,,,,,,,,,,,,,,162.6782921999693,163.18200269993395,0.5076490500941873,1.0079612501431257,163.16533250012435,163.26539690000936,163.16533250012435,163.26539690000936,163.26539690000936,None,m,1,1.1498159000184387,163.26539690000936,None,,,,,,,pp,2022_Apr_05_0930,training+cueing,2021.1.4,59.93428807646222,
Stranger.png,Stranger,Stranger,c,3,13,23,93,,,,,0,0,0,0,,,,,0,11,11,11,,,,,,,,,,,,,,,,,,,,,1.548,1.638,164.53899249993265,None,,,,,,,,,,,,,,,,,,,,165.079793300014,165.58377539995126,0.5063625501934439,1.0066503502894193,165.567081999965,165.68380680005066,165.567081999965,165.68380680005066,165.66712050000206,None,c,1,0.9721580999903381,165.66712050000206,None,,,,,,,pp,2022_Apr_05_0930,training+cueing,2021.1.4,59.93428807646222,
Friend.png,Friend,Friend,c,2,12,22,92,,,,,0,0,0,0,,,,,1,0,12,4,,,,,,,,,,,,,,,,,,,,,1.762,2.209,166.7737978999503,None,,,,,,,,,,,,,,,,,,,,167.31561599997804,167.8187061001081,0.5047806499060243,1.0053290501236916,167.80202870001085,167.91877579991706,167.80202870001085,167.91877579991706,167.90208570007235,None,c,1,1.5051672998815775,167.90208570007235,None,,,,,,,pp,2022_Apr_05_0930,training+cueing,2021.1.4,59.93428807646222,
Self.png,Friend,Self ,m,2.1,16,26,96,,,,,0,0,0,0,,,,,1,1,13,1,,,,,,,,,,,,,,,,,,,,,1.647,1.214,169.5427478000056,None,,,,,,,,,,,,,,,,,,,,170.0822288999334,170.587393600028,0.5097142499871552,1.0101725501008332,170.57072319998406,170.68756920006126,170.57072319998406,170.68756920006126,170.67088049999438,None,m,1,1.0883349999785423,170.67088049999438,None,,,,,,,pp,2022_Apr_05_0930,training+cueing,2021.1.4,59.93428807646222,
Stranger.png,Friend,Stranger,m,2.3,17,27,97,,,,,0,0,0,0,,,,,1,2,14,7,,,,,,,,,,,,,,,,,,,,,1.536,1.726,171.89428530004807,None,,,,,,,,,,,,,,,,,,,,172.43312639999203,172.93908139993437,0.5103925499133766,1.0106701499316841,172.9224028000608,173.03912380011752,172.9224028000608,173.03912380011752,173.02240610006265,None,m,1,0.9449042999185622,173.02240610006265,None,,,,,,,pp,2022_Apr_05_0930,training+cueing,2021.1.4,59.93428807646222,
Stranger.png,You,Stranger,m,1.3,15,25,95,,,,,0,0,0,0,,,,,1,3,15,6,,,,,,,,,,,,,,,,,,,,,1.712,1.771,174.0957373001147,None,,,,,,,,,,,,,,,,,,,,174.63530860003084,175.14068550011143,0.5097571501974016,1.010045750066638,175.12398339994252,175.22420609998517,175.12398339994252,175.22420609998517,175.22420609998517,None,m,1,0.9510367000475526,175.22420609998517,None,,,,,,,pp,2022_Apr_05_0930,training+cueing,2021.1.4,59.93428807646222,
Stranger.png,Stranger,Stranger,c,3,13,23,93,,,,,0,0,0,0,,,,,1,4,16,8,,,,,,,,,,,,,,,,,,,,,1.663,2.246,176.2980561000295,None,,,,,,,,,,,,,,,,,,,,176.83881230000407,177.34228290012106,0.5042400502134115,1.0045140502043068,177.32560870004818,177.44231400010176,177.32560870004818,177.44231400010176,177.42561640008353,None,c,1,0.989730300148949,177.42561640008353,None,,,,,,,pp,2022_Apr_05_0930,training+cueing,2021.1.4,59.93428807646222,
Friend.png,Stranger,Friend,m,3.2,19,29,99,,,,,0,0,0,0,,,,,1,5,17,5,,,,,,,,,,,,,,,,,,,,,1.754,2.259,178.55104629998095,None,,,,,,,,,,,,,,,,,,,,179.08975820010528,179.59387709992006,0.5075538500677794,1.0078309499658644,179.57722009997815,179.6939519001171,179.57722009997815,179.6939519001171,179.67724250000902,None,m,1,0.7700458001345396,179.67724250000902,None,,,,,,,pp,2022_Apr_05_0930,training+cueing,2021.1.4,59.93428807646222,
Self.png,You,Self ,c,1,11,21,91,,,,,0,0,0,0,,,,,1,6,18,0,,,,,,,,,,,,,,,,,,,,,1.466,1.936,180.58378190011717,None,,,,,,,,,,,,,,,,,,,,181.12709790002555,181.6286716000177,0.5044659501872957,1.0047360502649099,181.61202110000886,181.7120545001235,181.61202110000886,181.7120545001235,181.7120545001235,None,c,1,1.1514527997933328,181.7120545001235,None,,,,,,,pp,2022_Apr_05_0930,training+cueing,2021.1.4,59.93428807646222,
Stranger.png,Stranger,Stranger,c,3,13,23,93,,,,,0,0,0,0,,,,,1,7,19,11,,,,,,,,,,,,,,,,,,,,,1.652,1.981,182.98733699996956,None,,,,,,,,,,,,,,,,,,,,183.54039789992385,184.0471189999953,0.5110636001918465,1.0113482000306249,184.03042430011556,184.1472177999094,184.03042430011556,184.1472177999094,184.1304717999883,None,c,1,1.5009203001391143,184.1304717999883,None,,,,,,,pp,2022_Apr_05_0930,training+cueing,2021.1.4,59.93428807646222,
Friend.png,You,Friend,m,1.2,14,24,94,,,,,0,0,0,0,,,,,1,8,20,3,,,,,,,,,,,,,,,,,,,,,1.529,1.786,185.75565949990414,None,,,,,,,,,,,,,,,,,,,,186.29743080004118,186.7991130000446,0.5033507500775158,1.0038090499583632,186.78243750007823,186.88250710000284,186.78243750007823,186.88250710000284,186.88250710000284,None,None,0,,186.88250710000284,None,,,,,,,pp,2022_Apr_05_0930,training+cueing,2021.1.4,59.93428807646222,
Self.png,You,Self ,c,1,11,21,91,,,,,0,0,0,0,,,,,1,9,21,9,,,,,,,,,,,,,,,,,,,,,1.622,1.26,188.52287030010484,None,,,,,,,,,,,,,,,,,,,,189.0620848000981,189.56785500003025,0.5106915500946343,1.0109920499380678,189.5511342000682,189.65115920011885,189.5511342000682,189.65115920011885,189.65115920011885,None,c,1,1.0681376999709755,189.65115920011885,None,,,,,,,pp,2022_Apr_05_0930,training+cueing,2021.1.4,59.93428807646222,
Friend.png,Friend,Friend,c,2,12,22,92,,,,,0,0,0,0,,,,,1,10,22,10,,,,,,,,,,,,,,,,,,,,,1.609,2.053,190.8419246999547,None,,,,,,,,,,,,,,,,,,,,191.38218909990974,191.88610280002467,0.5056324501056224,1.0060646501369774,191.86945050000213,191.98621130012907,191.86945050000213,191.98621130012907,191.9694918000605,None,None,0,,191.9694918000605,None,,,,,,,pp,2022_Apr_05_0930,training+cueing,2021.1.4,59.93428807646222,
Self.png,Stranger,Self ,m,3.1,18,28,98,,,,,0,0,0,0,,,,,1,11,23,2,,,,,,,,,,,,,,,,,,,,,1.565,1.206,193.69189770007506,None,,,,,,,,,,,,,,,,,,,,194.23533480009064,194.73819619999267,0.5050677498802543,1.0054617498535663,194.72150540002622,194.83826730004512,194.72150540002622,194.83826730004512,194.8215580000542,None,m,1,0.9376193000935018,194.8215580000542,None,,,,,,,pp,2022_Apr_05_0930,training+cueing,2021.1.4,59.93428807646222,
Friend.png,You,Friend,m,1.2,14,24,94,,,,,0,0,0,0,,,,,2,0,24,3,,,,,,,,,,,,,,,,,,,,,1.481,1.556,195.89529619994573,None,,,,,,,,,,,,,,,,,,,,196.43371889996342,196.9397998000495,0.5096860497724265,1.0099758498836309,196.92311619990505,197.02315949997865,196.92311619990505,197.02315949997865,197.02315949997865,None,m,1,1.2320446998346597,197.02315949997865,None,,,,,,,pp,2022_Apr_05_0930,training+cueing,2021.1.4,59.93428807646222,
Friend.png,Friend,Friend,c,2,12,22,92,,,,,0,0,0,0,,,,,2,1,25,4,,,,,,,,,,,,,,,,,,,,,1.708,1.501,198.38038480002433,None,,,,,,,,,,,,,,,,,,,,198.92998509993777,199.4415982000064,0.5055753502529114,1.00610765023157,199.42493099998683,199.541647200007,199.42493099998683,199.541647200007,199.52494130004197,None,m,0,0.8903463000897318,199.52494130004197,None,,,,,,,pp,2022_Apr_05_0930,training+cueing,2021.1.4,59.93428807646222,
Stranger.png,You,Stranger,m,1.3,15,25,95,,,,,0,0,0,0,,,,,2,2,26,6,,,,,,,,,,,,,,,,,,,,,1.697,1.37,200.55003320006654,None,,,,,,,,,,,,,,,,,,,,201.0916212000884,201.59314829995856,0.5032783499918878,1.003558550029993,201.57648990000598,201.67653660010546,201.57648990000598,201.67653660010546,201.67653660010546,None,m,1,1.0908490000292659,201.67653660010546,None,,,,,,,pp,2022_Apr_05_0930,training+cueing,2021.1.4,59.93428807646222,
Self.png,You,Self ,c,1,11,21,91,,,,,0,0,0,0,,,,,2,3,27,0,,,,,,,,,,,,,,,,,,,,,1.792,1.718,202.89973370009102,None,,,,,,,,,,,,,,,,,,,,203.43687599990517,203.94487509992905,0.5146717501338571,1.0149847501888871,203.9281905000098,204.0282445999328,203.9281905000098,204.0282445999328,204.0282445999328,None,c,1,0.9470625000540167,204.0282445999328,None,,,,,,,pp,2022_Apr_05_0930,training+cueing,2021.1.4,59.93428807646222,
Self.png,You,Self ,c,1,11,21,91,,,,,0,0,0,0,,,,,2,4,28,9,,,,,,,,,,,,,,,,,,,,,1.797,1.226,205.1016875000205,None,,,,,,,,,,,,,,,,,,,,205.64067710004747,206.14647400006652,0.511461750138551,1.0117141499649733,206.12979530007578,206.22983870003372,206.12979530007578,206.22983870003372,206.22983870003372,None,c,1,0.8736364000942558,206.22983870003372,None,,,,,,,pp,2022_Apr_05_0930,training+cueing,2021.1.4,59.93428807646222,
Friend.png,Stranger,Friend,m,3.2,19,29,99,,,,,0,0,0,0,,,,,2,5,29,5,,,,,,,,,,,,,,,,,,,,,1.4,1.55,207.23795600002632,None,,,,,,,,,,,,,,,,,,,,207.77928619994782,208.2813212000765,0.5058086500503123,1.0061169499531388,208.26464319997467,208.38139039999805,208.26464319997467,208.38139039999805,208.36469750013202,None,m,1,1.1224903999827802,208.36469750013202,None,,,,,,,pp,2022_Apr_05_0930,training+cueing,2021.1.4,59.93428807646222,
Stranger.png,Stranger,Stranger,c,3,13,23,93,,,,,0,0,0,0,,,,,2,6,30,11,,,,,,,,,,,,,,,,,,,,,1.489,1.844,209.6248910999857,None,,,,,,,,,,,,,,,,,,,,210.16203110013157,210.66639739996754,0.5072891500312835,1.0075872498564422,210.6497009000741,210.76644510007463,210.6497009000741,210.76644510007463,210.74975139996968,None,c,1,0.9455907999072224,210.74975139996968,None,,,,,,,pp,2022_Apr_05_0930,training+cueing,2021.1.4,59.93428807646222,
Friend.png,Friend,Friend,c,2,12,22,92,,,,,0,0,0,0,,,,,2,7,31,10,,,,,,,,,,,,,,,,,,,,,1.448,1.246,211.82400909997523,None,,,,,,,,,,,,,,,,,,,,212.36487960000522,212.8681087999139,0.5058381501585245,1.0061910499352962,212.85146109992638,212.9682080000639,212.85146109992638,212.9682080000639,212.95149100013077,None,None,0,,212.95149100013077,None,,,,,,,pp,2022_Apr_05_0930,training+cueing,2021.1.4,59.93428807646222,
Stranger.png,Stranger,Stranger,c,3,13,23,93,,,,,0,0,0,0,,,,,2,8,32,8,,,,,,,,,,,,,,,,,,,,,1.47,2.482,214.50798860006034,None,,,,,,,,,,,,,,,,,,,,215.05036300001666,215.55342680006288,0.5040838499553502,1.0043373499065638,215.5366108000744,215.65330710005946,215.5366108000744,215.65330710005946,215.6366167999804,None,c,1,1.0187226000707597,215.6366167999804,None,,,,,,,pp,2022_Apr_05_0930,training+cueing,2021.1.4,59.93428807646222,
Stranger.png,Friend,Stranger,m,2.3,17,27,97,,,,,0,0,0,0,,,,,2,9,33,7,,,,,,,,,,,,,,,,,,,,,1.745,2.379,216.7937942999415,None,,,,,,,,,,,,,,,,,,,,217.3351511999499,217.8382292999886,0.5060865501873195,1.0066436501219869,217.82156460010447,217.9388345000334,217.82156460010447,217.9388345000334,217.92160389991477,None,m,1,0.7498173001222312,217.92160389991477,None,,,,,,,pp,2022_Apr_05_0930,training+cueing,2021.1.4,59.93428807646222,
Self.png,Stranger,Self ,m,3.1,18,28,98,,,,,0,0,0,0,,,,,2,10,34,2,,,,,,,,,,,,,,,,,,,,,1.747,2.256,218.79669350013137,None,,,,,,,,,,,,,,,,,,,,219.3398915999569,219.83969229995273,0.5004289499484003,1.0008122499566525,219.82302669994533,219.9397628000006,219.82302669994533,219.9397628000006,219.9397628000006,None,m,1,0.8595856998581439,219.9397628000006,None,,,,,,,pp,2022_Apr_05_0930,training+cueing,2021.1.4,59.93428807646222,
Self.png,Friend,Self ,m,2.1,16,26,96,,,,,0,0,0,0,,,,,2,11,35,1,,,,,,,,,,,,,,,,,,,,,1.468,1.274,220.9296130000148,None,,,,,,,,,,,,,,,,,,,,221.47059900010936,221.97456529992633,0.5054955501109362,1.0057834500912577,221.9578728999477,222.07463119993918,221.9578728999477,222.07463119993918,222.05792660010047,None,m,1,0.9493319999892265,222.05792660010047,None,,,,,,,pp,2022_Apr_05_0930,training+cueing,2021.1.4,59.93428807646222,
Self.png,Friend,Self ,m,2.1,16,26,96,,,,,0,0,0,0,,,,,3,0,36,1,,,,,,,,,,,,,,,,,,,,,1.649,1.515,223.1314181999769,None,,,,,,,,,,,,,,,,,,,,223.6693359001074,224.17619480006397,0.5132412500679493,1.013528250157833,224.15949380001985,224.27622770005837,224.15949380001985,224.27622770005837,224.25951760006137,None,m,1,0.9557173999492079,224.25951760006137,None,,,,,,,pp,2022_Apr_05_0930,training+cueing,2021.1.4,59.93428807646222,
Stranger.png,Friend,Stranger,m,2.3,17,27,97,,,,,0,0,0,0,,,,,3,1,37,7,,,,,,,,,,,,,,,,,,,,,1.423,2.078,225.3504258999601,None,,,,,,,,,,,,,,,,,,,,225.900295099942,226.41114470013417,0.5057575502432883,1.0061948504298925,226.39448660006747,226.51175979990512,226.39448660006747,226.51175979990512,226.49503959994763,None,m,1,0.9443167001008987,226.49503959994763,None,,,,,,,pp,2022_Apr_05_0930,training+cueing,2021.1.4,59.93428807646222,
Friend.png,Friend,Friend,c,2,12,22,92,,,,,0,0,0,0,,,,,3,2,38,4,,,,,,,,,,,,,,,,,,,,,1.46,1.284,227.5692054000683,None,,,,,,,,,,,,,,,,,,,,228.1062702999916,228.6127136000432,0.5110385499428958,1.0113333500921726,228.59603890008293,228.7127722001169,228.59603890008293,228.7127722001169,228.69605310005136,None,c,1,1.1432668000925332,228.69605310005136,None,,,,,,,pp,2022_Apr_05_0930,training+cueing,2021.1.4,59.93428807646222,
Self.png,You,Self ,c,1,11,21,91,,,,,0,0,0,0,,,,,3,3,39,0,,,,,,,,,,,,,,,,,,,,,1.502,1.849,229.97387830005027,None,,,,,,,,,,,,,,,,,,,,230.51101380004548,231.01448179990984,0.5056651500053704,1.0064902498852462,230.9978420000989,231.097830099985,230.9978420000989,231.097830099985,231.097830099985,None,c,1,1.2536569000221789,231.097830099985,None,,,,,,,pp,2022_Apr_05_0930,training+cueing,2021.1.4,59.93428807646222,
Self.png,Stranger,Self ,m,3.1,18,28,98,,,,,0,0,0,0,,,,,3,4,40,2,,,,,,,,,,,,,,,,,,,,,1.464,2.058,232.48933509993367,None,,,,,,,,,,,,,,,,,,,,233.03248660010286,233.53295119991526,0.5154083499219269,1.0156908498611301,233.53295119991526,233.6329997999128,233.53295119991526,233.6329997999128,233.6329997999128,None,m,1,1.1502696999814361,233.6329997999128,None,,,,,,,pp,2022_Apr_05_0930,training+cueing,2021.1.4,59.93428807646222,
Friend.png,Friend,Friend,c,2,12,22,92,,,,,0,0,0,0,,,,,3,5,41,10,,,,,,,,,,,,,,,,,,,,,1.77,1.449,234.90688679995947,None,,,,,,,,,,,,,,,,,,,,235.44827560009435,235.9514033999294,0.5059786499477923,1.0062125499825925,235.93471439997666,236.051433699904,235.93471439997666,236.051433699904,236.03471260005608,None,m,0,1.052527799969539,236.03471260005608,None,,,,,,,pp,2022_Apr_05_0930,training+cueing,2021.1.4,59.93428807646222,
Stranger.png,Stranger,Stranger,c,3,13,23,93,,,,,0,0,0,0,,,,,3,6,42,11,,,,,,,,,,,,,,,,,,,,,1.629,2.346,237.22541119996458,None,,,,,,,,,,,,,,,,,,,,237.76719980011694,238.2697199000977,0.504828950157389,1.0051356500480324,238.25303049990907,238.36977210012265,238.25303049990907,238.36977210012265,238.35305620008148,None,c,1,0.8782317999284714,238.35305620008148,None,,,,,,,pp,2022_Apr_05_0930,training+cueing,2021.1.4,59.93428807646222,
Friend.png,You,Friend,m,1.2,14,24,94,,,,,0,0,0,0,,,,,3,7,43,3,,,,,,,,,,,,,,,,,,,,,1.41,1.268,239.36060689995065,None,,,,,,,,,,,,,,,,,,,,239.91045850003138,240.42126420000568,0.5030662501230836,1.0033636500593275,240.40458580013365,240.50465069990605,240.40458580013365,240.50465069990605,240.50465069990605,None,m,1,0.982633899897337,240.50465069990605,None,,,,,,,pp,2022_Apr_05_0930,training+cueing,2021.1.4,59.93428807646222,
Stranger.png,Stranger,Stranger,c,3,13,23,93,,,,,0,0,0,0,,,,,3,8,44,8,,,,,,,,,,,,,,,,,,,,,1.599,2.275,241.61131640011445,None,,,,,,,,,,,,,,,,,,,,242.15319789992645,242.65621779998764,0.5051694500725716,1.0054640502203256,242.63954190001823,242.75629630009644,242.63954190001823,242.75629630009644,242.7396096000448,None,c,1,0.811707700137049,242.7396096000448,None,,,,,,,pp,2022_Apr_05_0930,training+cueing,2021.1.4,59.93428807646222,
Stranger.png,You,Stranger,m,1.3,15,25,95,,,,,0,0,0,0,,,,,3,9,45,6,,,,,,,,,,,,,,,,,,,,,1.646,1.494,243.67973510012962,None,,,,,,,,,,,,,,,,,,,,244.21992369997315,244.72438469994813,0.5088818504009396,1.009172250283882,244.70771500002593,244.80777169996873,244.70771500002593,244.80777169996873,244.80777169996873,None,m,1,0.8875837998930365,244.80777169996873,None,,,,,,,pp,2022_Apr_05_0930,training+cueing,2021.1.4,59.93428807646222,
Friend.png,Stranger,Friend,m,3.2,19,29,99,,,,,0,0,0,0,,,,,3,10,46,5,,,,,,,,,,,,,,,,,,,,,1.696,1.247,245.83155170013197,None,,,,,,,,,,,,,,,,,,,,246.37364310002886,246.87594239995815,0.5042160500306636,1.00458964984864,246.85925330012105,246.97608319995925,246.85925330012105,246.97608319995925,246.95936250011437,None,c,0,1.3279343999456614,246.95936250011437,None,,,,,,,pp,2022_Apr_05_0930,training+cueing,2021.1.4,59.93428807646222,
Self.png,You,Self ,c,1,11,21,91,,,,,0,0,0,0,,,,,3,11,47,9,,,,,,,,,,,,,,,,,,,,,1.795,1.364,248.41667679999955,None,,,,,,,,,,,,,,,,,,,,248.957592099905,249.46115370001644,0.5068979500792921,1.0072424500249326,249.44443970010616,249.54451939999126,249.44443970010616,249.54451939999126,249.54451939999126,None,c,1,0.9187629998195916,249.54451939999126,None,,,,,,,pp,2022_Apr_05_0930,training+cueing,2021.1.4,59.93428807646222,
Friend.png,Friend,Friend,c,2,12,22,92,,,,,0,0,0,0,,,,,4,0,48,4,,,,,,,,,,,,,,,,,,,,,1.66,1.367,250.6013664000202,None,,,,,,,,,,,,,,,,,,,,251.15250870003365,251.66276199999265,0.5009488500654697,1.0012046499177814,251.64606719999574,251.76281260000542,251.64606719999574,251.76281260000542,251.76281260000542,None,None,0,,251.76281260000542,None,,,,,,,pp,2022_Apr_05_0930,training+cueing,2021.1.4,59.93428807646222,
Friend.png,You,Friend,m,1.2,14,24,94,,,,,0,0,0,0,,,,,4,1,49,3,,,,,,,,,,,,,,,,,,,,,1.594,1.501,253.53471389994957,None,,,,,,,,,,,,,,,,,,,,254.07808950007893,254.58153169997968,0.5068591500166804,1.0072826500982046,254.56489180005156,254.6648854999803,254.56489180005156,254.6648854999803,254.6648854999803,None,None,0,,254.6648854999803,None,,,,,,,pp,2022_Apr_05_0930,training+cueing,2021.1.4,59.93428807646222,
Self.png,Stranger,Self ,m,3.1,18,28,98,,,,,0,0,0,0,,,,,4,2,50,2,,,,,,,,,,,,,,,,,,,,,1.777,2.003,256.37161600007676,None,,,,,,,,,,,,,,,,,,,,256.9136252999306,257.41687660012394,0.5052568500395864,1.0055512499529868,257.400254300097,257.51695779990405,257.400254300097,257.51695779990405,257.5002635999117,None,m,1,0.9790492998436093,257.5002635999117,None,,,,,,,pp,2022_Apr_05_0930,training+cueing,2021.1.4,59.93428807646222,
Self.png,You,Self ,c,1,11,21,91,,,,,0,0,0,0,,,,,4,3,51,9,,,,,,,,,,,,,,,,,,,,,1.696,1.942,258.6066914999392,None,,,,,,,,,,,,,,,,,,,,259.1462169000879,259.65187590010464,0.5087863500230014,1.0090640501584858,259.6351841001306,259.7352281000931,259.6351841001306,259.7352281000931,259.7352281000931,None,None,0,,259.7352281000931,None,,,,,,,pp,2022_Apr_05_0930,training+cueing,2021.1.4,59.93428807646222,
Stranger.png,Stranger,Stranger,c,3,13,23,93,,,,,0,0,0,0,,,,,4,4,52,11,,,,,,,,,,,,,,,,,,,,,1.627,1.659,261.5408332000952,None,,,,,,,,,,,,,,,,,,,,262.0986448000185,262.60400729998946,0.5099619003012776,1.0102747003547847,262.58732019993477,262.7040766000282,262.58732019993477,262.7040766000282,262.6873389000539,None,c,1,0.719939400209114,262.6873389000539,None,,,,,,,pp,2022_Apr_05_0930,training+cueing,2021.1.4,59.93428807646222,
Friend.png,Friend,Friend,c,2,12,22,92,,,,,0,0,0,0,,,,,4,5,53,10,,,,,,,,,,,,,,,,,,,,,1.744,1.279,263.5438186000101,None,,,,,,,,,,,,,,,,,,,,264.08544009993784,264.5887929000892,0.5057495501823723,1.0059582500252873,264.5721388000529,264.688821000047,264.5721388000529,264.688821000047,264.6721302000806,None,c,1,0.9431948000565171,264.6721302000806,None,,,,,,,pp,2022_Apr_05_0930,training+cueing,2021.1.4,59.93428807646222,
Friend.png,Stranger,Friend,m,3.2,19,29,99,,,,,0,0,0,0,,,,,4,6,54,5,,,,,,,,,,,,,,,,,,,,,1.722,1.987,265.74604290002026,None,,,,,,,,,,,,,,,,,,,,266.2867791999597,266.79036070010625,0.5047313501127064,1.0050419501494616,266.7736865999177,266.8904131001327,266.7736865999177,266.8904131001327,266.87371250009164,None,m,1,0.869599899975583,266.87371250009164,None,,,,,,,pp,2022_Apr_05_0930,training+cueing,2021.1.4,59.93428807646222,
Stranger.png,Friend,Stranger,m,2.3,17,27,97,,,,,0,0,0,0,,,,,4,7,55,7,,,,,,,,,,,,,,,,,,,,,1.661,1.204,267.88074910012074,None,,,,,,,,,,,,,,,,,,,,268.4375471000094,268.9420920999255,0.5080281000118703,1.0083491001278162,268.9253819999285,269.0421380000189,268.9253819999285,269.0421380000189,269.02544280001894,None,None,0,,269.02544280001894,None,,,,,,,pp,2022_Apr_05_0930,training+cueing,2021.1.4,59.93428807646222,
Stranger.png,Stranger,Stranger,c,3,13,23,93,,,,,0,0,0,0,,,,,4,8,56,8,,,,,,,,,,,,,,,,,,,,,1.769,1.263,270.79853069991805,None,,,,,,,,,,,,,,,,,,,,271.34908009995706,271.8607157000806,0.5043593500740826,1.0046241499949247,271.8440662000794,271.96076299995184,271.8440662000794,271.96076299995184,271.94406090001576,None,c,1,1.223249499918893,271.94406090001576,None,,,,,,,pp,2022_Apr_05_0930,training+cueing,2021.1.4,59.93428807646222,
Self.png,Friend,Self ,m,2.1,16,26,96,,,,,0,0,0,0,,,,,4,9,57,1,,,,,,,,,,,,,,,,,,,,,1.594,1.232,273.30322870006785,None,,,,,,,,,,,,,,,,,,,,273.84312089998275,274.34585410007276,0.505106050055474,1.005385349970311,274.3291730999481,274.44588929996826,274.3291730999481,274.44588929996826,274.4292151001282,None,m,1,1.138129600090906,274.4292151001282,None,,,,,,,pp,2022_Apr_05_0930,training+cueing,2021.1.4,59.93428807646222,
Self.png,You,Self ,c,1,11,21,91,,,,,0,0,0,0,,,,,4,10,58,0,,,,,,,,,,,,,,,,,,,,,1.775,1.895,275.7029579000082,None,,,,,,,,,,,,,,,,,,,,276.2568356001284,276.7642735999543,0.5137579999864101,1.0139832000713795,276.7476286001038,276.84763310011476,276.7476286001038,276.84763310011476,276.84763310011476,None,c,1,0.9277584999799728,276.84763310011476,None,,,,,,,pp,2022_Apr_05_0930,training+cueing,2021.1.4,59.93428807646222,
Stranger.png,You,Stranger,m,1.3,15,25,95,,,,,0,0,0,0,,,,,4,11,59,6,,,,,,,,,,,,,,,,,,,,,1.633,2.277,277.90515760006383,None,,,,,,,,,,,,,,,,,,,,278.4429353000596,278.9491707999259,0.5097910498734564,1.0102770498488098,278.9325041999109,279.03255050000735,278.9325041999109,279.03255050000735,279.03255050000735,None,m,1,0.9987428998574615,279.03255050000735,None,,,,,,,pp,2022_Apr_05_0930,training+cueing,2021.1.4,59.93428807646222,
Self.png,You,Self ,c,1,11,21,91,,,,,0,0,0,0,,,,,5,0,60,9,,,,,,,,,,,,,,,,,,,,,1.564,1.339,280.15773810003884,None,,,,,,,,,,,,,,,,,,,,280.70391370006837,281.2176491001155,0.5101146500092,1.010205450002104,281.2009851001203,281.30091210012324,281.2009851001203,281.30091210012324,281.30091210012324,None,None,0,,281.30091210012324,None,,,,,,,pp,2022_Apr_05_0930,training+cueing,2021.1.4,59.93428807646222,
Friend.png,Friend,Friend,c,2,12,22,92,,,,,0,0,0,0,,,,,5,1,61,4,,,,,,,,,,,,,,,,,,,,,1.407,1.95,282.97291169990785,None,,,,,,,,,,,,,,,,,,,,283.51538560003974,284.0195232001133,0.5079323500394821,1.008564949966967,284.0028651000466,284.1202007001266,284.0028651000466,284.1202007001266,284.1028549000621,None,c,1,0.9366693000774831,284.1028549000621,None,,,,,,,pp,2022_Apr_05_0930,training+cueing,2021.1.4,59.93428807646222,
Friend.png,Stranger,Friend,m,3.2,19,29,99,,,,,0,0,0,0,,,,,5,2,62,5,,,,,,,,,,,,,,,,,,,,,1.729,2.413,285.16407039994374,None,,,,,,,,,,,,,,,,,,,,285.7028836000245,286.2044009999372,0.5011409500148147,1.0020021500531584,286.18779610004276,286.30448659998365,286.18779610004276,286.30448659998365,286.30448659998365,None,m,1,1.0868800000753254,286.30448659998365,None,,,,,,,pp,2022_Apr_05_0930,training+cueing,2021.1.4,59.93428807646222,
Self.png,Friend,Self ,m,2.1,16,26,96,,,,,0,0,0,0,,,,,5,3,63,1,,,,,,,,,,,,,,,,,,,,,1.724,1.289,287.5297952000983,None,,,,,,,,,,,,,,,,,,,,288.07190579990856,288.572839200031,0.5024885500315577,1.0029511500615627,288.5561633000616,288.6729246999603,288.5561633000616,288.6729246999603,288.6561555999797,None,m,1,1.279132799943909,288.6561555999797,None,,,,,,,pp,2022_Apr_05_0930,training+cueing,2021.1.4,59.93428807646222,
Stranger.png,Stranger,Stranger,c,3,13,23,93,,,,,0,0,0,0,,,,,5,4,64,11,,,,,,,,,,,,,,,,,,,,,1.538,1.43,290.06311769993044,None,,,,,,,,,,,,,,,,,,,,290.6069934000261,291.10801580012776,0.5005613500252366,1.00073434994556,291.0914177999366,291.2080425999593,291.0914177999366,291.2080425999593,291.2080425999593,None,c,1,0.9992398000322282,291.2080425999593,None,,,,,,,pp,2022_Apr_05_0930,training+cueing,2021.1.4,59.93428807646222,
Friend.png,You,Friend,m,1.2,14,24,94,,,,,0,0,0,0,,,,,5,5,65,3,,,,,,,,,,,,,,,,,,,,,1.742,1.562,292.33181950007565,None,,,,,,,,,,,,,,,,,,,,292.87400089995936,293.3763659000397,0.505089650163427,1.005369950318709,293.35962869995274,293.4596587000415,293.35962869995274,293.4596587000415,293.4596587000415,None,None,0,,293.4596587000415,None,,,,,,,pp,2022_Apr_05_0930,training+cueing,2021.1.4,59.93428807646222,
Stranger.png,Friend,Stranger,m,2.3,17,27,97,,,,,0,0,0,0,,,,,5,6,66,7,,,,,,,,,,,,,,,,,,,,,1.476,2.213,295.31560149998404,None,,,,,,,,,,,,,,,,,,,,295.86043899995275,296.36181339994073,0.502738050185144,1.0030338501092046,296.3451280000154,296.46185100008734,296.3451280000154,296.46185100008734,296.4451520999428,None,None,0,,296.4451520999428,None,,,,,,,pp,2022_Apr_05_0930,training+cueing,2021.1.4,59.93428807646222,
Self.png,You,Self ,c,1,11,21,91,,,,,0,0,0,0,,,,,5,7,67,0,,,,,,,,,,,,,,,,,,,,,1.505,1.492,298.03406789992005,None,,,,,,,,,,,,,,,,,,,,298.57757330010645,299.0804304999765,0.5033400498796254,1.0036148498766124,299.06376429996453,299.16379039990716,299.06376429996453,299.16379039990716,299.16379039990716,None,c,1,0.9315514999907464,299.16379039990716,None,,,,,,,pp,2022_Apr_05_0930,training+cueing,2021.1.4,59.93428807646222,
Stranger.png,You,Stranger,m,1.3,15,25,95,,,,,0,0,0,0,,,,,5,8,68,6,,,,,,,,,,,,,,,,,,,,,1.773,1.508,300.22189010004513,None,,,,,,,,,,,,,,,,,,,,300.76326950010844,301.2653636999894,0.5046679500956088,1.0049308501183987,301.24870979995467,301.34870940004475,301.24870979995467,301.34870940004475,301.34870940004475,None,m,1,1.5787196001037955,301.34870940004475,None,,,,,,,pp,2022_Apr_05_0930,training+cueing,2021.1.4,59.93428807646222,
Stranger.png,Stranger,Stranger,c,3,13,23,93,,,,,0,0,0,0,,,,,5,9,69,8,,,,,,,,,,,,,,,,,,,,,1.578,2.203,303.05715529993176,None,,,,,,,,,,,,,,,,,,,,303.6061935001053,304.1174073999282,0.506193449953571,1.0064100499730557,304.1007773000747,304.21744229993783,304.1007773000747,304.21744229993783,304.2007444999181,None,c,1,0.9186156000941992,304.2007444999181,None,,,,,,,pp,2022_Apr_05_0930,training+cueing,2021.1.4,59.93428807646222,
Friend.png,Friend,Friend,c,2,12,22,92,,,,,0,0,0,0,,,,,5,10,70,10,,,,,,,,,,,,,,,,,,,,,1.732,1.494,305.24132869997993,None,,,,,,,,,,,,,,,,,,,,305.7841173000634,306.2856827999931,0.5018217503093183,1.0025159502401948,306.2691313000396,306.3857225999236,306.2691313000396,306.3857225999236,306.3857225999236,None,c,1,1.3416705999989063,306.3857225999236,None,,,,,,,pp,2022_Apr_05_0930,training+cueing,2021.1.4,59.93428807646222,
Self.png,Stranger,Self ,m,3.1,18,28,98,,,,,0,0,0,0,,,,,5,11,71,2,,,,,,,,,,,,,,,,,,,,,1.43,2.197,307.8606618999038,None,,,,,,,,,,,,,,,,,,,,308.40507759992033,308.9042098999489,0.5152399502694607,1.0155223500914872,308.9042098999489,309.00426240009256,308.9042098999489,309.00426240009256,309.00426240009256,None,m,1,0.8830103001091629,309.00426240009256,None,,,,,,,pp,2022_Apr_05_0930,training+cueing,2021.1.4,59.93428807646222,
Self.png,Stranger,Self ,m,3.1,18,28,98,,,,,0,0,0,0,,,,,6,0,72,2,,,,,,,,,,,,,,,,,,,,,1.696,2.215,310.01051430008374,None,,,,,,,,,,,,,,,,,,,,310.5496720999945,311.0557701000944,0.5108194502536207,1.0117247502785176,311.03909810003825,311.1558250999078,311.03909810003825,311.1558250999078,311.13912590011023,None,m,1,1.6442724999506027,311.13912590011023,None,,,,,,,pp,2022_Apr_05_0930,training+cueing,2021.1.4,59.93428807646222,
Friend.png,You,Friend,m,1.2,14,24,94,,,,,0,0,0,0,,,,,6,1,73,3,,,,,,,,,,,,,,,,,,,,,1.483,1.662,312.91386079997756,None,,,,,,,,,,,,,,,,,,,,313.4549297001213,313.9578764999751,0.5047587500885129,1.0050820498727262,313.9411818999797,314.041242999956,313.9411818999797,314.041242999956,314.041242999956,None,m,1,1.2380531998351216,314.041242999956,None,,,,,,,pp,2022_Apr_05_0930,training+cueing,2021.1.4,59.93428807646222,
Self.png,You,Self ,c,1,11,21,91,,,,,0,0,0,0,,,,,6,2,74,9,,,,,,,,,,,,,,,,,,,,,1.736,2.113,315.4147898000665,None,,,,,,,,,,,,,,,,,,,,315.969536999939,316.4763678999152,0.5132365000899881,1.0135319002438337,316.45968570001423,316.5597524000332,316.45968570001423,316.5597524000332,316.5597524000332,None,c,1,1.471566699910909,316.5597524000332,None,,,,,,,pp,2022_Apr_05_0930,training+cueing,2021.1.4,59.93428807646222,
Self.png,You,Self ,c,1,11,21,91,,,,,0,0,0,0,,,,,6,3,75,0,,,,,,,,,,,,,,,,,,,,,1.64,1.282,318.1673815001268,None,,,,,,,,,,,,,,,,,,,,318.7277069000993,319.2285478000995,0.4999721001368016,1.0003009003121406,319.21166049991734,319.31175029999577,319.21166049991734,319.31175029999577,319.31175029999577,None,c,1,1.0717577000614256,319.31175029999577,None,,,,,,,pp,2022_Apr_05_0930,training+cueing,2021.1.4,59.93428807646222,
Friend.png,Stranger,Friend,m,3.2,19,29,99,,,,,0,0,0,0,,,,,6,4,76,5,,,,,,,,,,,,,,,,,,,,,1.518,2.215,320.5227717999369,None,,,,,,,,,,,,,,,,,,,,321.06425300007686,321.5634540999308,0.5142323500476778,1.0145280500873923,321.5634540999308,321.66358739999123,321.5634540999308,321.66358739999123,321.66358739999123,None,None,0,,321.66358739999123,None,,,,,,,pp,2022_Apr_05_0930,training+cueing,2021.1.4,59.93428807646222,
Stranger.png,Friend,Stranger,m,2.3,17,27,97,,,,,0,0,0,0,,,,,6,5,77,7,,,,,,,,,,,,,,,,,,,,,1.516,1.322,323.2872840000782,None,,,,,,,,,,,,,,,,,,,,323.8311966001056,324.33201629994437,0.502011250006035,1.0023065500427037,324.31537460000254,324.4321053000167,324.31537460000254,324.4321053000167,324.41541319992393,None,m,1,0.9918122000526637,324.41541319992393,None,,,,,,,pp,2022_Apr_05_0930,training+cueing,2021.1.4,59.93428807646222,
Friend.png,Friend,Friend,c,2,12,22,92,,,,,0,0,0,0,,,,,6,6,78,4,,,,,,,,,,,,,,,,,,,,,1.741,2.499,325.53920589992777,None,,,,,,,,,,,,,,,,,,,,326.0787446000613,326.58372680004686,0.5075317500159144,1.007823450025171,326.56700869998895,326.6837313999422,326.56700869998895,326.6837313999422,326.6670351999346,None,c,1,1.2682912000454962,326.6670351999346,None,,,,,,,pp,2022_Apr_05_0930,training+cueing,2021.1.4,59.93428807646222,
Stranger.png,Stranger,Stranger,c,3,13,23,93,,,,,0,0,0,0,,,,,6,7,79,8,,,,,,,,,,,,,,,,,,,,,1.79,1.785,328.0577998000663,None,,,,,,,,,,,,,,,,,,,,328.60129510005936,329.1021869999822,0.5022909501567483,1.0026483503170311,329.08551000012085,329.20222810003906,329.08551000012085,329.20222810003906,329.18558900011703,None,c,1,0.9898084998130798,329.18558900011703,None,,,,,,,pp,2022_Apr_05_0930,training+cueing,2021.1.4,59.93428807646222,
Self.png,Friend,Self ,m,2.1,16,26,96,,,,,0,0,0,0,,,,,6,8,80,1,,,,,,,,,,,,,,,,,,,,,1.595,1.268,330.30988850002177,None,,,,,,,,,,,,,,,,,,,,330.8616780000739,331.3704963999335,0.4990566000342369,0.9993976000696421,331.3537846999243,331.4705195000861,331.3537846999243,331.4705195000861,331.4343600999564,None,m,1,0.9328449999447912,331.4343600999564,None,,,,,,,pp,2022_Apr_05_0930,training+cueing,2021.1.4,59.93428807646222,
Stranger.png,You,Stranger,m,1.3,15,25,95,,,,,0,0,0,0,,,,,6,9,81,6,,,,,,,,,,,,,,,,,,,,,1.75,1.555,332.49361549993046,None,,,,,,,,,,,,,,,,,,,,333.04467050009407,333.5554194001015,0.5046779501717538,1.0049699500668794,333.53871849994175,333.6387845999561,333.53871849994175,333.6387845999561,333.6387845999561,None,m,1,0.792503299890086,333.6387845999561,None,,,,,,,pp,2022_Apr_05_0930,training+cueing,2021.1.4,59.93428807646222,
Friend.png,Friend,Friend,c,2,12,22,92,,,,,0,0,0,0,,,,,6,10,82,10,,,,,,,,,,,,,,,,,,,,,1.683,1.453,334.56225900002755,None,,,,,,,,,,,,,,,,,,,,335.1054326000158,335.60687969997525,0.5024235500022769,1.0030320500954986,335.5902029001154,335.70711780013517,335.5902029001154,335.70711780013517,335.6902503001038,None,c,1,1.2531216000206769,335.6902503001038,None,,,,,,,pp,2022_Apr_05_0930,training+cueing,2021.1.4,59.93428807646222,
Stranger.png,Stranger,Stranger,c,3,13,23,93,,,,,0,0,0,0,,,,,6,11,83,11,,,,,,,,,,,,,,,,,,,,,1.619,1.489,337.08186549996026,None,,,,,,,,,,,,,,,,,,,,337.62454529991373,338.12537120003253,0.500604750122875,1.0008719500619918,338.1087158001028,338.22543260012753,338.1087158001028,338.22543260012753,338.22543260012753,None,c,1,1.0538453999906778,338.22543260012753,None,,,,,,,pp,2022_Apr_05_0930,training+cueing,2021.1.4,59.93428807646222,
Stranger.png,Stranger,Stranger,c,3,13,23,93,,,,,0,0,0,0,,,,,7,0,84,11,,,,,,,,,,,,,,,,,,,,,1.557,2.082,339.41507300012745,None,,,,,,,,,,,,,,,,,,,,339.9692774999421,340.47725489991717,0.5149721000343561,1.0151877000462264,340.4606546999421,340.5772585000377,340.4606546999421,340.5772585000377,340.56062410003506,None,c,1,1.4387781999539584,340.56062410003506,None,,,,,,,pp,2022_Apr_05_0930,training+cueing,2021.1.4,59.93428807646222,
Friend.png,Friend,Friend,c,2,12,22,92,,,,,0,0,0,0,,,,,7,1,85,10,,,,,,,,,,,,,,,,,,,,,1.452,1.608,342.1356631000526,None,,,,,,,,,,,,,,,,,,,,342.6782184999902,343.1790619001258,0.50215805019252,1.0024354502093047,343.1623579999432,343.27908460004255,343.1623579999432,343.27908460004255,343.26236389996484,None,m,0,1.2169240999501199,343.26236389996484,None,,,,,,,pp,2022_Apr_05_0930,training+cueing,2021.1.4,59.93428807646222,
Friend.png,Friend,Friend,c,2,12,22,92,,,,,0,0,0,0,,,,,7,2,86,4,,,,,,,,,,,,,,,,,,,,,1.476,1.908,344.60289949993603,None,,,,,,,,,,,,,,,,,,,,345.14047150011174,345.6475043001119,0.5111172501929104,1.011382850119844,345.6308148999233,345.7475727000274,345.6308148999233,345.7475727000274,345.73091179993935,None,None,0,,345.73091179993935,None,,,,,,,pp,2022_Apr_05_0930,training+cueing,2021.1.4,59.93428807646222,
Self.png,Friend,Self ,m,2.1,16,26,96,,,,,0,0,0,0,,,,,7,3,87,1,,,,,,,,,,,,,,,,,,,,,1.739,2.242,347.3208210999146,None,,,,,,,,,,,,,,,,,,,,347.86013399995863,348.3661388999317,0.5114540501963347,1.0115655502304435,348.34960409998894,348.46618609991856,348.34960409998894,348.46618609991856,348.44946469995193,None,m,1,0.909819999942556,348.44946469995193,None,,,,,,,pp,2022_Apr_05_0930,training+cueing,2021.1.4,59.93428807646222,
Friend.png,Stranger,Friend,m,3.2,19,29,99,,,,,0,0,0,0,,,,,7,4,88,5,,,,,,,,,,,,,,,,,,,,,1.725,2.421,349.48967409995385,None,,,,,,,,,,,,,,,,,,,,350.0300928999204,350.5343782999553,0.5053597500082105,1.005638049915433,350.5176784999203,350.6343926000409,350.5176784999203,350.6343926000409,350.61772320000455,None,c,0,1.3495861000847071,350.61772320000455,None,,,,,,,pp,2022_Apr_05_0930,training+cueing,2021.1.4,59.93428807646222,
Stranger.png,Stranger,Stranger,c,3,13,23,93,,,,,0,0,0,0,,,,,7,5,89,8,,,,,,,,,,,,,,,,,,,,,1.584,1.4,352.091255400097,None,,,,,,,,,,,,,,,,,,,,352.6301816999912,353.1364301999565,0.5115158502012491,1.012457850156352,353.1195934000425,353.2364837001078,353.1195934000425,353.2364837001078,353.2198306999635,None,c,1,1.035460699815303,353.2198306999635,None,,,,,,,pp,2022_Apr_05_0930,training+cueing,2021.1.4,59.93428807646222,
Stranger.png,You,Stranger,m,1.3,15,25,95,,,,,0,0,0,0,,,,,7,6,90,6,,,,,,,,,,,,,,,,,,,,,1.596,2.453,354.3765825999435,None,,,,,,,,,,,,,,,,,,,,354.91724320012145,355.42126760003157,0.508181249955669,1.0084274499677122,355.4046132999938,355.5045956999529,355.4046132999938,355.5045956999529,355.5045956999529,None,m,1,1.1986253999639302,355.5045956999529,None,,,,,,,pp,2022_Apr_05_0930,training+cueing,2021.1.4,59.93428807646222,
Self.png,Stranger,Self ,m,3.1,18,28,98,,,,,0,0,0,0,,,,,7,7,91,2,,,,,,,,,,,,,,,,,,,,,1.581,1.63,356.82876419997774,None,,,,,,,,,,,,,,,,,,,,357.3685620999895,357.87309490004554,0.5047183497808874,1.0070627499371767,357.85440730000846,357.9564700999763,357.85440730000846,357.9564700999763,357.9564700999763,None,m,1,1.4987186999060214,357.9564700999763,None,,,,,,,pp,2022_Apr_05_0930,training+cueing,2021.1.4,59.93428807646222,
Self.png,You,Self ,c,1,11,21,91,,,,,0,0,0,0,,,,,7,8,92,0,,,,,,,,,,,,,,,,,,,,,1.517,2.127,359.5804191001225,None,,,,,,,,,,,,,,,,,,,,360.1233375000302,360.6250764001161,0.5035316499415785,1.0037187500856817,360.608505200129,360.7084999999497,360.608505200129,360.7084999999497,360.7084999999497,None,c,1,0.7946811998263001,360.7084999999497,None,,,,,,,pp,2022_Apr_05_0930,training+cueing,2021.1.4,59.93428807646222,
Friend.png,You,Friend,m,1.2,14,24,94,,,,,0,0,0,0,,,,,7,9,93,3,,,,,,,,,,,,,,,,,,,,,1.451,2.461,361.6316071001347,None,,,,,,,,,,,,,,,,,,,,362.1713461999316,362.67654359992594,0.5101926501374692,1.0106484501156956,362.6598535999656,362.7599313000683,362.6598535999656,362.7599313000683,362.7599313000683,None,m,1,0.9192218000534922,362.7599313000683,None,,,,,,,pp,2022_Apr_05_0930,training+cueing,2021.1.4,59.93428807646222,
Self.png,You,Self ,c,1,11,21,91,,,,,0,0,0,0,,,,,7,10,94,9,,,,,,,,,,,,,,,,,,,,,1.775,2.402,363.81659110006876,None,,,,,,,,,,,,,,,,,,,,364.35557970008813,364.8614779000636,0.5088337501510978,1.009099650196731,364.8448685000185,364.9448730000295,364.8448685000185,364.9448730000295,364.9448730000295,None,c,1,0.8463331998791546,364.9448730000295,None,,,,,,,pp,2022_Apr_05_0930,training+cueing,2021.1.4,59.93428807646222,
Stranger.png,Friend,Stranger,m,2.3,17,27,97,,,,,0,0,0,0,,,,,7,11,95,7,,,,,,,,,,,,,,,,,,,,,1.615,2.468,365.91823310009204,None,,,,,,,,,,,,,,,,,,,,366.4597330999095,366.9630511000287,0.5052421500440687,1.005399249959737,366.9463907000609,367.063125600107,366.9463907000609,367.063125600107,367.04644019994885,None,m,1,1.000876700039953,367.04644019994885,None,,,,,,,pp,2022_Apr_05_0930,training+cueing,2021.1.4,59.93428807646222,
Stranger.png,Stranger,Stranger,c,3,13,23,93,,,,,0,0,0,0,,,,,8,0,96,11,,,,,,,,,,,,,,,,,,,,,1.583,1.982,368.17091659992,None,,,,,,,,,,,,,,,,,,,,368.7111490999814,369.2147323999088,0.5040634500328451,1.0045802500098944,369.19790740008466,369.31476330012083,369.19790740008466,369.31476330012083,369.29813929996453,None,c,1,0.9411518000997603,369.29813929996453,None,,,,,,,pp,2022_Apr_05_0930,training+cueing,2021.1.4,59.93428807646222,
Stranger.png,You,Stranger,m,1.3,15,25,95,,,,,0,0,0,0,,,,,8,1,97,6,,,,,,,,,,,,,,,,,,,,,1.432,1.934,370.3714173999615,None,,,,,,,,,,,,,,,,,,,,370.91244120011106,371.4162997000385,0.5066041501704603,1.0068419501185417,371.3996558000799,371.4996507000178,371.3996558000799,371.4996507000178,371.4996507000178,None,m,1,1.2995066998992115,371.4996507000178,None,,,,,,,pp,2022_Apr_05_0930,training+cueing,2021.1.4,59.93428807646222,
Friend.png,Stranger,Friend,m,3.2,19,29,99,,,,,0,0,0,0,,,,,8,2,98,5,,,,,,,,,,,,,,,,,,,,,1.666,1.432,372.92367399996147,None,,,,,,,,,,,,,,,,,,,,373.46766380011104,373.96801770012826,0.5006602501962334,1.0011419502552599,373.951341799926,374.0681350999512,373.951341799926,374.0681350999512,374.0681350999512,None,None,0,,374.0681350999512,None,,,,,,,pp,2022_Apr_05_0930,training+cueing,2021.1.4,59.93428807646222,
Friend.png,Friend,Friend,c,2,12,22,92,,,,,0,0,0,0,,,,,8,3,99,10,,,,,,,,,,,,,,,,,,,,,1.428,1.827,375.8405410000123,None,,,,,,,,,,,,,,,,,,,,376.38304729992524,376.88697120011784,0.5045686501543969,1.0047641501296312,376.87038110010326,376.9868358001113,376.87038110010326,376.9868358001113,376.97038730001077,None,c,1,0.7408352000638843,376.97038730001077,None,,,,,,,pp,2022_Apr_05_0930,training+cueing,2021.1.4,59.93428807646222,
Self.png,Friend,Self ,m,2.1,16,26,96,,,,,0,0,0,0,,,,,8,4,100,1,,,,,,,,,,,,,,,,,,,,,1.764,2.124,377.8441900999751,None,,,,,,,,,,,,,,,,,,,,378.3843734001275,378.88839279999956,0.5080582501832396,1.009136350126937,378.8716402000282,378.9883199001197,378.8716402000282,378.9883199001197,378.971716,None,c,0,1.7154878000728786,378.971716,None,,,,,,,pp,2022_Apr_05_0930,training+cueing,2021.1.4,59.93428807646222,
Friend.png,Friend,Friend,c,2,12,22,92,,,,,0,0,0,0,,,,,8,5,101,4,,,,,,,,,,,,,,,,,,,,,1.546,1.935,380.81345380004495,None,,,,,,,,,,,,,,,,,,,,381.3538772999309,381.8571041999385,0.5054578499402851,1.0056638501118869,381.8404115999583,381.9571648000274,381.8404115999583,381.9571648000274,381.9404035001062,None,c,1,1.0508692001458257,381.9404035001062,None,,,,,,,pp,2022_Apr_05_0930,training+cueing,2021.1.4,59.93428807646222,
Self.png,You,Self ,c,1,11,21,91,,,,,0,0,0,0,,,,,8,6,102,0,,,,,,,,,,,,,,,,,,,,,1.745,1.955,383.11433489993215,None,,,,,,,,,,,,,,,,,,,,383.66120580001734,384.1755747999996,0.5100111498031765,1.0103884497657418,384.15885780006647,384.25899240002036,384.15885780006647,384.25899240002036,384.25899240002036,None,c,1,0.7161331998649985,384.25899240002036,None,,,,,,,pp,2022_Apr_05_0930,training+cueing,2021.1.4,59.93428807646222,
Stranger.png,Friend,Stranger,m,2.3,17,27,97,,,,,0,0,0,0,,,,,8,7,103,7,,,,,,,,,,,,,,,,,,,,,1.589,1.621,385.0992990999948,None,,,,,,,,,,,,,,,,,,,,385.63927479996346,386.14352779998444,0.5077318500261754,1.0081670500803739,386.1268215000164,386.24381810007617,386.1268215000164,386.24381810007617,386.2268650000915,None,m,1,1.5483084998559207,386.2268650000915,None,,,,,,,pp,2022_Apr_05_0930,training+cueing,2021.1.4,59.93428807646222,
Stranger.png,Stranger,Stranger,c,3,13,23,93,,,,,0,0,0,0,,,,,8,8,104,8,,,,,,,,,,,,,,,,,,,,,1.442,2.133,387.9008925999515,None,,,,,,,,,,,,,,,,,,,,388.4414582999889,388.94556410005316,0.5051293498836458,1.0053971498273313,388.92888329993,389.0455354999285,388.92888329993,389.0455354999285,389.0288756999653,None,c,1,0.9065665998496115,389.0288756999653,None,,,,,,,pp,2022_Apr_05_0930,training+cueing,2021.1.4,59.93428807646222,
Friend.png,You,Friend,m,1.2,14,24,94,,,,,0,0,0,0,,,,,8,9,105,3,,,,,,,,,,,,,,,,,,,,,1.474,1.864,390.0691996999085,None,,,,,,,,,,,,,,,,,,,,390.61087760003284,391.11379580013454,0.506635749945417,1.00686395005323,391.0971584999934,391.1971343001351,391.0971584999934,391.1971343001351,391.1971343001351,None,m,1,0.8342462000437081,391.1971343001351,None,,,,,,,pp,2022_Apr_05_0930,training+cueing,2021.1.4,59.93428807646222,
Self.png,Stranger,Self ,m,3.1,18,28,98,,,,,0,0,0,0,,,,,8,10,106,2,,,,,,,,,,,,,,,,,,,,,1.665,2.408,392.1537989999633,None,,,,,,,,,,,,,,,,,,,,392.69378750002943,393.1986193000339,0.5090594498906285,1.0093095500487834,393.181969899917,393.29866480012424,393.181969899917,393.29866480012424,393.2819624999538,None,m,1,0.8933387999422848,393.2819624999538,None,,,,,,,pp,2022_Apr_05_0930,training+cueing,2021.1.4,59.93428807646222,
Self.png,You,Self ,c,1,11,21,91,,,,,0,0,0,0,,,,,8,11,107,9,,,,,,,,,,,,,,,,,,,,,1.588,1.85,394.30595670011826,None,,,,,,,,,,,,,,,,,,,,394.84517230000347,395.3502134999726,0.5071920501068234,1.0073945499025285,395.333650900051,395.43357419990934,395.333650900051,395.43357419990934,395.43357419990934,None,m,0,0.9016505000181496,395.43357419990934,None,,,,,,,pp,2022_Apr_05_0930,training+cueing,2021.1.4,59.93428807646222,
Friend.png,Friend,Friend,c,2,12,22,92,,,,,0,0,0,0,,,,,9,0,108,4,,,,,,,,,,,,,,,,,,,,,1.49,2.309,396.45709370006807,None,,,,,,,,,,,,,,,,,,,,397.0131425000727,397.5185229999479,0.5097784001845866,1.0100618002470583,397.50186059996486,397.6185765999835,397.50186059996486,397.6185765999835,397.601956800092,None,c,1,1.3572893999516964,397.601956800092,None,,,,,,,pp,2022_Apr_05_0930,training+cueing,2021.1.4,59.93428807646222,
Self.png,Stranger,Self ,m,3.1,18,28,98,,,,,0,0,0,0,,,,,9,1,109,2,,,,,,,,,,,,,,,,,,,,,1.529,1.233,399.09240500000305,None,,,,,,,,,,,,,,,,,,,,399.63319039996713,400.13699989998713,0.5070859498810023,1.0073893498629332,400.1203078001272,400.23704409995116,400.1203078001272,400.23704409995116,400.22035140008666,None,m,1,0.9791313000023365,400.22035140008666,None,,,,,,,pp,2022_Apr_05_0930,training+cueing,2021.1.4,59.93428807646222,
Self.png,You,Self ,c,1,11,21,91,,,,,0,0,0,0,,,,,9,2,110,9,,,,,,,,,,,,,,,,,,,,,1.66,1.807,401.3292229999788,None,,,,,,,,,,,,,,,,,,,,401.8695892000105,402.3718824000098,0.5029220499563962,1.0031735498923808,402.3553122000303,402.45533229992725,402.3553122000303,402.45533229992725,402.45533229992725,None,c,1,1.4960532998666167,402.45533229992725,None,,,,,,,pp,2022_Apr_05_0930,training+cueing,2021.1.4,59.93428807646222,
Stranger.png,Stranger,Stranger,c,3,13,23,93,,,,,0,0,0,0,,,,,9,3,111,8,,,,,,,,,,,,,,,,,,,,,1.613,1.935,404.07977319997735,None,,,,,,,,,,,,,,,,,,,,404.6216692000162,405.1240310999565,0.5046551499981433,1.0048879499081522,405.107277699979,405.22414149995893,405.107277699979,405.22414149995893,405.2072843001224,None,c,1,0.872028699843213,405.2072843001224,None,,,,,,,pp,2022_Apr_05_0930,training+cueing,2021.1.4,59.93428807646222,
Stranger.png,Friend,Stranger,m,2.3,17,27,97,,,,,0,0,0,0,,,,,9,4,112,7,,,,,,,,,,,,,,,,,,,,,1.754,1.739,406.2143167001195,None,,,,,,,,,,,,,,,,,,,,406.76482650008984,407.2755032000132,0.5027346501592547,1.003208950161934,407.25884489994496,407.3755759000778,407.25884489994496,407.3755759000778,407.35881970007904,None,m,1,0.8326214000117034,407.35881970007904,None,,,,,,,pp,2022_Apr_05_0930,training+cueing,2021.1.4,59.93428807646222,
Friend.png,Stranger,Friend,m,3.2,19,29,99,,,,,0,0,0,0,,,,,9,5,113,5,,,,,,,,,,,,,,,,,,,,,1.594,2.194,408.3172188999597,None,,,,,,,,,,,,,,,,,,,,408.8583619000856,409.36035179998726,0.5048100501298904,1.0050871500279754,409.343662600033,409.46038810000755,409.343662600033,409.46038810000755,409.4436919,None,None,0,,409.4436919,None,,,,,,,pp,2022_Apr_05_0930,training+cueing,2021.1.4,59.93428807646222,
Self.png,Friend,Self ,m,2.1,16,26,96,,,,,0,0,0,0,,,,,9,6,114,1,,,,,,,,,,,,,,,,,,,,,1.769,1.961,411.14975380012766,None,,,,,,,,,,,,,,,,,,,,411.6944144999143,412.1959297999274,0.5024292501620948,1.002550050150603,412.17923459992744,412.296008199919,412.17923459992744,412.296008199919,412.2791188999545,None,m,1,0.9682311001233757,412.2791188999545,None,,,,,,,pp,2022_Apr_05_0930,training+cueing,2021.1.4,59.93428807646222,
Self.png,You,Self ,c,1,11,21,91,,,,,0,0,0,0,,,,,9,7,115,0,,,,,,,,,,,,,,,,,,,,,1.789,1.578,413.36969600012526,None,,,,,,,,,,,,,,,,,,,,413.911824000068,414.41405720007606,0.5026327497325838,1.00302804983221,414.3974025999196,414.49745430005714,414.3974025999196,414.49745430005714,414.49745430005714,None,c,1,0.9258539997972548,414.49745430005714,None,,,,,,,pp,2022_Apr_05_0930,training+cueing,2021.1.4,59.93428807646222,
Friend.png,Friend,Friend,c,2,12,22,92,,,,,0,0,0,0,,,,,9,8,116,10,,,,,,,,,,,,,,,,,,,,,1.639,2.294,415.55498440004885,None,,,,,,,,,,,,,,,,,,,,416.0984245000873,416.5989047999028,0.5006590499542654,1.0009207499679178,416.5822988001164,416.6989945000969,416.5822988001164,416.6989945000969,416.6989945000969,None,c,1,1.3963800000492483,416.6989945000969,None,,,,,,,pp,2022_Apr_05_0930,training+cueing,2021.1.4,59.93428807646222,
Stranger.png,You,Stranger,m,1.3,15,25,95,,,,,0,0,0,0,,,,,9,9,117,6,,,,,,,,,,,,,,,,,,,,,1.422,2.461,418.22320080013014,None,,,,,,,,,,,,,,,,,,,,418.7672449001111,419.26764059998095,0.5015829501207918,1.0019442501943558,419.2509981999174,419.3510789000429,419.2509981999174,419.3510789000429,419.3510789000429,None,m,1,0.9680987999308854,419.3510789000429,None,,,,,,,pp,2022_Apr_05_0930,training+cueing,2021.1.4,59.93428807646222,
Stranger.png,Stranger,Stranger,c,3,13,23,93,,,,,0,0,0,0,,,,,9,10,118,11,,,,,,,,,,,,,,,,,,,,,1.587,1.584,420.4416762001347,None,,,,,,,,,,,,,,,,,,,,420.9871179999318,421.5025740999263,0.5132873503025621,1.0138082501944155,421.4858530999627,421.6027571000159,421.4858530999627,421.6027571000159,421.58597330003977,None,None,0,,421.58597330003977,None,,,,,,,pp,2022_Apr_05_0930,training+cueing,2021.1.4,59.93428807646222,
Friend.png,You,Friend,m,1.2,14,24,94,,,,,0,0,0,0,,,,,9,11,119,3,,,,,,,,,,,,,,,,,,,,,1.666,2.215,423.2916536000557,None,,,,,,,,,,,,,,,,,,,,423.83701619994827,424.3380136999767,0.5019677502568811,1.0023110501933843,424.32129710004665,424.42143890005536,424.32129710004665,424.42143890005536,424.42143890005536,None,m,1,1.3217662000097334,424.42143890005536,None,,,,,,,pp,2022_Apr_05_0930,training+cueing,2021.1.4,59.93428807646222,
,,,,,,,,,,,,0,0,0,0,,,,,,,,,,,,,,,,,,,,,,,,,,,,,,,,,,,,,,,,,,,,,,,,,,,,,,,,,,,,,,,,,,,0.0001577497459948063,None,,,,,pp,2022_Apr_05_0930,training+cueing,2021.1.4,59.93428807646222,
Stranger.png,You,Stranger,m,1.3,15,25,95,,,,,1,0,1,0,0,0,0,6,,,,,,,,,,,,,,,,,426.3895048999693,None,space,-0.2629293000791222,2.0160833501722664,None,428.39097580011,None,1.575,2.315,431.4006364000961,None,431.93967580003664,432.4437478000764,432.4270679000765,432.5271735000424,432.4270679000765,432.5271735000424,432.5271735000424,None,m,1,432.5271735000424,None,433.5779993000906,None,1.024122699862346,,,,,,,,,,,,,,,,,,,,,,,,,,pp,2022_Apr_05_0930,training+cueing,2021.1.4,59.93428807646222,
Stranger.png,Stranger,Stranger,c,3,13,23,93,,,,,1,0,1,0,0,1,1,11,,,,,,,,,,,,,,,,,,,,,,,,,1.764,1.383,433.97831239993684,None,434.5138813999947,435.02903650002554,435.0122825000435,435.1290313000791,435.0122825000435,435.1290313000791,435.11236110003665,None,None,0,435.11236110003665,None,436.8788984999992,None,,,,,,,,,,,,,,,,,,,,,,,,,,,pp,2022_Apr_05_0930,training+cueing,2021.1.4,59.93428807646222,
Stranger.png,Friend,Stranger,m,2.3,17,27,97,,,,,1,0,1,0,0,2,2,7,,,,,,,,,,,,,,,,,,,,,,,,,1.604,1.838,437.28066980000585,None,437.81582970009185,438.3313704999164,438.31470340001397,438.4314639000222,438.31470340001397,438.4314639000222,438.4147268999368,None,m,1,438.4147268999368,None,439.5489300999325,None,1.0885003001894802,,,,,,,,,,,,,,,,,,,,,,,,,,pp,2022_Apr_05_0930,training+cueing,2021.1.4,59.93428807646222,
Stranger.png,Stranger,Stranger,c,3,13,23,93,,,,,1,0,1,0,0,3,3,8,,,,,,,,,,,,,,,,,,,,,,,,,1.627,1.635,439.9492713001091,None,440.483823500108,440.98324840003625,440.98324840003625,441.08339689997956,440.98324840003625,441.08339689997956,441.08339689997956,None,c,1,441.08339689997956,None,442.23422920005396,None,1.123911099974066,,,,,,,,,,,,,,,,,,,,,,,,,,pp,2022_Apr_05_0930,training+cueing,2021.1.4,59.93428807646222,
Self.png,You,Self ,c,1,11,21,91,,,,,1,0,1,0,0,4,4,9,,,,,,,,,,,,,,,,,,,,,,,,,1.792,1.667,442.63451140001416,None,443.16805070010014,443.66857560002245,443.651918400079,443.7519946000539,443.651918400079,443.7519946000539,443.7519946000539,None,c,1,443.7519946000539,None,444.56917680008337,None,0.7912331998813897,,,,,,,,,,,,,,,,,,,,,,,,,,pp,2022_Apr_05_0930,training+cueing,2021.1.4,59.93428807646222,
Friend.png,Friend,Friend,c,2,12,22,92,,,,,1,0,1,0,0,5,5,4,,,,,,,,,,,,,,,,,,,,,,,,,1.69,2.34,444.9694803999737,None,445.50413460005075,446.0035476000048,446.0035476000048,446.10363320005126,446.0035476000048,446.10363320005126,446.10363320005126,None,c,1,446.10363320005126,None,447.48804800002836,None,1.3677626999560744,,,,,,,,,,,,,,,,,,,,,,,,,,pp,2022_Apr_05_0930,training+cueing,2021.1.4,59.93428807646222,
Friend.png,Stranger,Friend,m,3.2,19,29,99,,,,,1,0,1,0,0,6,6,5,,,,,,,,,,,,,,,,,,,,,,,,,1.483,2.032,447.88830900005996,None,448.424889100017,448.9391455000732,448.922456700122,449.03907579998486,448.922456700122,449.03907579998486,449.0224137001205,None,m,1,449.0224137001205,None,450.0898714000359,None,1.0408538000192493,,,,,,,,,,,,,,,,,,,,,,,,,,pp,2022_Apr_05_0930,training+cueing,2021.1.4,59.93428807646222,
Self.png,You,Self ,c,1,11,21,91,,,,,1,0,1,0,0,7,7,0,,,,,,,,,,,,,,,,,,,,,,,,,1.707,2.379,450.49014810007066,None,451.0253789999988,451.5409262999892,451.52430410007946,451.6243082000874,451.52430410007946,451.6243082000874,451.6243082000874,None,c,1,451.6243082000874,None,452.3249568999745,None,0.6789602998178452,,,,,,,,,,,,,,,,,,,,,,,,,,pp,2022_Apr_05_0930,training+cueing,2021.1.4,59.93428807646222,
Self.png,Friend,Self ,m,2.1,16,26,96,,,,,1,0,1,0,0,8,8,1,,,,,,,,,,,,,,,,,,,,,,,,,1.568,1.273,452.7251585999038,None,453.25982680008747,453.7592692999169,453.7592692999169,453.8592417999171,453.7592692999169,453.8592417999171,453.8592417999171,None,m,1,453.8592417999171,None,454.96014719991945,None,1.0840204001870006,,,,,,,,,,,,,,,,,,,,,,,,,,pp,2022_Apr_05_0930,training+cueing,2021.1.4,59.93428807646222,
Friend.png,Friend,Friend,c,2,12,22,92,,,,,1,0,1,0,0,9,9,10,,,,,,,,,,,,,,,,,,,,,,,,,1.517,1.437,455.36039840010926,None,455.8934522001073,456.39459770009853,456.37778580002487,456.4945410999935,456.37778580002487,456.4945410999935,456.47781899990514,None,c,1,456.47781899990514,None,457.5953770999331,None,1.089398100040853,,,,,,,,,,,,,,,,,,,,,,,,,,pp,2022_Apr_05_0930,training+cueing,2021.1.4,59.93428807646222,
Self.png,Stranger,Self ,m,3.1,18,28,98,,,,,1,0,1,0,0,10,10,2,,,,,,,,,,,,,,,,,,,,,,,,,1.749,2.059,457.99556690012105,None,458.53294740011916,459.0464963000268,459.02981190010905,459.14648530003615,459.02981190010905,459.14648530003615,459.12979510007426,None,m,1,459.12979510007426,None,460.03051640000194,None,0.8854958000592887,,,,,,,,,,,,,,,,,,,,,,,,,,pp,2022_Apr_05_0930,training+cueing,2021.1.4,59.93428807646222,
Friend.png,You,Friend,m,1.2,14,24,94,,,,,1,0,1,0,0,11,11,3,,,,,,,,,,,,,,,,,,,,,,,,,1.593,1.481,460.43074920005165,None,460.96591209992766,461.4814869000111,461.4648176000919,461.5648550000042,461.4648176000919,461.5648550000042,461.5648550000042,None,m,1,461.5648550000042,None,462.74906870000996,None,1.1544019000139087,,,,,,,,,,,,,,,,,,,,,,,,,,pp,2022_Apr_05_0930,training+cueing,2021.1.4,59.93428807646222,
Self.png,Friend,Self ,m,2.1,16,26,96,,,,,1,0,1,0,,,,,0,0,0,1,,,,,,,,,,,,,,,,,,,466.15153899998404,None,1.412,1.408,469.66569599998184,None,,,,,,,,,,,,,,,,463.14939079992473,None,0.014463549945503473,0.5126329499762505,470.20185740012676,470.70478869997896,0.5049356499221176,1.0052128499373794,470.68812959990464,470.80486000003293,470.68812959990464,470.80486000003293,470.78813969995826,None,m,1,0.8272392998915166,470.78813969995826,None,,,,,,,pp,2022_Apr_05_0930,training+cueing,2021.1.4,59.93428807646222,
Stranger.png,Stranger,Stranger,c,3,13,23,93,,,,,1,0,1,0,,,,,0,1,1,11,,,,,,,,,,,,,,,,,,,,,1.652,1.623,471.7463784001302,None,,,,,,,,,,,,,,,,,,,,472.28857779991813,472.78960369993,0.5022904500365257,1.0026271501556039,472.77293540001847,472.8896946001332,472.77293540001847,472.8896946001332,472.8729682001285,None,c,1,0.6944105001166463,472.8729682001285,None,,,,,,,pp,2022_Apr_05_0930,training+cueing,2021.1.4,59.93428807646222,
Stranger.png,You,Stranger,m,1.3,15,25,95,,,,,1,0,1,0,,,,,0,2,2,6,,,,,,,,,,,,,,,,,,,,,1.554,1.207,473.6959291000385,None,,,,,,,,,,,,,,,,,,,,474.23352569993585,474.7410792999435,0.51235855021514,1.0128839502576739,474.72439190000296,474.8244060999714,474.72439190000296,474.8244060999714,474.8244060999714,None,m,1,1.4950668001547456,474.8244060999714,None,,,,,,,pp,2022_Apr_05_0930,training+cueing,2021.1.4,59.93428807646222,
Friend.png,Friend,Friend,c,2,12,22,92,,,,,1,0,1,0,,,,,0,3,3,4,,,,,,,,,,,,,,,,,,,,,1.513,1.324,476.44972619996406,None,,,,,,,,,,,,,,,,,,,,476.99027039995417,477.49303600005805,0.5056086499243975,1.0058938500005752,477.47637449996546,477.5931152999401,477.47637449996546,477.5931152999401,477.57644030009396,None,c,1,0.9189065999817103,477.57644030009396,None,,,,,,,pp,2022_Apr_05_0930,training+cueing,2021.1.4,59.93428807646222,
Self.png,You,Self ,c,1,11,21,91,,,,,1,0,1,0,,,,,0,4,4,0,,,,,,,,,,,,,,,,,,,,,1.789,1.733,478.63340479996987,None,,,,,,,,,,,,,,,,,,,,479.1732085000258,479.67798619996756,0.5062640502583236,1.0066097502131015,479.66131519991904,479.7613550000824,479.66131519991904,479.7613550000824,479.7613550000824,None,c,1,0.878056799992919,479.7613550000824,None,,,,,,,pp,2022_Apr_05_0930,training+cueing,2021.1.4,59.93428807646222,
Self.png,Stranger,Self ,m,3.1,18,28,98,,,,,1,0,1,0,,,,,0,5,5,2,,,,,,,,,,,,,,,,,,,,,1.794,1.594,480.7686109999195,None,,,,,,,,,,,,,,,,,,,,481.3089783999603,481.8128716000356,0.5070921499282122,1.0074428499210626,481.79612610000186,481.9129077999387,481.79612610000186,481.9129077999387,481.89620529999956,None,m,1,1.1592356998007745,481.89620529999956,None,,,,,,,pp,2022_Apr_05_0930,training+cueing,2021.1.4,59.93428807646222,
Friend.png,Friend,Friend,c,2,12,22,92,,,,,1,0,1,0,,,,,0,6,6,10,,,,,,,,,,,,,,,,,,,,,1.519,1.443,483.1879404000938,None,,,,,,,,,,,,,,,,,,,,483.7251621999312,484.2312507000752,0.5113789499737322,1.0116810500621796,484.21459170011804,484.3313255000394,484.21459170011804,484.3313255000394,484.3146418000106,None,c,1,1.2047062998171896,484.3146418000106,None,,,,,,,pp,2022_Apr_05_0930,training+cueing,2021.1.4,59.93428807646222,
Friend.png,You,Friend,m,1.2,14,24,94,,,,,1,0,1,0,,,,,0,7,7,3,,,,,,,,,,,,,,,,,,,,,1.54,2.472,485.655169500038,None,,,,,,,,,,,,,,,,,,,,486.19712779996917,486.69975990010425,0.506356350146234,1.006583150010556,486.68310249992646,486.7831087000668,486.68310249992646,486.7831087000668,486.7831087000668,None,None,0,,486.7831087000668,None,,,,,,,pp,2022_Apr_05_0930,training+cueing,2021.1.4,59.93428807646222,
Stranger.png,Friend,Stranger,m,2.3,17,27,97,,,,,1,0,1,0,,,,,0,8,8,7,,,,,,,,,,,,,,,,,,,,,1.781,2.206,488.43847679998726,None,,,,,,,,,,,,,,,,,,,,488.98308719997294,489.4851027999539,0.5049927497748286,1.0052460497245193,489.468437399948,489.58513809996657,489.468437399948,489.58513809996657,489.5684319001157,None,m,1,1.1988792999181896,489.5684319001157,None,,,,,,,pp,2022_Apr_05_0930,training+cueing,2021.1.4,59.93428807646222,
Stranger.png,Stranger,Stranger,c,3,13,23,93,,,,,1,0,1,0,,,,,0,9,9,8,,,,,,,,,,,,,,,,,,,,,1.77,1.351,490.8933035999071,None,,,,,,,,,,,,,,,,,,,,491.438926700037,491.95354219991714,0.512949749827385,1.0132580499630421,491.9368555000983,492.05358910001814,491.9368555000983,492.05358910001814,492.0368995999452,None,c,1,0.7784180999733508,492.0368995999452,None,,,,,,,pp,2022_Apr_05_0930,training+cueing,2021.1.4,59.93428807646222,
Self.png,You,Self ,c,1,11,21,91,,,,,1,0,1,0,,,,,0,10,10,9,,,,,,,,,,,,,,,,,,,,,1.619,1.705,492.9441448999569,None,,,,,,,,,,,,,,,,,,,,493.4844033000991,493.988343300065,0.5058336502406746,1.0061130502726883,493.9716771999374,494.07172090001404,493.9716771999374,494.07172090001404,494.07172090001404,None,c,1,1.0475874999538064,494.07172090001404,None,,,,,,,pp,2022_Apr_05_0930,training+cueing,2021.1.4,59.93428807646222,
Friend.png,Stranger,Friend,m,3.2,19,29,99,,,,,1,0,1,0,,,,,0,11,11,5,,,,,,,,,,,,,,,,,,,,,1.627,1.548,495.2457665000111,None,,,,,,,,,,,,,,,,,,,,495.7873555999249,496.29004170000553,0.504981050034985,1.0052574500441551,496.2733509000391,496.3901021000929,496.2733509000391,496.3901021000929,496.37337070005015,None,m,1,1.4499397999607027,496.37337070005015,None,,,,,,,pp,2022_Apr_05_0930,training+cueing,2021.1.4,59.93428807646222,
Self.png,You,Self ,c,1,11,21,91,,,,,1,0,1,0,,,,,1,0,12,9,,,,,,,,,,,,,,,,,,,,,1.678,2.144,497.9478287000675,None,,,,,,,,,,,,,,,,,,,,498.48768369993195,498.9920189999975,0.5059318498242646,1.0061906499322504,498.97530469996855,499.07534019998275,498.97530469996855,499.07534019998275,499.07534019998275,None,c,1,0.7960484998766333,499.07534019998275,None,,,,,,,pp,2022_Apr_05_0930,training+cueing,2021.1.4,59.93428807646222,
Friend.png,Friend,Friend,c,2,12,22,92,,,,,1,0,1,0,,,,,1,1,13,10,,,,,,,,,,,,,,,,,,,,,1.607,2.436,499.9982857001014,None,,,,,,,,,,,,,,,,,,,,500.53853949997574,501.0434606000781,0.5097318498883396,1.0100232497788966,501.0268027000129,501.1435060999356,501.0268027000129,501.1435060999356,501.12681429996155,None,None,0,,501.12681429996155,None,,,,,,,pp,2022_Apr_05_0930,training+cueing,2021.1.4,59.93428807646222,
Friend.png,You,Friend,m,1.2,14,24,94,,,,,1,0,1,0,,,,,1,2,14,3,,,,,,,,,,,,,,,,,,,,,1.794,1.914,502.8488710001111,None,,,,,,,,,,,,,,,,,,,,503.3904045999516,503.8955200999044,0.5098324499558657,1.010106849949807,503.8788551001344,503.9788716000039,503.8788551001344,503.9788716000039,503.9788716000039,None,m,1,1.092562799807638,503.9788716000039,None,,,,,,,pp,2022_Apr_05_0930,training+cueing,2021.1.4,59.93428807646222,
Stranger.png,Stranger,Stranger,c,3,13,23,93,,,,,1,0,1,0,,,,,1,3,15,11,,,,,,,,,,,,,,,,,,,,,1.69,1.861,505.2024817999918,None,,,,,,,,,,,,,,,,,,,,505.74100959999487,506.2472415000666,0.5098908501677215,1.0101482500322163,506.2305632000789,506.3472985001281,506.2305632000789,506.3472985001281,506.3305901000276,None,c,1,0.8847464001737535,506.3305901000276,None,,,,,,,pp,2022_Apr_05_0930,training+cueing,2021.1.4,59.93428807646222,
Stranger.png,Stranger,Stranger,c,3,13,23,93,,,,,1,0,1,0,,,,,1,4,16,8,,,,,,,,,,,,,,,,,,,,,1.786,1.255,507.33791529992595,None,,,,,,,,,,,,,,,,,,,,507.8764015000779,508.38214490003884,0.5119674501474947,1.0122544502373785,508.36544540012255,508.4821915999055,508.36544540012255,508.4821915999055,508.465474500088,None,c,1,0.813867999939248,508.465474500088,None,,,,,,,pp,2022_Apr_05_0930,training+cueing,2021.1.4,59.93428807646222,
Self.png,Friend,Self ,m,2.1,16,26,96,,,,,1,0,1,0,,,,,1,5,17,1,,,,,,,,,,,,,,,,,,,,,1.676,2.084,509.4055961999111,None,,,,,,,,,,,,,,,,,,,,509.94470049999654,510.4502761999611,0.5111932503059506,1.0115895501803607,510.4336137000937,510.5504558000248,510.4336137000937,510.5504558000248,510.5337312000338,None,m,1,1.193609399953857,510.5337312000338,None,,,,,,,pp,2022_Apr_05_0930,training+cueing,2021.1.4,59.93428807646222,
Stranger.png,Friend,Stranger,m,2.3,17,27,97,,,,,1,0,1,0,,,,,1,6,18,7,,,,,,,,,,,,,,,,,,,,,1.552,1.71,511.8576066000387,None,,,,,,,,,,,,,,,,,,,,512.3956955999602,512.9020716000814,0.510527950245887,1.0108135503251106,512.88538230001,513.0021363000851,512.88538230001,513.0021363000851,512.9853924000636,None,m,1,1.3180752000771463,512.9853924000636,None,,,,,,,pp,2022_Apr_05_0930,training+cueing,2021.1.4,59.93428807646222,
Self.png,You,Self ,c,1,11,21,91,,,,,1,0,1,0,,,,,1,7,19,0,,,,,,,,,,,,,,,,,,,,,1.435,1.603,514.4254274999257,None,,,,,,,,,,,,,,,,,,,,514.9670251000207,515.4706039000303,0.5071567499544472,1.0074291499331594,515.4539220000152,515.5539675001055,515.4539220000152,515.5539675001055,515.5539675001055,None,c,1,0.7812925998587161,515.5539675001055,None,,,,,,,pp,2022_Apr_05_0930,training+cueing,2021.1.4,59.93428807646222,
Friend.png,Friend,Friend,c,2,12,22,92,,,,,1,0,1,0,,,,,1,8,20,4,,,,,,,,,,,,,,,,,,,,,1.786,1.536,516.4613511001226,None,,,,,,,,,,,,,,,,,,,,517.0105868000537,517.5221220999956,0.5044063499663025,1.004686150001362,517.5054709999822,517.6221944999415,517.5054709999822,517.6221944999415,517.6055082001258,None,c,1,1.0177838997915387,517.6055082001258,None,,,,,,,pp,2022_Apr_05_0930,training+cueing,2021.1.4,59.93428807646222,
Self.png,Stranger,Self ,m,3.1,18,28,98,,,,,1,0,1,0,,,,,1,9,21,2,,,,,,,,,,,,,,,,,,,,,1.642,1.211,518.7458391000982,None,,,,,,,,,,,,,,,,,,,,519.2974521999713,519.8071755000856,0.5038816502783448,1.0041487503331155,519.7905178000219,519.9072114999872,519.7905178000219,519.9072114999872,519.890542200068,None,m,1,0.8128995001316071,519.890542200068,None,,,,,,,pp,2022_Apr_05_0930,training+cueing,2021.1.4,59.93428807646222,
Stranger.png,You,Stranger,m,1.3,15,25,95,,,,,1,0,1,0,,,,,1,10,22,6,,,,,,,,,,,,,,,,,,,,,1.594,1.815,520.8304419999477,None,,,,,,,,,,,,,,,,,,,,521.370611499995,521.8752417999785,0.5081558502279222,1.008354450110346,521.8585966001265,521.9585849000141,521.8585966001265,521.9585849000141,521.9585849000141,None,m,1,0.8730679999571294,521.9585849000141,None,,,,,,,pp,2022_Apr_05_0930,training+cueing,2021.1.4,59.93428807646222,
Friend.png,Stranger,Friend,m,3.2,19,29,99,,,,,1,0,1,0,,,,,1,11,23,5,,,,,,,,,,,,,,,,,,,,,1.532,2.336,522.9657042999752,None,,,,,,,,,,,,,,,,,,,,523.5051100999117,524.0101056001149,0.5082919502165169,1.0086026501376182,523.9934302000329,524.110164700076,523.9934302000329,524.110164700076,524.093466399936,None,m,1,1.2019259999506176,524.093466399936,None,,,,,,,pp,2022_Apr_05_0930,training+cueing,2021.1.4,59.93428807646222,
Self.png,You,Self ,c,1,11,21,91,,,,,1,0,1,0,,,,,2,0,24,0,,,,,,,,,,,,,,,,,,,,,1.406,1.635,525.4174250999931,None,,,,,,,,,,,,,,,,,,,,525.958358099917,526.4619297001045,0.5063974501099437,1.0065473499707878,526.4453396999743,526.5452815999743,526.4453396999743,526.5452815999743,526.5452815999743,None,c,1,1.1820486998185515,526.5452815999743,None,,,,,,,pp,2022_Apr_05_0930,training+cueing,2021.1.4,59.93428807646222,
Friend.png,Stranger,Friend,m,3.2,19,29,99,,,,,1,0,1,0,,,,,2,1,25,5,,,,,,,,,,,,,,,,,,,,,1.455,2.329,527.8520116000436,None,,,,,,,,,,,,,,,,,,,,528.3945585999172,528.8971748000477,0.5058525500353426,1.006223150063306,528.8803244999144,528.9970136999618,528.8803244999144,528.9970136999618,528.9803456000518,None,c,0,0.9710353999398649,528.9803456000518,None,,,,,,,pp,2022_Apr_05_0930,training+cueing,2021.1.4,59.93428807646222,
Self.png,Stranger,Self ,m,3.1,18,28,98,,,,,1,0,1,0,,,,,2,2,26,2,,,,,,,,,,,,,,,,,,,,,1.445,2.36,530.0876237999182,None,,,,,,,,,,,,,,,,,,,,530.6231172999833,531.1319542001002,0.5147740500979125,1.0153296501375735,531.1152850000653,531.2322164000943,531.1152850000653,531.2322164000943,531.2152978999075,None,m,1,1.231964800041169,531.2152978999075,None,,,,,,,pp,2022_Apr_05_0930,training+cueing,2021.1.4,59.93428807646222,
Stranger.png,You,Stranger,m,1.3,15,25,95,,,,,1,0,1,0,,,,,2,3,27,6,,,,,,,,,,,,,,,,,,,,,1.674,2.348,532.5724559999071,None,,,,,,,,,,,,,,,,,,,,533.1109917000867,533.6170926000923,0.5125713502056897,1.0129884502384812,533.6003948000725,533.7007045000792,533.6003948000725,533.7007045000792,533.7007045000792,None,m,1,1.1626075999811292,533.7007045000792,None,,,,,,,pp,2022_Apr_05_0930,training+cueing,2021.1.4,59.93428807646222,
Friend.png,Friend,Friend,c,2,12,22,92,,,,,1,0,1,0,,,,,2,4,28,10,,,,,,,,,,,,,,,,,,,,,1.532,2.274,534.9908392000943,None,,,,,,,,,,,,,,,,,,,,535.5283548000734,536.0354985999875,0.5111587499268353,1.0114939499180764,536.0188194999937,536.1355675000232,536.0188194999937,536.1355675000232,536.1188521999866,None,c,1,1.1445337999612093,536.1188521999866,None,,,,,,,pp,2022_Apr_05_0930,training+cueing,2021.1.4,59.93428807646222,
Friend.png,Friend,Friend,c,2,12,22,92,,,,,1,0,1,0,,,,,2,5,29,4,,,,,,,,,,,,,,,,,,,,,1.636,2.224,537.3920632000081,None,,,,,,,,,,,,,,,,,,,,537.9320179000497,538.4372535001021,0.5109312499407679,1.0112145501188934,538.4205744001083,538.5372896001209,538.4205744001083,538.5372896001209,538.5206085001118,None,c,1,1.2548924000002444,538.5206085001118,None,,,,,,,pp,2022_Apr_05_0930,training+cueing,2021.1.4,59.93428807646222,
Stranger.png,Stranger,Stranger,c,3,13,23,93,,,,,1,0,1,0,,,,,2,6,30,8,,,,,,,,,,,,,,,,,,,,,1.685,1.397,539.9122005000245,None,,,,,,,,,,,,,,,,,,,,540.4544132999144,540.9557783000637,0.5027683498337865,1.0030135498382151,540.9391087000258,541.0557689000852,540.9391087000258,541.0557689000852,541.0390900999773,None,c,1,1.5202829998452216,541.0390900999773,None,,,,,,,pp,2022_Apr_05_0930,training+cueing,2021.1.4,59.93428807646222,
Stranger.png,Friend,Stranger,m,2.3,17,27,97,,,,,1,0,1,0,,,,,2,7,31,7,,,,,,,,,,,,,,,,,,,,,1.47,1.879,542.6964843000751,None,,,,,,,,,,,,,,,,,,,,543.2381676000077,543.7411074999254,0.5027367500588298,1.003609349951148,543.7244239000138,543.841156099923,543.7244239000138,543.841156099923,543.8244344000705,None,m,1,1.4390014000236988,543.8244344000705,None,,,,,,,pp,2022_Apr_05_0930,training+cueing,2021.1.4,59.93428807646222,
Self.png,You,Self ,c,1,11,21,91,,,,,1,0,1,0,,,,,2,8,32,9,,,,,,,,,,,,,,,,,,,,,1.696,1.298,545.3994150999933,None,,,,,,,,,,,,,,,,,,,,545.9393877000548,546.443064799998,0.5068690499756485,1.0071520500350744,546.4263901000377,546.526442399947,546.4263901000377,546.526442399947,546.526442399947,None,c,1,0.6408335999585688,546.526442399947,None,,,,,,,pp,2022_Apr_05_0930,training+cueing,2021.1.4,59.93428807646222,
Friend.png,You,Friend,m,1.2,14,24,94,,,,,1,0,1,0,,,,,2,9,33,3,,,,,,,,,,,,,,,,,,,,,1.748,1.65,547.2997445000801,None,,,,,,,,,,,,,,,,,,,,547.8417929001153,548.3444070001133,0.506687950110063,1.0070082501042634,548.327738400083,548.4277852999512,548.327738400083,548.4277852999512,548.4277852999512,None,c,0,1.1080690000671893,548.4277852999512,None,,,,,,,pp,2022_Apr_05_0930,training+cueing,2021.1.4,59.93428807646222,
Self.png,Friend,Self ,m,2.1,16,26,96,,,,,1,0,1,0,,,,,2,10,34,1,,,,,,,,,,,,,,,,,,,,,1.52,1.303,549.6692445001099,None,,,,,,,,,,,,,,,,,,,,550.2088089000899,550.7128171001095,0.5064604501239955,1.0067936501000077,550.6960942000151,550.8128643999808,550.6960942000151,550.8128643999808,550.7961514999624,None,m,1,1.4916546999011189,550.7961514999624,None,,,,,,,pp,2022_Apr_05_0930,training+cueing,2021.1.4,59.93428807646222,
Stranger.png,Stranger,Stranger,c,3,13,23,93,,,,,1,0,1,0,,,,,2,11,35,11,,,,,,,,,,,,,,,,,,,,,1.579,2.266,552.421739900019,None,,,,,,,,,,,,,,,,,,,,552.9618196000811,553.4648070000112,0.5056698501575738,1.0059014500584453,553.4481412000023,553.5648415000178,553.4481412000023,553.5648415000178,553.5481610000134,None,c,1,0.7390918999444693,553.5481610000134,None,,,,,,,pp,2022_Apr_05_0930,training+cueing,2021.1.4,59.93428807646222,
Friend.png,Friend,Friend,c,2,12,22,92,,,,,1,0,1,0,,,,,3,0,36,4,,,,,,,,,,,,,,,,,,,,,1.48,1.361,554.4222099001054,None,,,,,,,,,,,,,,,,,,,,554.9611410999205,555.4663144000806,0.5076297500636429,1.0079096499830484,555.4495733999647,555.5663185999729,555.4495733999647,555.5663185999729,555.5496187999379,None,c,1,0.9617681999225169,555.5496187999379,None,,,,,,,pp,2022_Apr_05_0930,training+cueing,2021.1.4,59.93428807646222,
Friend.png,Stranger,Friend,m,3.2,19,29,99,,,,,1,0,1,0,,,,,3,1,37,5,,,,,,,,,,,,,,,,,,,,,1.672,1.373,556.6395348999649,None,,,,,,,,,,,,,,,,,,,,557.1800120999105,557.6846028000582,0.5085680498741567,1.009027749998495,557.6678820000961,557.7845650999807,557.6678820000961,557.7845650999807,557.76790480013,None,m,1,0.951419600052759,557.76790480013,None,,,,,,,pp,2022_Apr_05_0930,training+cueing,2021.1.4,59.93428807646222,
Self.png,Stranger,Self ,m,3.1,18,28,98,,,,,1,0,1,0,,,,,3,2,38,2,,,,,,,,,,,,,,,,,,,,,1.564,1.804,558.8421297001187,None,,,,,,,,,,,,,,,,,,,,559.3798823000398,559.8861263999715,0.5123340496793389,1.0125889498740435,559.8694674000144,559.9862341999542,559.8694674000144,559.9862341999542,559.9694694001228,None,m,1,0.8299886998720467,559.9694694001228,None,,,,,,,pp,2022_Apr_05_0930,training+cueing,2021.1.4,59.93428807646222,
Stranger.png,Friend,Stranger,m,2.3,17,27,97,,,,,1,0,1,0,,,,,3,3,39,7,,,,,,,,,,,,,,,,,,,,,1.783,2.395,560.9272191000637,None,,,,,,,,,,,,,,,,,,,,561.4663841999136,561.9710095000919,0.5076730500441045,1.007954350207001,561.9542934999336,562.0710656999145,561.9542934999336,562.0710656999145,562.0543073001318,None,m,1,0.7930429000407457,562.0543073001318,None,,,,,,,pp,2022_Apr_05_0930,training+cueing,2021.1.4,59.93428807646222,
Self.png,Friend,Self ,m,2.1,16,26,96,,,,,1,0,1,0,,,,,3,4,40,1,,,,,,,,,,,,,,,,,,,,,1.588,2.175,562.9779437000398,None,,,,,,,,,,,,,,,,,,,,563.5166297999676,564.0224923999049,0.5107900500297546,1.0110758498776704,564.0057977999095,564.1225227001123,564.0057977999095,564.1225227001123,564.1058167000301,None,None,0,,564.1058167000301,None,,,,,,,pp,2022_Apr_05_0930,training+cueing,2021.1.4,59.93428807646222,
Stranger.png,You,Stranger,m,1.3,15,25,95,,,,,1,0,1,0,,,,,3,5,41,6,,,,,,,,,,,,,,,,,,,,,1.782,1.949,565.8107640000526,None,,,,,,,,,,,,,,,,,,,,566.3543052999303,566.8578675000463,0.506677650148049,1.0069715499412268,566.8411769000813,566.9412275000941,566.8411769000813,566.9412275000941,566.9412275000941,None,m,1,1.4741142999846488,566.9412275000941,None,,,,,,,pp,2022_Apr_05_0930,training+cueing,2021.1.4,59.93428807646222,
Stranger.png,Stranger,Stranger,c,3,13,23,93,,,,,1,0,1,0,,,,,3,6,42,11,,,,,,,,,,,,,,,,,,,,,1.563,2.337,568.5484446000773,None,,,,,,,,,,,,,,,,,,,,569.0894198000897,569.5931665000971,0.5047552499454468,1.005268449895084,569.5765138999559,569.6932177999988,569.5765138999559,569.6932177999988,569.6765324000735,None,c,1,0.786819500150159,569.6765324000735,None,,,,,,,pp,2022_Apr_05_0930,training+cueing,2021.1.4,59.93428807646222,
Self.png,You,Self ,c,1,11,21,91,,,,,1,0,1,0,,,,,3,7,43,9,,,,,,,,,,,,,,,,,,,,,1.402,2.127,570.6010984999593,None,,,,,,,,,,,,,,,,,,,,571.1395622000564,571.6446559999604,0.5088181502651423,1.009152350248769,571.6279768999666,571.728048699908,571.6279768999666,571.728048699908,571.728048699908,None,c,1,0.8474061000160873,571.728048699908,None,,,,,,,pp,2022_Apr_05_0930,training+cueing,2021.1.4,59.93428807646222,
Stranger.png,Stranger,Stranger,c,3,13,23,93,,,,,1,0,1,0,,,,,3,8,44,8,,,,,,,,,,,,,,,,,,,,,1.55,1.485,572.7578275999986,None,,,,,,,,,,,,,,,,,,,,573.2440855000168,573.7462188999634,0.5023740499746054,1.0028496498707682,573.7295081999619,573.8464005999267,573.7295081999619,573.8464005999267,573.82959749992,None,c,1,1.1138448999263346,573.82959749992,None,,,,,,,pp,2022_Apr_05_0930,training+cueing,2021.1.4,59.93428807646222,
Self.png,You,Self ,c,1,11,21,91,,,,,1,0,1,0,,,,,3,9,45,0,,,,,,,,,,,,,,,,,,,,,1.478,1.587,575.0710853999481,None,,,,,,,,,,,,,,,,,,,,575.6158666999545,576.1312408000231,0.512868250021711,1.0131087498739362,576.1146086000372,576.2146356999874,576.1146086000372,576.2146356999874,576.2146356999874,None,c,1,1.0808306999970227,576.2146356999874,None,,,,,,,pp,2022_Apr_05_0930,training+cueing,2021.1.4,59.93428807646222,
Friend.png,You,Friend,m,1.2,14,24,94,,,,,1,0,1,0,,,,,3,10,46,3,,,,,,,,,,,,,,,,,,,,,1.412,1.241,577.4208661001176,None,,,,,,,,,,,,,,,,,,,,577.9591453999747,578.4662655999418,0.5132001501042396,1.0135178500786424,578.4495878000744,578.5496495999396,578.4495878000744,578.5496495999396,578.5496495999396,None,m,1,1.0336662998888642,578.5496495999396,None,,,,,,,pp,2022_Apr_05_0930,training+cueing,2021.1.4,59.93428807646222,
Friend.png,Friend,Friend,c,2,12,22,92,,,,,1,0,1,0,,,,,3,11,47,10,,,,,,,,,,,,,,,,,,,,,1.484,1.898,579.7067430999596,None,,,,,,,,,,,,,,,,,,,,580.2478287999984,580.751292000059,0.5037726501468569,1.0042701503261924,580.7346087999176,580.851308299927,580.7346087999176,580.851308299927,580.8346233000048,None,c,1,1.228699899977073,580.8346233000048,None,,,,,,,pp,2022_Apr_05_0930,training+cueing,2021.1.4,59.93428807646222,
Self.png,Stranger,Self ,m,3.1,18,28,98,,,,,1,0,1,0,,,,,4,0,48,2,,,,,,,,,,,,,,,,,,,,,1.765,2.081,582.1918428000063,None,,,,,,,,,,,,,,,,,,,,582.7341338999104,583.2364396001212,0.5043643498793244,1.0044574500061572,583.2198898000643,583.3364699999802,583.2198898000643,583.3364699999802,583.3197445000987,None,m,1,1.3356753999833018,583.3197445000987,None,,,,,,,pp,2022_Apr_05_0930,training+cueing,2021.1.4,59.93428807646222,
Friend.png,You,Friend,m,1.2,14,24,94,,,,,1,0,1,0,,,,,4,1,49,3,,,,,,,,,,,,,,,,,,,,,1.547,2.171,584.7775582000613,None,,,,,,,,,,,,,,,,,,,,585.3251259000972,585.8383518999908,0.5094726500101388,1.0097366499248892,585.8216315999161,585.9216783000156,585.8216315999161,585.9216783000156,585.9216783000156,None,m,1,0.8296278000343591,585.9216783000156,None,,,,,,,pp,2022_Apr_05_0930,training+cueing,2021.1.4,59.93428807646222,
Friend.png,Stranger,Friend,m,3.2,19,29,99,,,,,1,0,1,0,,,,,4,2,50,5,,,,,,,,,,,,,,,,,,,,,1.716,1.634,586.8785820999183,None,,,,,,,,,,,,,,,,,,,,587.4284016001038,587.9397941001225,0.5039729501586407,1.0042682499624789,587.9231445000041,588.0399122000672,587.9231445000041,588.0399122000672,588.0231796000153,None,c,0,1.0161196000408381,588.0231796000153,None,,,,,,,pp,2022_Apr_05_0930,training+cueing,2021.1.4,59.93428807646222,
Friend.png,Friend,Friend,c,2,12,22,92,,,,,1,0,1,0,,,,,4,3,51,10,,,,,,,,,,,,,,,,,,,,,1.611,2.252,589.1635507999454,None,,,,,,,,,,,,,,,,,,,,589.7022087001242,590.2061580999289,0.516882749972865,1.0113312499597669,590.1972803000826,590.3081767999101,590.1972803000826,590.3081767999101,590.2914815999102,None,c,1,0.8918772998731583,590.2914815999102,None,,,,,,,pp,2022_Apr_05_0930,training+cueing,2021.1.4,59.93428807646222,
Stranger.png,Friend,Stranger,m,2.3,17,27,97,,,,,1,0,1,0,,,,,4,4,52,7,,,,,,,,,,,,,,,,,,,,,1.403,1.759,591.314958400093,None,,,,,,,,,,,,,,,,,,,,591.8532966999337,592.3596918999683,0.510954350233078,1.0112488502636552,592.3430170000065,592.4597408000845,592.3430170000065,592.4597408000845,592.4430142000783,None,m,1,0.9803796999622136,592.4430142000783,None,,,,,,,pp,2022_Apr_05_0930,training+cueing,2021.1.4,59.93428807646222,
Friend.png,Friend,Friend,c,2,12,22,92,,,,,1,0,1,0,,,,,4,5,53,4,,,,,,,,,,,,,,,,,,,,,1.628,1.278,593.5503946000244,None,,,,,,,,,,,,,,,,,,,,594.087505799951,594.5946551000234,0.5145970499143004,1.0151378500740975,594.5779437001329,594.6947107000742,594.5779437001329,594.6947107000742,594.6780656001065,None,c,1,0.7932921000756323,594.6780656001065,None,,,,,,,pp,2022_Apr_05_0930,training+cueing,2021.1.4,59.93428807646222,
Stranger.png,Stranger,Stranger,c,3,13,23,93,,,,,1,0,1,0,,,,,4,6,54,11,,,,,,,,,,,,,,,,,,,,,1.723,2.387,595.6015361999162,None,,,,,,,,,,,,,,,,,,,,596.1430576001294,596.6461283999961,0.5052662501111627,1.0054974500089884,596.6294639999978,596.7461721000727,596.6294639999978,596.7461721000727,596.7294560999144,None,None,0,,596.7294560999144,None,,,,,,,pp,2022_Apr_05_0930,training+cueing,2021.1.4,59.93428807646222,
Stranger.png,Stranger,Stranger,c,3,13,23,93,,,,,1,0,1,0,,,,,4,7,55,8,,,,,,,,,,,,,,,,,,,,,1.608,1.222,598.5676790000871,None,,,,,,,,,,,,,,,,,,,,599.1058664000593,599.614910100121,0.49978494993411005,1.000271850032732,599.5815646001138,599.6816362000536,599.5815646001138,599.6816362000536,599.6816362000536,None,c,1,0.7657713999506086,599.6816362000536,None,,,,,,,pp,2022_Apr_05_0930,training+cueing,2021.1.4,59.93428807646222,
Self.png,You,Self ,c,1,11,21,91,,,,,1,0,1,0,,,,,4,8,56,0,,,,,,,,,,,,,,,,,,,,,1.675,1.833,600.5735086000059,None,,,,,,,,,,,,,,,,,,,,601.1128457000013,601.6163912001066,0.5065603498369455,1.0068568498827517,601.5997391000856,601.699769299943,601.5997391000856,601.699769299943,601.699769299943,None,c,1,0.9398763000499457,601.699769299943,None,,,,,,,pp,2022_Apr_05_0930,training+cueing,2021.1.4,59.93428807646222,
Self.png,You,Self ,c,1,11,21,91,,,,,1,0,1,0,,,,,4,9,57,9,,,,,,,,,,,,,,,,,,,,,1.667,1.395,602.7736947000958,None,,,,,,,,,,,,,,,,,,,,603.3091800000984,603.817994199926,0.4997897499706596,1.0000975499860942,603.7846381999552,603.8847028000746,603.7846381999552,603.8847028000746,603.8847028000746,None,c,1,0.8506082999520004,603.8847028000746,None,,,,,,,pp,2022_Apr_05_0930,training+cueing,2021.1.4,59.93428807646222,
Stranger.png,You,Stranger,m,1.3,15,25,95,,,,,1,0,1,0,,,,,4,10,58,6,,,,,,,,,,,,,,,,,,,,,1.619,2.374,604.8583843999077,None,,,,,,,,,,,,,,,,,,,,605.4022993999533,605.9028604000341,0.5156905502080917,1.016142850043252,605.9028604000341,606.0028858000878,605.9028604000341,606.0028858000878,606.0028858000878,None,m,1,0.9248699001036584,606.0028858000878,None,,,,,,,pp,2022_Apr_05_0930,training+cueing,2021.1.4,59.93428807646222,
Self.png,Friend,Self ,m,2.1,16,26,96,,,,,1,0,1,0,,,,,4,11,59,1,,,,,,,,,,,,,,,,,,,,,1.472,2.102,607.060900399927,None,,,,,,,,,,,,,,,,,,,,607.600544600049,608.1044616000727,0.5073313501197845,1.0076174500864,608.0877753000241,608.204489500029,608.0877753000241,608.204489500029,608.1877876999788,None,m,1,1.2356445000041276,608.1877876999788,None,,,,,,,pp,2022_Apr_05_0930,training+cueing,2021.1.4,59.93428807646222,
Stranger.png,Stranger,Stranger,c,3,13,23,93,,,,,1,0,1,0,,,,,5,0,60,11,,,,,,,,,,,,,,,,,,,,,1.755,2.051,609.5626737000421,None,,,,,,,,,,,,,,,,,,,,610.1047251999844,610.6062692000996,0.5007655504159629,1.001038450282067,610.5895903999917,610.7063025999814,610.5895903999917,610.7063025999814,610.7063025999814,None,c,1,1.4852733998559415,610.7063025999814,None,,,,,,,pp,2022_Apr_05_0930,training+cueing,2021.1.4,59.93428807646222,
Self.png,Friend,Self ,m,2.1,16,26,96,,,,,1,0,1,0,,,,,5,1,61,1,,,,,,,,,,,,,,,,,,,,,1.762,1.418,612.3156177999917,None,,,,,,,,,,,,,,,,,,,,612.8529783999547,613.3582417001016,0.5095962500199676,1.00992635008879,613.3415490000043,613.458295499906,613.3415490000043,613.458295499906,613.4415953001007,None,m,1,0.9900426000822335,613.4415953001007,None,,,,,,,pp,2022_Apr_05_0930,training+cueing,2021.1.4,59.93428807646222,
Stranger.png,Friend,Stranger,m,2.3,17,27,97,,,,,1,0,1,0,,,,,5,2,62,7,,,,,,,,,,,,,,,,,,,,,1.788,1.536,614.5653049999382,None,,,,,,,,,,,,,,,,,,,,615.1040074001066,615.6098927001003,0.511645550141111,1.0119012501090765,615.593248500023,615.7099085999653,615.593248500023,615.7099085999653,615.6932341000065,None,m,1,1.0902498001232743,615.6932341000065,None,,,,,,,pp,2022_Apr_05_0930,training+cueing,2021.1.4,59.93428807646222,
Friend.png,Friend,Friend,c,2,12,22,92,,,,,1,0,1,0,,,,,5,3,63,10,,,,,,,,,,,,,,,,,,,,,1.45,1.687,616.9180012000725,None,,,,,,,,,,,,,,,,,,,,617.4555705999956,617.9615877999458,0.509934350149706,1.0101453501265496,617.9449505999219,618.0616158999037,617.9449505999219,618.0616158999037,618.0449405000545,None,m,0,0.8504822000395507,618.0449405000545,None,,,,,,,pp,2022_Apr_05_0930,training+cueing,2021.1.4,59.93428807646222,
Friend.png,Friend,Friend,c,2,12,22,92,,,,,1,0,1,0,,,,,5,4,64,4,,,,,,,,,,,,,,,,,,,,,1.762,2.185,619.0180444999132,None,,,,,,,,,,,,,,,,,,,,619.5576480000746,620.063121000072,0.5111160499509424,1.011585450032726,620.0464504000265,620.1631674000528,620.0464504000265,620.1631674000528,620.1464748000726,None,c,1,1.084783700061962,620.1464748000726,None,,,,,,,pp,2022_Apr_05_0930,training+cueing,2021.1.4,59.93428807646222,
Stranger.png,Stranger,Stranger,c,3,13,23,93,,,,,1,0,1,0,,,,,5,5,65,8,,,,,,,,,,,,,,,,,,,,,1.425,1.438,621.35368810012,None,,,,,,,,,,,,,,,,,,,,621.8954875001218,622.3981325000059,0.5061672502197325,1.006461150245741,622.3814646000974,622.4981897000689,622.3814646000974,622.4981897000689,622.4814822000917,None,c,1,0.7498792000114918,622.4814822000917,None,,,,,,,pp,2022_Apr_05_0930,training+cueing,2021.1.4,59.93428807646222,
Self.png,Stranger,Self ,m,3.1,18,28,98,,,,,1,0,1,0,,,,,5,6,66,2,,,,,,,,,,,,,,,,,,,,,1.646,1.575,623.3550082999282,None,,,,,,,,,,,,,,,,,,,,623.8928680000827,624.399597800104,0.5107800501864403,1.0110799500253052,624.3829169999808,624.4995977999642,624.3829169999808,624.4995977999642,624.4829414999112,None,m,1,1.340523400111124,624.4829414999112,None,,,,,,,pp,2022_Apr_05_0930,training+cueing,2021.1.4,59.93428807646222,
Friend.png,Stranger,Friend,m,3.2,19,29,99,,,,,1,0,1,0,,,,,5,7,67,5,,,,,,,,,,,,,,,,,,,,,1.653,2.179,625.9569264999591,None,,,,,,,,,,,,,,,,,,,,626.4961576000787,627.0015020000283,0.5108095502946526,1.0110886502079666,626.9848122999538,627.1015290999785,626.9848122999538,627.1015290999785,627.0848187000956,None,m,1,1.1545496999751776,627.0848187000956,None,,,,,,,pp,2022_Apr_05_0930,training+cueing,2021.1.4,59.93428807646222,
Self.png,You,Self ,c,1,11,21,91,,,,,1,0,1,0,,,,,5,8,68,9,,,,,,,,,,,,,,,,,,,,,1.765,1.22,628.3757686000317,None,,,,,,,,,,,,,,,,,,,,628.9140389000531,629.4198914000299,0.508464349899441,1.0087357498705387,629.4032103999052,629.5032639000565,629.4032103999052,629.5032639000565,629.5032639000565,None,c,1,0.7684249999001622,629.5032639000565,None,,,,,,,pp,2022_Apr_05_0930,training+cueing,2021.1.4,59.93428807646222,
Friend.png,You,Friend,m,1.2,14,24,94,,,,,1,0,1,0,,,,,5,9,69,3,,,,,,,,,,,,,,,,,,,,,1.426,1.585,630.3952445001341,None,,,,,,,,,,,,,,,,,,,,630.9351061000489,631.4380020999815,0.5063918500673026,1.006681450176984,631.421352500096,631.5214086999185,631.421352500096,631.5214086999185,631.5214086999185,None,m,1,0.8939859000965953,631.5214086999185,None,,,,,,,pp,2022_Apr_05_0930,training+cueing,2021.1.4,59.93428807646222,
Self.png,You,Self ,c,1,11,21,91,,,,,1,0,1,0,,,,,5,10,70,0,,,,,,,,,,,,,,,,,,,,,1.662,1.649,632.5446278001182,None,,,,,,,,,,,,,,,,,,,,633.0834858000744,633.5895859000739,0.5123423500917852,1.0126363500021398,633.5729034999385,633.673042899929,633.5729034999385,633.673042899929,633.673042899929,None,c,1,0.6943096001632512,633.673042899929,None,,,,,,,pp,2022_Apr_05_0930,training+cueing,2021.1.4,59.93428807646222,
Stranger.png,You,Stranger,m,1.3,15,25,95,,,,,1,0,1,0,,,,,5,11,71,6,,,,,,,,,,,,,,,,,,,,,1.696,1.656,634.4959422999527,None,,,,,,,,,,,,,,,,,,,,635.0343766999431,635.540992599912,0.5106261500623077,1.0108099500648677,635.5243812000845,635.6243746001273,635.5243812000845,635.6243746001273,635.6243746001273,None,m,1,1.0148906998801976,635.6243746001273,None,,,,,,,pp,2022_Apr_05_0930,training+cueing,2021.1.4,59.93428807646222,
Self.png,Friend,Self ,m,2.1,16,26,96,,,,,1,0,1,0,,,,,6,0,72,1,,,,,,,,,,,,,,,,,,,,,1.646,2.285,636.7642489001155,None,,,,,,,,,,,,,,,,,,,,637.3063580000307,637.809336300008,0.5064701498486102,1.0067118499428034,637.7926551001146,637.9093855000101,637.7926551001146,637.9093855000101,637.8926790000405,None,m,1,0.8907179001253098,637.8926790000405,None,,,,,,,pp,2022_Apr_05_0930,training+cueing,2021.1.4,59.93428807646222,
Self.png,You,Self ,c,1,11,21,91,,,,,1,0,1,0,,,,,6,1,73,0,,,,,,,,,,,,,,,,,,,,,1.667,1.616,638.9163645999506,None,,,,,,,,,,,,,,,,,,,,639.4556940000039,639.9608640000224,0.51059764996171,1.010900649940595,639.9441919999663,640.0442349999212,639.9441919999663,640.0442349999212,640.0442349999212,None,c,1,0.9310970001388341,640.0442349999212,None,,,,,,,pp,2022_Apr_05_0930,training+cueing,2021.1.4,59.93428807646222,
Friend.png,Friend,Friend,c,2,12,22,92,,,,,1,0,1,0,,,,,6,2,74,10,,,,,,,,,,,,,,,,,,,,,1.761,1.893,641.101210599998,None,,,,,,,,,,,,,,,,,,,,641.6422945999075,642.1457956999075,0.5049550500698388,1.005233250092715,642.12911790004,642.2458482999355,642.12911790004,642.2458482999355,642.2291711999569,None,m,0,0.8900433001108468,642.2291711999569,None,,,,,,,pp,2022_Apr_05_0930,training+cueing,2021.1.4,59.93428807646222,
Friend.png,Friend,Friend,c,2,12,22,92,,,,,1,0,1,0,,,,,6,3,75,4,,,,,,,,,,,,,,,,,,,,,1.776,2.015,643.2531810000073,None,,,,,,,,,,,,,,,,,,,,643.7909820999485,644.2973635001108,0.5131138502620161,1.0140195502899587,644.280672899913,644.3974053999409,644.280672899913,644.3974053999409,644.3806978999637,None,c,1,0.866735199932009,644.3806978999637,None,,,,,,,pp,2022_Apr_05_0930,training+cueing,2021.1.4,59.93428807646222,
Stranger.png,Stranger,Stranger,c,3,13,23,93,,,,,1,0,1,0,,,,,6,4,76,11,,,,,,,,,,,,,,,,,,,,,1.648,1.901,645.3720503000077,None,,,,,,,,,,,,,,,,,,,,645.9121067000087,646.4155421999749,0.5035518500953913,1.003843150101602,646.39886690001,646.5156229001004,646.39886690001,646.5156229001004,646.4989012000151,None,c,1,0.9245374999009073,646.4989012000151,None,,,,,,,pp,2022_Apr_05_0930,training+cueing,2021.1.4,59.93428807646222,
Self.png,Stranger,Self ,m,3.1,18,28,98,,,,,1,0,1,0,,,,,6,5,77,2,,,,,,,,,,,,,,,,,,,,,1.65,2.497,647.5556964999996,None,,,,,,,,,,,,,,,,,,,,648.1073656000663,648.6171230999753,0.5030340501107275,1.003289750078693,648.6005001000594,648.7171946999151,648.6005001000594,648.7171946999151,648.7005004000384,None,m,1,0.8667737999930978,648.7005004000384,None,,,,,,,pp,2022_Apr_05_0930,training+cueing,2021.1.4,59.93428807646222,
Friend.png,You,Friend,m,1.2,14,24,94,,,,,1,0,1,0,,,,,6,6,78,3,,,,,,,,,,,,,,,,,,,,,1.605,1.789,649.6901966999285,None,,,,,,,,,,,,,,,,,,,,650.2298387000337,650.7354347000364,0.5102770500816405,1.0105331500526518,650.7187089000363,650.8187041999772,650.7187089000363,650.8187041999772,650.8187041999772,None,m,1,1.5485733998939395,650.8187041999772,None,,,,,,,pp,2022_Apr_05_0930,training+cueing,2021.1.4,59.93428807646222,
Stranger.png,You,Stranger,m,1.3,15,25,95,,,,,1,0,1,0,,,,,6,7,79,6,,,,,,,,,,,,,,,,,,,,,1.561,1.642,652.4928168999031,None,,,,,,,,,,,,,,,,,,,,653.0303841999266,653.5373939999845,0.5115000500809401,1.0118079499807209,653.5206979000941,653.6207546000369,653.5206979000941,653.6207546000369,653.6207546000369,None,m,1,1.3548324001021683,653.6207546000369,None,,,,,,,pp,2022_Apr_05_0930,training+cueing,2021.1.4,59.93428807646222,
Friend.png,Stranger,Friend,m,3.2,19,29,99,,,,,1,0,1,0,,,,,6,8,80,5,,,,,,,,,,,,,,,,,,,,,1.771,2.004,655.1153049999848,None,,,,,,,,,,,,,,,,,,,,655.6523923000786,656.1559616001323,0.5057966499589384,1.006077550118789,656.1392665000167,656.2560219999868,656.1392665000167,656.2560219999868,656.2393251000904,None,m,1,0.9760120001155883,656.2393251000904,None,,,,,,,pp,2022_Apr_05_0930,training+cueing,2021.1.4,59.93428807646222,
Stranger.png,Friend,Stranger,m,2.3,17,27,97,,,,,1,0,1,0,,,,,6,9,81,7,,,,,,,,,,,,,,,,,,,,,1.435,2.344,657.3480978000443,None,,,,,,,,,,,,,,,,,,,,657.8907677999232,658.3909307001159,0.5012759503442794,1.00151545018889,658.3742828001268,658.4909727000631,658.3742828001268,658.4909727000631,658.4909727000631,None,m,1,1.0764343000482768,658.4909727000631,None,,,,,,,pp,2022_Apr_05_0930,training+cueing,2021.1.4,59.93428807646222,
Stranger.png,Stranger,Stranger,c,3,13,23,93,,,,,1,0,1,0,,,,,6,10,82,8,,,,,,,,,,,,,,,,,,,,,1.795,1.295,659.6980087000411,None,,,,,,,,,,,,,,,,,,,,660.2698349999264,660.7759956999216,0.5107097500003874,1.0110131499823183,660.7593074000906,660.8761080999393,660.7593074000906,660.8761080999393,660.8593763001263,None,c,1,0.7080097999423742,660.8593763001263,None,,,,,,,pp,2022_Apr_05_0930,training+cueing,2021.1.4,59.93428807646222,
Self.png,You,Self ,c,1,11,21,91,,,,,1,0,1,0,,,,,6,11,83,9,,,,,,,,,,,,,,,,,,,,,1.675,1.511,661.6997050999198,None,,,,,,,,,,,,,,,,,,,,662.2410586001351,662.7440712000243,0.5065399501472712,1.0070300502702594,662.7274082000367,662.8274596999399,662.7274082000367,662.8274596999399,662.8274596999399,None,c,1,0.8358789999037981,662.8274596999399,None,,,,,,,pp,2022_Apr_05_0930,training+cueing,2021.1.4,59.93428807646222,
Stranger.png,Stranger,Stranger,c,3,13,23,93,,,,,1,0,1,0,,,,,7,0,84,8,,,,,,,,,,,,,,,,,,,,,1.697,1.285,663.7846516999416,None,,,,,,,,,,,,,,,,,,,,664.3228851000313,664.8289153999649,0.5087894501630217,1.009067950071767,664.8122431000229,664.9289744000416,664.8122431000229,664.9289744000416,664.9122130000032,None,c,1,0.9591828999109566,664.9122130000032,None,,,,,,,pp,2022_Apr_05_0930,training+cueing,2021.1.4,59.93428807646222,
Self.png,Stranger,Self ,m,3.1,18,28,98,,,,,1,0,1,0,,,,,7,1,85,2,,,,,,,,,,,,,,,,,,,,,1.447,1.489,666.0036013000645,None,,,,,,,,,,,,,,,,,,,,666.5559568000026,667.0638163001277,0.4992820997722447,0.9996334998868406,667.0305164000019,667.1305553999264,667.0305164000019,667.1305553999264,667.1305553999264,None,m,1,0.9009428999852389,667.1305553999264,None,,,,,,,pp,2022_Apr_05_0930,training+cueing,2021.1.4,59.93428807646222,
