Image,Name,Face,CorrAns,Match,Face_onset,CResponse_onset,IResponse_onset,Match.thisRepN,Match.thisTrialN,Match.thisN,Match.thisIndex,Blocks.thisRepN,Blocks.thisTrialN,Blocks.thisN,Blocks.thisIndex,trials.thisRepN,trials.thisTrialN,trials.thisN,trials.thisIndex,trials_2.thisRepN,trials_2.thisTrialN,trials_2.thisN,trials_2.thisIndex,text.started,text.stopped,p1.started,p1.stopped,MatchInstructions.started,MatchInstructions.stopped,Name1.started,Name1.stopped,Face_Relevance.started,Face_Relevance.stopped,MismatchInstructions.started,MismatchInstructions.stopped,Rest_trainingInstruct.started,Rest_trainingInstruct.stopped,next8.keys,next8.rt,next8.started,next8.stopped,Ready.started,Ready.stopped,delay_one_picked,delay_two_picked,blank0.started,blank0.stopped,FixationCross1.started,FixationCross1.stopped,Name3.started,Name3.stopped,Face_Relevance3.started,Face_Relevance3.stopped,responseTime.started,responseTime.stopped,resp.keys,resp.corr,resp.rt,resp.started,resp.stopped,Accuracy.started,Accuracy.stopped,questions.started,questions.stopped,p2.started,p2.stopped,FixationCross3.started,FixationCross3.stopped,port_Face_onset.started,port_Face_onset.stopped,Name4.started,Name4.stopped,Face_Relevance4.started,Face_Relevance4.stopped,responseTime2.started,responseTime2.stopped,Response.keys,Response.corr,Response.rt,Response.started,Response.stopped,p3.started,p3.stopped,Finish.started,Finish.stopped,gender,age,participant,date,expName,psychopyVersion,frameRate,
Friend.png,Friend,,,,,,,0,0,0,1,,,,,,,,,,,,,11.425541600212455,None,0.006015920080244541,0.5286651202477515,13.418850300367922,None,15.589655200019479,None,15.589655200019479,None,,,,,,,,,,,,,,,,,,,,,,,,,,,,,,,,,,,,,,,,,,,,,,,,,,,,,,,ppaa,2022_May_13_1657,training+cueing,2021.1.4,59.94388060014791,
Self.png,You,,,,,,,0,1,1,0,,,,,,,,,,,,,,,,,,,35.478541400283575,None,35.478541400283575,None,,,,,,,,,,,,,,,,,,,,,,,,,,,,,,,,,,,,,,,,,,,,,,,,,,,,,,,ppaa,2022_May_13_1657,training+cueing,2021.1.4,59.94388060014791,
Stranger.png,Stranger,,,,,,,0,2,2,2,,,,,,,,,,,,,,,,,,,55.47114740032703,None,55.47114740032703,None,,,,,,,,,,,,,,,,,,,,,,,,,,,,,,,,,,,,,,,,,,,,,,,,,,,,,,,ppaa,2022_May_13_1657,training+cueing,2021.1.4,59.94388060014791,
Self.png,You,Self ,c,1,11,21,91,,,,,0,0,0,0,0,0,0,0,,,,,,,,,,,,,,,75.43033799994737,None,77.43160250037909,None,space,-0.3984886002726853,2.0101323700509965,None,79.43504820019007,None,1.746,1.281,82.44748930027708,None,83.07406629994512,83.58607050031424,83.56939680036157,83.66941160010174,83.56939680036157,83.66941160010174,83.66941160010174,None,c,1,0.40527560003101826,83.66941160010174,None,84.1021895003505,None,,,,,,,,,,,,,,,,,,,,,,,,,,ppaa,2022_May_13_1657,training+cueing,2021.1.4,59.94388060014791,
Self.png,Friend,Self ,m,2.1,16,26,96,,,,,0,0,0,0,0,1,1,1,,,,,,,,,,,,,,,,,,,,,,,,,1.791,1.938,84.5039873002097,None,85.04326750012115,85.55414180038497,85.53746010037139,85.65419410029426,85.53746010037139,85.65419410029426,85.63749480014667,None,m,1,0.40513289999216795,85.63749480014667,None,86.07126650027931,None,,,,,,,,,,,,,,,,,,,,,,,,,,ppaa,2022_May_13_1657,training+cueing,2021.1.4,59.94388060014791,
Friend.png,You,Friend,m,1.2,14,24,94,,,,,0,0,0,0,0,2,2,3,,,,,,,,,,,,,,,,,,,,,,,,,1.743,1.359,86.47160329995677,None,87.00712490035221,87.52227189997211,87.50554689997807,87.60560940019786,87.50554689997807,87.60560940019786,87.60560940019786,None,c,0,0.1490607000887394,87.60560940019786,None,87.77288029994816,None,,,,,,,,,,,,,,,,,,,,,,,,,,ppaa,2022_May_13_1657,training+cueing,2021.1.4,59.94388060014791,
Stranger.png,Friend,Stranger,m,2.3,17,27,97,,,,,0,0,0,0,0,3,3,7,,,,,,,,,,,,,,,,,,,,,,,,,1.592,1.802,88.1733534000814,None,88.70885360008106,89.22355620004237,89.20677920011804,89.32347630010918,89.20677920011804,89.32347630010918,89.30681039998308,None,m,1,0.19189090002328157,89.30681039998308,None,89.52229059999809,None,,,,,,,,,,,,,,,,,,,,,,,,,,ppaa,2022_May_13_1657,training+cueing,2021.1.4,59.94388060014791,
Stranger.png,Stranger,Stranger,c,3,13,23,93,,,,,0,0,0,0,0,4,4,8,,,,,,,,,,,,,,,,,,,,,,,,,1.48,1.474,89.92394970031455,None,90.45678950008005,90.95802929997444,90.94134250003844,91.05809660023078,90.94134250003844,91.05809660023078,91.04140200000256,None,c,1,0.2812386997975409,91.04140200000256,None,91.34168410021812,None,,,,,,,,,,,,,,,,,,,,,,,,,,ppaa,2022_May_13_1657,training+cueing,2021.1.4,59.94388060014791,
Friend.png,Friend,Friend,c,2,12,22,92,,,,,0,0,0,0,0,5,5,4,,,,,,,,,,,,,,,,,,,,,,,,,1.792,2.041,91.7421110002324,None,92.27426030021161,92.77599710039794,92.75933820009232,92.87605020031333,92.75933820009232,92.87605020031333,92.85937379999086,None,m,0,0.11122109973803163,92.85937379999086,None,92.99389570020139,None,,,,,,,,,,,,,,,,,,,,,,,,,,ppaa,2022_May_13_1657,training+cueing,2021.1.4,59.94388060014791,
Friend.png,Stranger,Friend,m,3.2,19,29,99,,,,,0,0,0,0,0,6,6,5,,,,,,,,,,,,,,,,,,,,,,,,,1.753,1.615,93.39327010000125,None,93.93094950029626,94.44384580012411,94.42720460006967,94.54394160024822,94.42720460006967,94.54394160024822,94.52725710021332,None,c,0,0.12339409999549389,94.52725710021332,None,94.67744340002537,None,,,,,,,,,,,,,,,,,,,,,,,,,,ppaa,2022_May_13_1657,training+cueing,2021.1.4,59.94388060014791,
Self.png,You,Self ,c,1,11,21,91,,,,,0,0,0,0,0,7,7,9,,,,,,,,,,,,,,,,,,,,,,,,,1.498,2.141,95.07781470008194,None,95.61422879993916,96.1284357002005,96.11184350028634,96.21185490023345,96.11184350028634,96.21185490023345,96.21185490023345,None,m,0,0.11879529990255833,96.21185490023345,None,96.36238209996372,None,,,,,,,,,,,,,,,,,,,,,,,,,,ppaa,2022_May_13_1657,training+cueing,2021.1.4,59.94388060014791,
Friend.png,Friend,Friend,c,2,12,22,92,,,,,0,0,0,0,0,8,8,10,,,,,,,,,,,,,,,,,,,,,,,,,1.558,1.847,96.76238850038499,None,97.29708439996466,97.79631240013987,97.79631240013987,97.89631430013105,97.79631240013987,97.89631430013105,97.89631430013105,None,m,0,0.11426350008696318,97.89631430013105,None,98.02987400023267,None,,,,,,,,,,,,,,,,,,,,,,,,,,ppaa,2022_May_13_1657,training+cueing,2021.1.4,59.94388060014791,
Stranger.png,You,Stranger,m,1.3,15,25,95,,,,,0,0,0,0,0,9,9,6,,,,,,,,,,,,,,,,,,,,,,,,,1.621,1.274,98.43018160015345,None,98.9666487001814,99.48086749995127,99.46418520016596,99.56423800019547,99.46418520016596,99.56423800019547,99.56423800019547,None,None,0,,99.56423800019547,None,101.198869000189,None,,,,,,,,,,,,,,,,,,,,,,,,,,ppaa,2022_May_13_1657,training+cueing,2021.1.4,59.94388060014791,
Self.png,Stranger,Self ,m,3.1,18,28,98,,,,,0,0,0,0,0,10,10,2,,,,,,,,,,,,,,,,,,,,,,,,,1.459,1.422,101.59957600012422,None,102.14231780031696,102.6498171002604,102.6331409001723,102.74988090014085,102.6331409001723,102.74988090014085,102.73316780012101,None,c,0,0.12544200010597706,102.73316780012101,None,102.88333540037274,None,,,,,,,,,,,,,,,,,,,,,,,,,,ppaa,2022_May_13_1657,training+cueing,2021.1.4,59.94388060014791,
Stranger.png,Stranger,Stranger,c,3,13,23,93,,,,,0,0,0,0,0,11,11,11,,,,,,,,,,,,,,,,,,,,,,,,,1.483,2.086,103.28358810022473,None,103.8139197002165,104.31766019994393,104.30097410036251,104.41773480037227,104.30097410036251,104.41773480037227,104.40101550007239,None,m,0,0.10576059995219111,104.40101550007239,None,104.53447920037434,None,,,,,,,,,,,,,,,,,,,,,,,,,,ppaa,2022_May_13_1657,training+cueing,2021.1.4,59.94388060014791,
Stranger.png,You,Stranger,m,1.3,15,25,95,,,,,0,0,0,0,,,,,0,0,0,6,,,,,,,,,,,,,,,,,,,133.8058285000734,None,1.634,2.417,137.32792730024084,None,,,,,,,,,,,,,,,,104.93480460019782,None,0.014896970242261887,0.514016869943589,137.94643680006266,138.45898590004072,0.5056282603181899,None,138.44229600019753,138.54235809994861,138.44229600019753,138.54235809994861,138.54235809994861,None,c,0,0.26830639969557524,138.54235809994861,None,,,,,,,ppaa,2022_May_13_1657,training+cueing,2021.1.4,59.94388060014791,
Stranger.png,Friend,Stranger,m,2.3,17,27,97,,,,,0,0,0,0,,,,,0,1,1,7,,,,,,,,,,,,,,,,,,,,,1.792,1.614,138.9498805999756,None,,,,,,,,,,,,,,,,,,,,139.49001110019162,139.99342370033264,0.5072800107300282,None,139.97672790009528,140.09347310010344,139.97672790009528,140.09347310010344,140.07678980007768,None,m,1,0.173936499748379,140.07678980007768,None,,,,,,,ppaa,2022_May_13_1657,training+cueing,2021.1.4,59.94388060014791,
Self.png,You,Self ,c,1,11,21,91,,,,,0,0,0,0,,,,,0,2,2,9,,,,,,,,,,,,,,,,,,,,,1.647,1.647,140.3830866003409,None,,,,,,,,,,,,,,,,,,,,140.923898300156,141.42797429999337,0.5078656100668013,None,141.41128990007564,141.51131239999086,141.41128990007564,141.51131239999086,141.51131239999086,None,c,1,0.19534339988604188,141.51131239999086,None,,,,,,,ppaa,2022_May_13_1657,training+cueing,2021.1.4,59.94388060014791,
Self.png,You,Self ,c,1,11,21,91,,,,,0,0,0,0,,,,,0,3,3,0,,,,,,,,,,,,,,,,,,,,,1.64,1.527,141.83475450007245,None,,,,,,,,,,,,,,,,,,,,142.37976550031453,142.87887460039929,0.5133842104114592,None,142.87887460039929,142.9789001001045,142.87887460039929,142.9789001001045,142.9789001001045,None,m,0,0.15166490012779832,142.9789001001045,None,,,,,,,ppaa,2022_May_13_1657,training+cueing,2021.1.4,59.94388060014791,
Stranger.png,Stranger,Stranger,c,3,13,23,93,,,,,0,0,0,0,,,,,0,4,4,8,,,,,,,,,,,,,,,,,,,,,1.776,1.346,143.2686900999397,None,,,,,,,,,,,,,,,,,,,,143.81146130012348,144.31320420000702,0.5041573103517294,None,144.2965323999524,144.41326649999246,144.2965323999524,144.41326649999246,144.39653220027685,None,c,1,0.12615759996697307,144.39653220027685,None,,,,,,,ppaa,2022_May_13_1657,training+cueing,2021.1.4,59.94388060014791,
Self.png,Stranger,Self ,m,3.1,18,28,98,,,,,0,0,0,0,,,,,0,5,5,2,,,,,,,,,,,,,,,,,,,,,1.597,1.89,144.65376140037552,None,,,,,,,,,,,,,,,,,,,,145.19165010005236,145.69754630001262,0.511767310090363,None,145.68087209993973,145.79759069997817,145.68087209993973,145.79759069997817,145.7809081999585,None,c,0,0.133765600156039,145.7809081999585,None,,,,,,,ppaa,2022_May_13_1657,training+cueing,2021.1.4,59.94388060014791,
Self.png,Friend,Self ,m,2.1,16,26,96,,,,,0,0,0,0,,,,,0,6,6,1,,,,,,,,,,,,,,,,,,,,,1.435,2.378,146.03767710039392,None,,,,,,,,,,,,,,,,,,,,146.57790860021487,147.08192940009758,0.5063257105648518,1.007129610516131,147.06530010001734,147.181943600066,147.06530010001734,147.181943600066,147.16523060016334,None,m,1,1.2614167998544872,147.16523060016334,None,,,,,,,ppaa,2022_May_13_1657,training+cueing,2021.1.4,59.94388060014791,
Friend.png,Friend,Friend,c,2,12,22,92,,,,,0,0,0,0,,,,,0,7,7,4,,,,,,,,,,,,,,,,,,,,,1.489,1.241,148.5568687999621,None,,,,,,,,,,,,,,,,,,,,149.09494450036436,149.60037880018353,0.5106785101816058,None,149.58372039999813,149.70038660010323,149.58372039999813,149.70038660010323,149.68373510008678,None,m,0,0.1348891998641193,149.68373510008678,None,,,,,,,ppaa,2022_May_13_1657,training+cueing,2021.1.4,59.94388060014791,
Stranger.png,Stranger,Stranger,c,3,13,23,93,,,,,0,0,0,0,,,,,0,8,8,11,,,,,,,,,,,,,,,,,,,,,1.755,1.6,149.9567067003809,None,,,,,,,,,,,,,,,,,,,,150.49646240007132,151.00135540030897,0.5070597096346319,None,150.98468650039285,151.1014193003066,150.98468650039285,151.1014193003066,151.08471990004182,None,c,1,0.10990680009126663,151.08471990004182,None,,,,,,,ppaa,2022_May_13_1657,training+cueing,2021.1.4,59.94388060014791,
Friend.png,You,Friend,m,1.2,14,24,94,,,,,0,0,0,0,,,,,0,9,9,3,,,,,,,,,,,,,,,,,,,,,1.455,1.66,151.32406970020384,None,,,,,,,,,,,,,,,,,,,,151.86525910021737,152.36901010014117,0.5076588103547692,None,152.35236050002277,152.45240260008723,152.35236050002277,152.45240260008723,152.45240260008723,None,m,1,0.02221439965069294,152.45240260008723,None,,,,,,,ppaa,2022_May_13_1657,training+cueing,2021.1.4,59.94388060014791,
Friend.png,Stranger,Friend,m,3.2,19,29,99,,,,,0,0,0,0,,,,,0,10,10,5,,,,,,,,,,,,,,,,,,,,,1.707,2.23,152.60916949994862,None,,,,,,,,,,,,,,,,,,,,153.15051389997825,153.65326820034534,0.5066115101799369,None,153.636600300204,153.75331280007958,153.636600300204,153.75331280007958,153.7366446000524,None,m,1,0.1299223997630179,153.7366446000524,None,,,,,,,ppaa,2022_May_13_1657,training+cueing,2021.1.4,59.94388060014791,
Friend.png,Friend,Friend,c,2,12,22,92,,,,,0,0,0,0,,,,,0,11,11,10,,,,,,,,,,,,,,,,,,,,,1.571,2.171,153.99353430001065,None,,,,,,,,,,,,,,,,,,,,154.53363780025393,155.03759380010888,0.5065621100366116,None,155.02095820009708,155.13765839999542,155.02095820009708,155.13765839999542,155.120988199953,None,c,1,0.12159630004316568,155.120988199953,None,,,,,,,ppaa,2022_May_13_1657,training+cueing,2021.1.4,59.94388060014791,
Friend.png,Stranger,Friend,m,3.2,19,29,99,,,,,0,0,0,0,,,,,1,0,12,5,,,,,,,,,,,,,,,,,,,,,1.404,2.149,155.37736340006813,None,,,,,,,,,,,,,,,,,,,,155.91909700026736,156.42194529995322,0.505744110327214,None,156.4052905002609,156.5220420002006,156.4052905002609,156.5220420002006,156.5053167003207,None,m,1,0.11324209999293089,156.5053167003207,None,,,,,,,ppaa,2022_May_13_1657,training+cueing,2021.1.4,59.94388060014791,
Friend.png,You,Friend,m,1.2,14,24,94,,,,,0,0,0,0,,,,,1,1,13,3,,,,,,,,,,,,,,,,,,,,,1.474,2.342,156.74513690033928,None,,,,,,,,,,,,,,,,,,,,157.28610930033028,157.7896823999472,0.5069370097480714,None,157.77298260014504,157.87298730015755,157.77298260014504,157.87298730015755,157.87298730015755,None,c,0,0.12154149962589145,157.87298730015755,None,,,,,,,ppaa,2022_May_13_1657,training+cueing,2021.1.4,59.94388060014791,
Stranger.png,Friend,Stranger,m,2.3,17,27,97,,,,,0,0,0,0,,,,,1,2,14,7,,,,,,,,,,,,,,,,,,,,,1.683,1.472,158.12896630028263,None,,,,,,,,,,,,,,,,,,,,158.66920390026644,159.1739495000802,0.5066441097296774,1.007517009973526,159.1572924000211,159.27415110031143,159.1572924000211,159.27415110031143,159.2573379999958,None,None,0,,159.2573379999958,None,,,,,,,ppaa,2022_May_13_1657,training+cueing,2021.1.4,59.94388060014791,
Self.png,Friend,Self ,m,2.1,16,26,96,,,,,0,0,0,0,,,,,1,3,15,1,,,,,,,,,,,,,,,,,,,,,1.664,2.292,161.04561519995332,None,,,,,,,,,,,,,,,,,,,,161.58558850036934,162.09272420033813,0.5146450102329254,1.0149009102024138,162.07604539999738,162.19277540035546,162.07604539999738,162.19277540035546,162.1760973003693,None,c,0,1.1948263002559543,162.1760973003693,None,,,,,,,ppaa,2022_May_13_1657,training+cueing,2021.1.4,59.94388060014791,
Stranger.png,You,Stranger,m,1.3,15,25,95,,,,,0,0,0,0,,,,,1,4,16,6,,,,,,,,,,,,,,,,,,,,,1.796,1.233,163.50373440003023,None,,,,,,,,,,,,,,,,,,,,164.04031570022926,164.54448430007324,0.5062553104944527,None,164.52778800018132,164.6278685000725,164.52778800018132,164.6278685000725,164.6278685000725,None,m,1,0.24678219994530082,164.6278685000725,None,,,,,,,ppaa,2022_May_13_1657,training+cueing,2021.1.4,59.94388060014791,
Self.png,You,Self ,c,1,11,21,91,,,,,0,0,0,0,,,,,1,5,17,0,,,,,,,,,,,,,,,,,,,,,1.402,1.346,165.00066460017115,None,,,,,,,,,,,,,,,,,,,,165.54483320005238,166.04553870018572,0.5017670104280114,None,166.02886640001088,166.12895369995385,166.02886640001088,166.12895369995385,166.12895369995385,None,m,0,0.2816844000481069,166.12895369995385,None,,,,,,,ppaa,2022_May_13_1657,training+cueing,2021.1.4,59.94388060014791,
Self.png,Stranger,Self ,m,3.1,18,28,98,,,,,0,0,0,0,,,,,1,6,18,2,,,,,,,,,,,,,,,,,,,,,1.609,1.78,166.5394642003812,None,,,,,,,,,,,,,,,,,,,,167.0811038003303,167.59671960026026,0.5139433098956943,1.0142078096978366,167.5800394001417,167.69681800017133,167.5800394001417,167.69681800017133,167.6800633999519,None,None,0,,167.6800633999519,None,,,,,,,ppaa,2022_May_13_1657,training+cueing,2021.1.4,59.94388060014791,
Stranger.png,Stranger,Stranger,c,3,13,23,93,,,,,0,0,0,0,,,,,1,7,19,11,,,,,,,,,,,,,,,,,,,,,1.68,1.973,169.40272680018097,None,,,,,,,,,,,,,,,,,,,,169.94209709996358,170.44876720011234,0.5113190105184913,None,170.43207800015807,170.54880460025743,170.43207800015807,170.54880460025743,170.53208420006558,None,c,1,0.11843380006030202,170.53208420006558,None,,,,,,,ppaa,2022_May_13_1657,training+cueing,2021.1.4,59.94388060014791,
Self.png,You,Self ,c,1,11,21,91,,,,,0,0,0,0,,,,,1,8,20,9,,,,,,,,,,,,,,,,,,,,,1.402,1.213,170.78882670029998,None,,,,,,,,,,,,,,,,,,,,171.3297397000715,171.833082200028,0.5072291097603738,None,171.81640380015597,171.91647109994665,171.81640380015597,171.91647109994665,171.91647109994665,None,m,0,0.14235600037500262,171.91647109994665,None,,,,,,,ppaa,2022_May_13_1657,training+cueing,2021.1.4,59.94388060014791,
Friend.png,Friend,Friend,c,2,12,22,92,,,,,0,0,0,0,,,,,1,9,21,4,,,,,,,,,,,,,,,,,,,,,1.588,2.028,172.19287620019168,None,,,,,,,,,,,,,,,,,,,,172.738538000267,173.25077209994197,0.5081761106848717,1.0084192105568945,173.23412920022383,173.35083180014044,173.23412920022383,173.35083180014044,173.3341381000355,None,None,0,,173.3341381000355,None,,,,,,,ppaa,2022_May_13_1657,training+cueing,2021.1.4,59.94388060014791,
Stranger.png,Stranger,Stranger,c,3,13,23,93,,,,,0,0,0,0,,,,,1,10,22,8,,,,,,,,,,,,,,,,,,,,,1.752,2.189,175.0393374999985,None,,,,,,,,,,,,,,,,,,,,175.58205040032044,176.0862519000657,0.5057591102086008,1.0060529103502631,176.06947790039703,176.1861845003441,176.06947790039703,176.1861845003441,176.16952570015565,None,None,0,,176.16952570015565,None,,,,,,,ppaa,2022_May_13_1657,training+cueing,2021.1.4,59.94388060014791,
Friend.png,Friend,Friend,c,2,12,22,92,,,,,0,0,0,0,,,,,1,11,23,10,,,,,,,,,,,,,,,,,,,,,1.775,1.681,178.0250923000276,None,,,,,,,,,,,,,,,,,,,,178.57121960027143,179.0716582001187,0.5016892100684345,None,179.05498420028016,179.17168619995937,179.05498420028016,179.17168619995937,179.17168619995937,None,c,1,0.11892580008134246,179.17168619995937,None,,,,,,,ppaa,2022_May_13_1657,training+cueing,2021.1.4,59.94388060014791,
Stranger.png,You,Stranger,m,1.3,15,25,95,,,,,0,0,0,0,,,,,2,0,24,6,,,,,,,,,,,,,,,,,,,,,1.435,1.924,179.4277812000364,None,,,,,,,,,,,,,,,,,,,,179.97353700036183,180.47291540028527,0.5127293104305863,None,180.47291540028527,180.57287440029904,180.47291540028527,180.57287440029904,180.57287440029904,None,c,0,0.15774980001151562,180.57287440029904,None,,,,,,,ppaa,2022_May_13_1657,training+cueing,2021.1.4,59.94388060014791,
Friend.png,Friend,Friend,c,2,12,22,92,,,,,0,0,0,0,,,,,2,1,25,4,,,,,,,,,,,,,,,,,,,,,1.413,1.534,180.8624340002425,None,,,,,,,,,,,,,,,,,,,,181.40361439995468,181.90704450011253,0.5066602099686861,1.0070575098507106,181.89040200039744,182.00713310018182,181.89040200039744,182.00713310018182,181.99040430039167,None,None,0,,181.99040430039167,None,,,,,,,ppaa,2022_May_13_1657,training+cueing,2021.1.4,59.94388060014791,
Self.png,Friend,Self ,m,2.1,16,26,96,,,,,0,0,0,0,,,,,2,2,26,1,,,,,,,,,,,,,,,,,,,,,1.759,1.251,183.51196680031717,None,,,,,,,,,,,,,,,,,,,,184.05409620003775,184.5589483003132,0.5097624100744724,None,184.5422972002998,184.65902270004153,184.5422972002998,184.65902270004153,184.6423042002134,None,c,0,0.10415290016680956,184.6423042002134,None,,,,,,,ppaa,2022_May_13_1657,training+cueing,2021.1.4,59.94388060014791,
Friend.png,You,Friend,m,1.2,14,24,94,,,,,0,0,0,0,,,,,2,3,27,3,,,,,,,,,,,,,,,,,,,,,1.504,2.288,184.8820406999439,None,,,,,,,,,,,,,,,,,,,,185.42257970012724,185.92660879995674,0.5059011103585362,None,185.9099274999462,186.00991680007428,185.9099274999462,186.00991680007428,186.00991680007428,None,c,0,0.24070760002359748,186.00991680007428,None,,,,,,,ppaa,2022_May_13_1657,training+cueing,2021.1.4,59.94388060014791,
Friend.png,Stranger,Friend,m,3.2,19,29,99,,,,,0,0,0,0,,,,,2,4,28,5,,,,,,,,,,,,,,,,,,,,,1.776,1.798,186.38355830032378,None,,,,,,,,,,,,,,,,,,,,186.9261143002659,187.42770280037075,0.5041648102924228,None,187.41102660028264,187.52773380000144,187.41102660028264,187.52773380000144,187.51101330015808,None,c,0,0.06756419967859983,187.51101330015808,None,,,,,,,ppaa,2022_May_13_1657,training+cueing,2021.1.4,59.94388060014791,
Stranger.png,Stranger,Stranger,c,3,13,23,93,,,,,0,0,0,0,,,,,2,5,29,11,,,,,,,,,,,,,,,,,,,,,1.656,1.547,187.70082639995962,None,,,,,,,,,,,,,,,,,,,,188.24043360026553,188.74530890025198,0.5103223104961216,None,188.72862730035558,188.8453410002403,188.72862730035558,188.8453410002403,188.8286588001065,None,c,1,0.10991819994524121,188.8286588001065,None,,,,,,,ppaa,2022_May_13_1657,training+cueing,2021.1.4,59.94388060014791,
Self.png,You,Self ,c,1,11,21,91,,,,,0,0,0,0,,,,,2,6,30,9,,,,,,,,,,,,,,,,,,,,,1.422,2.023,189.06845779996365,None,,,,,,,,,,,,,,,,,,,,189.60918870009482,190.11301940027624,0.5063114101067185,1.006604810245335,190.09631620021537,190.19642040040344,190.09631620021537,190.19642040040344,190.19642040040344,None,None,0,,190.19642040040344,None,,,,,,,ppaa,2022_May_13_1657,training+cueing,2021.1.4,59.94388060014791,
Self.png,You,Self ,c,1,11,21,91,,,,,0,0,0,0,,,,,2,7,31,0,,,,,,,,,,,,,,,,,,,,,1.545,1.967,191.73783820029348,None,,,,,,,,,,,,,,,,,,,,192.27641970012337,192.78155410010368,0.5098020103760064,None,192.7648737002164,192.86490390030667,192.7648737002164,192.86490390030667,192.86490390030667,None,m,0,0.21770300017669797,192.86490390030667,None,,,,,,,ppaa,2022_May_13_1657,training+cueing,2021.1.4,59.94388060014791,
Stranger.png,Stranger,Stranger,c,3,13,23,93,,,,,0,0,0,0,,,,,2,8,32,8,,,,,,,,,,,,,,,,,,,,,1.544,1.485,193.2052676002495,None,,,,,,,,,,,,,,,,,,,,193.74561330024153,194.24925530003384,0.5044598099775612,None,194.23257140023634,194.34933510003611,194.23257140023634,194.34933510003611,194.33262240001932,None,c,1,0.10996840009465814,194.33262240001932,None,,,,,,,ppaa,2022_May_13_1657,training+cueing,2021.1.4,59.94388060014791,
Friend.png,Friend,Friend,c,2,12,22,92,,,,,0,0,0,0,,,,,2,9,33,10,,,,,,,,,,,,,,,,,,,,,1.67,1.837,194.57281040027738,None,,,,,,,,,,,,,,,,,,,,195.11323460005224,195.61692970013246,0.5074267107993364,None,195.600347999949,195.71697450010106,195.600347999949,195.71697450010106,195.70028460025787,None,c,1,0.15044100023806095,195.70028460025787,None,,,,,,,ppaa,2022_May_13_1657,training+cueing,2021.1.4,59.94388060014791,
Stranger.png,Friend,Stranger,m,2.3,17,27,97,,,,,0,0,0,0,,,,,2,10,34,7,,,,,,,,,,,,,,,,,,,,,1.72,1.958,195.97678650030866,None,,,,,,,,,,,,,,,,,,,,196.52247480023652,197.03465649997815,0.5076720099896193,None,197.01795570040122,197.134799499996,197.01795570040122,197.134799499996,197.11807640036568,None,c,0,0.15647100005298853,197.11807640036568,None,,,,,,,ppaa,2022_May_13_1657,training+cueing,2021.1.4,59.94388060014791,
Self.png,Stranger,Self ,m,3.1,18,28,98,,,,,0,0,0,0,,,,,2,11,35,2,,,,,,,,,,,,,,,,,,,,,1.569,1.569,197.4076689002104,None,,,,,,,,,,,,,,,,,,,,197.94901350000873,198.4525896999985,0.5037748101167381,None,198.435782100074,198.55251169996336,198.435782100074,198.55251169996336,198.5358335999772,None,m,1,0.0987296998500824,198.5358335999772,None,,,,,,,ppaa,2022_May_13_1657,training+cueing,2021.1.4,59.94388060014791,
Stranger.png,Friend,Stranger,m,2.3,17,27,97,,,,,0,0,0,0,,,,,3,0,36,7,,,,,,,,,,,,,,,,,,,,,1.686,1.562,198.76836920017377,None,,,,,,,,,,,,,,,,,,,,199.30358900036663,199.80330260004848,0.5007009101100266,None,199.78670040005818,199.90336780017242,199.78670040005818,199.90336780017242,199.90336780017242,None,m,1,0.027215500362217426,199.90336780017242,None,,,,,,,ppaa,2022_May_13_1657,training+cueing,2021.1.4,59.94388060014791,
Friend.png,Friend,Friend,c,2,12,22,92,,,,,0,0,0,0,,,,,3,1,37,4,,,,,,,,,,,,,,,,,,,,,1.552,2.427,200.0592851000838,None,,,,,,,,,,,,,,,,,,,,200.6008141003549,201.1043827002868,0.5063274106942117,None,201.0876494999975,201.2044425001368,201.0876494999975,201.2044425001368,201.187735600397,None,m,0,0.15067150024697185,201.187735600397,None,,,,,,,ppaa,2022_May_13_1657,training+cueing,2021.1.4,59.94388060014791,
Stranger.png,Stranger,Stranger,c,3,13,23,93,,,,,0,0,0,0,,,,,3,2,38,11,,,,,,,,,,,,,,,,,,,,,1.739,1.708,201.46124870004132,None,,,,,,,,,,,,,,,,,,,,202.00185020035133,202.50532710039988,0.5050143101252615,None,202.4886805000715,202.60541880037636,202.4886805000715,202.60541880037636,202.58875220036134,None,c,1,0.12568760011345148,202.58875220036134,None,,,,,,,ppaa,2022_May_13_1657,training+cueing,2021.1.4,59.94388060014791,
Self.png,Friend,Self ,m,2.1,16,26,96,,,,,0,0,0,0,,,,,3,3,39,1,,,,,,,,,,,,,,,,,,,,,1.534,2.443,202.84540160000324,None,,,,,,,,,,,,,,,,,,,,203.38871320011094,203.88955319998786,0.5020855106413364,None,203.87284200033173,203.98961960012093,203.87284200033173,203.98961960012093,203.97292750002816,None,c,0,0.1337063000537455,203.97292750002816,None,,,,,,,ppaa,2022_May_13_1657,training+cueing,2021.1.4,59.94388060014791,
Self.png,You,Self ,c,1,11,21,91,,,,,0,0,0,0,,,,,3,4,40,9,,,,,,,,,,,,,,,,,,,,,1.48,1.657,204.22882620012388,None,,,,,,,,,,,,,,,,,,,,204.76973529998213,205.27390430029482,0.5057646105997264,None,205.25722340028733,205.3572937999852,205.25722340028733,205.3572937999852,205.3572937999852,None,c,1,0.2212267997674644,205.3572937999852,None,,,,,,,ppaa,2022_May_13_1657,training+cueing,2021.1.4,59.94388060014791,
Stranger.png,Stranger,Stranger,c,3,13,23,93,,,,,0,0,0,0,,,,,3,5,41,8,,,,,,,,,,,,,,,,,,,,,1.437,2.455,205.71384260011837,None,,,,,,,,,,,,,,,,,,,,206.29178600013256,206.79193129995838,0.5065628499723971,None,206.77519990038127,206.89182470040396,206.77519990038127,206.89182470040396,206.87517210002989,None,m,0,0.12740560015663505,206.87517210002989,None,,,,,,,ppaa,2022_May_13_1657,training+cueing,2021.1.4,59.94388060014791,
Stranger.png,You,Stranger,m,1.3,15,25,95,,,,,0,0,0,0,,,,,3,6,42,6,,,,,,,,,,,,,,,,,,,,,1.756,2.324,207.13155910000205,None,,,,,,,,,,,,,,,,,,,,207.6912679001689,208.1928161000833,0.5044741802848876,None,208.17611600039527,208.2761681000702,208.17611600039527,208.2761681000702,208.2761681000702,None,m,1,0.15054159983992577,208.2761681000702,None,,,,,,,ppaa,2022_May_13_1657,training+cueing,2021.1.4,59.94388060014791,
Friend.png,Friend,Friend,c,2,12,22,92,,,,,0,0,0,0,,,,,3,7,43,10,,,,,,,,,,,,,,,,,,,,,1.714,1.366,208.5498768002726,None,,,,,,,,,,,,,,,,,,,,209.09194950014353,209.5936676003039,0.5018596099689603,1.002173509914428,209.57701390003785,209.69374610017985,209.57701390003785,209.69374610017985,209.6770308003761,None,None,0,,209.6770308003761,None,,,,,,,ppaa,2022_May_13_1657,training+cueing,2021.1.4,59.94388060014791,
Friend.png,Stranger,Friend,m,3.2,19,29,99,,,,,0,0,0,0,,,,,3,8,44,5,,,,,,,,,,,,,,,,,,,,,1.71,1.644,211.49920180020854,None,,,,,,,,,,,,,,,,,,,,212.0441776001826,212.54603820014745,0.504352810792625,1.00445371074602,212.5294452002272,212.6460351003334,212.5294452002272,212.6460351003334,212.62936910009012,None,m,1,0.9810489001683891,212.62936910009012,None,,,,,,,ppaa,2022_May_13_1657,training+cueing,2021.1.4,59.94388060014791,
Self.png,You,Self ,c,1,11,21,91,,,,,0,0,0,0,,,,,3,9,45,0,,,,,,,,,,,,,,,,,,,,,1.579,1.817,213.73736490029842,None,,,,,,,,,,,,,,,,,,,,214.2862908001989,214.79744970006868,0.5057065105065703,None,214.78074310021475,214.8810002002865,214.78074310021475,214.8810002002865,214.8810002002865,None,m,0,0.2497547003440559,214.8810002002865,None,,,,,,,ppaa,2022_May_13_1657,training+cueing,2021.1.4,59.94388060014791,
Friend.png,You,Friend,m,1.2,14,24,94,,,,,0,0,0,0,,,,,3,10,46,3,,,,,,,,,,,,,,,,,,,,,1.512,1.72,215.2581096002832,None,,,,,,,,,,,,,,,,,,,,215.79725260008126,216.29880160000175,0.5011949106119573,None,216.28203759994358,216.38195289997384,216.28203759994358,216.38195289997384,216.38195289997384,None,m,1,0.2365389997139573,216.38195289997384,None,,,,,,,ppaa,2022_May_13_1657,training+cueing,2021.1.4,59.94388060014791,
Self.png,Stranger,Self ,m,3.1,18,28,98,,,,,0,0,0,0,,,,,3,11,47,2,,,,,,,,,,,,,,,,,,,,,1.431,2.45,216.75566760031506,None,,,,,,,,,,,,,,,,,,,,217.30213050032035,217.8163205999881,0.5120891099795699,None,217.7996463002637,217.91637550015002,217.7996463002637,217.91637550015002,217.89965800009668,None,c,0,0.15870660031214356,217.89965800009668,None,,,,,,,ppaa,2022_May_13_1657,training+cueing,2021.1.4,59.94388060014791,
Friend.png,Friend,Friend,c,2,12,22,92,,,,,0,0,0,0,,,,,4,0,48,4,,,,,,,,,,,,,,,,,,,,,1.507,1.897,218.18948680022731,None,,,,,,,,,,,,,,,,,,,,218.7303474000655,219.23399069998413,0.5050960103981197,1.0053817103616893,219.21732380008325,219.3340400001034,219.21732380008325,219.3340400001034,219.3173734000884,None,None,0,,219.3173734000884,None,,,,,,,ppaa,2022_May_13_1657,training+cueing,2021.1.4,59.94388060014791,
Self.png,You,Self ,c,1,11,21,91,,,,,0,0,0,0,,,,,4,1,49,9,,,,,,,,,,,,,,,,,,,,,1.614,1.293,220.93880240013823,None,,,,,,,,,,,,,,,,,,,,221.48223290033638,221.98600589996204,0.5073886103928089,None,221.96930789994076,222.06936940038577,221.96930789994076,222.06936940038577,222.06936940038577,None,c,1,0.1810504999011755,222.06936940038577,None,,,,,,,ppaa,2022_May_13_1657,training+cueing,2021.1.4,59.94388060014791,
Stranger.png,You,Stranger,m,1.3,15,25,95,,,,,0,0,0,0,,,,,4,2,50,6,,,,,,,,,,,,,,,,,,,,,1.538,1.991,222.37596980016679,None,,,,,,,,,,,,,,,,,,,,222.91549189994112,223.42034490033984,0.5101450099609792,None,223.40368440002203,223.5037182001397,223.40368440002203,223.5037182001397,223.5037182001397,None,c,0,0.15497389994561672,223.5037182001397,None,,,,,,,ppaa,2022_May_13_1657,training+cueing,2021.1.4,59.94388060014791,
Friend.png,Friend,Friend,c,2,12,22,92,,,,,0,0,0,0,,,,,4,3,51,10,,,,,,,,,,,,,,,,,,,,,1.67,1.556,223.7937483000569,None,,,,,,,,,,,,,,,,,,,,224.33419049996883,224.83803980005905,0.5050880103372037,None,224.82134649995714,224.93808740004897,224.82134649995714,224.93808740004897,224.92140800040215,None,m,0,0.04906329978257418,224.92140800040215,None,,,,,,,ppaa,2022_May_13_1657,training+cueing,2021.1.4,59.94388060014791,
Stranger.png,Stranger,Stranger,c,3,13,23,93,,,,,0,0,0,0,,,,,4,4,52,8,,,,,,,,,,,,,,,,,,,,,1.411,2.005,225.0940910000354,None,,,,,,,,,,,,,,,,,,,,225.63870550040156,226.13901020027697,0.5017286106012762,1.0021180105395615,226.12230170005932,226.23917350033298,226.12230170005932,226.23917350033298,226.23917350033298,None,None,0,,226.23917350033298,None,,,,,,,ppaa,2022_May_13_1657,training+cueing,2021.1.4,59.94388060014791,
Friend.png,You,Friend,m,1.2,14,24,94,,,,,0,0,0,0,,,,,4,5,53,3,,,,,,,,,,,,,,,,,,,,,1.518,2.145,227.7608707002364,None,,,,,,,,,,,,,,,,,,,,228.30344090005383,228.80759550025687,0.5069666104391217,1.0073345103301108,228.79091940028593,228.89094180008397,228.79091940028593,228.89094180008397,228.89094180008397,None,c,0,1.0715168002061546,228.89094180008397,None,,,,,,,ppaa,2022_May_13_1657,training+cueing,2021.1.4,59.94388060014791,
Stranger.png,Stranger,Stranger,c,3,13,23,93,,,,,0,0,0,0,,,,,4,6,54,11,,,,,,,,,,,,,,,,,,,,,1.699,1.829,230.0984097002074,None,,,,,,,,,,,,,,,,,,,,230.64374130032957,231.15926860040054,0.5047989101149142,None,231.12594350008294,231.22651930013672,231.12594350008294,231.22651930013672,231.22651930013672,None,m,0,0.12798699969425797,231.22651930013672,None,,,,,,,ppaa,2022_May_13_1657,training+cueing,2021.1.4,59.94388060014791,
Stranger.png,Friend,Stranger,m,2.3,17,27,97,,,,,0,0,0,0,,,,,4,7,55,7,,,,,,,,,,,,,,,,,,,,,1.538,1.717,231.48378580017015,None,,,,,,,,,,,,,,,,,,,,232.02352930000052,232.52693379996344,0.5061420099809766,1.0064380099065602,232.51024630013853,232.62704160017893,232.51024630013853,232.62704160017893,232.61037799995393,None,m,1,1.3523910003714263,232.61037799995393,None,,,,,,,ppaa,2022_May_13_1657,training+cueing,2021.1.4,59.94388060014791,
Self.png,Stranger,Self ,m,3.1,18,28,98,,,,,0,0,0,0,,,,,4,8,56,2,,,,,,,,,,,,,,,,,,,,,1.696,2.439,234.08771250024438,None,,,,,,,,,,,,,,,,,,,,234.62712790025398,235.12877340009436,0.5017725108191371,1.0020287106744945,235.1121680000797,235.22901030024514,235.1121680000797,235.22901030024514,235.22901030024514,None,m,1,1.4534859000705183,235.22901030024514,None,,,,,,,ppaa,2022_May_13_1657,training+cueing,2021.1.4,59.94388060014791,
Self.png,Friend,Self ,m,2.1,16,26,96,,,,,0,0,0,0,,,,,4,9,57,1,,,,,,,,,,,,,,,,,,,,,1.627,1.858,236.81956560024992,None,,,,,,,,,,,,,,,,,,,,237.36176800029352,237.864111199975,0.505880210082978,1.00674061011523,237.84743240009993,237.9641603003256,237.84743240009993,237.9641603003256,237.94747770018876,None,m,1,0.4149672002531588,237.94747770018876,None,,,,,,,ppaa,2022_May_13_1657,training+cueing,2021.1.4,59.94388060014791,
Self.png,You,Self ,c,1,11,21,91,,,,,0,0,0,0,,,,,4,10,58,0,,,,,,,,,,,,,,,,,,,,,1.557,1.272,238.48834070004523,None,,,,,,,,,,,,,,,,,,,,239.0441168001853,239.54890169994906,0.5100658806040883,1.0107548804953694,239.53223340027034,239.63205000013113,239.53223340027034,239.63205000013113,239.63205000013113,None,c,1,0.5386342001147568,239.63205000013113,None,,,,,,,ppaa,2022_May_13_1657,training+cueing,2021.1.4,59.94388060014791,
Friend.png,Stranger,Friend,m,3.2,19,29,99,,,,,0,0,0,0,,,,,4,11,59,5,,,,,,,,,,,,,,,,,,,,,1.653,1.481,240.3095275000669,None,,,,,,,,,,,,,,,,,,,,240.84830219997093,241.35007170028985,0.5019549098797143,1.0021168100647628,241.3334505003877,241.45014049997553,241.3334505003877,241.45014049997553,241.45014049997553,None,m,1,0.8004318000748754,241.45014049997553,None,,,,,,,ppaa,2022_May_13_1657,training+cueing,2021.1.4,59.94388060014791,
Stranger.png,Friend,Stranger,m,2.3,17,27,97,,,,,0,0,0,0,,,,,5,0,60,7,,,,,,,,,,,,,,,,,,,,,1.55,1.998,242.37391040008515,None,,,,,,,,,,,,,,,,,,,,242.91784720029682,243.41809590021148,0.5011511105112731,1.0014203102327883,243.4014507001266,243.51820920035243,243.4014507001266,243.51820920035243,243.51820920035243,None,m,1,0.7004825002513826,243.51820920035243,None,,,,,,,ppaa,2022_May_13_1657,training+cueing,2021.1.4,59.94388060014791,
Friend.png,Friend,Friend,c,2,12,22,92,,,,,0,0,0,0,,,,,5,1,61,10,,,,,,,,,,,,,,,,,,,,,1.516,1.684,244.34520190022886,None,,,,,,,,,,,,,,,,,,,,244.88113630004227,245.3862519003451,0.5103628104552627,None,245.3695252002217,245.48626130027696,245.3695252002217,245.48626130027696,245.4695899002254,None,c,1,0.3647439000196755,245.4695899002254,None,,,,,,,ppaa,2022_May_13_1657,training+cueing,2021.1.4,59.94388060014791,
Stranger.png,You,Stranger,m,1.3,15,25,95,,,,,0,0,0,0,,,,,5,2,62,6,,,,,,,,,,,,,,,,,,,,,1.664,1.445,245.95976590039209,None,,,,,,,,,,,,,,,,,,,,246.51407949998975,247.0209025000222,0.5119049800559878,1.0122189801186323,247.00423300033435,247.1042329003103,247.00423300033435,247.1042329003103,247.1042329003103,None,m,1,0.778330700006336,247.1042329003103,None,,,,,,,ppaa,2022_May_13_1657,training+cueing,2021.1.4,59.94388060014791,
Friend.png,Friend,Friend,c,2,12,22,92,,,,,0,0,0,0,,,,,5,3,63,4,,,,,,,,,,,,,,,,,,,,,1.49,1.802,248.01209450000897,None,,,,,,,,,,,,,,,,,,,,248.55093620019034,249.05552990036085,0.508121510501951,None,249.03884269995615,249.15558370016515,249.03884269995615,249.15558370016515,249.13889029994607,None,c,1,0.34348420007154346,249.13889029994607,None,,,,,,,ppaa,2022_May_13_1657,training+cueing,2021.1.4,59.94388060014791,
Friend.png,You,Friend,m,1.2,14,24,94,,,,,0,0,0,0,,,,,5,4,64,3,,,,,,,,,,,,,,,,,,,,,1.46,2.461,249.61222470039502,None,,,,,,,,,,,,,,,,,,,,250.15176249993965,250.65671150013804,0.5073940102010965,1.0077250101603568,250.6399925001897,250.74004950001836,250.6399925001897,250.74004950001836,250.74004950001836,None,c,0,0.5663736001588404,250.74004950001836,None,,,,,,,ppaa,2022_May_13_1657,training+cueing,2021.1.4,59.94388060014791,
Friend.png,Stranger,Friend,m,3.2,19,29,99,,,,,0,0,0,0,,,,,5,5,65,5,,,,,,,,,,,,,,,,,,,,,1.442,1.499,251.4297571000643,None,,,,,,,,,,,,,,,,,,,,251.98349230038002,252.4914186000824,0.5152530805207789,1.0154288802295923,252.47476480016485,252.59142050007358,252.47476480016485,252.59142050007358,252.57470019999892,None,m,1,0.5398634998127818,252.57470019999892,None,,,,,,,ppaa,2022_May_13_1657,training+cueing,2021.1.4,59.94388060014791,
Self.png,Friend,Self ,m,2.1,16,26,96,,,,,0,0,0,0,,,,,5,6,66,1,,,,,,,,,,,,,,,,,,,,,1.579,2.142,253.24744589999318,None,,,,,,,,,,,,,,,,,,,,253.78887460008264,254.29267860017717,0.5075893099419773,None,254.2759643001482,254.392716600094,254.2759643001482,254.392716600094,254.3760045999661,None,m,1,0.33835839992389083,254.3760045999661,None,,,,,,,ppaa,2022_May_13_1657,training+cueing,2021.1.4,59.94388060014791,
Stranger.png,Stranger,Stranger,c,3,13,23,93,,,,,0,0,0,0,,,,,5,7,67,8,,,,,,,,,,,,,,,,,,,,,1.579,1.465,254.849245400168,None,,,,,,,,,,,,,,,,,,,,255.3902676999569,255.89381430018693,0.5051986100152135,None,255.87714600004256,255.9939210000448,255.87714600004256,255.9939210000448,255.97721659997478,None,c,1,0.22520830016583204,255.97721659997478,None,,,,,,,ppaa,2022_May_13_1657,training+cueing,2021.1.4,59.94388060014791,
Self.png,You,Self ,c,1,11,21,91,,,,,0,0,0,0,,,,,5,8,68,0,,,,,,,,,,,,,,,,,,,,,1.751,1.954,256.3338494002819,None,,,,,,,,,,,,,,,,,,,,256.87521019997075,257.3782342001796,0.506202710326761,None,257.36158920032904,257.4615780999884,257.36158920032904,257.4615780999884,257.4615780999884,None,m,0,0.16486830031499267,257.4615780999884,None,,,,,,,ppaa,2022_May_13_1657,training+cueing,2021.1.4,59.94388060014791,
Self.png,Stranger,Self ,m,3.1,18,28,98,,,,,0,0,0,0,,,,,5,9,69,2,,,,,,,,,,,,,,,,,,,,,1.497,1.754,257.7514093001373,None,,,,,,,,,,,,,,,,,,,,258.29319790005684,258.7958893002942,0.5052650100551546,1.006177709903568,258.77920170035213,258.8959830002859,258.77920170035213,258.8959830002859,258.8792778002098,None,None,0,,258.8792778002098,None,,,,,,,ppaa,2022_May_13_1657,training+cueing,2021.1.4,59.94388060014791,
Stranger.png,Stranger,Stranger,c,3,13,23,93,,,,,0,0,0,0,,,,,5,10,70,11,,,,,,,,,,,,,,,,,,,,,1.748,1.697,260.4856553999707,None,,,,,,,,,,,,,,,,,,,,261.03156320005655,261.53149710036814,0.5144578102044761,1.0149521101266146,261.53149710036814,261.6313026002608,261.53149710036814,261.6313026002608,261.6313026002608,None,m,0,0.6512632998637855,261.6313026002608,None,,,,,,,ppaa,2022_May_13_1657,training+cueing,2021.1.4,59.94388060014791,
Self.png,You,Self ,c,1,11,21,91,,,,,0,0,0,0,,,,,5,11,71,9,,,,,,,,,,,,,,,,,,,,,1.504,1.463,262.4054405000061,None,,,,,,,,,,,,,,,,,,,,262.9458476002328,263.44932190002874,0.5062133106403053,1.0065052108839154,263.43261260027066,263.53266930021346,263.43261260027066,263.53266930021346,263.53266930021346,None,c,1,0.4458363000303507,263.53266930021346,None,,,,,,,ppaa,2022_May_13_1657,training+cueing,2021.1.4,59.94388060014791,
Stranger.png,Stranger,Stranger,c,3,13,23,93,,,,,0,0,0,0,,,,,6,0,72,11,,,,,,,,,,,,,,,,,,,,,1.401,1.674,264.10594630008563,None,,,,,,,,,,,,,,,,,,,,264.64649150008336,265.15053700003773,0.505016409792006,1.0053023099899292,265.13385970005766,265.25056080007926,265.13385970005766,265.25056080007926,265.23384350026026,None,c,1,0.8405752996914089,265.23384350026026,None,,,,,,,ppaa,2022_May_13_1657,training+cueing,2021.1.4,59.94388060014791,
Self.png,You,Self ,c,1,11,21,91,,,,,0,0,0,0,,,,,6,1,73,0,,,,,,,,,,,,,,,,,,,,,1.734,1.383,266.2073793001473,None,,,,,,,,,,,,,,,,,,,,266.7480312003754,267.25211060000584,0.5067711099982262,1.0076932101510465,267.23534880019724,267.3356141000986,267.23534880019724,267.3356141000986,267.3356141000986,None,c,1,0.786824599839747,267.3356141000986,None,,,,,,,ppaa,2022_May_13_1657,training+cueing,2021.1.4,59.94388060014791,
Friend.png,You,Friend,m,1.2,14,24,94,,,,,0,0,0,0,,,,,6,2,74,3,,,,,,,,,,,,,,,,,,,,,1.441,1.656,268.26000670017675,None,,,,,,,,,,,,,,,,,,,,268.79928799998015,269.30352910002694,0.5080471099354327,1.008348509669304,269.28682680008933,269.3868777002208,269.28682680008933,269.3868777002208,269.3868777002208,None,c,0,0.735572500154376,269.3868777002208,None,,,,,,,ppaa,2022_May_13_1657,training+cueing,2021.1.4,59.94388060014791,
Friend.png,Friend,Friend,c,2,12,22,92,,,,,0,0,0,0,,,,,6,3,75,4,,,,,,,,,,,,,,,,,,,,,1.496,2.198,270.2599959000945,None,,,,,,,,,,,,,,,,,,,,270.8078176002018,271.3216776000336,0.5085526099428535,1.009561310056597,271.30498749995604,271.4217199003324,271.30498749995604,271.4217199003324,271.4049929003231,None,m,0,0.7813420998863876,271.4049929003231,None,,,,,,,ppaa,2022_May_13_1657,training+cueing,2021.1.4,59.94388060014791,
Self.png,Friend,Self ,m,2.1,16,26,96,,,,,0,0,0,0,,,,,6,4,76,1,,,,,,,,,,,,,,,,,,,,,1.797,2.426,272.3129153000191,None,,,,,,,,,,,,,,,,,,,,272.85115110035986,273.35643010027707,0.5104286102578044,None,273.3397491001524,273.45647960016504,273.3397491001524,273.45647960016504,273.4397607999854,None,c,0,0.2667199997231364,273.4397607999854,None,,,,,,,ppaa,2022_May_13_1657,training+cueing,2021.1.4,59.94388060014791,
Self.png,You,Self ,c,1,11,21,91,,,,,0,0,0,0,,,,,6,5,77,9,,,,,,,,,,,,,,,,,,,,,1.56,1.876,273.83090110030025,None,,,,,,,,,,,,,,,,,,,,274.3724975003861,274.8745298003778,0.5040617105551064,1.0043227104470134,274.8576635001227,274.95772230019793,274.8576635001227,274.95772230019793,274.95772230019793,None,m,0,1.1326076998375356,274.95772230019793,None,,,,,,,ppaa,2022_May_13_1657,training+cueing,2021.1.4,59.94388060014791,
Stranger.png,Stranger,Stranger,c,3,13,23,93,,,,,0,0,0,0,,,,,6,6,78,8,,,,,,,,,,,,,,,,,,,,,1.48,2.335,276.2148839002475,None,,,,,,,,,,,,,,,,,,,,276.75669700000435,277.25926390010864,0.504467910155654,1.0050212098285556,277.2425878001377,277.3598337001167,277.2425878001377,277.3598337001167,277.34261440020055,None,None,0,,277.34261440020055,None,,,,,,,ppaa,2022_May_13_1657,training+cueing,2021.1.4,59.94388060014791,
Friend.png,Friend,Friend,c,2,12,22,92,,,,,0,0,0,0,,,,,6,7,79,10,,,,,,,,,,,,,,,,,,,,,1.747,1.934,278.93222120031714,None,,,,,,,,,,,,,,,,,,,,279.4747083000839,279.9778686002828,0.5058407098986208,1.0061511099338531,279.9611931000836,280.0779337999411,279.9611931000836,280.0779337999411,280.06123380037025,None,c,1,0.4452029997482896,280.06123380037025,None,,,,,,,ppaa,2022_May_13_1657,training+cueing,2021.1.4,59.94388060014791,
Stranger.png,Friend,Stranger,m,2.3,17,27,97,,,,,0,0,0,0,,,,,6,8,80,7,,,,,,,,,,,,,,,,,,,,,1.682,1.518,280.6347580002621,None,,,,,,,,,,,,,,,,,,,,281.19851520005614,281.7125806999393,0.5108574801124632,1.011085380334407,281.69593479996547,281.81265540001914,281.69593479996547,281.81265540001914,281.7959511000663,None,c,0,1.0945232999511063,281.7959511000663,None,,,,,,,ppaa,2022_May_13_1657,training+cueing,2021.1.4,59.94388060014791,
Stranger.png,You,Stranger,m,1.3,15,25,95,,,,,0,0,0,0,,,,,6,9,81,6,,,,,,,,,,,,,,,,,,,,,1.76,1.553,283.0210798000917,None,,,,,,,,,,,,,,,,,,,,283.57398710027337,284.0808496000245,0.5144854802638292,1.0148015804588795,284.06416120007634,284.16424150019884,284.06416120007634,284.16424150019884,284.16424150019884,None,m,1,0.7741984999738634,284.16424150019884,None,,,,,,,ppaa,2022_May_13_1657,training+cueing,2021.1.4,59.94388060014791,
Friend.png,Stranger,Friend,m,3.2,19,29,99,,,,,0,0,0,0,,,,,6,10,82,5,,,,,,,,,,,,,,,,,,,,,1.662,2.448,285.07076589995995,None,,,,,,,,,,,,,,,,,,,,285.62236839998513,286.1323794000782,0.5028505101799965,1.0033484101295471,286.11566270003095,286.23245880007744,286.11566270003095,286.23245880007744,286.21592490002513,None,c,0,0.6585719999857247,286.21592490002513,None,,,,,,,ppaa,2022_May_13_1657,training+cueing,2021.1.4,59.94388060014791,
Self.png,Stranger,Self ,m,3.1,18,28,98,,,,,0,0,0,0,,,,,6,11,83,2,,,,,,,,,,,,,,,,,,,,,1.75,1.446,287.00748670008034,None,,,,,,,,,,,,,,,,,,,,287.54534940002486,288.05039620026946,0.5068928101100028,1.007399510126561,288.03368200035766,288.15051840012893,288.03368200035766,288.15051840012893,288.1337733999826,None,m,1,1.2846087999641895,288.1337733999826,None,,,,,,,ppaa,2022_May_13_1657,training+cueing,2021.1.4,59.94388060014791,
Stranger.png,Stranger,Stranger,c,3,13,23,93,,,,,0,0,0,0,,,,,7,0,84,8,,,,,,,,,,,,,,,,,,,,,1.532,1.444,289.5407796003856,None,,,,,,,,,,,,,,,,,,,,290.07930640038103,290.58554830029607,0.5116636105813086,1.011943010147661,290.56886380026117,290.6855820999481,290.56886380026117,290.6855820999481,290.668900300283,None,c,1,0.9094766997732222,290.668900300283,None,,,,,,,ppaa,2022_May_13_1657,training+cueing,2021.1.4,59.94388060014791,
Friend.png,Stranger,Friend,m,3.2,19,29,99,,,,,0,0,0,0,,,,,7,1,85,5,,,,,,,,,,,,,,,,,,,,,1.464,1.26,291.7096085003577,None,,,,,,,,,,,,,,,,,,,,292.2564125000499,292.7706355000846,0.5127602103166282,1.0129356100223958,292.753873700276,292.87054440006614,292.753873700276,292.87054440006614,292.8538498003036,None,m,1,1.2847140999510884,292.8538498003036,None,,,,,,,ppaa,2022_May_13_1657,training+cueing,2021.1.4,59.94388060014791,
Stranger.png,Friend,Stranger,m,2.3,17,27,97,,,,,0,0,0,0,,,,,7,2,86,7,,,,,,,,,,,,,,,,,,,,,1.54,1.281,294.2648277999833,None,,,,,,,,,,,,,,,,,,,,294.8042345000431,295.3056290000677,0.5018264106474817,1.0020919106900692,295.288974000141,295.40571420034394,295.288974000141,295.40571420034394,295.40571420034394,None,m,1,1.2766609000973403,295.40571420034394,None,,,,,,,ppaa,2022_May_13_1657,training+cueing,2021.1.4,59.94388060014791,
Friend.png,Friend,Friend,c,2,12,22,92,,,,,0,0,0,0,,,,,7,3,87,4,,,,,,,,,,,,,,,,,,,,,1.781,1.782,296.8134056003764,None,,,,,,,,,,,,,,,,,,,,297.35310490010306,297.8575118002482,0.5078278104774654,1.008101210463792,297.84081439999864,297.95759260002524,297.84081439999864,297.95759260002524,297.9408689001575,None,c,1,0.4214149001054466,297.9408689001575,None,,,,,,,ppaa,2022_May_13_1657,training+cueing,2021.1.4,59.94388060014791,
Self.png,Stranger,Self ,m,3.1,18,28,98,,,,,0,0,0,0,,,,,7,4,88,2,,,,,,,,,,,,,,,,,,,,,1.622,1.91,298.4973716000095,None,,,,,,,,,,,,,,,,,,,,299.03787930030376,299.5420423001051,0.5055818101391196,1.005888510029763,299.5253509003669,299.64210810000077,299.5253509003669,299.64210810000077,299.62538310000673,None,m,1,0.9132997002452612,299.62538310000673,None,,,,,,,ppaa,2022_May_13_1657,training+cueing,2021.1.4,59.94388060014791,
Self.png,Friend,Self ,m,2.1,16,26,96,,,,,0,0,0,0,,,,,7,5,89,1,,,,,,,,,,,,,,,,,,,,,1.535,1.476,300.66931660007685,None,,,,,,,,,,,,,,,,,,,,301.2089919000864,301.71027720021084,0.5032058102078736,1.0037381104193628,301.69356730021536,301.8103370000608,301.69356730021536,301.8103370000608,301.7936162003316,None,c,0,0.9847333002835512,301.7936162003316,None,,,,,,,ppaa,2022_May_13_1657,training+cueing,2021.1.4,59.94388060014791,
Stranger.png,Stranger,Stranger,c,3,13,23,93,,,,,0,0,0,0,,,,,7,6,90,11,,,,,,,,,,,,,,,,,,,,,1.754,1.977,302.901665000245,None,,,,,,,,,,,,,,,,,,,,303.4440289000049,303.9452425003983,0.5027681100182235,None,303.92858300032094,304.04524940019473,303.92858300032094,304.04524940019473,304.0285776001401,None,m,0,0.22178539959713817,304.0285776001401,None,,,,,,,ppaa,2022_May_13_1657,training+cueing,2021.1.4,59.94388060014791,
Friend.png,Friend,Friend,c,2,12,22,92,,,,,0,0,0,0,,,,,7,7,91,10,,,,,,,,,,,,,,,,,,,,,1.485,1.595,304.3850710000843,None,,,,,,,,,,,,,,,,,,,,304.92498790007085,305.42962330020964,0.5065373103134334,1.0068973102606833,305.4129385999404,305.52969030011445,305.4129385999404,305.52969030011445,305.512958700303,None,m,0,0.7853366998024285,305.512958700303,None,,,,,,,ppaa,2022_May_13_1657,training+cueing,2021.1.4,59.94388060014791,
Self.png,You,Self ,c,1,11,21,91,,,,,0,0,0,0,,,,,7,8,92,9,,,,,,,,,,,,,,,,,,,,,1.674,1.609,306.43647040007636,None,,,,,,,,,,,,,,,,,,,,306.9780810000375,307.48141100024804,0.5059943101368845,1.0062745101749897,307.464568100404,307.56461260002106,307.464568100404,307.56461260002106,307.56461260002106,None,c,1,0.6057989997789264,307.56461260002106,None,,,,,,,ppaa,2022_May_13_1657,training+cueing,2021.1.4,59.94388060014791,
Friend.png,You,Friend,m,1.2,14,24,94,,,,,0,0,0,0,,,,,7,9,93,3,,,,,,,,,,,,,,,,,,,,,1.748,1.479,308.3060971000232,None,,,,,,,,,,,,,,,,,,,,308.8443616000004,309.34908410022035,0.5090415105223656,None,309.3324385001324,309.43248430034146,309.3324385001324,309.43248430034146,309.43248430034146,None,c,0,0.28987189987674356,309.43248430034146,None,,,,,,,ppaa,2022_May_13_1657,training+cueing,2021.1.4,59.94388060014791,
Stranger.png,You,Stranger,m,1.3,15,25,95,,,,,0,0,0,0,,,,,7,10,94,6,,,,,,,,,,,,,,,,,,,,,1.756,2.062,309.8549679000862,None,,,,,,,,,,,,,,,,,,,,310.39429550012574,310.9002419002354,0.5093500106595457,1.0098745105788112,310.883545699995,310.9843083000742,310.883545699995,310.9843083000742,310.9843083000742,None,m,1,0.9621168002486229,310.9843083000742,None,,,,,,,ppaa,2022_May_13_1657,training+cueing,2021.1.4,59.94388060014791,
Self.png,You,Self ,c,1,11,21,91,,,,,0,0,0,0,,,,,7,11,95,0,,,,,,,,,,,,,,,,,,,,,1.643,1.565,312.07530170027167,None,,,,,,,,,,,,,,,,,,,,312.6144092003815,313.11850900016725,0.5075070108287036,1.0077828108333051,313.1018151002936,313.20192030025646,313.1018151002936,313.20192030025646,313.20192030025646,None,m,0,0.5844233999960124,313.20192030025646,None,,,,,,,ppaa,2022_May_13_1657,training+cueing,2021.1.4,59.94388060014791,
Self.png,You,Self ,c,1,11,21,91,,,,,0,0,0,0,,,,,8,0,96,0,,,,,,,,,,,,,,,,,,,,,1.733,1.612,313.9092042003758,None,,,,,,,,,,,,,,,,,,,,314.4451093999669,314.9531539003365,0.5139467101544142,1.0142508102580905,314.93647850025445,315.0365377999842,314.93647850025445,315.0365377999842,315.0365377999842,None,c,1,0.49386979965493083,315.0365377999842,None,,,,,,,ppaa,2022_May_13_1657,training+cueing,2021.1.4,59.94388060014791,
Self.png,You,Self ,c,1,11,21,91,,,,,0,0,0,0,,,,,8,1,97,9,,,,,,,,,,,,,,,,,,,,,1.509,1.975,315.6600792002864,None,,,,,,,,,,,,,,,,,,,,316.19832079997286,316.7044314001687,0.5113852098584175,None,316.68774910038337,316.78782670013607,316.68774910038337,316.78782670013607,316.78782670013607,None,c,1,0.3584573999978602,316.78782670013607,None,,,,,,,ppaa,2022_May_13_1657,training+cueing,2021.1.4,59.94388060014791,
Stranger.png,You,Stranger,m,1.3,15,25,95,,,,,0,0,0,0,,,,,8,2,98,6,,,,,,,,,,,,,,,,,,,,,1.661,1.681,317.27746300026774,None,,,,,,,,,,,,,,,,,,,,317.81637410027906,318.32230640016496,0.5115838102065027,1.011671110522002,318.30577480001375,318.40565540036187,318.30577480001375,318.40565540036187,318.40565540036187,None,m,1,0.5166401998139918,318.40565540036187,None,,,,,,,ppaa,2022_May_13_1657,training+cueing,2021.1.4,59.94388060014791,
Friend.png,Friend,Friend,c,2,12,22,92,,,,,0,0,0,0,,,,,8,3,99,10,,,,,,,,,,,,,,,,,,,,,1.632,2.331,319.04582830006257,None,,,,,,,,,,,,,,,,,,,,319.5851834001951,320.09018489997834,0.5077486103400588,1.0086925104260445,320.0735355000943,320.1904619000852,320.0735355000943,320.1904619000852,320.1735537000932,None,c,1,0.6529077999293804,320.1735537000932,None,,,,,,,ppaa,2022_May_13_1657,training+cueing,2021.1.4,59.94388060014791,
Friend.png,Stranger,Friend,m,3.2,19,29,99,,,,,0,0,0,0,,,,,8,4,100,5,,,,,,,,,,,,,,,,,,,,,1.774,1.266,320.9645936000161,None,,,,,,,,,,,,,,,,,,,,321.50657540000975,322.0084757003933,0.5055077099241316,None,321.99188750004396,322.1084986003116,321.99188750004396,322.1084986003116,322.0919906999916,None,m,1,0.38233340019360185,322.0919906999916,None,,,,,,,ppaa,2022_May_13_1657,training+cueing,2021.1.4,59.94388060014791,
Friend.png,You,Friend,m,1.2,14,24,94,,,,,0,0,0,0,,,,,8,5,101,3,,,,,,,,,,,,,,,,,,,,,1.719,2.387,322.59925480000675,None,,,,,,,,,,,,,,,,,,,,323.1388314003125,323.6427779002115,0.5068889101967216,1.007185310125351,323.6260989001021,323.72625430021435,323.6260989001021,323.72625430021435,323.72625430021435,None,c,0,0.6360621997155249,323.72625430021435,None,,,,,,,ppaa,2022_May_13_1657,training+cueing,2021.1.4,59.94388060014791,
Friend.png,Friend,Friend,c,2,12,22,92,,,,,0,0,0,0,,,,,8,6,102,4,,,,,,,,,,,,,,,,,,,,,1.728,2.363,324.49954940006137,None,,,,,,,,,,,,,,,,,,,,325.04006749996915,325.5441587003879,0.5062011103145778,None,325.52747490024194,325.64415890024975,325.52747490024194,325.64415890024975,325.6274816002697,None,m,0,0.15889160009101033,325.6274816002697,None,,,,,,,ppaa,2022_May_13_1657,training+cueing,2021.1.4,59.94388060014791,
Stranger.png,Stranger,Stranger,c,3,13,23,93,,,,,0,0,0,0,,,,,8,7,103,8,,,,,,,,,,,,,,,,,,,,,1.798,1.957,325.91713460022584,None,,,,,,,,,,,,,,,,,,,,326.4592452002689,326.96181490039453,0.5050146104767919,1.0055726105347276,326.94518980011344,327.0618966999464,326.94518980011344,327.0618966999464,327.04517970001325,None,m,0,1.253245399799198,327.04517970001325,None,,,,,,,ppaa,2022_May_13_1657,training+cueing,2021.1.4,59.94388060014791,
Stranger.png,Stranger,Stranger,c,3,13,23,93,,,,,0,0,0,0,,,,,8,8,104,11,,,,,,,,,,,,,,,,,,,,,1.659,2.101,328.4373388001695,None,,,,,,,,,,,,,,,,,,,,328.97518530022353,329.48034090036526,0.5077150105498731,1.0080110104754567,329.46363950008526,329.5803791000508,329.46363950008526,329.5803791000508,329.56367189995944,None,c,1,0.7511355001479387,329.56367189995944,None,,,,,,,ppaa,2022_May_13_1657,training+cueing,2021.1.4,59.94388060014791,
Self.png,Friend,Self ,m,2.1,16,26,96,,,,,0,0,0,0,,,,,8,9,105,1,,,,,,,,,,,,,,,,,,,,,1.655,2.413,330.4412242001854,None,,,,,,,,,,,,,,,,,,,,330.978545000311,331.48177060019225,0.5051736100576818,1.0056847101077437,331.46510020038113,331.5818330999464,331.46510020038113,331.5818330999464,331.5651755002327,None,m,1,1.1170216002501547,331.5651755002327,None,,,,,,,ppaa,2022_May_13_1657,training+cueing,2021.1.4,59.94388060014791,
Self.png,Stranger,Self ,m,3.1,18,28,98,,,,,0,0,0,0,,,,,8,10,106,2,,,,,,,,,,,,,,,,,,,,,1.67,2.191,332.806102800183,None,,,,,,,,,,,,,,,,,,,,333.345456100069,333.8501458000392,0.5087166102603078,1.0092317098751664,333.8334523001686,333.95075870025903,333.8334523001686,333.95075870025903,333.9340173001401,None,m,1,0.7642780998721719,333.9340173001401,None,,,,,,,ppaa,2022_May_13_1657,training+cueing,2021.1.4,59.94388060014791,
Stranger.png,Friend,Stranger,m,2.3,17,27,97,,,,,0,0,0,0,,,,,8,11,107,7,,,,,,,,,,,,,,,,,,,,,1.422,1.696,334.82451000018045,None,,,,,,,,,,,,,,,,,,,,335.3642291002907,335.86829090025276,0.5061788102611899,1.006485910154879,335.85161620005965,335.96867750026286,335.85161620005965,335.96867750026286,335.9516063001938,None,m,1,0.714646799955517,335.9516063001938,None,,,,,,,ppaa,2022_May_13_1657,training+cueing,2021.1.4,59.94388060014791,
Friend.png,You,Friend,m,1.2,14,24,94,,,,,0,0,0,0,,,,,9,0,108,3,,,,,,,,,,,,,,,,,,,,,1.798,1.783,336.7917740000412,None,,,,,,,,,,,,,,,,,,,,337.3314422001131,337.8363769999705,0.5104546104557812,1.01071671070531,337.8197198002599,337.9197571002878,337.8197198002599,337.9197571002878,337.9197571002878,None,m,1,0.9225385002791882,337.9197571002878,None,,,,,,,ppaa,2022_May_13_1657,training+cueing,2021.1.4,59.94388060014791,
Self.png,Friend,Self ,m,2.1,16,26,96,,,,,0,0,0,0,,,,,9,1,109,1,,,,,,,,,,,,,,,,,,,,,1.555,1.837,338.97660200018436,None,,,,,,,,,,,,,,,,,,,,339.51847590040416,340.0212968001142,0.5049277101643384,1.005228710360825,340.0045888000168,340.12134880013764,340.0045888000168,340.12134880013764,340.10464570019394,None,c,0,0.6416672999039292,340.10464570019394,None,,,,,,,ppaa,2022_May_13_1657,training+cueing,2021.1.4,59.94388060014791,
Stranger.png,You,Stranger,m,1.3,15,25,95,,,,,0,0,0,0,,,,,9,2,110,6,,,,,,,,,,,,,,,,,,,,,1.472,1.969,340.87823439994827,None,,,,,,,,,,,,,,,,,,,,341.418322800193,341.92267520027235,0.5060274102725089,1.0063266102224588,341.9059701003134,342.0060634003021,341.9059701003134,342.0060634003021,342.0060634003021,None,None,0,,342.0060634003021,None,,,,,,,ppaa,2022_May_13_1657,training+cueing,2021.1.4,59.94388060014791,
Friend.png,Friend,Friend,c,2,12,22,92,,,,,0,0,0,0,,,,,9,3,111,10,,,,,,,,,,,,,,,,,,,,,1.726,1.312,343.59697400033474,None,,,,,,,,,,,,,,,,,,,,344.137727400288,344.6412626001984,0.5063629099167883,1.0068830102682114,344.62460219999775,344.74155900022015,344.62460219999775,344.74155900022015,344.7246213001199,None,m,0,1.3336537997238338,344.7246213001199,None,,,,,,,ppaa,2022_May_13_1657,training+cueing,2021.1.4,59.94388060014791,
Self.png,You,Self ,c,1,11,21,91,,,,,0,0,0,0,,,,,9,4,112,0,,,,,,,,,,,,,,,,,,,,,1.612,1.904,346.182026500348,None,,,,,,,,,,,,,,,,,,,,346.7221041000448,347.2264615003951,0.5066249105148017,1.0069697103463113,347.2097865003161,347.30990969995037,347.2097865003161,347.30990969995037,347.30990969995037,None,c,1,0.8445319999009371,347.30990969995037,None,,,,,,,ppaa,2022_May_13_1657,training+cueing,2021.1.4,59.94388060014791,
Stranger.png,Friend,Stranger,m,2.3,17,27,97,,,,,0,0,0,0,,,,,9,5,113,7,,,,,,,,,,,,,,,,,,,,,1.663,1.273,348.2870210004039,None,,,,,,,,,,,,,,,,,,,,348.82638450013474,349.32805840019137,0.5040732105262578,1.0044030104763806,349.31129300035536,349.4280387000181,349.31129300035536,349.4280387000181,349.41140690026805,None,c,0,0.8710032999515533,349.41140690026805,None,,,,,,,ppaa,2022_May_13_1657,training+cueing,2021.1.4,59.94388060014791,
Stranger.png,Stranger,Stranger,c,3,13,23,93,,,,,0,0,0,0,,,,,9,6,114,8,,,,,,,,,,,,,,,,,,,,,1.733,2.309,350.4196301000193,None,,,,,,,,,,,,,,,,,,,,350.97565890010446,351.4795677000657,0.5077291801571846,1.0081478799693286,351.46289830002934,351.5798070002347,351.46289830002934,351.5798070002347,351.56315840035677,None,m,0,0.7351549002341926,351.56315840035677,None,,,,,,,ppaa,2022_May_13_1657,training+cueing,2021.1.4,59.94388060014791,
Friend.png,Stranger,Friend,m,3.2,19,29,99,,,,,0,0,0,0,,,,,9,7,115,5,,,,,,,,,,,,,,,,,,,,,1.741,1.418,352.42153650010005,None,,,,,,,,,,,,,,,,,,,,352.9848418002948,353.4977049003355,0.5068136798217893,None,353.4811925003305,353.59773690020666,353.4811925003305,353.59773690020666,353.58106640027836,None,c,0,0.2212096001021564,353.58106640027836,None,,,,,,,ppaa,2022_May_13_1657,training+cueing,2021.1.4,59.94388060014791,
Self.png,Stranger,Self ,m,3.1,18,28,98,,,,,0,0,0,0,,,,,9,8,116,2,,,,,,,,,,,,,,,,,,,,,1.554,1.678,353.9374465001747,None,,,,,,,,,,,,,,,,,,,,354.4771921001375,354.98213100014254,0.5107401101849973,1.01104571018368,354.96540270000696,355.0821351003833,354.96540270000696,355.0821351003833,355.06544730020687,None,None,0,,355.06544730020687,None,,,,,,,ppaa,2022_May_13_1657,training+cueing,2021.1.4,59.94388060014791,
Stranger.png,Stranger,Stranger,c,3,13,23,93,,,,,0,0,0,0,,,,,9,9,117,11,,,,,,,,,,,,,,,,,,,,,1.406,1.913,356.7374562001787,None,,,,,,,,,,,,,,,,,,,,357.28678410034627,357.80099980020896,0.511285210493952,1.0115598104894161,357.7842888003215,357.901026500389,357.7842888003215,357.901026500389,357.88437130022794,None,None,0,,357.88437130022794,None,,,,,,,ppaa,2022_May_13_1657,training+cueing,2021.1.4,59.94388060014791,
Friend.png,Friend,Friend,c,2,12,22,92,,,,,0,0,0,0,,,,,9,10,118,4,,,,,,,,,,,,,,,,,,,,,1.485,1.339,359.40764940017834,None,,,,,,,,,,,,,,,,,,,,359.94838319998235,360.452733900398,0.506116010248661,1.0064427102915943,360.43602180015296,360.5527650001459,360.43602180015296,360.5527650001459,360.5360612999648,None,c,1,0.7382006999105215,360.5360612999648,None,,,,,,,ppaa,2022_May_13_1657,training+cueing,2021.1.4,59.94388060014791,
Self.png,You,Self ,c,1,11,21,91,,,,,0,0,0,0,,,,,9,11,119,9,,,,,,,,,,,,,,,,,,,,,1.631,1.706,361.40918130008504,None,,,,,,,,,,,,,,,,,,,,361.95067090028897,362.4541587000713,0.5070881103165448,1.0073455101810396,362.43748490000144,362.53757939999923,362.43748490000144,362.53757939999923,362.53757939999923,None,c,1,0.5446384996175766,362.53757939999923,None,,,,,,,ppaa,2022_May_13_1657,training+cueing,2021.1.4,59.94388060014791,
,,,,,,,,,,,,0,0,0,0,,,,,,,,,,,,,,,,,,,,,,,,,,,,,,,,,,,,,,,,,,,,,,,,,,,,,,,,,,,,,,,,,,,0.00033648964017629623,None,,,,,ppaa,2022_May_13_1657,training+cueing,2021.1.4,59.94388060014791,
Self.png,Friend,Self ,m,2.1,16,26,96,,,,,1,0,1,0,0,0,0,1,,,,,,,,,,,,,,,,,363.7219418999739,None,space,-0.22437170008197427,2.015629169996828,None,365.7233592001721,None,1.544,1.807,368.73846930032596,None,369.27202920010313,369.77609660010785,369.75950020039454,369.87618579994887,369.75950020039454,369.87618579994887,369.8594900001772,None,m,1,0.8868049997836351,369.8594900001772,None,370.7763282000087,None,,,,,,,,,,,,,,,,,,,,,,,,,,ppaa,2022_May_13_1657,training+cueing,2021.1.4,59.94388060014791,
Self.png,You,Self ,c,1,11,21,91,,,,,1,0,1,0,0,1,1,0,,,,,,,,,,,,,,,,,,,,,,,,,1.53,2.302,371.1767388000153,None,371.71908390009776,372.2279175003059,372.2111919000745,372.311333599966,372.2111919000745,372.311333599966,372.311333599966,None,c,1,0.29098109994083643,372.311333599966,None,372.6282053999603,None,,,,,,,,,,,,,,,,,,,,,,,,,,ppaa,2022_May_13_1657,training+cueing,2021.1.4,59.94388060014791,
Friend.png,Friend,Friend,c,2,12,22,92,,,,,1,0,1,0,0,2,2,10,,,,,,,,,,,,,,,,,,,,,,,,,1.676,1.473,373.028490500059,None,373.56157290004194,374.0625465000048,374.04584750020877,374.1626234999858,374.04584750020877,374.1626234999858,374.1459085000679,None,m,0,0.21628980012610555,374.1459085000679,None,374.3797147003934,None,,,,,,,,,,,,,,,,,,,,,,,,,,ppaa,2022_May_13_1657,training+cueing,2021.1.4,59.94388060014791,
Stranger.png,Stranger,Stranger,c,3,13,23,93,,,,,1,0,1,0,0,3,3,11,,,,,,,,,,,,,,,,,,,,,,,,,1.595,1.443,374.77976660011336,None,375.3122064000927,375.8138084001839,375.79713249998167,375.9138243002817,375.79713249998167,375.9138243002817,375.9138243002817,None,c,1,0.12835679994896054,375.9138243002817,None,376.0806526001543,None,,,,,,,,,,,,,,,,,,,,,,,,,,ppaa,2022_May_13_1657,training+cueing,2021.1.4,59.94388060014791,
Stranger.png,Stranger,Stranger,c,3,13,23,93,,,,,1,0,1,0,0,4,4,8,,,,,,,,,,,,,,,,,,,,,,,,,1.575,1.579,376.4809731999412,None,377.0079199001193,377.51521720038727,377.49854340031743,377.61525320028886,377.49854340031743,377.61525320028886,377.5985761000775,None,c,1,0.9399927998892963,377.5985761000775,None,378.5642969002947,None,,,,,,,,,,,,,,,,,,,,,,,,,,ppaa,2022_May_13_1657,training+cueing,2021.1.4,59.94388060014791,
Friend.png,You,Friend,m,1.2,14,24,94,,,,,1,0,1,0,0,5,5,3,,,,,,,,,,,,,,,,,,,,,,,,,1.722,2.297,378.9666806003079,None,379.5089822001755,380.0170239000581,379.98368880013004,380.08372090011835,379.98368880013004,380.08372090011835,380.08372090011835,None,c,0,0.006554899737238884,380.08372090011835,None,380.1198988002725,None,,,,,,,,,,,,,,,,,,,,,,,,,,ppaa,2022_May_13_1657,training+cueing,2021.1.4,59.94388060014791,
Stranger.png,Friend,Stranger,m,2.3,17,27,97,,,,,1,0,1,0,0,6,6,7,,,,,,,,,,,,,,,,,,,,,,,,,1.546,2.171,380.5340567003004,None,381.06621730001643,381.5679815001786,381.5513102002442,381.66801619995385,381.5513102002442,381.66801619995385,381.66801619995385,None,c,0,0.2783387000672519,381.66801619995385,None,381.97066190000623,None,,,,,,,,,,,,,,,,,,,,,,,,,,ppaa,2022_May_13_1657,training+cueing,2021.1.4,59.94388060014791,
Friend.png,Stranger,Friend,m,3.2,19,29,99,,,,,1,0,1,0,0,7,7,5,,,,,,,,,,,,,,,,,,,,,,,,,1.506,1.644,382.38542710011825,None,382.9221389000304,383.43599570030347,383.4193192003295,383.5360751999542,383.4193192003295,383.5360751999542,383.5195381003432,None,None,0,,383.5195381003432,None,385.0371673000045,None,,,,,,,,,,,,,,,,,,,,,,,,,,ppaa,2022_May_13_1657,training+cueing,2021.1.4,59.94388060014791,
Friend.png,Friend,Friend,c,2,12,22,92,,,,,1,0,1,0,0,8,8,4,,,,,,,,,,,,,,,,,,,,,,,,,1.712,2.285,385.4375920002349,None,385.97638850007206,386.48821520013735,386.47156670037657,386.588251600042,386.47156670037657,386.588251600042,386.5715467999689,None,m,0,0.27072859974578023,386.5715467999689,None,386.87182700028643,None,,,,,,,,,,,,,,,,,,,,,,,,,,ppaa,2022_May_13_1657,training+cueing,2021.1.4,59.94388060014791,
Self.png,You,Self ,c,1,11,21,91,,,,,1,0,1,0,0,9,9,9,,,,,,,,,,,,,,,,,,,,,,,,,1.655,1.474,387.2722809002735,None,387.8107525999658,388.3228852003813,388.3062229002826,388.4062491999939,388.3062229002826,388.4062491999939,388.4062491999939,None,m,0,0.0519127999432385,388.4062491999939,None,388.4896034002304,None,,,,,,,,,,,,,,,,,,,,,,,,,,ppaa,2022_May_13_1657,training+cueing,2021.1.4,59.94388060014791,
Stranger.png,You,Stranger,m,1.3,15,25,95,,,,,1,0,1,0,0,10,10,6,,,,,,,,,,,,,,,,,,,,,,,,,1.476,1.422,388.8899376001209,None,389.42006670031697,389.92403370002285,389.90738110011443,390.0074030002579,389.90738110011443,390.0074030002579,390.0074030002579,None,c,0,0.06697610020637512,390.0074030002579,None,390.09085140004754,None,,,,,,,,,,,,,,,,,,,,,,,,,,ppaa,2022_May_13_1657,training+cueing,2021.1.4,59.94388060014791,
Self.png,Stranger,Self ,m,3.1,18,28,98,,,,,1,0,1,0,0,11,11,2,,,,,,,,,,,,,,,,,,,,,,,,,1.464,1.586,390.49111710023135,None,391.02364100003615,391.5252058003098,391.50854609999806,391.62524930015206,391.50854609999806,391.62524930015206,391.62524930015206,None,None,0,,391.62524930015206,None,393.0931672002189,None,,,,,,,,,,,,,,,,,,,,,,,,,,ppaa,2022_May_13_1657,training+cueing,2021.1.4,59.94388060014791,
Friend.png,Friend,Friend,c,2,12,22,92,,,,,1,0,1,0,,,,,0,0,0,10,,,,,,,,,,,,,,,,,,,398.4803731003776,None,1.623,1.459,401.9926209002733,None,,,,,,,,,,,,,,,,393.4934546002187,None,0.01497477013617754,None,402.51410880032927,403.01681530009955,0.5051479102112353,1.0056162104010582,403.000139800366,403.11689790012315,403.000139800366,403.11689790012315,403.100173600018,None,c,1,0.8143009999766946,403.100173600018,None,,,,,,,ppaa,2022_May_13_1657,training+cueing,2021.1.4,59.94388060014791,
Friend.png,You,Friend,m,1.2,14,24,94,,,,,1,0,1,0,,,,,0,1,1,3,,,,,,,,,,,,,,,,,,,,,1.501,1.993,404.0468862000853,None,,,,,,,,,,,,,,,,,,,,404.5838554003276,405.0849417001009,0.5023578102700412,1.002689310349524,405.06828580005094,405.16844779998064,405.06828580005094,405.16844779998064,405.16844779998064,None,m,1,0.7617943999357522,405.16844779998064,None,,,,,,,ppaa,2022_May_13_1657,training+cueing,2021.1.4,59.94388060014791,
Self.png,You,Self ,c,1,11,21,91,,,,,1,0,1,0,,,,,0,2,2,0,,,,,,,,,,,,,,,,,,,,,1.706,1.689,406.05855280021206,None,,,,,,,,,,,,,,,,,,,,406.5969567000866,407.1031868001446,0.5099674104712903,1.0102214105427265,407.08648180030286,407.186486300081,407.08648180030286,407.186486300081,407.186486300081,None,c,1,0.759646600112319,407.186486300081,None,,,,,,,ppaa,2022_May_13_1657,training+cueing,2021.1.4,59.94388060014791,
Stranger.png,You,Stranger,m,1.3,15,25,95,,,,,1,0,1,0,,,,,0,3,3,6,,,,,,,,,,,,,,,,,,,,,1.431,2.173,408.0772094000131,None,,,,,,,,,,,,,,,,,,,,408.61632260028273,409.1212430000305,0.5101124094799161,1.0104069095104933,409.1045697000809,409.2046125000343,409.1045697000809,409.2046125000343,409.2046125000343,None,m,1,0.8535815002396703,409.2046125000343,None,,,,,,,ppaa,2022_May_13_1657,training+cueing,2021.1.4,59.94388060014791,
Friend.png,Friend,Friend,c,2,12,22,92,,,,,1,0,1,0,,,,,0,4,4,4,,,,,,,,,,,,,,,,,,,,,1.532,2.062,410.1948423003778,None,,,,,,,,,,,,,,,,,,,,410.73529450036585,411.239467300009,0.5048038098029792,1.0052911099046469,411.2227484001778,411.3397083999589,411.2227484001778,411.3397083999589,411.32309020031244,None,c,1,0.6871112999506295,411.32309020031244,None,,,,,,,ppaa,2022_May_13_1657,training+cueing,2021.1.4,59.94388060014791,
Self.png,Stranger,Self ,m,3.1,18,28,98,,,,,1,0,1,0,,,,,0,5,5,2,,,,,,,,,,,,,,,,,,,,,1.409,1.549,412.14715880015865,None,,,,,,,,,,,,,,,,,,,,412.687383600045,413.1908555002883,0.5056161102838814,1.0058807102032006,413.17419810034335,413.29085949994624,413.17419810034335,413.29085949994624,413.27423480013385,None,m,1,0.7999521000310779,413.27423480013385,None,,,,,,,ppaa,2022_May_13_1657,training+cueing,2021.1.4,59.94388060014791,
Friend.png,Stranger,Friend,m,3.2,19,29,99,,,,,1,0,1,0,,,,,0,6,6,5,,,,,,,,,,,,,,,,,,,,,1.781,2.418,414.1976985000074,None,,,,,,,,,,,,,,,,,,,,414.7525548003614,415.25902650039643,0.5133640798740089,1.0136578800156713,415.2423380003311,415.35905069997534,415.2423380003311,415.35905069997534,415.3423747001216,None,m,1,0.6837108000181615,415.3423747001216,None,,,,,,,ppaa,2022_May_13_1657,training+cueing,2021.1.4,59.94388060014791,
Stranger.png,Stranger,Stranger,c,3,13,23,93,,,,,1,0,1,0,,,,,0,7,7,11,,,,,,,,,,,,,,,,,,,,,1.529,1.856,416.1488430001773,None,,,,,,,,,,,,,,,,,,,,416.68711310019717,417.1937547000125,0.5098128104582429,1.0101098101586103,417.17705509997904,417.29380360012874,417.17705509997904,417.29380360012874,417.2770955003798,None,c,1,0.6531859999522567,417.2770955003798,None,,,,,,,ppaa,2022_May_13_1657,training+cueing,2021.1.4,59.94388060014791,
Self.png,You,Self ,c,1,11,21,91,,,,,1,0,1,0,,,,,0,8,8,9,,,,,,,,,,,,,,,,,,,,,1.716,2.139,418.071100700181,None,,,,,,,,,,,,,,,,,,,,418.6095417002216,419.11179140023887,0.5040030106902122,1.0044297105632722,419.09507950022817,419.19519490003586,419.09507950022817,419.19519490003586,419.19519490003586,None,m,0,1.0232481001876295,419.19519490003586,None,,,,,,,ppaa,2022_May_13_1657,training+cueing,2021.1.4,59.94388060014791,
Stranger.png,Stranger,Stranger,c,3,13,23,93,,,,,1,0,1,0,,,,,0,9,9,8,,,,,,,,,,,,,,,,,,,,,1.676,1.52,420.3528081001714,None,,,,,,,,,,,,,,,,,,,,420.89426420023665,421.39673400018364,0.5057637100107968,1.0060648103244603,421.3801033003256,421.496834800113,421.3801033003256,421.496834800113,421.480149500072,None,m,0,0.6740827998146415,421.480149500072,None,,,,,,,ppaa,2022_May_13_1657,training+cueing,2021.1.4,59.94388060014791,
Stranger.png,Friend,Stranger,m,2.3,17,27,97,,,,,1,0,1,0,,,,,0,10,10,7,,,,,,,,,,,,,,,,,,,,,1.439,1.384,422.2875255001709,None,,,,,,,,,,,,,,,,,,,,422.82840980030596,423.331528800074,0.503876110073179,1.0043825102038682,423.3148529003374,423.43215010035783,423.3148529003374,423.43215010035783,423.4148705000989,None,m,1,0.8353229002095759,423.4148705000989,None,,,,,,,ppaa,2022_May_13_1657,training+cueing,2021.1.4,59.94388060014791,
Self.png,Friend,Self ,m,2.1,16,26,96,,,,,1,0,1,0,,,,,0,11,11,1,,,,,,,,,,,,,,,,,,,,,1.792,2.352,424.37186329998076,None,,,,,,,,,,,,,,,,,,,,424.9090081001632,425.41637240024284,0.5137214101850986,1.014184109866619,425.3996896999888,425.5165385999717,425.3996896999888,425.5165385999717,425.499850100372,None,m,1,1.0224154000170529,425.499850100372,None,,,,,,,ppaa,2022_May_13_1657,training+cueing,2021.1.4,59.94388060014791,
Friend.png,Friend,Friend,c,2,12,22,92,,,,,1,0,1,0,,,,,1,0,12,10,,,,,,,,,,,,,,,,,,,,,1.775,1.485,426.65759150031954,None,,,,,,,,,,,,,,,,,,,,427.19322250038385,427.7013497003354,0.5146030099131167,1.0149002098478377,427.68467620015144,427.8014519000426,427.68467620015144,427.8014519000426,427.7846989999525,None,c,1,0.6414635004475713,427.7846989999525,None,,,,,,,ppaa,2022_May_13_1657,training+cueing,2021.1.4,59.94388060014791,
Stranger.png,You,Stranger,m,1.3,15,25,95,,,,,1,0,1,0,,,,,1,1,13,6,,,,,,,,,,,,,,,,,,,,,1.502,2.17,428.55779270036146,None,,,,,,,,,,,,,,,,,,,,429.1119168000296,429.6193775003776,0.4991940804757178,0.999457280151546,429.5860680001788,429.6860947003588,429.5860680001788,429.6860947003588,429.6860947003588,None,m,1,1.0600748001597822,429.6860947003588,None,,,,,,,ppaa,2022_May_13_1657,training+cueing,2021.1.4,59.94388060014791,
Friend.png,You,Friend,m,1.2,14,24,94,,,,,1,0,1,0,,,,,1,2,14,3,,,,,,,,,,,,,,,,,,,,,1.631,1.517,430.87669529998675,None,,,,,,,,,,,,,,,,,,,,431.4161073002033,431.9210895001888,0.5102454102598131,1.0111737102270126,431.9043784001842,432.0044255000539,431.9043784001842,432.0044255000539,432.0044255000539,None,m,1,1.0618536998517811,432.0044255000539,None,,,,,,,ppaa,2022_May_13_1657,training+cueing,2021.1.4,59.94388060014791,
Stranger.png,Stranger,Stranger,c,3,13,23,93,,,,,1,0,1,0,,,,,1,3,15,11,,,,,,,,,,,,,,,,,,,,,1.592,1.515,433.19624399999157,None,,,,,,,,,,,,,,,,,,,,433.7381333000958,434.2393914000131,0.5013436102308333,1.001652610488236,434.2227195999585,434.3394575002603,434.2227195999585,434.3394575002603,434.3394575002603,None,m,0,0.6467091999948025,434.3394575002603,None,,,,,,,ppaa,2022_May_13_1657,training+cueing,2021.1.4,59.94388060014791,
Stranger.png,Friend,Stranger,m,2.3,17,27,97,,,,,1,0,1,0,,,,,1,4,16,7,,,,,,,,,,,,,,,,,,,,,1.56,2.283,435.1126705002971,None,,,,,,,,,,,,,,,,,,,,435.65514919999987,436.1574857002124,0.5057427105493844,1.0060333106666803,436.14077359996736,436.25750110019,436.14077359996736,436.25750110019,436.2408292000182,None,None,0,,436.2408292000182,None,,,,,,,ppaa,2022_May_13_1657,training+cueing,2021.1.4,59.94388060014791,
Self.png,You,Self ,c,1,11,21,91,,,,,1,0,1,0,,,,,1,5,17,9,,,,,,,,,,,,,,,,,,,,,1.715,1.231,437.9123190003447,None,,,,,,,,,,,,,,,,,,,,438.46974990004674,438.97615550039336,0.513116979971528,1.0134958801791072,438.9594805999659,439.05949890008196,438.9594805999659,439.05949890008196,439.05949890008196,None,c,1,0.9026461001485586,439.05949890008196,None,,,,,,,ppaa,2022_May_13_1657,training+cueing,2021.1.4,59.94388060014791,
Self.png,You,Self ,c,1,11,21,91,,,,,1,0,1,0,,,,,1,6,18,0,,,,,,,,,,,,,,,,,,,,,1.767,1.543,440.10004350030795,None,,,,,,,,,,,,,,,,,,,,440.6375323003158,441.14442360028625,0.5108218095265329,1.0110871098004282,441.12774870032445,441.227791600395,441.12774870032445,441.227791600395,441.227791600395,None,c,1,0.7823056001216173,441.227791600395,None,,,,,,,ppaa,2022_May_13_1657,training+cueing,2021.1.4,59.94388060014791,
Friend.png,Friend,Friend,c,2,12,22,92,,,,,1,0,1,0,,,,,1,7,19,4,,,,,,,,,,,,,,,,,,,,,1.596,2.04,442.1347467000596,None,,,,,,,,,,,,,,,,,,,,442.6889948002063,443.1958976001479,0.5135415801778436,1.0138157806359231,443.17919620033354,443.2959501002915,443.17919620033354,443.2959501002915,443.27924790000543,None,c,1,0.7309856000356376,443.27924790000543,None,,,,,,,ppaa,2022_May_13_1657,training+cueing,2021.1.4,59.94388060014791,
Self.png,Friend,Self ,m,2.1,16,26,96,,,,,1,0,1,0,,,,,1,8,20,1,,,,,,,,,,,,,,,,,,,,,1.459,1.728,444.1368087003939,None,,,,,,,,,,,,,,,,,,,,444.6741157001816,445.1807128000073,0.5104178101755679,1.010716310236603,445.1639541001059,445.28070020023733,445.1639541001059,445.28070020023733,445.2639847001992,None,m,1,1.0185075998306274,445.2639847001992,None,,,,,,,ppaa,2022_May_13_1657,training+cueing,2021.1.4,59.94388060014791,
Stranger.png,Stranger,Stranger,c,3,13,23,93,,,,,1,0,1,0,,,,,1,9,21,8,,,,,,,,,,,,,,,,,,,,,1.667,1.409,446.4079101001844,None,,,,,,,,,,,,,,,,,,,,446.94916169997305,447.44895970029756,0.5002762102521956,1.0005691102705896,447.4322823002003,447.54904119996354,447.4322823002003,447.54904119996354,447.54904119996354,None,m,0,1.2290178001858294,447.54904119996354,None,,,,,,,ppaa,2022_May_13_1657,training+cueing,2021.1.4,59.94388060014791,
Friend.png,Stranger,Friend,m,3.2,19,29,99,,,,,1,0,1,0,,,,,1,10,22,5,,,,,,,,,,,,,,,,,,,,,1.614,2.289,448.90624879999086,None,,,,,,,,,,,,,,,,,,,,449.4453695002012,449.9507820000872,0.5108705097809434,1.0117250098846853,449.9341011000797,450.0507947001606,449.9341011000797,450.0507947001606,450.03410760033876,None,None,0,,450.03410760033876,None,,,,,,,ppaa,2022_May_13_1657,training+cueing,2021.1.4,59.94388060014791,
Self.png,Stranger,Self ,m,3.1,18,28,98,,,,,1,0,1,0,,,,,1,11,23,2,,,,,,,,,,,,,,,,,,,,,1.693,2.204,451.7559560001828,None,,,,,,,,,,,,,,,,,,,,452.29420440038666,452.80284300027415,0.5154290101490915,1.0164096099324524,452.7861454002559,452.9028950002976,452.7861454002559,452.9028950002976,452.8861688002944,None,None,0,,452.8861688002944,None,,,,,,,ppaa,2022_May_13_1657,training+cueing,2021.1.4,59.94388060014791,
Stranger.png,Friend,Stranger,m,2.3,17,27,97,,,,,1,0,1,0,,,,,2,0,24,7,,,,,,,,,,,,,,,,,,,,,1.544,2.426,454.69293719995767,None,,,,,,,,,,,,,,,,,,,,455.2350654001348,455.7382431002334,0.5062380102463067,1.0065614101476967,455.7216036999598,455.8383445004001,455.7216036999598,455.8383445004001,455.82161930017173,None,c,0,0.8765485999174416,455.82161930017173,None,,,,,,,ppaa,2022_May_13_1657,training+cueing,2021.1.4,59.94388060014791,
Friend.png,Stranger,Friend,m,3.2,19,29,99,,,,,1,0,1,0,,,,,2,1,25,5,,,,,,,,,,,,,,,,,,,,,1.777,2.18,456.8296976001002,None,,,,,,,,,,,,,,,,,,,,457.3703751000576,457.87316150031984,0.5058726104907691,1.0064167100936174,457.8564820000902,457.9732327000238,457.8564820000902,457.9732327000238,457.9565131003037,None,m,1,0.4696080000139773,457.9565131003037,None,,,,,,,ppaa,2022_May_13_1657,training+cueing,2021.1.4,59.94388060014791,
Stranger.png,You,Stranger,m,1.3,15,25,95,,,,,1,0,1,0,,,,,2,2,26,6,,,,,,,,,,,,,,,,,,,,,1.71,1.878,458.5639450000599,None,,,,,,,,,,,,,,,,,,,,459.10339940013364,459.6077347001992,0.5062441099435091,1.006541709881276,459.5910875000991,459.69114800030366,459.5910875000991,459.69114800030366,459.69114800030366,None,m,1,0.574963899794966,459.69114800030366,None,,,,,,,ppaa,2022_May_13_1657,training+cueing,2021.1.4,59.94388060014791,
Self.png,Friend,Self ,m,2.1,16,26,96,,,,,1,0,1,0,,,,,2,3,27,1,,,,,,,,,,,,,,,,,,,,,1.732,2.329,460.39832520019263,None,,,,,,,,,,,,,,,,,,,,460.97229039995,461.47595100011677,0.5068477499298751,1.007148350123316,461.4592773001641,461.57595130009577,461.4592773001641,461.57595130009577,461.5593310999684,None,c,0,0.43482170021161437,461.5593310999684,None,,,,,,,ppaa,2022_May_13_1657,training+cueing,2021.1.4,59.94388060014791,
Self.png,You,Self ,c,1,11,21,91,,,,,1,0,1,0,,,,,2,4,28,9,,,,,,,,,,,,,,,,,,,,,1.658,1.361,462.11571370018646,None,,,,,,,,,,,,,,,,,,,,462.65462130028754,463.1605041003786,0.5081329098902643,None,463.1437723003328,463.2438640999608,463.1437723003328,463.2438640999608,463.2438640999608,None,m,0,0.1907337000593543,463.2438640999608,None,,,,,,,ppaa,2022_May_13_1657,training+cueing,2021.1.4,59.94388060014791,
Stranger.png,Stranger,Stranger,c,3,13,23,93,,,,,1,0,1,0,,,,,2,5,29,8,,,,,,,,,,,,,,,,,,,,,1.534,1.976,463.56869200011715,None,,,,,,,,,,,,,,,,,,,,464.1106255003251,464.6113766999915,0.501545509789139,1.0024695098400116,464.5946647003293,464.7114385003224,464.5946647003293,464.7114385003224,464.7114385003224,None,c,1,0.978817000053823,464.7114385003224,None,,,,,,,ppaa,2022_May_13_1657,training+cueing,2021.1.4,59.94388060014791,
Friend.png,Friend,Friend,c,2,12,22,92,,,,,1,0,1,0,,,,,2,6,30,4,,,,,,,,,,,,,,,,,,,,,1.492,2.305,465.81980950012803,None,,,,,,,,,,,,,,,,,,,,466.3612975003198,466.8630063999444,0.5037454101257026,1.0040442100726068,466.84629870019853,466.9630387001671,466.84629870019853,466.9630387001671,466.94637749996036,None,c,1,0.7277110000140965,466.94637749996036,None,,,,,,,ppaa,2022_May_13_1657,training+cueing,2021.1.4,59.94388060014791,
Stranger.png,Stranger,Stranger,c,3,13,23,93,,,,,1,0,1,0,,,,,2,7,31,11,,,,,,,,,,,,,,,,,,,,,1.584,1.724,467.80309880012646,None,,,,,,,,,,,,,,,,,,,,468.3645308003761,468.8644821001217,0.5148153798654675,1.0151083800010383,468.8644821001217,468.964504300151,468.8644821001217,468.964504300151,468.964504300151,None,m,0,0.9016585000790656,468.964504300151,None,,,,,,,ppaa,2022_May_13_1657,training+cueing,2021.1.4,59.94388060014791,
Friend.png,Friend,Friend,c,2,12,22,92,,,,,1,0,1,0,,,,,2,8,32,10,,,,,,,,,,,,,,,,,,,,,1.521,2.45,469.9874472999945,None,,,,,,,,,,,,,,,,,,,,470.5300141000189,471.03269590018317,0.505561709869653,1.0058453097008169,471.01601590029895,471.1327478000894,471.01601590029895,471.1327478000894,471.1160461003892,None,c,1,0.5900570997036994,471.1160461003892,None,,,,,,,ppaa,2022_May_13_1657,training+cueing,2021.1.4,59.94388060014791,
Self.png,You,Self ,c,1,11,21,91,,,,,1,0,1,0,,,,,2,9,33,0,,,,,,,,,,,,,,,,,,,,,1.582,1.746,471.8392628002912,None,,,,,,,,,,,,,,,,,,,,472.3824571999721,472.8839895003475,0.5037630102597177,1.0040077101439238,472.86737750004977,472.96744670020416,472.86737750004977,472.96744670020416,472.96744670020416,None,c,1,0.6109988996759057,472.96744670020416,None,,,,,,,ppaa,2022_May_13_1657,training+cueing,2021.1.4,59.94388060014791,
Friend.png,You,Friend,m,1.2,14,24,94,,,,,1,0,1,0,,,,,2,10,34,3,,,,,,,,,,,,,,,,,,,,,1.738,2.092,473.7113140001893,None,,,,,,,,,,,,,,,,,,,,474.247008100152,474.752030600328,0.5072731105610728,1.0076315104961395,474.7353130001575,474.8354119001888,474.7353130001575,474.8354119001888,474.8354119001888,None,m,1,0.6786937001161277,474.8354119001888,None,,,,,,,ppaa,2022_May_13_1657,training+cueing,2021.1.4,59.94388060014791,
Self.png,Stranger,Self ,m,3.1,18,28,98,,,,,1,0,1,0,,,,,2,11,35,2,,,,,,,,,,,,,,,,,,,,,1.534,1.642,475.6420364002697,None,,,,,,,,,,,,,,,,,,,,476.1854210002348,476.6867705001496,0.5040191104635596,1.0049046101048589,476.6701259003021,476.78686000034213,476.6701259003021,476.78686000034213,476.7701105000451,None,m,1,1.25598210003227,476.7701105000451,None,,,,,,,ppaa,2022_May_13_1657,training+cueing,2021.1.4,59.94388060014791,
Self.png,You,Self ,c,1,11,21,91,,,,,1,0,1,0,,,,,3,0,36,9,,,,,,,,,,,,,,,,,,,,,1.568,2.017,478.16050180001184,None,,,,,,,,,,,,,,,,,,,,478.714793600142,479.22192070027813,0.5120949801057577,1.0124049801379442,479.2052595000714,479.3053049002774,479.2052595000714,479.3053049002774,479.3053049002774,None,c,1,1.2487003998830914,479.3053049002774,None,,,,,,,ppaa,2022_May_13_1657,training+cueing,2021.1.4,59.94388060014791,
Stranger.png,Stranger,Stranger,c,3,13,23,93,,,,,1,0,1,0,,,,,3,1,37,8,,,,,,,,,,,,,,,,,,,,,1.797,2.175,480.679028800223,None,,,,,,,,,,,,,,,,,,,,481.2179330000654,481.72374680032954,0.5105806100182235,1.0108619104139507,481.707094500307,481.82378870015964,481.707094500307,481.82378870015964,481.80711840000004,None,m,0,0.7949873995967209,481.80711840000004,None,,,,,,,ppaa,2022_May_13_1657,training+cueing,2021.1.4,59.94388060014791,
Friend.png,Friend,Friend,c,2,12,22,92,,,,,1,0,1,0,,,,,3,2,38,10,,,,,,,,,,,,,,,,,,,,,1.449,1.799,482.7307514003478,None,,,,,,,,,,,,,,,,,,,,483.314757599961,483.8255174001679,0.5053460500203073,1.0056126499548554,483.8088321001269,483.9255355000496,483.8088321001269,483.9255355000496,483.9088803003542,None,c,1,1.2533053997904062,483.9088803003542,None,,,,,,,ppaa,2022_May_13_1657,training+cueing,2021.1.4,59.94388060014791,
Friend.png,Friend,Friend,c,2,12,22,92,,,,,1,0,1,0,,,,,3,3,39,4,,,,,,,,,,,,,,,,,,,,,1.469,1.391,485.3001298001036,None,,,,,,,,,,,,,,,,,,,,485.83876710012555,486.34377010026947,0.5072345095686615,1.0076701096259058,486.32711399998516,486.4444073000923,486.32711399998516,486.4444073000923,486.42769550019875,None,c,1,0.5105217997916043,486.42769550019875,None,,,,,,,ppaa,2022_May_13_1657,training+cueing,2021.1.4,59.94388060014791,
Friend.png,You,Friend,m,1.2,14,24,94,,,,,1,0,1,0,,,,,3,4,40,3,,,,,,,,,,,,,,,,,,,,,1.537,2.288,487.068487000186,None,,,,,,,,,,,,,,,,,,,,487.60639600036666,488.1117289001122,0.5102058099582791,1.010484809987247,488.095029800199,488.1950849001296,488.095029800199,488.1950849001296,488.1950849001296,None,m,1,0.8709637001156807,488.1950849001296,None,,,,,,,ppaa,2022_May_13_1657,training+cueing,2021.1.4,59.94388060014791,
Stranger.png,Friend,Stranger,m,2.3,17,27,97,,,,,1,0,1,0,,,,,3,5,41,7,,,,,,,,,,,,,,,,,,,,,1.748,1.519,489.20238030003384,None,,,,,,,,,,,,,,,,,,,,489.7428830000572,490.24686850002035,0.5063648102805018,1.0064527103677392,490.23018460022286,490.34678950021043,490.23018460022286,490.34678950021043,490.3301194002852,None,m,1,0.9441116000525653,490.3301194002852,None,,,,,,,ppaa,2022_May_13_1657,training+cueing,2021.1.4,59.94388060014791,
Friend.png,Stranger,Friend,m,3.2,19,29,99,,,,,1,0,1,0,,,,,3,6,42,5,,,,,,,,,,,,,,,,,,,,,1.794,2.039,491.40488010039553,None,,,,,,,,,,,,,,,,,,,,491.9442410003394,492.4482023003511,0.5049375100061297,1.0052426103502512,492.43152700038627,492.5482271001674,492.43152700038627,492.5482271001674,492.5315235001035,None,c,0,0.6785044996067882,492.5315235001035,None,,,,,,,ppaa,2022_May_13_1657,training+cueing,2021.1.4,59.94388060014791,
Stranger.png,Stranger,Stranger,c,3,13,23,93,,,,,1,0,1,0,,,,,3,7,43,11,,,,,,,,,,,,,,,,,,,,,1.484,2.346,493.33834900008515,None,,,,,,,,,,,,,,,,,,,,493.8770513003692,494.38349270028993,0.5110927098430693,1.0115563101135194,494.3662192001939,494.48309410037473,494.3662192001939,494.48309410037473,494.46640350017697,None,c,1,0.8876791996881366,494.46640350017697,None,,,,,,,ppaa,2022_May_13_1657,training+cueing,2021.1.4,59.94388060014791,
Self.png,You,Self ,c,1,11,21,91,,,,,1,0,1,0,,,,,3,8,44,0,,,,,,,,,,,,,,,,,,,,,1.552,1.296,495.49086969997734,None,,,,,,,,,,,,,,,,,,,,496.0292398999445,496.5344655001536,0.5069832103326917,1.0079147103242576,496.5177448000759,496.61781560024247,496.5177448000759,496.61781560024247,496.61781560024247,None,c,1,0.7203635997138917,496.61781560024247,None,,,,,,,ppaa,2022_May_13_1657,training+cueing,2021.1.4,59.94388060014791,
Self.png,Friend,Self ,m,2.1,16,26,96,,,,,1,0,1,0,,,,,3,9,45,1,,,,,,,,,,,,,,,,,,,,,1.61,1.576,497.47572700027376,None,,,,,,,,,,,,,,,,,,,,498.0152143002488,498.519232199993,0.508540510199964,1.008874210063368,498.50252350000665,498.6192253003828,498.50252350000665,498.6192253003828,498.6025991002098,None,m,1,1.1194412996992469,498.6025991002098,None,,,,,,,ppaa,2022_May_13_1657,training+cueing,2021.1.4,59.94388060014791,
Stranger.png,You,Stranger,m,1.3,15,25,95,,,,,1,0,1,0,,,,,3,10,46,6,,,,,,,,,,,,,,,,,,,,,1.489,1.7,499.8596983002499,None,,,,,,,,,,,,,,,,,,,,500.40082310000435,500.9042553999461,0.5068315104581416,1.007111310493201,500.88761200010777,500.9876803001389,500.88761200010777,500.9876803001389,500.9876803001389,None,None,0,,500.9876803001389,None,,,,,,,ppaa,2022_May_13_1657,training+cueing,2021.1.4,59.94388060014791,
Self.png,Stranger,Self ,m,3.1,18,28,98,,,,,1,0,1,0,,,,,3,11,47,2,,,,,,,,,,,,,,,,,,,,,1.577,1.584,502.5929581001401,None,,,,,,,,,,,,,,,,,,,,503.13988000014797,503.63957690028474,0.514224810525775,1.014531310647726,503.63957690028474,503.7396413004026,503.63957690028474,503.7396413004026,503.7396413004026,None,m,1,1.4223349997773767,503.7396413004026,None,,,,,,,ppaa,2022_May_13_1657,training+cueing,2021.1.4,59.94388060014791,
Friend.png,You,Friend,m,1.2,14,24,94,,,,,1,0,1,0,,,,,4,0,48,3,,,,,,,,,,,,,,,,,,,,,1.743,1.981,505.29715949995443,None,,,,,,,,,,,,,,,,,,,,505.8377931001596,506.3415116001852,0.5071398103609681,1.007419410161674,506.32490450004116,506.42493520025164,506.32490450004116,506.42493520025164,506.42493520025164,None,m,1,0.7370132999494672,506.42493520025164,None,,,,,,,ppaa,2022_May_13_1657,training+cueing,2021.1.4,59.94388060014791,
Stranger.png,Friend,Stranger,m,2.3,17,27,97,,,,,1,0,1,0,,,,,4,1,49,7,,,,,,,,,,,,,,,,,,,,,1.591,1.74,507.2989605003968,None,,,,,,,,,,,,,,,,,,,,507.84126050025225,508.3430057000369,0.5048240101896226,1.0050986101850867,508.3263334999792,508.443098500371,508.3263334999792,508.443098500371,508.42632090020925,None,m,1,0.6557343997992575,508.42632090020925,None,,,,,,,ppaa,2022_May_13_1657,training+cueing,2021.1.4,59.94388060014791,
Friend.png,Friend,Friend,c,2,12,22,92,,,,,1,0,1,0,,,,,4,2,50,4,,,,,,,,,,,,,,,,,,,,,1.503,1.655,509.21704210015014,None,,,,,,,,,,,,,,,,,,,,509.7533631003462,510.2610429003835,0.5128108100034297,1.013379210140556,510.24437580024824,510.36109390016645,510.24437580024824,510.36109390016645,510.3443941003643,None,c,1,0.7698266999796033,510.3443941003643,None,,,,,,,ppaa,2022_May_13_1657,training+cueing,2021.1.4,59.94388060014791,
Self.png,You,Self ,c,1,11,21,91,,,,,1,0,1,0,,,,,4,3,51,9,,,,,,,,,,,,,,,,,,,,,1.626,1.875,511.25255169998854,None,,,,,,,,,,,,,,,,,,,,511.85509510012344,512.36257690005,0.4995145904831588,0.9998210901394486,512.3292312002741,512.4292723000981,512.3292312002741,512.4292723000981,512.4292723000981,None,c,1,0.4607819998636842,512.4292723000981,None,,,,,,,ppaa,2022_May_13_1657,training+cueing,2021.1.4,59.94388060014791,
Friend.png,Friend,Friend,c,2,12,22,92,,,,,1,0,1,0,,,,,4,4,52,10,,,,,,,,,,,,,,,,,,,,,1.414,1.406,513.019290199969,None,,,,,,,,,,,,,,,,,,,,513.5596313001588,514.0638248999603,0.5064370105974376,1.0067258104681969,514.0471292003058,514.1638677003793,514.0471292003058,514.1638677003793,514.1471546003595,None,c,1,1.3030984997749329,514.1471546003595,None,,,,,,,ppaa,2022_May_13_1657,training+cueing,2021.1.4,59.94388060014791,
Self.png,Friend,Self ,m,2.1,16,26,96,,,,,1,0,1,0,,,,,4,5,53,1,,,,,,,,,,,,,,,,,,,,,1.722,2.131,515.5912037002854,None,,,,,,,,,,,,,,,,,,,,516.1279699001461,516.6323854001239,0.5077933096326888,None,516.6156936003827,516.7323623001575,516.6156936003827,516.7323623001575,516.7156410003081,None,c,0,0.3344732001423836,516.7156410003081,None,,,,,,,ppaa,2022_May_13_1657,training+cueing,2021.1.4,59.94388060014791,
Stranger.png,Stranger,Stranger,c,3,13,23,93,,,,,1,0,1,0,,,,,4,6,54,8,,,,,,,,,,,,,,,,,,,,,1.643,2.296,517.1717879003845,None,,,,,,,,,,,,,,,,,,,,517.7150330999866,518.2167808003724,0.5049978098832071,1.0052843098528683,518.200123200193,518.3168639000505,518.200123200193,518.3168639000505,518.3001584000885,None,m,0,0.7658489998430014,518.3001584000885,None,,,,,,,ppaa,2022_May_13_1657,training+cueing,2021.1.4,59.94388060014791,
Self.png,Stranger,Self ,m,3.1,18,28,98,,,,,1,0,1,0,,,,,4,7,55,2,,,,,,,,,,,,,,,,,,,,,1.741,1.266,519.1906598000787,None,,,,,,,,,,,,,,,,,,,,519.7333305003121,520.2348899999633,0.5016318103298545,1.0018984102644026,520.2182488003746,520.3350987001322,520.2182488003746,520.3350987001322,520.3350987001322,None,None,0,,520.3350987001322,None,,,,,,,ppaa,2022_May_13_1657,training+cueing,2021.1.4,59.94388060014791,
Friend.png,Stranger,Friend,m,3.2,19,29,99,,,,,1,0,1,0,,,,,4,8,56,5,,,,,,,,,,,,,,,,,,,,,1.774,1.916,522.1945261000656,None,,,,,,,,,,,,,,,,,,,,522.7330339001492,523.2371314000338,0.5078046103008091,1.00814601033926,523.2203780999407,523.3371291002259,523.2203780999407,523.3371291002259,523.3204672001302,None,c,0,0.5135365999303758,523.3204672001302,None,,,,,,,ppaa,2022_May_13_1657,training+cueing,2021.1.4,59.94388060014791,
Stranger.png,Stranger,Stranger,c,3,13,23,93,,,,,1,0,1,0,,,,,4,9,57,11,,,,,,,,,,,,,,,,,,,,,1.566,1.565,523.9604295999743,None,,,,,,,,,,,,,,,,,,,,524.4991252999753,525.0050801001489,0.5108606102876365,1.0111210099421442,524.9884008001536,525.1051126001403,524.9884008001536,525.1051126001403,525.0884030000307,None,m,0,0.9855709997937083,525.0884030000307,None,,,,,,,ppaa,2022_May_13_1657,training+cueing,2021.1.4,59.94388060014791,
Stranger.png,You,Stranger,m,1.3,15,25,95,,,,,1,0,1,0,,,,,4,10,58,6,,,,,,,,,,,,,,,,,,,,,1.454,1.264,526.1956470999867,None,,,,,,,,,,,,,,,,,,,,526.7352321003564,527.240004000254,0.5072249104268849,None,527.2233526003547,527.3233709000051,527.2233526003547,527.3233709000051,527.3233709000051,None,m,1,0.2546184998936951,527.3233709000051,None,,,,,,,ppaa,2022_May_13_1657,training+cueing,2021.1.4,59.94388060014791,
Self.png,You,Self ,c,1,11,21,91,,,,,1,0,1,0,,,,,4,11,59,0,,,,,,,,,,,,,,,,,,,,,1.621,1.59,527.7131541003473,None,,,,,,,,,,,,,,,,,,,,528.2712285001762,528.7744477000087,0.5079088797792792,None,528.75777020026,528.857830400113,528.75777020026,528.857830400113,528.857830400113,None,m,0,0.28814979968592525,528.857830400113,None,,,,,,,ppaa,2022_May_13_1657,training+cueing,2021.1.4,59.94388060014791,
Stranger.png,Stranger,Stranger,c,3,13,23,93,,,,,1,0,1,0,,,,,5,0,60,11,,,,,,,,,,,,,,,,,,,,,1.609,1.539,529.2805710001849,None,,,,,,,,,,,,,,,,,,,,529.8218748001382,530.3255222002044,0.5048280102200806,1.005117109976709,530.3088877000846,530.4256184999831,530.3088877000846,530.4256184999831,530.4089184002951,None,m,0,0.5290474002249539,530.4089184002951,None,,,,,,,ppaa,2022_May_13_1657,training+cueing,2021.1.4,59.94388060014791,
Self.png,Stranger,Self ,m,3.1,18,28,98,,,,,1,0,1,0,,,,,5,1,61,2,,,,,,,,,,,,,,,,,,,,,1.442,2.393,531.0657933000475,None,,,,,,,,,,,,,,,,,,,,531.6040773000568,532.1102102999575,0.5124993100762367,1.01278181001544,532.0935515002348,532.2102487003431,532.0935515002348,532.2102487003431,532.1935578002594,None,m,1,0.6324436999857426,532.1935578002594,None,,,,,,,ppaa,2022_May_13_1657,training+cueing,2021.1.4,59.94388060014791,
Stranger.png,Stranger,Stranger,c,3,13,23,93,,,,,1,0,1,0,,,,,5,2,62,8,,,,,,,,,,,,,,,,,,,,,1.422,1.572,532.9507822999731,None,,,,,,,,,,,,,,,,,,,,533.489823400043,533.9948565000668,0.5105118099600077,None,533.9782072003,534.0949464002624,533.9782072003,534.0949464002624,534.0782294999808,None,m,0,0.37986399978399277,534.0782294999808,None,,,,,,,ppaa,2022_May_13_1657,training+cueing,2021.1.4,59.94388060014791,
Self.png,Friend,Self ,m,2.1,16,26,96,,,,,1,0,1,0,,,,,5,3,63,1,,,,,,,,,,,,,,,,,,,,,1.737,1.301,534.5848358999938,None,,,,,,,,,,,,,,,,,,,,535.1253472003154,535.6293570999987,0.5052277096547186,1.0055573098361492,535.6127140000463,535.7294227001257,535.6127140000463,535.7294227001257,535.7127480003983,None,c,0,0.39324909960851073,535.7127480003983,None,,,,,,,ppaa,2022_May_13_1657,training+cueing,2021.1.4,59.94388060014791,
Stranger.png,Friend,Stranger,m,2.3,17,27,97,,,,,1,0,1,0,,,,,5,4,64,7,,,,,,,,,,,,,,,,,,,,,1.62,1.626,536.2356527000666,None,,,,,,,,,,,,,,,,,,,,536.7742353002541,537.2806053003296,0.5119998101145029,1.0123193101026118,537.2639230000786,537.3806608002633,537.2639230000786,537.3806608002633,537.3639454003423,None,None,0,,537.3639454003423,None,,,,,,,ppaa,2022_May_13_1657,training+cueing,2021.1.4,59.94388060014791,
Stranger.png,You,Stranger,m,1.3,15,25,95,,,,,1,0,1,0,,,,,5,5,65,6,,,,,,,,,,,,,,,,,,,,,1.7,1.708,539.1026386003941,None,,,,,,,,,,,,,,,,,,,,539.646303600166,540.1493154000491,0.5060251099057496,1.0064337099902332,540.1326363999397,540.2327157999389,540.1326363999397,540.2327157999389,540.2327157999389,None,m,1,0.6892829001881182,540.2327157999389,None,,,,,,,ppaa,2022_May_13_1657,training+cueing,2021.1.4,59.94388060014791,
Friend.png,You,Friend,m,1.2,14,24,94,,,,,1,0,1,0,,,,,5,6,66,3,,,,,,,,,,,,,,,,,,,,,1.699,1.366,541.0566490003839,None,,,,,,,,,,,,,,,,,,,,541.5942537002265,542.1008343002759,0.5108770099468529,1.0111514101736248,542.084095899947,542.1841770000756,542.084095899947,542.1841770000756,542.1841770000756,None,m,1,0.6418514000251889,542.1841770000756,None,,,,,,,ppaa,2022_May_13_1657,training+cueing,2021.1.4,59.94388060014791,
Friend.png,Stranger,Friend,m,3.2,19,29,99,,,,,1,0,1,0,,,,,5,7,67,5,,,,,,,,,,,,,,,,,,,,,1.65,2.477,542.9571242001839,None,,,,,,,,,,,,,,,,,,,,543.4972354001366,544.0021049999632,0.5105640105903149,None,543.9854655000381,544.1021732003428,543.9854655000381,544.1021732003428,544.0854865000583,None,c,0,0.24445120012387633,544.0854865000583,None,,,,,,,ppaa,2022_May_13_1657,training+cueing,2021.1.4,59.94388060014791,
Friend.png,Friend,Friend,c,2,12,22,92,,,,,1,0,1,0,,,,,5,8,68,10,,,,,,,,,,,,,,,,,,,,,1.562,1.516,544.4585187002085,None,,,,,,,,,,,,,,,,,,,,544.9999045003206,545.5032244003378,0.5055580101907253,None,545.4865104001947,545.6032527000643,545.4865104001947,545.6032527000643,545.586571900174,None,m,0,0.135487399995327,545.586571900174,None,,,,,,,ppaa,2022_May_13_1657,training+cueing,2021.1.4,59.94388060014791,
Self.png,You,Self ,c,1,11,21,91,,,,,1,0,1,0,,,,,5,9,69,9,,,,,,,,,,,,,,,,,,,,,1.613,2.486,545.8595649003983,None,,,,,,,,,,,,,,,,,,,,546.3999115000479,546.9042297000997,0.509310910012573,1.0096170101314783,546.887562900316,546.9875835999846,546.887562900316,546.9875835999846,546.9875835999846,None,c,1,0.7983282003551722,546.9875835999846,None,,,,,,,ppaa,2022_May_13_1657,training+cueing,2021.1.4,59.94388060014791,
Friend.png,Friend,Friend,c,2,12,22,92,,,,,1,0,1,0,,,,,5,10,70,4,,,,,,,,,,,,,,,,,,,,,1.496,1.89,547.9106548000127,None,,,,,,,,,,,,,,,,,,,,548.4668197999708,548.9723698999733,0.5124674797989428,1.0127574796788394,548.9556931001134,549.0724353003316,548.9556931001134,549.0724353003316,549.0556900002994,None,m,0,0.49029670003801584,549.0556900002994,None,,,,,,,ppaa,2022_May_13_1657,training+cueing,2021.1.4,59.94388060014791,
Self.png,You,Self ,c,1,11,21,91,,,,,1,0,1,0,,,,,5,11,71,0,,,,,,,,,,,,,,,,,,,,,1.782,1.233,549.678747500293,None,,,,,,,,,,,,,,,,,,,,550.2177593000233,550.7236510999501,0.5085834101773798,None,550.7069926001132,550.806983300019,550.7069926001132,550.806983300019,550.806983300019,None,c,1,0.29102030023932457,550.806983300019,None,,,,,,,ppaa,2022_May_13_1657,training+cueing,2021.1.4,59.94388060014791,
Self.png,You,Self ,c,1,11,21,91,,,,,1,0,1,0,,,,,6,0,72,9,,,,,,,,,,,,,,,,,,,,,1.735,2.38,551.2305377000012,None,,,,,,,,,,,,,,,,,,,,551.7688365001231,552.2747659999877,0.5113242105580866,1.0115546104498208,552.2581229000352,552.3581428001635,552.2581229000352,552.3581428001635,552.3581428001635,None,c,1,0.6598465000279248,552.3581428001635,None,,,,,,,ppaa,2022_May_13_1657,training+cueing,2021.1.4,59.94388060014791,
Friend.png,Friend,Friend,c,2,12,22,92,,,,,1,0,1,0,,,,,6,1,73,4,,,,,,,,,,,,,,,,,,,,,1.692,1.663,553.1484221001156,None,,,,,,,,,,,,,,,,,,,,553.690237400122,554.1928363000043,0.5057171103544533,1.0059534101746976,554.1761547001079,554.2928852001205,554.1761547001079,554.2928852001205,554.2761911000125,None,c,1,0.5976859000511467,554.2761911000125,None,,,,,,,ppaa,2022_May_13_1657,training+cueing,2021.1.4,59.94388060014791,
Stranger.png,Friend,Stranger,m,2.3,17,27,97,,,,,1,0,1,0,,,,,6,2,74,7,,,,,,,,,,,,,,,,,,,,,1.416,1.755,554.9993003001437,None,,,,,,,,,,,,,,,,,,,,555.5631618001498,556.0776859000325,0.5116667803376913,1.01197698013857,556.0610023001209,556.1777331000194,556.0610023001209,556.1777331000194,556.1610692003742,None,m,1,0.6648447001352906,556.1610692003742,None,,,,,,,ppaa,2022_May_13_1657,training+cueing,2021.1.4,59.94388060014791,
Self.png,You,Self ,c,1,11,21,91,,,,,1,0,1,0,,,,,6,3,75,0,,,,,,,,,,,,,,,,,,,,,1.797,2.013,556.9516292000189,None,,,,,,,,,,,,,,,,,,,,557.4918784000911,557.9955963999964,0.5068972106091678,1.0071629104204476,557.9789027003571,558.079126200173,557.9789027003571,558.079126200173,558.079126200173,None,c,1,0.5707844998687506,558.079126200173,None,,,,,,,ppaa,2022_May_13_1657,training+cueing,2021.1.4,59.94388060014791,
Stranger.png,Stranger,Stranger,c,3,13,23,93,,,,,1,0,1,0,,,,,6,4,76,11,,,,,,,,,,,,,,,,,,,,,1.676,1.637,558.7860145000741,None,,,,,,,,,,,,,,,,,,,,559.3261257000268,559.8302339003421,0.5065561099909246,1.0074841100722551,559.8135183001868,559.9302758001722,559.8135183001868,559.9302758001722,559.9135718001053,None,m,0,0.6245422000065446,559.9135718001053,None,,,,,,,ppaa,2022_May_13_1657,training+cueing,2021.1.4,59.94388060014791,
Friend.png,Stranger,Friend,m,3.2,19,29,99,,,,,1,0,1,0,,,,,6,5,77,5,,,,,,,,,,,,,,,,,,,,,1.792,1.396,560.6714572999626,None,,,,,,,,,,,,,,,,,,,,561.2095087999478,561.7151454002596,0.5111267101019621,1.0114367101341486,561.6982635003515,561.8150395001285,561.6982635003515,561.8150395001285,561.7982948003337,None,c,0,0.515642199665308,561.7982948003337,None,,,,,,,ppaa,2022_May_13_1657,training+cueing,2021.1.4,59.94388060014791,
Self.png,Stranger,Self ,m,3.1,18,28,98,,,,,1,0,1,0,,,,,6,6,78,2,,,,,,,,,,,,,,,,,,,,,1.646,1.587,562.4383011003956,None,,,,,,,,,,,,,,,,,,,,562.9777985000983,563.4828452002257,0.5094210100360215,None,563.4661608999595,563.5829279003665,563.4661608999595,563.5829279003665,563.5662302002311,None,m,1,0.3476416002959013,563.5662302002311,None,,,,,,,ppaa,2022_May_13_1657,training+cueing,2021.1.4,59.94388060014791,
Friend.png,Friend,Friend,c,2,12,22,92,,,,,1,0,1,0,,,,,6,7,79,10,,,,,,,,,,,,,,,,,,,,,1.467,2.499,564.0393395000137,None,,,,,,,,,,,,,,,,,,,,564.5763592999429,565.0839881002903,0.5120297097600996,1.0129152098670602,565.0673227002844,565.1846175002865,565.0673227002844,565.1846175002865,565.1679342002608,None,None,0,,565.1679342002608,None,,,,,,,ppaa,2022_May_13_1657,training+cueing,2021.1.4,59.94388060014791,
Stranger.png,Stranger,Stranger,c,3,13,23,93,,,,,1,0,1,0,,,,,6,8,80,8,,,,,,,,,,,,,,,,,,,,,1.721,1.347,566.7397110001184,None,,,,,,,,,,,,,,,,,,,,567.2896452001296,567.8026712001301,0.5096848104149103,1.0099170105531812,567.7860505003482,567.9027140000835,567.7860505003482,567.9027140000835,567.8860149001703,None,None,0,,567.8860149001703,None,,,,,,,ppaa,2022_May_13_1657,training+cueing,2021.1.4,59.94388060014791,
Friend.png,You,Friend,m,1.2,14,24,94,,,,,1,0,1,0,,,,,6,9,81,3,,,,,,,,,,,,,,,,,,,,,1.4,1.42,569.7247363002971,None,,,,,,,,,,,,,,,,,,,,570.267850600183,570.7715068003163,0.5067445100285113,1.0070332097820938,570.75481950026,570.8548632003367,570.75481950026,570.8548632003367,570.8548632003367,None,None,0,,570.8548632003367,None,,,,,,,ppaa,2022_May_13_1657,training+cueing,2021.1.4,59.94388060014791,
Self.png,Friend,Self ,m,2.1,16,26,96,,,,,1,0,1,0,,,,,6,10,82,1,,,,,,,,,,,,,,,,,,,,,1.792,1.521,572.3606889001094,None,,,,,,,,,,,,,,,,,,,,572.9026215001941,573.4066949002445,0.5059386100620031,None,573.3900613002479,573.5067602000199,573.3900613002479,573.5067602000199,573.4900748003274,None,m,1,0.15190929966047406,573.4900748003274,None,,,,,,,ppaa,2022_May_13_1657,training+cueing,2021.1.4,59.94388060014791,
Stranger.png,You,Stranger,m,1.3,15,25,95,,,,,1,0,1,0,,,,,6,11,83,6,,,,,,,,,,,,,,,,,,,,,1.785,2.488,573.7799953999929,None,,,,,,,,,,,,,,,,,,,,574.3205039002933,574.8244011001661,0.5079006101004779,1.0082241101190448,574.8077037003823,574.9079904002137,574.8077037003823,574.9079904002137,574.9079904002137,None,m,1,0.6859794999472797,574.9079904002137,None,,,,,,,ppaa,2022_May_13_1657,training+cueing,2021.1.4,59.94388060014791,
Friend.png,Friend,Friend,c,2,12,22,92,,,,,1,0,1,0,,,,,7,0,84,4,,,,,,,,,,,,,,,,,,,,,1.784,2.223,575.7311480999924,None,,,,,,,,,,,,,,,,,,,,576.2718430003151,576.7758139004,0.5055251102894545,1.0060647102072835,576.7591485003941,576.8761046002619,576.7591485003941,576.8761046002619,576.85972269997,None,m,0,1.0862838998436928,576.85972269997,None,,,,,,,ppaa,2022_May_13_1657,training+cueing,2021.1.4,59.94388060014791,
Stranger.png,Stranger,Stranger,c,3,13,23,93,,,,,1,0,1,0,,,,,7,1,85,8,,,,,,,,,,,,,,,,,,,,,1.551,1.703,578.0837703002617,None,,,,,,,,,,,,,,,,,,,,578.6252818000503,579.1275279000401,0.505113709717989,None,579.1108504002914,579.2275600000285,579.1108504002914,579.2275600000285,579.2108984002843,None,c,1,0.23946209996938705,579.2108984002843,None,,,,,,,ppaa,2022_May_13_1657,training+cueing,2021.1.4,59.94388060014791,
