Image,Name,Face,CorrAns,Match,Face_onset,CResponse_onset,IResponse_onset,Match.thisRepN,Match.thisTrialN,Match.thisN,Match.thisIndex,Blocks.thisRepN,Blocks.thisTrialN,Blocks.thisN,Blocks.thisIndex,trials.thisRepN,trials.thisTrialN,trials.thisN,trials.thisIndex,trials_2.thisRepN,trials_2.thisTrialN,trials_2.thisN,trials_2.thisIndex,text.started,text.stopped,p1.started,p1.stopped,MatchInstructions.started,MatchInstructions.stopped,Name1.started,Name1.stopped,Face_Relevance.started,Face_Relevance.stopped,MismatchInstructions.started,MismatchInstructions.stopped,Rest_trainingInstruct.started,Rest_trainingInstruct.stopped,next8.keys,next8.rt,next8.started,next8.stopped,Ready.started,Ready.stopped,delay_one_picked,delay_two_picked,blank0.started,blank0.stopped,FixationCross1.started,FixationCross1.stopped,Name3.started,Name3.stopped,Face_Relevance3.started,Face_Relevance3.stopped,responseTime.started,responseTime.stopped,resp.keys,resp.corr,resp.started,resp.stopped,Accuracy.started,Accuracy.stopped,resp.rt,questions.started,questions.stopped,p2.started,p2.stopped,FixationCross3.started,FixationCross3.stopped,port_Face_onset.started,port_Face_onset.stopped,Name4.started,Name4.stopped,Face_Relevance4.started,Face_Relevance4.stopped,responseTime2.started,responseTime2.stopped,Response.keys,Response.corr,Response.rt,Response.started,Response.stopped,p3.started,p3.stopped,Finish.started,Finish.stopped,gender,age,participant,date,expName,psychopyVersion,frameRate,
Self.png,You,,,,,,,0,0,0,0,,,,,,,,,,,,,20.76584730000468,None,0.00408526009414345,0.525301460060291,45.437466700037476,None,62.666002699988894,None,62.666002699988894,None,,,,,,,,,,,,,,,,,,,,,,,,,,,,,,,,,,,,,,,,,,,,,,,,,,,,,,,ppbb,2022_May_19_1058,training+cueing,2021.1.4,59.636479882248175,
Stranger.png,Stranger,,,,,,,0,1,1,2,,,,,,,,,,,,,,,,,,,82.57207120000385,None,82.57207120000385,None,,,,,,,,,,,,,,,,,,,,,,,,,,,,,,,,,,,,,,,,,,,,,,,,,,,,,,,ppbb,2022_May_19_1058,training+cueing,2021.1.4,59.636479882248175,
Friend.png,Friend,,,,,,,0,2,2,1,,,,,,,,,,,,,,,,,,,102.57103230000939,None,102.57103230000939,None,,,,,,,,,,,,,,,,,,,,,,,,,,,,,,,,,,,,,,,,,,,,,,,,,,,,,,,ppbb,2022_May_19_1058,training+cueing,2021.1.4,59.636479882248175,
Self.png,Friend,Self ,m,2.1,16,26,96,,,,,0,0,0,0,0,0,0,1,,,,,,,,,,,,,,,122.52907889999915,None,163.85889390000375,None,space,0.2089074000250548,2.0079667399986647,None,166.07738020003308,None,1.708,1.233,169.09292500000447,None,169.72237730002962,170.2302161999978,170.2135719000362,170.33027959999163,170.2135719000362,170.33027959999163,170.31354430003557,None,None,0,170.31354430003557,None,172.03023490001215,None,,,,,,,,,,,,,,,,,,,,,,,,,,,ppbb,2022_May_19_1058,training+cueing,2021.1.4,59.636479882248175,
Stranger.png,You,Stranger,m,1.3,15,25,95,,,,,0,0,0,0,0,1,1,6,,,,,,,,,,,,,,,,,,,,,,,,,1.682,2.319,172.43180760001997,None,172.9622917000088,173.46591630001785,173.44924210000318,173.54923990002135,173.44924210000318,173.54923990002135,173.54923990002135,None,m,1,173.54923990002135,None,174.38930690003326,None,0.8079112999839708,,,,,,,,,,,,,,,,,,,,,,,,,,ppbb,2022_May_19_1058,training+cueing,2021.1.4,59.636479882248175,
Friend.png,Friend,Friend,c,2,12,22,92,,,,,0,0,0,0,0,2,2,10,,,,,,,,,,,,,,,,,,,,,,,,,1.748,2.226,174.80033050000202,None,175.33810350002022,175.85094400000526,175.8342881000135,175.95100080000702,175.8342881000135,175.95100080000702,175.93432350002695,None,c,1,175.93432350002695,None,176.73497260001022,None,0.7744530999916606,,,,,,,,,,,,,,,,,,,,,,,,,,ppbb,2022_May_19_1058,training+cueing,2021.1.4,59.636479882248175,
Stranger.png,Stranger,Stranger,c,3,13,23,93,,,,,0,0,0,0,0,3,3,8,,,,,,,,,,,,,,,,,,,,,,,,,1.735,2.296,177.13650820002658,None,177.67783559998497,178.18599259998882,178.16926950000925,178.2860393000301,178.16926950000925,178.2860393000301,178.26930759998504,None,c,1,178.26930759998504,None,179.57031099998858,None,1.2713455999619327,,,,,,,,,,,,,,,,,,,,,,,,,,ppbb,2022_May_19_1058,training+cueing,2021.1.4,59.636479882248175,
Self.png,You,Self ,c,1,11,21,91,,,,,0,0,0,0,0,4,4,9,,,,,,,,,,,,,,,,,,,,,,,,,1.671,2.348,179.97067200002493,None,180.50568150001345,181.02131660003215,181.00466159998905,181.10472589998972,181.00466159998905,181.10472589998972,181.10472589998972,None,c,1,181.10472589998972,None,182.10548010002822,None,0.979901900049299,,,,,,,,,,,,,,,,,,,,,,,,,,ppbb,2022_May_19_1058,training+cueing,2021.1.4,59.636479882248175,
Stranger.png,Friend,Stranger,m,2.3,17,27,97,,,,,0,0,0,0,0,5,5,7,,,,,,,,,,,,,,,,,,,,,,,,,1.645,2.255,182.50577990000602,None,183.039014399983,183.54001579998294,183.5232291999855,183.64007480000146,183.5232291999855,183.64007480000146,183.64007480000146,None,m,1,183.64007480000146,None,184.78897500003222,None,1.1325430000433698,,,,,,,,,,,,,,,,,,,,,,,,,,ppbb,2022_May_19_1058,training+cueing,2021.1.4,59.636479882248175,
Self.png,Stranger,Self ,m,3.1,18,28,98,,,,,0,0,0,0,0,6,6,2,,,,,,,,,,,,,,,,,,,,,,,,,1.713,1.301,185.1910901000374,None,185.7266352000297,186.24184010003228,186.22531920002075,186.3423692000215,186.22531920002075,186.3423692000215,186.3258720000158,None,m,1,186.3258720000158,None,187.24259600002551,None,0.8946608999976888,,,,,,,,,,,,,,,,,,,,,,,,,,ppbb,2022_May_19_1058,training+cueing,2021.1.4,59.636479882248175,
Stranger.png,Stranger,Stranger,c,3,13,23,93,,,,,0,0,0,0,0,7,7,11,,,,,,,,,,,,,,,,,,,,,,,,,1.538,2.042,187.64275629998883,None,188.17276129999664,188.6768970999983,188.66019890003372,188.77693580003688,188.66019890003372,188.77693580003688,188.7602191999904,None,c,1,188.7602191999904,None,189.82608640001854,None,1.052490799978841,,,,,,,,,,,,,,,,,,,,,,,,,,ppbb,2022_May_19_1058,training+cueing,2021.1.4,59.636479882248175,
Self.png,You,Self ,c,1,11,21,91,,,,,0,0,0,0,0,8,8,0,,,,,,,,,,,,,,,,,,,,,,,,,1.669,2.357,190.22815089998767,None,190.75975490000565,191.26210560003528,191.24543230002746,191.34543940000003,191.24543230002746,191.34543940000003,191.34543940000003,None,c,1,191.34543940000003,None,192.7140395999886,None,1.3474573999992572,,,,,,,,,,,,,,,,,,,,,,,,,,ppbb,2022_May_19_1058,training+cueing,2021.1.4,59.636479882248175,
Friend.png,Friend,Friend,c,2,12,22,92,,,,,0,0,0,0,0,9,9,4,,,,,,,,,,,,,,,,,,,,,,,,,1.625,2.341,193.11356100003468,None,193.64948989998084,194.1641952000209,194.14757169998484,194.26420209999196,194.14757169998484,194.26420209999196,194.24755929998355,None,c,1,194.24755929998355,None,195.16492569999536,None,0.8931174000026658,,,,,,,,,,,,,,,,,,,,,,,,,,ppbb,2022_May_19_1058,training+cueing,2021.1.4,59.636479882248175,
Friend.png,You,Friend,m,1.2,14,24,94,,,,,0,0,0,0,0,10,10,3,,,,,,,,,,,,,,,,,,,,,,,,,1.481,2.301,195.56518159998814,None,196.09757560002618,196.5992886000313,196.5826232000254,196.68263739999384,196.5826232000254,196.68263739999384,196.68263739999384,None,m,1,196.68263739999384,None,197.34986459999345,None,0.6499223000137135,,,,,,,,,,,,,,,,,,,,,,,,,,ppbb,2022_May_19_1058,training+cueing,2021.1.4,59.636479882248175,
Friend.png,Stranger,Friend,m,3.2,19,29,99,,,,,0,0,0,0,0,11,11,5,,,,,,,,,,,,,,,,,,,,,,,,,1.523,2.293,197.75010559998918,None,198.29621569998562,198.80086930003017,198.78421300003538,198.90099470003042,198.78421300003538,198.90099470003042,198.88445080001839,None,m,1,198.88445080001839,None,199.91840359999333,None,1.0081446000258438,,,,,,,,,,,,,,,,,,,,,,,,,,ppbb,2022_May_19_1058,training+cueing,2021.1.4,59.636479882248175,
Self.png,You,Self ,c,1,11,21,91,,,,,0,0,0,0,,,,,0,0,0,0,,,,,,,,,,,,,,,,,,,235.3441717000096,None,1.485,1.507,238.86820179998176,None,,,,,,,,,,,,,,,,200.31870340002934,None,0.01427943998714909,0.512713439995423,239.4836048000143,239.99737510003615,0.5075202200678177,1.0077141200308688,239.98076310002944,240.0807295999839,239.98076310002944,240.0807295999839,240.0807295999839,None,c,1,0.883878700027708,240.0807295999839,None,,,,,,,ppbb,2022_May_19_1058,training+cueing,2021.1.4,59.636479882248175,
Self.png,You,Self ,c,1,11,21,91,,,,,0,0,0,0,,,,,0,1,1,9,,,,,,,,,,,,,,,,,,,,,1.705,1.698,241.08857150003314,None,,,,,,,,,,,,,,,,,,,,241.62806309998268,242.13222800003132,0.5069094200152904,1.0072006200207397,242.11557610001182,242.21561850002035,242.11557610001182,242.21561850002035,242.21561850002035,None,c,1,0.780990400002338,242.21561850002035,None,,,,,,,ppbb,2022_May_19_1058,training+cueing,2021.1.4,59.636479882248175,
Stranger.png,Stranger,Stranger,c,3,13,23,93,,,,,0,0,0,0,,,,,0,2,2,8,,,,,,,,,,,,,,,,,,,,,1.516,1.675,243.1227245000191,None,,,,,,,,,,,,,,,,,,,,243.66530839999905,244.16708929999731,0.5038071200251579,1.0040784200537018,244.15036259999033,244.26711650000652,244.15036259999033,244.26711650000652,244.25039160001324,None,c,1,0.9220794000430033,244.25039160001324,None,,,,,,,ppbb,2022_May_19_1058,training+cueing,2021.1.4,59.636479882248175,
Friend.png,Friend,Friend,c,2,12,22,92,,,,,0,0,0,0,,,,,0,3,3,4,,,,,,,,,,,,,,,,,,,,,1.746,1.923,245.30737140000565,None,,,,,,,,,,,,,,,,,,,,245.84841139998753,246.3519467000151,0.5050903200171888,1.005398619978223,246.33528840000508,246.45203580003,246.33528840000508,246.45203580003,246.43533670000033,None,c,1,0.6735310999793,246.43533670000033,None,,,,,,,ppbb,2022_May_19_1058,training+cueing,2021.1.4,59.636479882248175,
Stranger.png,Friend,Stranger,m,2.3,17,27,97,,,,,0,0,0,0,,,,,0,4,4,7,,,,,,,,,,,,,,,,,,,,,1.684,1.427,247.24233700003242,None,,,,,,,,,,,,,,,,,,,,247.78065590001643,248.2867265000241,0.5110248200362548,1.0113289200235158,248.27001159999054,248.38675200002035,248.27001159999054,248.38675200002035,248.37005040002987,None,m,1,0.5784818999818526,248.37005040002987,None,,,,,,,ppbb,2022_May_19_1058,training+cueing,2021.1.4,59.636479882248175,
Self.png,Stranger,Self ,m,3.1,18,28,98,,,,,0,0,0,0,,,,,0,5,5,2,,,,,,,,,,,,,,,,,,,,,1.658,1.405,249.0769381999853,None,,,,,,,,,,,,,,,,,,,,249.61967690003803,250.12142290000338,0.5050281200092286,1.0053272200166248,250.10469910001848,250.22142880002502,250.10469910001848,250.22142880002502,250.20475050003733,None,m,1,0.9838718000100926,250.20475050003733,None,,,,,,,ppbb,2022_May_19_1058,training+cueing,2021.1.4,59.636479882248175,
Friend.png,Friend,Friend,c,2,12,22,92,,,,,0,0,0,0,,,,,0,6,6,10,,,,,,,,,,,,,,,,,,,,,1.648,1.21,251.3112526999903,None,,,,,,,,,,,,,,,,,,,,251.8726142999949,252.37297760002548,0.4998953600297682,1.0002112600486726,252.35630839999067,252.47304180002538,252.35630839999067,252.47304180002538,252.47304180002538,None,c,1,0.7314097000053152,252.47304180002538,None,,,,,,,ppbb,2022_May_19_1058,training+cueing,2021.1.4,59.636479882248175,
Self.png,Friend,Self ,m,2.1,16,26,96,,,,,0,0,0,0,,,,,0,7,7,1,,,,,,,,,,,,,,,,,,,,,1.481,2.303,253.32966430002125,None,,,,,,,,,,,,,,,,,,,,253.86820050003007,254.37443409999833,0.513429919956252,1.0137266199453734,254.35774780000793,254.47448330000043,254.35774780000793,254.47448330000043,254.45780400000513,None,m,1,0.826705600018613,254.45780400000513,None,,,,,,,ppbb,2022_May_19_1058,training+cueing,2021.1.4,59.636479882248175,
Friend.png,You,Friend,m,1.2,14,24,94,,,,,0,0,0,0,,,,,0,8,8,3,,,,,,,,,,,,,,,,,,,,,1.669,2.384,255.41420850000577,None,,,,,,,,,,,,,,,,,,,,255.9551026999834,256.4593220000388,0.5063601200818084,1.0064765200950205,256.4427979000029,256.5426885000197,256.4427979000029,256.5426885000197,256.5426885000197,None,m,1,0.7258095999713987,256.5426885000197,None,,,,,,,ppbb,2022_May_19_1058,training+cueing,2021.1.4,59.636479882248175,
Stranger.png,You,Stranger,m,1.3,15,25,95,,,,,0,0,0,0,,,,,0,9,9,6,,,,,,,,,,,,,,,,,,,,,1.556,2.386,257.39931830001296,None,,,,,,,,,,,,,,,,,,,,257.9382391999825,258.4440530000138,0.5107923200703226,1.011141020047944,258.42734200000996,258.52742200001376,258.42734200000996,258.52742200001376,258.52742200001376,None,m,1,0.6931021999916993,258.52742200001376,None,,,,,,,ppbb,2022_May_19_1058,training+cueing,2021.1.4,59.636479882248175,
Stranger.png,Stranger,Stranger,c,3,13,23,93,,,,,0,0,0,0,,,,,0,10,10,11,,,,,,,,,,,,,,,,,,,,,1.726,2.418,259.3503909999854,None,,,,,,,,,,,,,,,,,,,,259.8939903000137,260.3954877000069,0.50351861998206,1.0038017199840397,260.37879670003895,260.4955183999846,260.37879670003895,260.4955183999846,260.47887180000544,None,c,1,0.8699500000220723,260.47887180000544,None,,,,,,,ppbb,2022_May_19_1058,training+cueing,2021.1.4,59.636479882248175,
Friend.png,Stranger,Friend,m,3.2,19,29,99,,,,,0,0,0,0,,,,,0,11,11,5,,,,,,,,,,,,,,,,,,,,,1.601,1.637,261.4899294000352,None,,,,,,,,,,,,,,,,,,,,262.0254466999904,262.5303334000055,0.5065050200209953,1.0069074200000614,262.51371600001585,262.6309372999822,262.51371600001585,262.6309372999822,262.61418299999787,None,m,1,0.6863894000416622,262.61418299999787,None,,,,,,,ppbb,2022_May_19_1058,training+cueing,2021.1.4,59.636479882248175,
Friend.png,Friend,Friend,c,2,12,22,92,,,,,0,0,0,0,,,,,1,0,12,10,,,,,,,,,,,,,,,,,,,,,1.581,1.443,263.438495600014,None,,,,,,,,,,,,,,,,,,,,263.9808476000326,264.481746800011,0.5024414200452156,1.0027343200636096,264.4650996000273,264.5818089999957,264.4650996000273,264.5818089999957,264.5651563000283,None,c,1,0.68732829997316,264.5651563000283,None,,,,,,,ppbb,2022_May_19_1058,training+cueing,2021.1.4,59.636479882248175,
Self.png,Stranger,Self ,m,3.1,18,28,98,,,,,0,0,0,0,,,,,1,1,13,2,,,,,,,,,,,,,,,,,,,,,1.766,1.912,265.38859129999764,None,,,,,,,,,,,,,,,,,,,,265.930545900017,266.43319030001294,0.5051945199957117,1.0054730200208724,266.4165126000298,266.5332321000169,266.4165126000298,266.5332321000169,266.51655240001855,None,m,1,0.671940500033088,266.51655240001855,None,,,,,,,ppbb,2022_May_19_1058,training+cueing,2021.1.4,59.636479882248175,
Stranger.png,Stranger,Stranger,c,3,13,23,93,,,,,0,0,0,0,,,,,1,2,14,8,,,,,,,,,,,,,,,,,,,,,1.587,1.492,267.3233535999898,None,,,,,,,,,,,,,,,,,,,,267.86194020003313,268.36793220002437,0.5105544200050645,1.0108201200491749,268.3512488999986,268.46799030003604,268.3512488999986,268.46799030003604,268.4512712000287,None,c,1,0.7211676000151783,268.4512712000287,None,,,,,,,ppbb,2022_May_19_1058,training+cueing,2021.1.4,59.636479882248175,
Friend.png,Friend,Friend,c,2,12,22,92,,,,,0,0,0,0,,,,,1,3,15,4,,,,,,,,,,,,,,,,,,,,,1.7,1.201,269.30803040001774,None,,,,,,,,,,,,,,,,,,,,269.85000540001784,270.35268579999683,0.5055100200115703,1.0060154200182296,270.33603589999257,270.45272440003464,270.33603589999257,270.45272440003464,270.43606470001396,None,c,1,0.7205177000141703,270.43606470001396,None,,,,,,,ppbb,2022_May_19_1058,training+cueing,2021.1.4,59.636479882248175,
Friend.png,Stranger,Friend,m,3.2,19,29,99,,,,,0,0,0,0,,,,,1,4,16,5,,,,,,,,,,,,,,,,,,,,,1.779,1.216,271.29262790002394,None,,,,,,,,,,,,,,,,,,,,271.83361269999295,272.3374949999852,0.5048502200515941,1.0051353200688027,272.32076700002654,272.4375129999826,272.32076700002654,272.4375129999826,272.4208260999876,None,m,1,0.5757200999651104,272.4208260999876,None,,,,,,,ppbb,2022_May_19_1058,training+cueing,2021.1.4,59.636479882248175,
Self.png,Friend,Self ,m,2.1,16,26,96,,,,,0,0,0,0,,,,,1,5,17,1,,,,,,,,,,,,,,,,,,,,,1.625,2.027,273.1276023000246,None,,,,,,,,,,,,,,,,,,,,273.67873009998584,274.1887633000151,0.5032657200354151,1.0036671200068668,274.1721205000067,274.28884370002197,274.1721205000067,274.28884370002197,274.27216990001034,None,m,1,0.7885671000112779,274.27216990001034,None,,,,,,,ppbb,2022_May_19_1058,training+cueing,2021.1.4,59.636479882248175,
Self.png,You,Self ,c,1,11,21,91,,,,,0,0,0,0,,,,,1,6,18,9,,,,,,,,,,,,,,,,,,,,,1.698,2.49,275.1994562000036,None,,,,,,,,,,,,,,,,,,,,275.73944640002446,276.24026480002794,0.5025188199942932,1.0028435200219974,276.22357249999186,276.32366669998737,276.22357249999186,276.32366669998737,276.32366669998737,None,c,1,0.5448943999945186,276.32366669998737,None,,,,,,,ppbb,2022_May_19_1058,training+cueing,2021.1.4,59.636479882248175,
Stranger.png,Friend,Stranger,m,2.3,17,27,97,,,,,0,0,0,0,,,,,1,7,19,7,,,,,,,,,,,,,,,,,,,,,1.485,1.868,276.99692360003246,None,,,,,,,,,,,,,,,,,,,,277.55055500002345,278.05823269998655,0.5133250600192696,1.0135972599964589,278.041580900026,278.1583371000015,278.041580900026,278.1583371000015,278.1416154000326,None,m,1,0.870879199996125,278.1416154000326,None,,,,,,,ppbb,2022_May_19_1058,training+cueing,2021.1.4,59.636479882248175,
Self.png,You,Self ,c,1,11,21,91,,,,,0,0,0,0,,,,,1,8,20,0,,,,,,,,,,,,,,,,,,,,,1.722,1.484,279.1487989000161,None,,,,,,,,,,,,,,,,,,,,279.689547099988,280.1931508000125,0.5071837200084701,1.007455220038537,280.17649490002077,280.2765269000083,280.17649490002077,280.2765269000083,280.2765269000083,None,c,1,0.687940800038632,280.2765269000083,None,,,,,,,ppbb,2022_May_19_1058,training+cueing,2021.1.4,59.636479882248175,
Friend.png,You,Friend,m,1.2,14,24,94,,,,,0,0,0,0,,,,,1,9,21,3,,,,,,,,,,,,,,,,,,,,,1.564,1.24,281.1006609000033,None,,,,,,,,,,,,,,,,,,,,281.6598975000088,282.1612357000122,0.502898560022004,1.0032335600699298,282.1445444999845,282.24459170002956,282.1445444999845,282.24459170002956,282.24459170002956,None,m,1,0.7198643999872729,282.24459170002956,None,,,,,,,ppbb,2022_May_19_1058,training+cueing,2021.1.4,59.636479882248175,
Stranger.png,You,Stranger,m,1.3,15,25,95,,,,,0,0,0,0,,,,,1,10,22,6,,,,,,,,,,,,,,,,,,,,,1.587,1.409,283.1015962000238,None,,,,,,,,,,,,,,,,,,,,283.6370928999968,284.14613569999347,0.5152967200265266,1.0155845200060867,284.1294982000254,284.2295443000039,284.1294982000254,284.2295443000039,284.2295443000039,None,m,1,0.7510100000072271,284.2295443000039,None,,,,,,,ppbb,2022_May_19_1058,training+cueing,2021.1.4,59.636479882248175,
Stranger.png,Stranger,Stranger,c,3,13,23,93,,,,,0,0,0,0,,,,,1,11,23,11,,,,,,,,,,,,,,,,,,,,,1.442,2.396,285.1039061000338,None,,,,,,,,,,,,,,,,,,,,285.64512509998167,286.14747440000065,0.5054723200737499,1.0059317200211808,286.13076949998504,286.24751399998786,286.13076949998504,286.24751399998786,286.230848599982,None,c,1,0.7496083999867551,286.230848599982,None,,,,,,,ppbb,2022_May_19_1058,training+cueing,2021.1.4,59.636479882248175,
Self.png,You,Self ,c,1,11,21,91,,,,,0,0,0,0,,,,,2,0,24,0,,,,,,,,,,,,,,,,,,,,,1.678,1.98,287.10452069999883,None,,,,,,,,,,,,,,,,,,,,287.6429799000034,288.1488843000261,0.5095823199953884,1.0098945200443268,288.1322372999857,288.23230820003664,288.1322372999857,288.23230820003664,288.23230820003664,None,c,1,0.6201471999520436,288.23230820003664,None,,,,,,,ppbb,2022_May_19_1058,training+cueing,2021.1.4,59.636479882248175,
Stranger.png,Stranger,Stranger,c,3,13,23,93,,,,,0,0,0,0,,,,,2,1,25,8,,,,,,,,,,,,,,,,,,,,,1.796,1.787,288.9890088000102,None,,,,,,,,,,,,,,,,,,,,289.5304921999923,290.0336081000278,0.5055992199922912,1.0060731199919246,290.01695469999686,290.1341369000147,290.01695469999686,290.1341369000147,290.116975300014,None,c,1,0.831500899977982,290.116975300014,None,,,,,,,ppbb,2022_May_19_1058,training+cueing,2021.1.4,59.636479882248175,
Friend.png,You,Friend,m,1.2,14,24,94,,,,,0,0,0,0,,,,,2,2,26,3,,,,,,,,,,,,,,,,,,,,,1.688,2.09,291.07478450000053,None,,,,,,,,,,,,,,,,,,,,291.6143044999917,292.11854769999627,0.5074439200107008,1.0077411200036295,292.1018805000349,292.2019536999869,292.1018805000349,292.2019536999869,292.2019536999869,None,m,1,0.7946368000120856,292.2019536999869,None,,,,,,,ppbb,2022_May_19_1058,training+cueing,2021.1.4,59.636479882248175,
Stranger.png,You,Stranger,m,1.3,15,25,95,,,,,0,0,0,0,,,,,2,3,27,6,,,,,,,,,,,,,,,,,,,,,1.52,2.202,293.12505319999764,None,,,,,,,,,,,,,,,,,,,,293.6631434999872,294.16994610003894,0.5108995200134814,1.0112442200188525,294.15324610000243,294.2533264000085,294.15324610000243,294.2533264000085,294.2533264000085,None,m,1,0.8231739000184461,294.2533264000085,None,,,,,,,ppbb,2022_May_19_1058,training+cueing,2021.1.4,59.636479882248175,
Friend.png,Friend,Friend,c,2,12,22,92,,,,,0,0,0,0,,,,,2,4,28,10,,,,,,,,,,,,,,,,,,,,,1.692,1.908,295.2116267000092,None,,,,,,,,,,,,,,,,,,,,295.75311859999783,296.2547789000091,0.5035644200397655,1.00382471998455,296.2381270999904,296.3548149000271,296.2381270999904,296.3548149000271,296.33825380000053,None,c,1,0.770123899972532,296.33825380000053,None,,,,,,,ppbb,2022_May_19_1058,training+cueing,2021.1.4,59.636479882248175,
Stranger.png,Friend,Stranger,m,2.3,17,27,97,,,,,0,0,0,0,,,,,2,5,29,7,,,,,,,,,,,,,,,,,,,,,1.412,1.819,297.2450359000359,None,,,,,,,,,,,,,,,,,,,,297.78329870000016,298.2895972999977,0.51310432003811,1.0136573200579733,298.27291900001,298.3901571999886,298.27291900001,298.3901571999886,298.3731004000292,None,m,1,0.7678102999925613,298.3731004000292,None,,,,,,,ppbb,2022_May_19_1058,training+cueing,2021.1.4,59.636479882248175,
Self.png,Stranger,Self ,m,3.1,18,28,98,,,,,0,0,0,0,,,,,2,6,30,2,,,,,,,,,,,,,,,,,,,,,1.789,2.132,299.26407610002207,None,,,,,,,,,,,,,,,,,,,,299.8064950000262,300.30770440003835,0.5005207200301811,1.0008036200306378,300.29106489999685,300.40776109998114,300.29106489999685,300.40776109998114,300.40776109998114,None,m,1,0.796680599974934,300.40776109998114,None,,,,,,,ppbb,2022_May_19_1058,training+cueing,2021.1.4,59.636479882248175,
Self.png,Friend,Self ,m,2.1,16,26,96,,,,,0,0,0,0,,,,,2,7,31,1,,,,,,,,,,,,,,,,,,,,,1.577,2.415,301.33120499999495,None,,,,,,,,,,,,,,,,,,,,301.8724785000086,302.37587440002244,0.5062066200189292,1.0065405200002715,302.35918010002933,302.4759385000216,302.35918010002933,302.4759385000216,302.4592560000019,None,m,1,0.7131708000088111,302.4592560000019,None,,,,,,,ppbb,2022_May_19_1058,training+cueing,2021.1.4,59.636479882248175,
Stranger.png,Stranger,Stranger,c,3,13,23,93,,,,,0,0,0,0,,,,,2,8,32,11,,,,,,,,,,,,,,,,,,,,,1.693,1.879,303.2990363999852,None,,,,,,,,,,,,,,,,,,,,303.83991610002704,304.34395449998556,0.5050209200126119,1.0055563200148754,304.3273033000296,304.44456340000033,304.3273033000296,304.44456340000033,304.42733480001334,None,c,1,0.6811387999914587,304.42733480001334,None,,,,,,,ppbb,2022_May_19_1058,training+cueing,2021.1.4,59.636479882248175,
Self.png,You,Self ,c,1,11,21,91,,,,,0,0,0,0,,,,,2,9,33,9,,,,,,,,,,,,,,,,,,,,,1.783,2.37,305.23494560003746,None,,,,,,,,,,,,,,,,,,,,305.7819550000131,306.29539809998823,0.5093466200050898,1.0096751200035214,306.27867189998506,306.3787439999869,306.27867189998506,306.3787439999869,306.3787439999869,None,c,1,0.7297022000420839,306.3787439999869,None,,,,,,,ppbb,2022_May_19_1058,training+cueing,2021.1.4,59.636479882248175,
Friend.png,Stranger,Friend,m,3.2,19,29,99,,,,,0,0,0,0,,,,,2,10,34,5,,,,,,,,,,,,,,,,,,,,,1.632,1.81,307.2354180000257,None,,,,,,,,,,,,,,,,,,,,307.77852470002836,308.2801589000155,0.50458772003185,1.005483120039571,308.26346709998325,308.38022039999487,308.26346709998325,308.38022039999487,308.36351160000777,None,m,1,0.617415799992159,308.36351160000777,None,,,,,,,ppbb,2022_May_19_1058,training+cueing,2021.1.4,59.636479882248175,
Friend.png,Friend,Friend,c,2,12,22,92,,,,,0,0,0,0,,,,,2,11,35,4,,,,,,,,,,,,,,,,,,,,,1.581,1.851,309.10665510001127,None,,,,,,,,,,,,,,,,,,,,309.6445548000047,310.148333500023,0.5042244200012647,1.0045493200304918,310.1316661000019,310.24838770000497,310.1316661000019,310.24838770000497,310.2317605999997,None,c,1,0.5726577000459656,310.2317605999997,None,,,,,,,ppbb,2022_May_19_1058,training+cueing,2021.1.4,59.636479882248175,
Self.png,Stranger,Self ,m,3.1,18,28,98,,,,,0,0,0,0,,,,,3,0,36,2,,,,,,,,,,,,,,,,,,,,,1.486,1.947,310.9383181000012,None,,,,,,,,,,,,,,,,,,,,311.4847043000045,311.9996052000206,0.5119562200270593,1.0122189200483263,311.98287170002004,312.0995845000143,311.98287170002004,312.0995845000143,312.0828119000071,None,m,1,0.7856040000333451,312.0828119000071,None,,,,,,,ppbb,2022_May_19_1058,training+cueing,2021.1.4,59.636479882248175,
Self.png,You,Self ,c,1,11,21,91,,,,,0,0,0,0,,,,,3,1,37,9,,,,,,,,,,,,,,,,,,,,,1.743,1.584,313.006402500032,None,,,,,,,,,,,,,,,,,,,,313.546914800012,314.05153380002594,0.5088707199902274,1.0086274200002663,314.0348496999941,314.1344288000255,314.0348496999941,314.1344288000255,314.1344288000255,None,c,1,0.6700674999738112,314.1344288000255,None,,,,,,,ppbb,2022_May_19_1058,training+cueing,2021.1.4,59.636479882248175,
Stranger.png,Stranger,Stranger,c,3,13,23,93,,,,,0,0,0,0,,,,,3,2,38,8,,,,,,,,,,,,,,,,,,,,,1.66,1.495,314.9416055000038,None,,,,,,,,,,,,,,,,,,,,315.481938300014,315.9857326000347,0.5049884199979715,1.0052504200139083,315.96909680002136,316.0857624000055,315.96909680002136,316.0857624000055,316.0691320000333,None,m,0,1.1518375999876298,316.0691320000333,None,,,,,,,ppbb,2022_May_19_1058,training+cueing,2021.1.4,59.636479882248175,
Friend.png,You,Friend,m,1.2,14,24,94,,,,,0,0,0,0,,,,,3,3,39,3,,,,,,,,,,,,,,,,,,,,,1.798,2.495,317.35415690002264,None,,,,,,,,,,,,,,,,,,,,317.8859276000294,318.38751259999117,0.5027520199655555,1.0031073199934326,318.37073790002614,318.4708425999852,318.37073790002614,318.4708425999852,318.4708425999852,None,m,1,0.6376465000212193,318.4708425999852,None,,,,,,,ppbb,2022_May_19_1058,training+cueing,2021.1.4,59.636479882248175,
Friend.png,Friend,Friend,c,2,12,22,92,,,,,0,0,0,0,,,,,3,4,40,4,,,,,,,,,,,,,,,,,,,,,1.626,1.465,319.2438806000282,None,,,,,,,,,,,,,,,,,,,,319.7833004000131,320.28897850000067,0.5079277200275101,1.00932382006431,320.27165190002415,320.3890603000182,320.27165190002415,320.3890603000182,320.3723333000089,None,c,1,0.768182199972216,320.3723333000089,None,,,,,,,ppbb,2022_May_19_1058,training+cueing,2021.1.4,59.636479882248175,
Stranger.png,Stranger,Stranger,c,3,13,23,93,,,,,0,0,0,0,,,,,3,5,41,11,,,,,,,,,,,,,,,,,,,,,1.786,2.341,321.2635145999957,None,,,,,,,,,,,,,,,,,,,,321.8037432000274,322.3069719999912,0.5055012200027704,1.00580262002768,322.29030530003365,322.40702789998613,322.29030530003365,322.40702789998613,322.390347699984,None,c,1,0.8301268999930471,322.390347699984,None,,,,,,,ppbb,2022_May_19_1058,training+cueing,2021.1.4,59.636479882248175,
Friend.png,Friend,Friend,c,2,12,22,92,,,,,0,0,0,0,,,,,3,6,42,10,,,,,,,,,,,,,,,,,,,,,1.544,1.584,323.3475083000376,None,,,,,,,,,,,,,,,,,,,,323.888144800032,324.39198190002935,0.5078941200044937,1.0082024200237356,324.3751295999973,324.4919309000252,324.3751295999973,324.4919309000252,324.475179400004,None,c,1,0.7133185000275262,324.475179400004,None,,,,,,,ppbb,2022_May_19_1058,training+cueing,2021.1.4,59.636479882248175,
Stranger.png,You,Stranger,m,1.3,15,25,95,,,,,0,0,0,0,,,,,3,7,43,6,,,,,,,,,,,,,,,,,,,,,1.7,1.548,325.31507579999743,None,,,,,,,,,,,,,,,,,,,,325.8550038000103,326.3599845999852,0.5069720200262964,1.007196919992566,326.34330230002524,326.44329690001905,326.34330230002524,326.44329690001905,326.44329690001905,None,m,1,0.7931449000025168,326.44329690001905,None,,,,,,,ppbb,2022_May_19_1058,training+cueing,2021.1.4,59.636479882248175,
Friend.png,Stranger,Friend,m,3.2,19,29,99,,,,,0,0,0,0,,,,,3,8,44,5,,,,,,,,,,,,,,,,,,,,,1.439,1.775,327.3664638000191,None,,,,,,,,,,,,,,,,,,,,327.90918560000136,328.4113955000066,0.5050356200081296,1.005929320002906,328.394690599991,328.51221800001804,328.394690599991,328.51221800001804,328.4953106000321,None,m,1,0.6454129000194371,328.4953106000321,None,,,,,,,ppbb,2022_May_19_1058,training+cueing,2021.1.4,59.636479882248175,
Stranger.png,Friend,Stranger,m,2.3,17,27,97,,,,,0,0,0,0,,,,,3,9,45,7,,,,,,,,,,,,,,,,,,,,,1.568,2.376,329.2713674000115,None,,,,,,,,,,,,,,,,,,,,329.8121092999936,330.3127771000145,0.5019379199948162,1.0028587199631147,330.2960968000116,330.4128076999914,330.2960968000116,330.4128076999914,330.39613210002426,None,m,1,0.8244135999702848,330.39613210002426,None,,,,,,,ppbb,2022_May_19_1058,training+cueing,2021.1.4,59.636479882248175,
Self.png,Friend,Self ,m,2.1,16,26,96,,,,,0,0,0,0,,,,,3,10,46,1,,,,,,,,,,,,,,,,,,,,,1.792,2.14,331.3541314000031,None,,,,,,,,,,,,,,,,,,,,331.89103390002856,332.3976108999923,0.5106829199939966,1.01098511996679,332.38092730002245,332.49775620002765,332.38092730002245,332.49775620002765,332.4811604000279,None,m,1,0.7234968999982812,332.4811604000279,None,,,,,,,ppbb,2022_May_19_1058,training+cueing,2021.1.4,59.636479882248175,
Self.png,You,Self ,c,1,11,21,91,,,,,0,0,0,0,,,,,3,11,47,0,,,,,,,,,,,,,,,,,,,,,1.709,1.786,333.3409582999884,None,,,,,,,,,,,,,,,,,,,,333.88007200002903,334.3824032000266,0.5050756199634634,1.005366219964344,334.3657386000268,334.46577970002545,334.3657386000268,334.46577970002545,334.46577970002545,None,c,1,0.8346376999979839,334.46577970002545,None,,,,,,,ppbb,2022_May_19_1058,training+cueing,2021.1.4,59.636479882248175,
Friend.png,You,Friend,m,1.2,14,24,94,,,,,0,0,0,0,,,,,4,0,48,3,,,,,,,,,,,,,,,,,,,,,1.508,1.774,335.42224590003025,None,,,,,,,,,,,,,,,,,,,,335.96065560000716,336.4672651999863,0.5105528200510889,1.0107822200516239,336.4505686000339,336.55061059998116,336.4505686000339,336.55061059998116,336.55061059998116,None,m,1,0.8780225999653339,336.55061059998116,None,,,,,,,ppbb,2022_May_19_1058,training+cueing,2021.1.4,59.636479882248175,
Friend.png,Friend,Friend,c,2,12,22,92,,,,,0,0,0,0,,,,,4,1,49,4,,,,,,,,,,,,,,,,,,,,,1.503,2.475,337.56142410001485,None,,,,,,,,,,,,,,,,,,,,338.11357709998265,338.6188175000134,0.5100475599756464,1.0103692599805072,338.60209390003,338.7188273000065,338.60209390003,338.7188273000065,338.7021721000201,None,c,1,0.7586944000213407,338.7021721000201,None,,,,,,,ppbb,2022_May_19_1058,training+cueing,2021.1.4,59.636479882248175,
Friend.png,Stranger,Friend,m,3.2,19,29,99,,,,,0,0,0,0,,,,,4,2,50,5,,,,,,,,,,,,,,,,,,,,,1.633,1.986,339.5958069000044,None,,,,,,,,,,,,,,,,,,,,340.1362129999907,340.6369361000252,0.5014571200008504,1.0016887200181372,340.620272500033,340.7369744000025,340.620272500033,340.7369744000025,340.7369744000025,None,m,1,0.7874301000265405,340.7369744000025,None,,,,,,,ppbb,2022_May_19_1058,training+cueing,2021.1.4,59.636479882248175,
Self.png,You,Self ,c,1,11,21,91,,,,,0,0,0,0,,,,,4,3,51,9,,,,,,,,,,,,,,,,,,,,,1.661,1.686,341.6604861000087,None,,,,,,,,,,,,,,,,,,,,342.20051300001796,342.71727640001336,0.5243981200037524,1.02408252004534,342.7056232999894,342.8051157000009,342.7056232999894,342.8051157000009,342.78845980000915,None,c,1,0.6398982999962755,342.78845980000915,None,,,,,,,ppbb,2022_May_19_1058,training+cueing,2021.1.4,59.636479882248175,
Friend.png,Friend,Friend,c,2,12,22,92,,,,,0,0,0,0,,,,,4,4,52,10,,,,,,,,,,,,,,,,,,,,,1.426,1.484,343.56202280003345,None,,,,,,,,,,,,,,,,,,,,344.13172830000985,344.6399369999999,0.4999041000264697,1.0002391000161879,344.6066097000148,344.7066678000265,344.6066097000148,344.7066678000265,344.7066678000265,None,c,1,0.7538308000075631,344.7066678000265,None,,,,,,,ppbb,2022_May_19_1058,training+cueing,2021.1.4,59.636479882248175,
Self.png,Friend,Self ,m,2.1,16,26,96,,,,,0,0,0,0,,,,,4,5,53,1,,,,,,,,,,,,,,,,,,,,,1.412,1.836,345.59809310000855,None,,,,,,,,,,,,,,,,,,,,346.13680430001114,346.6412873000372,0.508842220006045,1.0091675200383179,346.624599999981,346.7460929999943,346.624599999981,346.7460929999943,346.72464339999715,None,m,1,0.671694899967406,346.72464339999715,None,,,,,,,ppbb,2022_May_19_1058,training+cueing,2021.1.4,59.636479882248175,
Self.png,Stranger,Self ,m,3.1,18,28,98,,,,,0,0,0,0,,,,,4,6,54,2,,,,,,,,,,,,,,,,,,,,,1.654,1.975,347.5315932999947,None,,,,,,,,,,,,,,,,,,,,348.07004429999506,348.5760154000018,0.5096019200282171,1.009843020059634,348.55937939998694,348.67607789998874,348.55937939998694,348.67607789998874,348.65940220002085,None,m,1,0.7210620000259951,348.65940220002085,None,,,,,,,ppbb,2022_May_19_1058,training+cueing,2021.1.4,59.636479882248175,
Stranger.png,Stranger,Stranger,c,3,13,23,93,,,,,0,0,0,0,,,,,4,7,55,8,,,,,,,,,,,,,,,,,,,,,1.687,2.083,349.516206100001,None,,,,,,,,,,,,,,,,,,,,350.0549636000069,350.56081300001824,0.51150541997049,1.0119229200063273,350.54413570003817,350.6608836000087,350.54413570003817,350.6608836000087,350.6441219000262,None,c,1,0.7843794000218622,350.6441219000262,None,,,,,,,ppbb,2022_May_19_1058,training+cueing,2021.1.4,59.636479882248175,
Stranger.png,Stranger,Stranger,c,3,13,23,93,,,,,0,0,0,0,,,,,4,8,56,11,,,,,,,,,,,,,,,,,,,,,1.743,1.377,351.5519302000175,None,,,,,,,,,,,,,,,,,,,,352.08882320002886,352.59556350001367,0.5111587200080976,1.011498420033604,352.5788895000005,352.69562339998083,352.5788895000005,352.69562339998083,352.6789613000001,None,c,1,0.6694160000188276,352.6789613000001,None,,,,,,,ppbb,2022_May_19_1058,training+cueing,2021.1.4,59.636479882248175,
Stranger.png,Friend,Stranger,m,2.3,17,27,97,,,,,0,0,0,0,,,,,4,9,57,7,,,,,,,,,,,,,,,,,,,,,1.715,1.695,353.4863017000025,None,,,,,,,,,,,,,,,,,,,,354.0278131000232,354.53033450001385,0.5063296200241894,1.0071850200765766,354.5136338000302,354.63042850000784,354.5136338000302,354.63042850000784,354.6138799000182,None,m,1,0.6706806999864057,354.6138799000182,None,,,,,,,ppbb,2022_May_19_1058,training+cueing,2021.1.4,59.636479882248175,
Stranger.png,You,Stranger,m,1.3,15,25,95,,,,,0,0,0,0,,,,,4,10,58,6,,,,,,,,,,,,,,,,,,,,,1.739,2.059,355.42397649999475,None,,,,,,,,,,,,,,,,,,,,355.9606288000359,356.4650451000198,0.5083275199867785,1.0086133200093172,356.44839169998886,356.548445500026,356.44839169998886,356.548445500026,356.548445500026,None,m,1,0.7680459999828599,356.548445500026,None,,,,,,,ppbb,2022_May_19_1058,training+cueing,2021.1.4,59.636479882248175,
Self.png,You,Self ,c,1,11,21,91,,,,,0,0,0,0,,,,,4,11,59,0,,,,,,,,,,,,,,,,,,,,,1.473,2.422,357.4401666999911,None,,,,,,,,,,,,,,,,,,,,357.97759550000774,358.48322609998286,0.5085594200063497,1.0087817200110294,358.4665490000043,358.5665497999871,358.4665490000043,358.5665497999871,358.5665497999871,None,m,0,0.6378078000270762,358.5665497999871,None,,,,,,,ppbb,2022_May_19_1058,training+cueing,2021.1.4,59.636479882248175,
Friend.png,You,Friend,m,1.2,14,24,94,,,,,0,0,0,0,,,,,5,0,60,3,,,,,,,,,,,,,,,,,,,,,1.441,1.617,359.34010470000794,None,,,,,,,,,,,,,,,,,,,,359.8782224000315,360.38458780001383,0.5118766200030223,1.0121775199659169,360.3678695000126,360.467929400038,360.3678695000126,360.467929400038,360.467929400038,None,m,1,0.6084865999873728,360.467929400038,None,,,,,,,ppbb,2022_May_19_1058,training+cueing,2021.1.4,59.636479882248175,
Stranger.png,Stranger,Stranger,c,3,13,23,93,,,,,0,0,0,0,,,,,5,1,61,11,,,,,,,,,,,,,,,,,,,,,1.556,2.381,361.2085919000092,None,,,,,,,,,,,,,,,,,,,,361.7509227999835,362.2526939000236,0.5050667200121097,1.0053373199771158,362.2359300000244,362.3526777999941,362.2359300000244,362.3526777999941,362.3359380000038,None,c,1,0.7403710000216961,362.3359380000038,None,,,,,,,ppbb,2022_May_19_1058,training+cueing,2021.1.4,59.636479882248175,
Friend.png,Friend,Friend,c,2,12,22,92,,,,,0,0,0,0,,,,,5,2,62,4,,,,,,,,,,,,,,,,,,,,,1.562,2.245,363.20942100003595,None,,,,,,,,,,,,,,,,,,,,363.74855150002986,364.2540444000042,0.5078533199848607,1.008176019997336,364.237332299992,364.3541164000053,364.237332299992,364.3541164000053,364.3373833000078,None,c,1,0.8030473000253551,364.3373833000078,None,,,,,,,ppbb,2022_May_19_1058,training+cueing,2021.1.4,59.636479882248175,
Stranger.png,Friend,Stranger,m,2.3,17,27,97,,,,,0,0,0,0,,,,,5,3,63,7,,,,,,,,,,,,,,,,,,,,,1.549,2.469,365.27764380001463,None,,,,,,,,,,,,,,,,,,,,365.81613890000153,366.3222501000273,0.5113375199725851,1.0116043199668638,366.30555689998437,366.4222587000113,366.30555689998437,366.4222587000113,366.40557850000914,None,m,1,0.7027891000034288,366.40557850000914,None,,,,,,,ppbb,2022_May_19_1058,training+cueing,2021.1.4,59.636479882248175,
Stranger.png,Stranger,Stranger,c,3,13,23,93,,,,,0,0,0,0,,,,,5,4,64,8,,,,,,,,,,,,,,,,,,,,,1.404,2.429,367.24617360002594,None,,,,,,,,,,,,,,,,,,,,367.8012734000222,368.3069476999808,0.5094403600087389,1.0097762600053102,368.29027110000607,368.4069995000027,368.29027110000607,368.4069995000027,368.3903473999817,None,c,1,0.6380102999974042,368.3903473999817,None,,,,,,,ppbb,2022_May_19_1058,training+cueing,2021.1.4,59.636479882248175,
Self.png,Friend,Self ,m,2.1,16,26,96,,,,,0,0,0,0,,,,,5,5,65,1,,,,,,,,,,,,,,,,,,,,,1.623,1.426,369.1638093999936,None,,,,,,,,,,,,,,,,,,,,369.72048850002466,370.22507079999195,0.5087989600142464,1.0090371600235812,370.2084426000365,370.32511949999025,370.2084426000365,370.32511949999025,370.3084197000135,None,m,1,0.7520316999871284,370.3084197000135,None,,,,,,,ppbb,2022_May_19_1058,training+cueing,2021.1.4,59.636479882248175,
Stranger.png,You,Stranger,m,1.3,15,25,95,,,,,0,0,0,0,,,,,5,6,66,6,,,,,,,,,,,,,,,,,,,,,1.463,2.311,371.18185599998105,None,,,,,,,,,,,,,,,,,,,,371.7226293000276,372.22648710000794,0.5069194200332277,1.0072530200704932,372.2098122999887,372.3098604999832,372.2098122999887,372.3098604999832,372.3098604999832,None,m,1,0.830536299967207,372.3098604999832,None,,,,,,,ppbb,2022_May_19_1058,training+cueing,2021.1.4,59.636479882248175,
Friend.png,Friend,Friend,c,2,12,22,92,,,,,0,0,0,0,,,,,5,7,67,10,,,,,,,,,,,,,,,,,,,,,1.576,2.029,373.26665720000165,None,,,,,,,,,,,,,,,,,,,,373.8148661000305,374.32804779999424,0.5066796200117096,1.006840120011475,374.31137670000317,374.42808460001834,374.31137670000317,374.42808460001834,374.41136050003115,None,c,1,0.664882300014142,374.41136050003115,None,,,,,,,ppbb,2022_May_19_1058,training+cueing,2021.1.4,59.636479882248175,
Self.png,You,Self ,c,1,11,21,91,,,,,0,0,0,0,,,,,5,8,68,9,,,,,,,,,,,,,,,,,,,,,1.539,1.555,375.2013559000334,None,,,,,,,,,,,,,,,,,,,,375.75821910001105,376.2628728999989,0.5095304599963129,1.0098124600481242,376.24624469998525,376.3463059000205,376.24624469998525,376.3463059000205,376.3463059000205,None,c,1,1.130093300016597,376.3463059000205,None,,,,,,,ppbb,2022_May_19_1058,training+cueing,2021.1.4,59.636479882248175,
Friend.png,Stranger,Friend,m,3.2,19,29,99,,,,,0,0,0,0,,,,,5,9,69,5,,,,,,,,,,,,,,,,,,,,,1.771,1.767,377.6040719000157,None,,,,,,,,,,,,,,,,,,,,378.1434756999952,378.64779570000246,0.5079064200399444,1.0082268200349063,378.6311187000247,378.74666020000586,378.6311187000247,378.74666020000586,378.73115300002974,None,m,1,0.8892607999732718,378.73115300002974,None,,,,,,,ppbb,2022_May_19_1058,training+cueing,2021.1.4,59.636479882248175,
Self.png,You,Self ,c,1,11,21,91,,,,,0,0,0,0,,,,,5,10,70,0,,,,,,,,,,,,,,,,,,,,,1.68,2.34,379.75473919999786,None,,,,,,,,,,,,,,,,,,,,380.2947687000269,380.7995512000052,0.5069657200365327,1.0072329200338572,380.78286410000874,380.88290339999367,380.78286410000874,380.88290339999367,380.88290339999367,None,c,1,0.593445000005886,380.88290339999367,None,,,,,,,ppbb,2022_May_19_1058,training+cueing,2021.1.4,59.636479882248175,
Self.png,Stranger,Self ,m,3.1,18,28,98,,,,,0,0,0,0,,,,,5,11,71,2,,,,,,,,,,,,,,,,,,,,,1.503,2.397,381.6071931000333,None,,,,,,,,,,,,,,,,,,,,382.1468142000376,382.6506906999857,0.5081236200057901,1.0084148200112395,382.6340365000069,382.7488427000353,382.6340365000069,382.7488427000353,382.7340605999925,None,m,1,0.7742853999952786,382.7340605999925,None,,,,,,,ppbb,2022_May_19_1058,training+cueing,2021.1.4,59.636479882248175,
Stranger.png,Stranger,Stranger,c,3,13,23,93,,,,,0,0,0,0,,,,,6,0,72,11,,,,,,,,,,,,,,,,,,,,,1.626,2.344,383.64046550000785,None,,,,,,,,,,,,,,,,,,,,384.1794965000008,384.6855349999969,0.5099475200404413,1.0102276200195774,384.6688230999862,384.7855983999907,384.6688230999862,384.7855983999907,384.7688922000234,None,c,1,0.62745209998684,384.7688922000234,None,,,,,,,ppbb,2022_May_19_1058,training+cueing,2021.1.4,59.636479882248175,
Self.png,Friend,Self ,m,2.1,16,26,96,,,,,0,0,0,0,,,,,6,1,73,1,,,,,,,,,,,,,,,,,,,,,1.406,1.265,385.5248903000029,None,,,,,,,,,,,,,,,,,,,,386.06530550000025,386.5702220000094,0.5090378200402483,1.009272620023694,386.5535639000009,386.6702318000025,386.5535639000009,386.6702318000025,386.6535680000088,None,m,1,0.582719600002747,386.6535680000088,None,,,,,,,ppbb,2022_May_19_1058,training+cueing,2021.1.4,59.636479882248175,
Self.png,Stranger,Self ,m,3.1,18,28,98,,,,,0,0,0,0,,,,,6,2,74,2,,,,,,,,,,,,,,,,,,,,,1.741,2.396,387.35988040000666,None,,,,,,,,,,,,,,,,,,,,387.9019337000209,388.40493220003555,0.5053147200378589,1.0061158200260252,388.388167600031,388.5049308000016,388.388167600031,388.5049308000016,388.4882340999902,None,m,1,0.6842095999745652,388.4882340999902,None,,,,,,,ppbb,2022_May_19_1058,training+cueing,2021.1.4,59.636479882248175,
Friend.png,Friend,Friend,c,2,12,22,92,,,,,0,0,0,0,,,,,6,3,75,10,,,,,,,,,,,,,,,,,,,,,1.688,1.921,389.29803290002747,None,,,,,,,,,,,,,,,,,,,,389.83463180001127,390.3395726000308,0.5076904199668206,1.008275419997517,390.322920400009,390.4396648000111,390.322920400009,390.4396648000111,390.4229812999838,None,c,1,0.589349499961827,390.4229812999838,None,,,,,,,ppbb,2022_May_19_1058,training+cueing,2021.1.4,59.636479882248175,
Stranger.png,Friend,Stranger,m,2.3,17,27,97,,,,,0,0,0,0,,,,,6,4,76,7,,,,,,,,,,,,,,,,,,,,,1.467,1.668,391.14674709999235,None,,,,,,,,,,,,,,,,,,,,391.6854530000128,392.19096909998916,0.5112985200248659,1.011844220047351,392.174268200004,392.2909549000324,392.174268200004,392.2909549000324,392.2743185000145,None,c,0,0.9461434000404552,392.2743185000145,None,,,,,,,ppbb,2022_May_19_1058,training+cueing,2021.1.4,59.636479882248175,
Self.png,You,Self ,c,1,11,21,91,,,,,0,0,0,0,,,,,6,5,77,9,,,,,,,,,,,,,,,,,,,,,1.795,2.035,393.34913400001824,None,,,,,,,,,,,,,,,,,,,,393.89272860001074,394.3927509000059,0.4994783200090751,0.9999930200283416,394.37591160001466,394.47599290002836,394.37591160001466,394.47599290002836,394.47599290002836,None,c,1,0.5202617999748327,394.47599290002836,None,,,,,,,ppbb,2022_May_19_1058,training+cueing,2021.1.4,59.636479882248175,
Friend.png,Stranger,Friend,m,3.2,19,29,99,,,,,0,0,0,0,,,,,6,6,78,5,,,,,,,,,,,,,,,,,,,,,1.57,1.21,395.13286750001134,None,,,,,,,,,,,,,,,,,,,,395.6754777000169,396.1772268000059,0.5020794200245291,1.0022609200095758,396.16060140001355,396.2772323000245,396.16060140001355,396.2772323000245,396.2605372000253,None,c,0,1.1357189999544062,396.2605372000253,None,,,,,,,ppbb,2022_May_19_1058,training+cueing,2021.1.4,59.636479882248175,
Self.png,You,Self ,c,1,11,21,91,,,,,0,0,0,0,,,,,6,7,79,0,,,,,,,,,,,,,,,,,,,,,1.545,1.221,397.53455849998863,None,,,,,,,,,,,,,,,,,,,,398.0774019000237,398.5789270999958,0.504307119990699,1.0045879199751653,398.56228670000564,398.662306800019,398.56228670000564,398.662306800019,398.662306800019,None,c,1,0.781971899967175,398.662306800019,None,,,,,,,ppbb,2022_May_19_1058,training+cueing,2021.1.4,59.636479882248175,
Stranger.png,Stranger,Stranger,c,3,13,23,93,,,,,0,0,0,0,,,,,6,8,80,8,,,,,,,,,,,,,,,,,,,,,1.668,1.315,399.5691109999898,None,,,,,,,,,,,,,,,,,,,,400.1176778000081,400.6303763000178,0.5069594200467691,1.0072354200528935,400.61372560000746,400.73047970002517,400.61372560000746,400.73047970002517,400.7137604000163,None,c,1,0.6507743999827653,400.7137604000163,None,,,,,,,ppbb,2022_May_19_1058,training+cueing,2021.1.4,59.636479882248175,
Friend.png,Friend,Friend,c,2,12,22,92,,,,,0,0,0,0,,,,,6,9,81,4,,,,,,,,,,,,,,,,,,,,,1.524,1.857,401.48710440000286,None,,,,,,,,,,,,,,,,,,,,402.0295791000244,402.53171690000454,0.505262520047836,1.0055444200406782,402.51511390000815,402.6318321999861,402.51511390000815,402.6318321999861,402.61514190002345,None,c,1,0.7810977000044659,402.61514190002345,None,,,,,,,ppbb,2022_May_19_1058,training+cueing,2021.1.4,59.636479882248175,
Friend.png,You,Friend,m,1.2,14,24,94,,,,,0,0,0,0,,,,,6,10,82,3,,,,,,,,,,,,,,,,,,,,,1.572,1.396,403.52251239999896,None,,,,,,,,,,,,,,,,,,,,404.0627414000337,404.56659519998357,0.5072372200083919,1.007459820015356,404.54996869998286,404.649966500001,404.54996869998286,404.649966500001,404.649966500001,None,m,1,0.6823326000012457,404.649966500001,None,,,,,,,ppbb,2022_May_19_1058,training+cueing,2021.1.4,59.636479882248175,
Stranger.png,You,Stranger,m,1.3,15,25,95,,,,,0,0,0,0,,,,,6,11,83,6,,,,,,,,,,,,,,,,,,,,,1.427,2.426,405.4569192000199,None,,,,,,,,,,,,,,,,,,,,405.99589750001905,406.50151570001617,0.509681619994808,1.0097970200004056,406.4847851000377,406.5848022000282,406.4847851000377,406.5848022000282,406.5848022000282,None,m,1,0.6195524000213481,406.5848022000282,None,,,,,,,ppbb,2022_May_19_1058,training+cueing,2021.1.4,59.636479882248175,
Self.png,Friend,Self ,m,2.1,16,26,96,,,,,0,0,0,0,,,,,7,0,84,1,,,,,,,,,,,,,,,,,,,,,1.688,2.08,407.34147069999017,None,,,,,,,,,,,,,,,,,,,,407.8833274000208,408.38599390001036,0.5064952200045809,1.0068171200109646,408.36932569998316,408.4860743000172,408.36932569998316,408.4860743000172,408.46941840002546,None,m,1,0.686848999990616,408.46941840002546,None,,,,,,,ppbb,2022_May_19_1058,training+cueing,2021.1.4,59.636479882248175,
Friend.png,Friend,Friend,c,2,12,22,92,,,,,0,0,0,0,,,,,7,1,85,10,,,,,,,,,,,,,,,,,,,,,1.579,1.325,409.2926585000241,None,,,,,,,,,,,,,,,,,,,,409.8320473000058,410.3374489999842,0.5108215200598352,1.0110686200787313,410.3208079999895,410.4375214999891,410.3208079999895,410.4375214999891,410.42082190001383,None,c,1,0.6397694000042975,410.42082190001383,None,,,,,,,ppbb,2022_May_19_1058,training+cueing,2021.1.4,59.636479882248175,
Friend.png,Stranger,Friend,m,3.2,19,29,99,,,,,0,0,0,0,,,,,7,2,86,5,,,,,,,,,,,,,,,,,,,,,1.725,1.88,411.1954755000188,None,,,,,,,,,,,,,,,,,,,,411.73721360001946,412.23882239998784,0.5015227200346999,1.0018354200292379,412.22211249999236,412.3388847000315,412.22211249999236,412.3388847000315,412.3388847000315,None,m,1,0.7214137999690138,412.3388847000315,None,,,,,,,ppbb,2022_May_19_1058,training+cueing,2021.1.4,59.636479882248175,
Friend.png,You,Friend,m,1.2,14,24,94,,,,,0,0,0,0,,,,,7,3,87,3,,,,,,,,,,,,,,,,,,,,,1.648,2.027,413.19617730000755,None,,,,,,,,,,,,,,,,,,,,413.75433349999366,414.2569271000102,0.5057659599697217,1.0061189599800855,414.2402805000311,414.34030700003495,414.2402805000311,414.34030700003495,414.34030700003495,None,m,1,0.6562229999690317,414.34030700003495,None,,,,,,,ppbb,2022_May_19_1058,training+cueing,2021.1.4,59.636479882248175,
Self.png,You,Self ,c,1,11,21,91,,,,,0,0,0,0,,,,,7,4,88,0,,,,,,,,,,,,,,,,,,,,,1.596,2.15,415.13430259999586,None,,,,,,,,,,,,,,,,,,,,415.66930519999005,416.1750148999854,0.5082945200265385,1.008609120035544,416.1582904999959,416.25835910002934,416.1582904999959,416.25835910002934,416.25835910002934,None,c,1,0.6260614999919198,416.25835910002934,None,,,,,,,ppbb,2022_May_19_1058,training+cueing,2021.1.4,59.636479882248175,
Friend.png,Friend,Friend,c,2,12,22,92,,,,,0,0,0,0,,,,,7,5,89,4,,,,,,,,,,,,,,,,,,,,,1.573,2.046,417.0163929000264,None,,,,,,,,,,,,,,,,,,,,417.5573029000079,418.0597050000215,0.5062432200065814,1.0065586200216785,418.0430273000384,418.1597564999829,418.0430273000384,418.1597564999829,418.1430754000321,None,c,1,0.9651805000030436,418.1430754000321,None,,,,,,,ppbb,2022_May_19_1058,training+cueing,2021.1.4,59.636479882248175,
Stranger.png,You,Stranger,m,1.3,15,25,95,,,,,0,0,0,0,,,,,7,6,90,6,,,,,,,,,,,,,,,,,,,,,1.741,1.297,419.2328455999959,None,,,,,,,,,,,,,,,,,,,,419.77494440000737,420.2779609999852,0.5065516200265847,1.0069178200210445,420.26132540003164,420.3613731000223,420.26132540003164,420.3613731000223,420.3613731000223,None,m,1,0.698895999987144,420.3613731000223,None,,,,,,,ppbb,2022_May_19_1058,training+cueing,2021.1.4,59.636479882248175,
Self.png,Stranger,Self ,m,3.1,18,28,98,,,,,0,0,0,0,,,,,7,7,91,2,,,,,,,,,,,,,,,,,,,,,1.621,1.214,421.18474160000915,None,,,,,,,,,,,,,,,,,,,,421.72608890000265,422.22943579999264,0.5047527200076729,1.0050049200071953,422.21272650000174,422.32944930001395,422.21272650000174,422.32944930001395,422.31269799999427,None,m,1,1.0035218000411987,422.31269799999427,None,,,,,,,ppbb,2022_May_19_1058,training+cueing,2021.1.4,59.636479882248175,
Stranger.png,Friend,Stranger,m,2.3,17,27,97,,,,,0,0,0,0,,,,,7,8,92,7,,,,,,,,,,,,,,,,,,,,,1.793,2.49,423.4535881000338,None,,,,,,,,,,,,,,,,,,,,423.9943028999842,424.49771379999584,0.5062904200167395,1.00645472004544,424.48112599999877,424.59778340003686,424.48112599999877,424.59778340003686,424.58099600003334,None,m,1,0.89525090000825,424.58099600003334,None,,,,,,,ppbb,2022_May_19_1058,training+cueing,2021.1.4,59.636479882248175,
Stranger.png,Stranger,Stranger,c,3,13,23,93,,,,,0,0,0,0,,,,,7,9,93,11,,,,,,,,,,,,,,,,,,,,,1.406,1.404,425.6049128000159,None,,,,,,,,,,,,,,,,,,,,426.1476582000032,426.64923089998774,0.5044974200427532,1.0047030200366862,426.63262819999363,426.74926720000803,426.63262819999363,426.74926720000803,426.73261760000605,None,c,1,0.7436338000115938,426.73261760000605,None,,,,,,,ppbb,2022_May_19_1058,training+cueing,2021.1.4,59.636479882248175,
Self.png,You,Self ,c,1,11,21,91,,,,,0,0,0,0,,,,,7,10,94,9,,,,,,,,,,,,,,,,,,,,,1.649,1.571,427.6058291000081,None,,,,,,,,,,,,,,,,,,,,428.146829699981,428.6506784000085,0.5065218200325035,1.0069845200632699,428.6340236000251,428.73409340000944,428.6340236000251,428.73409340000944,428.73409340000944,None,c,1,0.7103058000211604,428.73409340000944,None,,,,,,,ppbb,2022_May_19_1058,training+cueing,2021.1.4,59.636479882248175,
Stranger.png,Stranger,Stranger,c,3,13,23,93,,,,,0,0,0,0,,,,,7,11,95,8,,,,,,,,,,,,,,,,,,,,,1.511,2.111,429.57520590000786,None,,,,,,,,,,,,,,,,,,,,430.11729140003445,430.61878970003454,0.5043859200668521,1.004675920063164,430.6021164000267,430.71881839999696,430.6021164000267,430.71881839999696,430.7021473000059,None,c,1,0.7261564999935217,430.7021473000059,None,,,,,,,ppbb,2022_May_19_1058,training+cueing,2021.1.4,59.636479882248175,
Self.png,Stranger,Self ,m,3.1,18,28,98,,,,,0,0,0,0,,,,,8,0,96,2,,,,,,,,,,,,,,,,,,,,,1.404,1.331,431.5585800000117,None,,,,,,,,,,,,,,,,,,,,432.09796710003866,432.6037151000346,0.509613319998607,1.0098974200082012,432.5870630000136,432.7037790000322,432.5870630000136,432.7037790000322,432.6871012999909,None,m,1,0.6292728999978863,432.6871012999909,None,,,,,,,ppbb,2022_May_19_1058,training+cueing,2021.1.4,59.636479882248175,
Self.png,You,Self ,c,1,11,21,91,,,,,0,0,0,0,,,,,8,1,97,9,,,,,,,,,,,,,,,,,,,,,1.621,1.908,433.44515009998577,None,,,,,,,,,,,,,,,,,,,,433.9866314000101,434.48825290001696,0.5034662199905142,1.0039303199737333,434.47159249999095,434.57162509998307,434.47159249999095,434.57162509998307,434.57162509998307,None,c,1,0.6486784999724478,434.57162509998307,None,,,,,,,ppbb,2022_May_19_1058,training+cueing,2021.1.4,59.636479882248175,
Friend.png,Friend,Friend,c,2,12,22,92,,,,,0,0,0,0,,,,,8,2,98,4,,,,,,,,,,,,,,,,,,,,,1.659,1.366,435.3462415999966,None,,,,,,,,,,,,,,,,,,,,435.8868137000245,436.38965389999794,0.50528232002398,1.006155020033475,436.3729820000008,436.48968860000605,436.3729820000008,436.48968860000605,436.4730035000248,None,c,1,0.7313280000234954,436.4730035000248,None,,,,,,,ppbb,2022_May_19_1058,training+cueing,2021.1.4,59.636479882248175,
Stranger.png,You,Stranger,m,1.3,15,25,95,,,,,0,0,0,0,,,,,8,3,99,6,,,,,,,,,,,,,,,,,,,,,1.559,2.234,437.3305706999963,None,,,,,,,,,,,,,,,,,,,,437.8689549000119,438.37443329999223,0.5081854200689122,1.0084907200653106,438.3577116000233,438.45776900002966,438.3577116000233,438.45776900002966,438.45776900002966,None,m,1,0.5545595999574289,438.45776900002966,None,,,,,,,ppbb,2022_May_19_1058,training+cueing,2021.1.4,59.636479882248175,
Stranger.png,Friend,Stranger,m,2.3,17,27,97,,,,,0,0,0,0,,,,,8,4,100,7,,,,,,,,,,,,,,,,,,,,,1.524,2.139,439.1480518000317,None,,,,,,,,,,,,,,,,,,,,439.68976219999604,440.1923979999847,0.5061552199767902,1.0066462199902162,440.1756998000201,440.29262560000643,440.1756998000201,440.29262560000643,440.2758987999987,None,m,1,1.104506500007119,440.2758987999987,None,,,,,,,ppbb,2022_May_19_1058,training+cueing,2021.1.4,59.636479882248175,
Friend.png,Stranger,Friend,m,3.2,19,29,99,,,,,0,0,0,0,,,,,8,5,101,5,,,,,,,,,,,,,,,,,,,,,1.768,1.808,441.51780770003097,None,,,,,,,,,,,,,,,,,,,,442.060813100019,442.56081090000225,0.5014118200633675,1.0017192200175487,442.54410180001287,442.66086320002796,442.54410180001287,442.66086320002796,442.66086320002796,None,m,1,0.9752812999649905,442.66086320002796,None,,,,,,,ppbb,2022_May_19_1058,training+cueing,2021.1.4,59.636479882248175,
Friend.png,Friend,Friend,c,2,12,22,92,,,,,0,0,0,0,,,,,8,6,102,10,,,,,,,,,,,,,,,,,,,,,1.609,1.201,443.76758420001715,None,,,,,,,,,,,,,,,,,,,,444.3075065999874,444.8124345000251,0.507616120041348,1.0079194200225174,444.7957314000232,444.91249399998924,444.7957314000232,444.91249399998924,444.89572850003606,None,c,1,0.6126554000074975,444.89572850003606,None,,,,,,,ppbb,2022_May_19_1058,training+cueing,2021.1.4,59.636479882248175,
Friend.png,You,Friend,m,1.2,14,24,94,,,,,0,0,0,0,,,,,8,7,103,3,,,,,,,,,,,,,,,,,,,,,1.755,2.072,445.6351488000364,None,,,,,,,,,,,,,,,,,,,,446.1768412999809,446.68045009998605,0.5063529199687764,1.006651019968558,446.6637373000267,446.7637847000151,446.6637373000267,446.7637847000151,446.7637847000151,None,m,1,0.4884017999866046,446.7637847000151,None,,,,,,,ppbb,2022_May_19_1058,training+cueing,2021.1.4,59.636479882248175,
Stranger.png,Stranger,Stranger,c,3,13,23,93,,,,,0,0,0,0,,,,,8,8,104,11,,,,,,,,,,,,,,,,,,,,,1.687,1.875,447.3868592000217,None,,,,,,,,,,,,,,,,,,,,447.92764499998884,448.43173700000625,0.504880620050244,1.0051140200230293,448.41507400001865,448.5317691999953,448.41507400001865,448.5317691999953,448.51504820003174,None,c,1,0.7692536999820732,448.51504820003174,None,,,,,,,ppbb,2022_May_19_1058,training+cueing,2021.1.4,59.636479882248175,
Self.png,Friend,Self ,m,2.1,16,26,96,,,,,0,0,0,0,,,,,8,9,105,1,,,,,,,,,,,,,,,,,,,,,1.437,2.052,449.42160709999735,None,,,,,,,,,,,,,,,,,,,,449.9626167000388,450.4664848999819,0.5068510200362653,1.0071685200091451,450.44983520003734,450.56654710002476,450.44983520003734,450.56654710002476,450.5498630999937,None,m,1,0.7023655999801122,450.5498630999937,None,,,,,,,ppbb,2022_May_19_1058,training+cueing,2021.1.4,59.636479882248175,
Self.png,You,Self ,c,1,11,21,91,,,,,0,0,0,0,,,,,8,10,106,0,,,,,,,,,,,,,,,,,,,,,1.666,2.409,451.39037159999134,None,,,,,,,,,,,,,,,,,,,,451.9407541999826,452.45130090002203,0.5041713200043887,1.0044820199836977,452.43457889999263,452.5346474000253,452.43457889999263,452.5346474000253,452.5346474000253,None,c,1,0.5735075999982655,452.5346474000253,None,,,,,,,ppbb,2022_May_19_1058,training+cueing,2021.1.4,59.636479882248175,
Stranger.png,Stranger,Stranger,c,3,13,23,93,,,,,0,0,0,0,,,,,8,11,107,8,,,,,,,,,,,,,,,,,,,,,1.732,1.524,453.2412986999843,None,,,,,,,,,,,,,,,,,,,,453.7824400999816,454.28594840003643,0.5049755200161599,1.0052400199929252,454.26930270000594,454.38600300002145,454.26930270000594,454.38600300002145,454.3693137000082,None,c,1,0.5469836000120267,454.3693137000082,None,,,,,,,ppbb,2022_May_19_1058,training+cueing,2021.1.4,59.636479882248175,
Friend.png,You,Friend,m,1.2,14,24,94,,,,,0,0,0,0,,,,,9,0,108,3,,,,,,,,,,,,,,,,,,,,,1.715,1.877,455.0430832999991,None,,,,,,,,,,,,,,,,,,,,455.5838982000132,456.087234799983,0.5069525199942291,1.0074580200016499,456.0705850000377,456.17065079999156,456.0705850000377,456.17065079999156,456.17065079999156,None,m,1,0.5855592000298202,456.17065079999156,None,,,,,,,ppbb,2022_May_19_1058,training+cueing,2021.1.4,59.636479882248175,
Self.png,Stranger,Self ,m,3.1,18,28,98,,,,,0,0,0,0,,,,,9,1,109,2,,,,,,,,,,,,,,,,,,,,,1.64,2.139,456.8775048000389,None,,,,,,,,,,,,,,,,,,,,457.4167053999845,457.9219192999881,0.5096433199942112,1.0100083199795336,457.9052492000046,458.02195750002284,457.9052492000046,458.02195750002284,458.0053006000235,None,m,1,0.7508840999798849,458.0053006000235,None,,,,,,,ppbb,2022_May_19_1058,training+cueing,2021.1.4,59.636479882248175,
Stranger.png,Friend,Stranger,m,2.3,17,27,97,,,,,0,0,0,0,,,,,9,2,110,7,,,,,,,,,,,,,,,,,,,,,1.569,2.29,458.87846450001234,None,,,,,,,,,,,,,,,,,,,,459.41988780000247,459.92340209998656,0.5051118200644851,1.0054208200308494,459.9066723000142,460.02397350000683,459.9066723000142,460.02397350000683,460.00671540002804,None,m,1,0.605443499982357,460.00671540002804,None,,,,,,,ppbb,2022_May_19_1058,training+cueing,2021.1.4,59.636479882248175,
Friend.png,Stranger,Friend,m,3.2,19,29,99,,,,,0,0,0,0,,,,,9,3,111,5,,,,,,,,,,,,,,,,,,,,,1.576,1.86,460.74700169998687,None,,,,,,,,,,,,,,,,,,,,461.3003657000372,461.8080747000058,0.49907236004946753,0.9993330600555055,461.79149979999056,461.9081390000065,461.79149979999056,461.9081390000065,461.87206249998417,None,m,1,0.6121294999611564,461.87206249998417,None,,,,,,,ppbb,2022_May_19_1058,training+cueing,2021.1.4,59.636479882248175,
Self.png,You,Self ,c,1,11,21,91,,,,,0,0,0,0,,,,,9,4,112,0,,,,,,,,,,,,,,,,,,,,,1.513,1.724,462.61541299999226,None,,,,,,,,,,,,,,,,,,,,463.155352700036,463.6594099000213,0.5065505200182088,1.0070564200286753,463.6427421999979,463.7427970999852,463.6427421999979,463.7427970999852,463.7427970999852,None,c,1,0.5336142999585718,463.7427970999852,None,,,,,,,ppbb,2022_May_19_1058,training+cueing,2021.1.4,59.636479882248175,
Self.png,You,Self ,c,1,11,21,91,,,,,0,0,0,0,,,,,9,5,113,9,,,,,,,,,,,,,,,,,,,,,1.414,2.07,464.4001741000102,None,,,,,,,,,,,,,,,,,,,,464.9385579000227,465.44407000002684,0.5108080200734548,1.0111121200607158,465.4273542999872,465.5274066000129,465.4273542999872,465.5274066000129,465.5274066000129,None,c,1,0.7007940000039525,465.5274066000129,None,,,,,,,ppbb,2022_May_19_1058,training+cueing,2021.1.4,59.636479882248175,
Stranger.png,Stranger,Stranger,c,3,13,23,93,,,,,0,0,0,0,,,,,9,6,114,11,,,,,,,,,,,,,,,,,,,,,1.707,1.474,466.35023019998334,None,,,,,,,,,,,,,,,,,,,,466.9023511999985,467.412112799997,0.503102820017375,1.0034898199955933,467.39541130000725,467.5121643000166,467.39541130000725,467.5121643000166,467.49547289998736,None,c,1,0.6046851999708451,467.49547289998736,None,,,,,,,ppbb,2022_May_19_1058,training+cueing,2021.1.4,59.636479882248175,
Stranger.png,Stranger,Stranger,c,3,13,23,93,,,,,0,0,0,0,,,,,9,7,115,8,,,,,,,,,,,,,,,,,,,,,1.656,1.224,468.23593269998673,None,,,,,,,,,,,,,,,,,,,,468.7741514000227,469.28019170003245,0.5106496200314723,1.0108824199996889,469.26350669999374,469.38019280001754,469.26350669999374,469.38019280001754,469.36355609999737,None,m,0,0.5287191000534222,469.36355609999737,None,,,,,,,ppbb,2022_May_19_1058,training+cueing,2021.1.4,59.636479882248175,
Friend.png,Friend,Friend,c,2,12,22,92,,,,,0,0,0,0,,,,,9,8,116,4,,,,,,,,,,,,,,,,,,,,,1.428,1.414,470.01957850001054,None,,,,,,,,,,,,,,,,,,,,470.5602318000165,471.06476660002954,0.5094179200241342,1.0096952200401574,471.0480910000042,471.164843400009,471.0480910000042,471.164843400009,471.1481215999811,None,c,1,0.5681038000038825,471.1481215999811,None,,,,,,,ppbb,2022_May_19_1058,training+cueing,2021.1.4,59.636479882248175,
Stranger.png,You,Stranger,m,1.3,15,25,95,,,,,0,0,0,0,,,,,9,9,117,6,,,,,,,,,,,,,,,,,,,,,1.578,1.375,471.8378546999884,None,,,,,,,,,,,,,,,,,,,,472.3784992999863,472.8827634000336,0.5072193200467154,1.007499120081775,472.86610929999733,472.96616800001357,472.86610929999733,472.96616800001357,472.96616800001357,None,m,1,0.7020417000167072,472.96616800001357,None,,,,,,,ppbb,2022_May_19_1058,training+cueing,2021.1.4,59.636479882248175,
Self.png,Friend,Self ,m,2.1,16,26,96,,,,,0,0,0,0,,,,,9,10,118,1,,,,,,,,,,,,,,,,,,,,,1.68,1.714,473.8064069999964,None,,,,,,,,,,,,,,,,,,,,474.34557780000614,474.85079090000363,0.5088910200283863,1.0092003200552426,474.8341706999927,474.9508894000319,474.8341706999927,474.9508894000319,474.93421540001873,None,m,1,0.7979356999858283,474.93421540001873,None,,,,,,,ppbb,2022_May_19_1058,training+cueing,2021.1.4,59.636479882248175,
Friend.png,Friend,Friend,c,2,12,22,92,,,,,0,0,0,0,,,,,9,11,119,10,,,,,,,,,,,,,,,,,,,,,1.704,1.938,475.8577722000191,None,,,,,,,,,,,,,,,,,,,,476.3998206999968,476.90237279998837,0.5043339200201444,1.0046727200387977,476.885649200005,477.00244350003777,476.885649200005,477.00244350003777,476.9857012000284,None,c,1,0.714431100001093,476.9857012000284,None,,,,,,,ppbb,2022_May_19_1058,training+cueing,2021.1.4,59.636479882248175,
,,,,,,,,,,,,0,0,0,0,,,,,,,,,,,,,,,,,,,,,,,,,,,,,,,,,,,,,,,,,,,,,,,,,,,,,,,,,,,,,,,,,,,0.0004424799117259681,None,,,,,ppbb,2022_May_19_1058,training+cueing,2021.1.4,59.636479882248175,
Self.png,Friend,Self ,m,2.1,16,26,96,,,,,1,0,1,0,0,0,0,1,,,,,,,,,,,,,,,,,478.33693140000105,None,space,10.034662100020796,2.016374239930883,None,490.3789396000211,None,1.429,1.981,493.3917812000145,None,493.91333300003316,494.41507500002626,494.39836310001556,494.51518759998726,494.39836310001556,494.51518759998726,494.49850729998434,None,m,1,494.49850729998434,None,495.8871595999808,None,1.3619356999988668,,,,,,,,,,,,,,,,,,,,,,,,,,ppbb,2022_May_19_1058,training+cueing,2021.1.4,59.636479882248175,
Stranger.png,Stranger,Stranger,c,3,13,23,93,,,,,1,0,1,0,0,1,1,11,,,,,,,,,,,,,,,,,,,,,,,,,1.584,1.587,496.2997502000071,None,496.8307400000049,497.3338206000044,497.3171378999832,497.43383890000405,497.3171378999832,497.43383890000405,497.4171612000209,None,c,1,497.4171612000209,None,498.40129730000626,None,0.9550112999859266,,,,,,,,,,,,,,,,,,,,,,,,,,ppbb,2022_May_19_1058,training+cueing,2021.1.4,59.636479882248175,
Self.png,Stranger,Self ,m,3.1,18,28,98,,,,,1,0,1,0,0,2,2,2,,,,,,,,,,,,,,,,,,,,,,,,,1.677,1.232,498.8017584999907,None,499.3315519000171,499.83566029998474,499.8189425999881,499.935710699996,499.8189425999881,499.935710699996,499.9189860000042,None,m,1,499.9189860000042,None,500.62245190003887,None,0.6774659000220709,,,,,,,,,,,,,,,,,,,,,,,,,,ppbb,2022_May_19_1058,training+cueing,2021.1.4,59.636479882248175,
Friend.png,Friend,Friend,c,2,12,22,92,,,,,1,0,1,0,0,3,3,4,,,,,,,,,,,,,,,,,,,,,,,,,1.523,1.765,501.0365391999949,None,501.56658929999685,502.0706504000118,502.05398600001354,502.17067020002287,502.05398600001354,502.17067020002287,502.15401400002884,None,c,1,502.15401400002884,None,502.70450490002986,None,0.5222914000041783,,,,,,,,,,,,,,,,,,,,,,,,,,ppbb,2022_May_19_1058,training+cueing,2021.1.4,59.636479882248175,
Friend.png,Stranger,Friend,m,3.2,19,29,99,,,,,1,0,1,0,0,4,4,5,,,,,,,,,,,,,,,,,,,,,,,,,1.484,2.043,503.1047347999993,None,503.6439621000318,504.15556430001743,504.13891879998846,504.255675900029,504.13891879998846,504.255675900029,504.23913310002536,None,m,1,504.23913310002536,None,505.00470330001554,None,0.7411364000290632,,,,,,,,,,,,,,,,,,,,,,,,,,ppbb,2022_May_19_1058,training+cueing,2021.1.4,59.636479882248175,
Self.png,You,Self ,c,1,11,21,91,,,,,1,0,1,0,0,5,5,0,,,,,,,,,,,,,,,,,,,,,,,,,1.688,1.806,505.40650749998167,None,505.9434499000199,506.45712859998457,506.44036549999146,506.5404405000154,506.44036549999146,506.5404405000154,506.5404405000154,None,c,1,506.5404405000154,None,507.12433520000195,None,0.5677804999868385,,,,,,,,,,,,,,,,,,,,,,,,,,ppbb,2022_May_19_1058,training+cueing,2021.1.4,59.636479882248175,
Stranger.png,Friend,Stranger,m,2.3,17,27,97,,,,,1,0,1,0,0,6,6,7,,,,,,,,,,,,,,,,,,,,,,,,,1.691,1.569,507.52453689998947,None,508.05724950000877,508.55865680001443,508.5419237000169,508.6587152000284,508.5419237000169,508.6587152000284,508.6587152000284,None,m,1,508.6587152000284,None,509.64276090002386,None,0.9613817000063136,,,,,,,,,,,,,,,,,,,,,,,,,,ppbb,2022_May_19_1058,training+cueing,2021.1.4,59.636479882248175,
Stranger.png,You,Stranger,m,1.3,15,25,95,,,,,1,0,1,0,0,7,7,6,,,,,,,,,,,,,,,,,,,,,,,,,1.59,2.254,510.04302270000335,None,510.57552240003133,511.0771416000207,511.06046810001135,511.16054010001244,511.06046810001135,511.16054010001244,511.16054010001244,None,m,1,511.16054010001244,None,511.8943967000232,None,0.7156127999769524,,,,,,,,,,,,,,,,,,,,,,,,,,ppbb,2022_May_19_1058,training+cueing,2021.1.4,59.636479882248175,
Friend.png,You,Friend,m,1.2,14,24,94,,,,,1,0,1,0,0,8,8,3,,,,,,,,,,,,,,,,,,,,,,,,,1.698,2.441,512.2946532000205,None,512.8234064999851,513.3288650999893,513.312244300032,513.412129400007,513.312244300032,513.412129400007,513.412129400007,None,m,1,513.412129400007,None,514.1793714000378,None,0.7519785999902524,,,,,,,,,,,,,,,,,,,,,,,,,,ppbb,2022_May_19_1058,training+cueing,2021.1.4,59.636479882248175,
Stranger.png,Stranger,Stranger,c,3,13,23,93,,,,,1,0,1,0,0,9,9,8,,,,,,,,,,,,,,,,,,,,,,,,,1.643,1.66,514.5796278000344,None,515.1124324999982,515.6137349000201,515.5971022000303,515.7139677000232,515.5971022000303,515.7139677000232,515.7139677000232,None,c,1,515.7139677000232,None,516.5478014000109,None,0.8021090000402182,,,,,,,,,,,,,,,,,,,,,,,,,,ppbb,2022_May_19_1058,training+cueing,2021.1.4,59.636479882248175,
Self.png,You,Self ,c,1,11,21,91,,,,,1,0,1,0,0,10,10,9,,,,,,,,,,,,,,,,,,,,,,,,,1.494,1.213,516.9481024999986,None,517.4805889999843,517.9821200000006,517.9654222999816,518.065490900015,517.9654222999816,518.065490900015,518.065490900015,None,c,1,518.065490900015,None,518.8327914000256,None,0.73858389997622,,,,,,,,,,,,,,,,,,,,,,,,,,ppbb,2022_May_19_1058,training+cueing,2021.1.4,59.636479882248175,
Friend.png,Friend,Friend,c,2,12,22,92,,,,,1,0,1,0,0,11,11,10,,,,,,,,,,,,,,,,,,,,,,,,,1.666,2.09,519.233200800023,None,519.7790554999956,520.2838652000064,520.2672427000361,520.3839713000343,520.2672427000361,520.3839713000343,520.3673503000173,None,c,1,520.3673503000173,None,521.1160768999835,None,0.7248541000299156,,,,,,,,,,,,,,,,,,,,,,,,,,ppbb,2022_May_19_1058,training+cueing,2021.1.4,59.636479882248175,
Stranger.png,Stranger,Stranger,c,3,13,23,93,,,,,1,0,1,0,,,,,0,0,0,8,,,,,,,,,,,,,,,,,,,534.7277582000243,None,1.59,1.861,538.2438584000338,None,,,,,,,,,,,,,,,,521.518140900007,None,0.014382040011696517,0.5124916399945505,538.7869284999906,539.2977278000326,0.5055970199755393,1.0057301199994981,539.281062300026,539.3978128000163,539.281062300026,539.3978128000163,539.381091999996,None,c,1,0.8149456999963149,539.381091999996,None,,,,,,,ppbb,2022_May_19_1058,training+cueing,2021.1.4,59.636479882248175,
Self.png,Stranger,Self ,m,3.1,18,28,98,,,,,1,0,1,0,,,,,0,1,1,2,,,,,,,,,,,,,,,,,,,,,1.601,1.642,540.322029300034,None,,,,,,,,,,,,,,,,,,,,540.8613893000293,541.3657867999864,0.5082525200559758,1.008619920059573,541.3491229999927,541.4659178000293,541.3491229999927,541.4659178000293,541.4492344000028,None,m,1,0.5390053000301123,541.4492344000028,None,,,,,,,ppbb,2022_May_19_1058,training+cueing,2021.1.4,59.636479882248175,
Self.png,You,Self ,c,1,11,21,91,,,,,1,0,1,0,,,,,0,2,2,0,,,,,,,,,,,,,,,,,,,,,1.705,2.442,542.1225583000341,None,,,,,,,,,,,,,,,,,,,,542.6619886999833,543.1670750000048,0.5074651200557128,1.007751920085866,543.1504092999967,543.2504511000006,543.1504092999967,543.2504511000006,543.2504511000006,None,c,1,0.4975819000392221,543.2504511000006,None,,,,,,,ppbb,2022_May_19_1058,training+cueing,2021.1.4,59.636479882248175,
Friend.png,Friend,Friend,c,2,12,22,92,,,,,1,0,1,0,,,,,0,3,3,10,,,,,,,,,,,,,,,,,,,,,1.653,1.344,543.8734874000074,None,,,,,,,,,,,,,,,,,,,,544.4340749999974,544.9350314000039,0.5024430599878542,1.0028591599548236,544.9183188999887,545.0351833000313,544.9183188999887,545.0351833000313,545.0184550000122,None,c,1,0.5536830999772064,545.0184550000122,None,,,,,,,ppbb,2022_May_19_1058,training+cueing,2021.1.4,59.636479882248175,
Friend.png,Friend,Friend,c,2,12,22,92,,,,,1,0,1,0,,,,,0,4,4,4,,,,,,,,,,,,,,,,,,,,,1.607,1.497,545.7079439000227,None,,,,,,,,,,,,,,,,,,,,546.2464937000186,546.7529928000295,0.5093020200147294,None,546.7348024999956,546.8369172000093,546.7348024999956,546.8369172000093,546.8369172000093,None,c,1,0.35130959999514744,546.8369172000093,None,,,,,,,ppbb,2022_May_19_1058,training+cueing,2021.1.4,59.636479882248175,
Stranger.png,Friend,Stranger,m,2.3,17,27,97,,,,,1,0,1,0,,,,,0,5,5,7,,,,,,,,,,,,,,,,,,,,,1.419,1.866,547.3113617000054,None,,,,,,,,,,,,,,,,,,,,547.848867600027,548.3541677999892,0.5094508200418204,1.0097915200749412,548.3374709000345,548.4542269000085,548.3374709000345,548.4542269000085,548.4375431000371,None,m,1,0.7186519000097178,548.4375431000371,None,,,,,,,ppbb,2022_May_19_1058,training+cueing,2021.1.4,59.636479882248175,
Self.png,Friend,Self ,m,2.1,16,26,96,,,,,1,0,1,0,,,,,0,6,6,1,,,,,,,,,,,,,,,,,,,,,1.548,1.689,549.2777755000279,None,,,,,,,,,,,,,,,,,,,,549.816405599995,550.3223022000166,0.5107696200138889,1.0110790200415067,550.3055799999856,550.4223088999861,550.3055799999856,550.4223088999861,550.4056089000078,None,m,1,0.7185558000346646,550.4056089000078,None,,,,,,,ppbb,2022_May_19_1058,training+cueing,2021.1.4,59.636479882248175,
Friend.png,Stranger,Friend,m,3.2,19,29,99,,,,,1,0,1,0,,,,,0,7,7,5,,,,,,,,,,,,,,,,,,,,,1.476,1.992,551.2627903000102,None,,,,,,,,,,,,,,,,,,,,551.8036053000251,552.3070118000032,0.5053506200783886,1.0062417200533673,552.2903263000189,552.4071496999823,552.2903263000189,552.4071496999823,552.3903639999917,None,m,1,0.8138295999960974,552.3903639999917,None,,,,,,,ppbb,2022_May_19_1058,training+cueing,2021.1.4,59.636479882248175,
Stranger.png,You,Stranger,m,1.3,15,25,95,,,,,1,0,1,0,,,,,0,8,8,6,,,,,,,,,,,,,,,,,,,,,1.526,1.365,553.3312421999872,None,,,,,,,,,,,,,,,,,,,,553.8771597000305,554.3918791000033,0.513189620047342,1.0133579200482927,554.3752855000203,554.4752598000341,554.3752855000203,554.4752598000341,554.4752598000341,None,m,1,0.7608822000329383,554.4752598000341,None,,,,,,,ppbb,2022_May_19_1058,training+cueing,2021.1.4,59.636479882248175,
Stranger.png,Stranger,Stranger,c,3,13,23,93,,,,,1,0,1,0,,,,,0,9,9,11,,,,,,,,,,,,,,,,,,,,,1.752,1.573,555.3654345999821,None,,,,,,,,,,,,,,,,,,,,555.907334699994,556.4100029999972,0.5053684199810959,1.005637319991365,556.3933580000303,556.5100613000104,556.3933580000303,556.5100613000104,556.4933862999897,None,m,0,0.42264319997048005,556.4933862999897,None,,,,,,,ppbb,2022_May_19_1058,training+cueing,2021.1.4,59.636479882248175,
Self.png,You,Self ,c,1,11,21,91,,,,,1,0,1,0,,,,,0,10,10,9,,,,,,,,,,,,,,,,,,,,,1.694,2.403,557.0499123000191,None,,,,,,,,,,,,,,,,,,,,557.5876993000275,558.0945655999822,0.5119437200482935,1.0123346200562082,558.0778615000308,558.177915600012,558.0778615000308,558.177915600012,558.177915600012,None,c,1,0.5621371000306681,558.177915600012,None,,,,,,,ppbb,2022_May_19_1058,training+cueing,2021.1.4,59.636479882248175,
Friend.png,You,Friend,m,1.2,14,24,94,,,,,1,0,1,0,,,,,0,11,11,3,,,,,,,,,,,,,,,,,,,,,1.435,1.392,558.8680426999927,None,,,,,,,,,,,,,,,,,,,,559.4062262999942,559.9125210000202,0.5116534200496972,1.0123459200258367,559.8958036000258,559.9959047000157,559.8958036000258,559.9959047000157,559.9959047000157,None,m,1,0.5841839999775402,559.9959047000157,None,,,,,,,ppbb,2022_May_19_1058,training+cueing,2021.1.4,59.636479882248175,
Friend.png,Stranger,Friend,m,3.2,19,29,99,,,,,1,0,1,0,,,,,1,0,12,5,,,,,,,,,,,,,,,,,,,,,1.64,2.473,560.7020736000268,None,,,,,,,,,,,,,,,,,,,,561.24358140002,561.747219300014,0.5041682200389914,1.0044607200543396,561.7305579999811,561.8472691000206,561.7305579999811,561.8472691000206,561.830569999991,None,m,1,1.1175180999562144,561.830569999991,None,,,,,,,ppbb,2022_May_19_1058,training+cueing,2021.1.4,59.636479882248175,
Friend.png,You,Friend,m,1.2,14,24,94,,,,,1,0,1,0,,,,,1,1,13,3,,,,,,,,,,,,,,,,,,,,,1.649,1.657,563.071053599997,None,,,,,,,,,,,,,,,,,,,,563.6318725000019,564.1322687999927,0.5010333600221202,1.0013267600443214,564.1156066000112,564.2158330000238,564.1156066000112,564.2158330000238,564.2158330000238,None,m,1,0.892281299980823,564.2158330000238,None,,,,,,,ppbb,2022_May_19_1058,training+cueing,2021.1.4,59.636479882248175,
Self.png,You,Self ,c,1,11,21,91,,,,,1,0,1,0,,,,,1,2,14,9,,,,,,,,,,,,,,,,,,,,,1.458,1.326,565.2391933000181,None,,,,,,,,,,,,,,,,,,,,565.785626100027,566.3007161000278,0.5120130200521089,1.0120105200330727,566.2840952000115,566.3839016000275,566.2840952000115,566.3839016000275,566.3839016000275,None,c,1,0.516174599993974,566.3839016000275,None,,,,,,,ppbb,2022_May_19_1058,training+cueing,2021.1.4,59.636479882248175,
Friend.png,Friend,Friend,c,2,12,22,92,,,,,1,0,1,0,,,,,1,3,15,10,,,,,,,,,,,,,,,,,,,,,1.598,1.979,567.02366050001,None,,,,,,,,,,,,,,,,,,,,567.5692462000297,568.0684626000002,0.513748419994954,1.0146397200296633,568.0684626000002,568.1686489999993,568.0684626000002,568.1686489999993,568.1686489999993,None,c,1,0.6356305999797769,568.1686489999993,None,,,,,,,ppbb,2022_May_19_1058,training+cueing,2021.1.4,59.636479882248175,
Self.png,Friend,Self ,m,2.1,16,26,96,,,,,1,0,1,0,,,,,1,4,16,1,,,,,,,,,,,,,,,,,,,,,1.422,1.928,568.929212099989,None,,,,,,,,,,,,,,,,,,,,569.463651500002,569.9698479000363,0.5111290200729854,1.0113738200743683,569.9532169000013,570.0698915999965,569.9532169000013,570.0698915999965,570.0532611000235,None,m,1,0.766736299963668,570.0532611000235,None,,,,,,,ppbb,2022_May_19_1058,training+cueing,2021.1.4,59.636479882248175,
Self.png,You,Self ,c,1,11,21,91,,,,,1,0,1,0,,,,,1,5,17,0,,,,,,,,,,,,,,,,,,,,,1.784,2.392,570.9439143000054,None,,,,,,,,,,,,,,,,,,,,571.483960499987,571.9879683000036,0.5072009200230241,1.0075400200439617,571.9712935999851,572.0713527000044,571.9712935999851,572.0713527000044,572.0713527000044,None,c,1,0.6046375000150874,572.0713527000044,None,,,,,,,ppbb,2022_May_19_1058,training+cueing,2021.1.4,59.636479882248175,
Stranger.png,You,Stranger,m,1.3,15,25,95,,,,,1,0,1,0,,,,,1,6,18,6,,,,,,,,,,,,,,,,,,,,,1.583,1.91,572.8109242999926,None,,,,,,,,,,,,,,,,,,,,573.3480351000326,573.8559924000292,0.5132290199981071,1.0135451200185344,573.8392834999831,573.9393682000227,573.8392834999831,573.9393682000227,573.9393682000227,None,m,1,0.7046689999988303,573.9393682000227,None,,,,,,,ppbb,2022_May_19_1058,training+cueing,2021.1.4,59.636479882248175,
Self.png,Stranger,Self ,m,3.1,18,28,98,,,,,1,0,1,0,,,,,1,7,19,2,,,,,,,,,,,,,,,,,,,,,1.664,2.076,574.7791223000386,None,,,,,,,,,,,,,,,,,,,,575.3224377000006,575.8241428000038,0.5030256200116128,1.0032318200101145,575.8074216999812,575.9241305000032,575.8074216999812,575.9241305000032,575.9074294000166,None,m,1,0.7368891999940388,575.9074294000166,None,,,,,,,ppbb,2022_May_19_1058,training+cueing,2021.1.4,59.636479882248175,
Stranger.png,Stranger,Stranger,c,3,13,23,93,,,,,1,0,1,0,,,,,1,8,20,8,,,,,,,,,,,,,,,,,,,,,1.447,1.846,576.7816978000337,None,,,,,,,,,,,,,,,,,,,,577.3181227000314,577.8255498000071,0.5116418200195767,1.0119540200103074,577.808834800031,577.9255937000271,577.808834800031,577.9255937000271,577.908874500019,None,c,1,0.6072436000104062,577.908874500019,None,,,,,,,ppbb,2022_May_19_1058,training+cueing,2021.1.4,59.636479882248175,
Stranger.png,Friend,Stranger,m,2.3,17,27,97,,,,,1,0,1,0,,,,,1,9,21,7,,,,,,,,,,,,,,,,,,,,,1.665,2.154,578.6491841000388,None,,,,,,,,,,,,,,,,,,,,579.1899639000185,579.6935829999857,0.5062550200382248,1.006524319993332,579.6768911000108,579.7936167999869,579.6768911000108,579.7936167999869,579.7768831999856,None,m,1,0.6113151999888942,579.7768831999856,None,,,,,,,ppbb,2022_May_19_1058,training+cueing,2021.1.4,59.636479882248175,
Stranger.png,Stranger,Stranger,c,3,13,23,93,,,,,1,0,1,0,,,,,1,10,22,11,,,,,,,,,,,,,,,,,,,,,1.445,2.475,580.5182480000076,None,,,,,,,,,,,,,,,,,,,,581.0590923000127,581.5615953000379,0.5052143199718557,1.005528419977054,581.5448632999905,581.6616422000225,581.5448632999905,581.6616422000225,581.6449150000117,None,c,1,0.5991454000468366,581.6449150000117,None,,,,,,,ppbb,2022_May_19_1058,training+cueing,2021.1.4,59.636479882248175,
Friend.png,Friend,Friend,c,2,12,22,92,,,,,1,0,1,0,,,,,1,11,23,4,,,,,,,,,,,,,,,,,,,,,1.408,1.336,582.3686004999909,None,,,,,,,,,,,,,,,,,,,,582.9086680000182,583.4129453999922,0.5060434199986048,1.0063474199851044,583.3962052999996,583.513023400039,583.3962052999996,583.513023400039,583.4962356000324,None,c,1,0.6197480999981053,583.4962356000324,None,,,,,,,ppbb,2022_May_19_1058,training+cueing,2021.1.4,59.636479882248175,
Self.png,You,Self ,c,1,11,21,91,,,,,1,0,1,0,,,,,2,0,24,9,,,,,,,,,,,,,,,,,,,,,1.783,1.77,584.2529926000279,None,,,,,,,,,,,,,,,,,,,,584.7938131000265,585.2976003999938,0.508253620006144,1.0085167200304568,585.280962800025,585.3809876000159,585.280962800025,585.3809876000159,585.3809876000159,None,c,1,0.5590369999990799,585.3809876000159,None,,,,,,,ppbb,2022_May_19_1058,training+cueing,2021.1.4,59.636479882248175,
Stranger.png,Stranger,Stranger,c,3,13,23,93,,,,,1,0,1,0,,,,,2,1,25,8,,,,,,,,,,,,,,,,,,,,,1.795,2.245,586.071635100001,None,,,,,,,,,,,,,,,,,,,,586.6395272000227,587.1492657000199,0.503467759990599,1.003724960028194,587.1326036999817,587.2493150000228,587.1326036999817,587.2493150000228,587.2326086999965,None,c,1,1.1235210999730043,587.2326086999965,None,,,,,,,ppbb,2022_May_19_1058,training+cueing,2021.1.4,59.636479882248175,
Friend.png,Friend,Friend,c,2,12,22,92,,,,,1,0,1,0,,,,,2,2,26,10,,,,,,,,,,,,,,,,,,,,,1.638,1.363,588.4904174000258,None,,,,,,,,,,,,,,,,,,,,589.0321319000213,589.534174600034,0.5031258199596778,1.0035818199976347,589.5174650999834,589.6342651000014,589.5174650999834,589.6342651000014,589.6175506000291,None,c,1,0.7384718999965116,589.6175506000291,None,,,,,,,ppbb,2022_May_19_1058,training+cueing,2021.1.4,59.636479882248175,
Friend.png,You,Friend,m,1.2,14,24,94,,,,,1,0,1,0,,,,,2,3,27,3,,,,,,,,,,,,,,,,,,,,,1.418,2.402,590.4912063000374,None,,,,,,,,,,,,,,,,,,,,591.0339945000014,591.5355003000004,0.5029509200248867,1.0032496200292371,591.5187793000368,591.6188406000147,591.5187793000368,591.6188406000147,591.6188406000147,None,m,1,0.5452670999802649,591.6188406000147,None,,,,,,,ppbb,2022_May_19_1058,training+cueing,2021.1.4,59.636479882248175,
Stranger.png,You,Stranger,m,1.3,15,25,95,,,,,1,0,1,0,,,,,2,4,28,6,,,,,,,,,,,,,,,,,,,,,1.43,1.694,592.2924111000029,None,,,,,,,,,,,,,,,,,,,,592.8375479000388,593.3367960000178,0.5131822200492024,1.0136087200371549,593.3367960000178,593.4368078000261,593.3367960000178,593.4368078000261,593.4368078000261,None,m,1,0.695211999991443,593.4368078000261,None,,,,,,,ppbb,2022_May_19_1058,training+cueing,2021.1.4,59.636479882248175,
Stranger.png,Stranger,Stranger,c,3,13,23,93,,,,,1,0,1,0,,,,,2,5,29,11,,,,,,,,,,,,,,,,,,,,,1.715,2.174,594.2596317999996,None,,,,,,,,,,,,,,,,,,,,594.8041872000322,595.3048652000143,0.5012625200324692,1.0015969200176187,595.2881551000173,595.4049166000332,595.2881551000173,595.4049166000332,595.4049166000332,None,c,1,0.7271641999832354,595.4049166000332,None,,,,,,,ppbb,2022_May_19_1058,training+cueing,2021.1.4,59.636479882248175,
Friend.png,Stranger,Friend,m,3.2,19,29,99,,,,,1,0,1,0,,,,,2,6,30,5,,,,,,,,,,,,,,,,,,,,,1.482,2.394,596.262205200037,None,,,,,,,,,,,,,,,,,,,,596.8025682999869,597.3062753999839,0.507998819986824,1.0088976200204343,597.2896485000383,597.4063404999906,597.2896485000383,597.4063404999906,597.38967340003,None,m,1,0.7907740999944508,597.38967340003,None,,,,,,,ppbb,2022_May_19_1058,training+cueing,2021.1.4,59.636479882248175,
Stranger.png,Friend,Stranger,m,2.3,17,27,97,,,,,1,0,1,0,,,,,2,7,31,7,,,,,,,,,,,,,,,,,,,,,1.604,2.371,598.3141902000061,None,,,,,,,,,,,,,,,,,,,,598.8534466000274,599.357788000023,0.5063588200137019,1.0066436200286262,599.3411281000008,599.457862899988,599.3411281000008,599.457862899988,599.441161499999,None,m,1,0.5790915999677964,599.441161499999,None,,,,,,,ppbb,2022_May_19_1058,training+cueing,2021.1.4,59.636479882248175,
Friend.png,Friend,Friend,c,2,12,22,92,,,,,1,0,1,0,,,,,2,8,32,4,,,,,,,,,,,,,,,,,,,,,1.556,1.339,600.1513791999896,None,,,,,,,,,,,,,,,,,,,,600.6904009000282,601.1924859000137,0.5041506200213917,1.0046827199985273,601.1757831000141,601.2927184000146,601.1757831000141,601.2927184000146,601.2758399000159,None,c,1,0.4882319000316784,601.2758399000159,None,,,,,,,ppbb,2022_May_19_1058,training+cueing,2021.1.4,59.636479882248175,
Self.png,Friend,Self ,m,2.1,16,26,96,,,,,1,0,1,0,,,,,2,9,33,1,,,,,,,,,,,,,,,,,,,,,1.702,1.294,601.9001031999942,None,,,,,,,,,,,,,,,,,,,,602.4411343000247,602.9436931000091,0.5045789200230502,1.0048836200148799,602.9270646999939,603.0437856999924,602.9270646999939,603.0437856999924,603.0270728000323,None,m,1,0.6569307000027038,603.0270728000323,None,,,,,,,ppbb,2022_May_19_1058,training+cueing,2021.1.4,59.636479882248175,
Self.png,Stranger,Self ,m,3.1,18,28,98,,,,,1,0,1,0,,,,,2,10,34,2,,,,,,,,,,,,,,,,,,,,,1.723,2.127,603.8174212999875,None,,,,,,,,,,,,,,,,,,,,604.3600977000315,604.8618306000135,0.5031829200452194,1.0033772200113162,604.8452173999976,604.9618539999938,604.8452173999976,604.9618539999938,604.9451611000113,None,m,1,1.058861400000751,604.9451611000113,None,,,,,,,ppbb,2022_May_19_1058,training+cueing,2021.1.4,59.636479882248175,
Self.png,You,Self ,c,1,11,21,91,,,,,1,0,1,0,,,,,2,11,35,0,,,,,,,,,,,,,,,,,,,,,1.794,2.351,606.135030800011,None,,,,,,,,,,,,,,,,,,,,606.6765596999903,607.1801436000387,0.5058922200114466,1.0061824200092815,607.1634943999816,607.263498699991,607.1634943999816,607.263498699991,607.263498699991,None,m,0,0.644805800053291,607.263498699991,None,,,,,,,ppbb,2022_May_19_1058,training+cueing,2021.1.4,59.636479882248175,
Stranger.png,You,Stranger,m,1.3,15,25,95,,,,,1,0,1,0,,,,,3,0,36,6,,,,,,,,,,,,,,,,,,,,,1.757,1.284,608.0400022999966,None,,,,,,,,,,,,,,,,,,,,608.5776443000068,609.0814949999913,0.5041379200411029,1.0044682200532407,609.0648394000018,609.1649090999854,609.0648394000018,609.1649090999854,609.1649090999854,None,m,1,0.9670316999545321,609.1649090999854,None,,,,,,,ppbb,2022_May_19_1058,training+cueing,2021.1.4,59.636479882248175,
Stranger.png,Friend,Stranger,m,2.3,17,27,97,,,,,1,0,1,0,,,,,3,1,37,7,,,,,,,,,,,,,,,,,,,,,1.607,1.954,610.2551744999946,None,,,,,,,,,,,,,,,,,,,,610.7982007000246,611.2997942999937,0.5042799199582078,1.00466321996646,611.2831250000163,611.3998836000101,611.2831250000163,611.3998836000101,611.3833814000245,None,m,1,1.260853899992071,611.3833814000245,None,,,,,,,ppbb,2022_May_19_1058,training+cueing,2021.1.4,59.636479882248175,
Self.png,You,Self ,c,1,11,21,91,,,,,1,0,1,0,,,,,3,2,38,0,,,,,,,,,,,,,,,,,,,,,1.686,1.519,612.7733508000383,None,,,,,,,,,,,,,,,,,,,,613.3152565000346,613.8183961000177,0.5051747200195678,1.005413220031187,613.8017950000358,613.9018563000136,613.8017950000358,613.9018563000136,613.9018563000136,None,c,1,0.6462190999882296,613.9018563000136,None,,,,,,,ppbb,2022_May_19_1058,training+cueing,2021.1.4,59.636479882248175,
Friend.png,Friend,Friend,c,2,12,22,92,,,,,1,0,1,0,,,,,3,3,39,4,,,,,,,,,,,,,,,,,,,,,1.795,1.273,614.6749727000133,None,,,,,,,,,,,,,,,,,,,,615.2180961000267,615.7197362000006,0.5012464200262912,1.0012717200443149,615.7031979000312,615.8197539999965,615.7031979000312,615.8197539999965,615.8197539999965,None,c,1,0.6481869000126608,615.8197539999965,None,,,,,,,ppbb,2022_May_19_1058,training+cueing,2021.1.4,59.636479882248175,
Self.png,Friend,Self ,m,2.1,16,26,96,,,,,1,0,1,0,,,,,3,4,40,1,,,,,,,,,,,,,,,,,,,,,1.432,1.621,616.5930410000146,None,,,,,,,,,,,,,,,,,,,,617.1329024999868,617.6377224000171,0.5096869200351648,1.010182120022364,617.6210622999934,617.7383233000292,617.6210622999934,617.7383233000292,617.7216383999912,None,m,1,0.45846239995444193,617.7216383999912,None,,,,,,,ppbb,2022_May_19_1058,training+cueing,2021.1.4,59.636479882248175,
Self.png,Stranger,Self ,m,3.1,18,28,98,,,,,1,0,1,0,,,,,3,5,41,2,,,,,,,,,,,,,,,,,,,,,1.766,2.205,618.3123795000138,None,,,,,,,,,,,,,,,,,,,,618.8544212999986,619.3556452000048,0.503072020073887,1.0039596200804226,619.338980600005,619.4557074999902,619.338980600005,619.4557074999902,619.4390157000162,None,m,1,0.6772632999927737,619.4390157000162,None,,,,,,,ppbb,2022_May_19_1058,training+cueing,2021.1.4,59.636479882248175,
Friend.png,You,Friend,m,1.2,14,24,94,,,,,1,0,1,0,,,,,3,6,42,3,,,,,,,,,,,,,,,,,,,,,1.58,1.465,620.2494904000196,None,,,,,,,,,,,,,,,,,,,,620.7869557000231,621.2904490000219,0.5056371200480498,1.0059441200573929,621.27369609999,621.3737470000051,621.27369609999,621.3737470000051,621.3737470000051,None,m,1,1.0623582000262104,621.3737470000051,None,,,,,,,ppbb,2022_May_19_1058,training+cueing,2021.1.4,59.636479882248175,
Friend.png,Friend,Friend,c,2,12,22,92,,,,,1,0,1,0,,,,,3,7,43,10,,,,,,,,,,,,,,,,,,,,,1.567,2.419,622.5642200000002,None,,,,,,,,,,,,,,,,,,,,623.1065004999982,623.6087739000213,0.5049924200284295,1.0052894200198352,623.592054800014,623.7088217000128,623.592054800014,623.7088217000128,623.6920975000248,None,c,1,0.7919394000200555,623.6920975000248,None,,,,,,,ppbb,2022_May_19_1058,training+cueing,2021.1.4,59.636479882248175,
Stranger.png,Stranger,Stranger,c,3,13,23,93,,,,,1,0,1,0,,,,,3,8,44,8,,,,,,,,,,,,,,,,,,,,,1.515,2.296,624.6156607000157,None,,,,,,,,,,,,,,,,,,,,625.1587027999922,625.6602068000357,0.5019388200016692,1.0022543200175278,625.6435539000086,625.7602509999997,625.6435539000086,625.7602509999997,625.7435523000313,None,c,1,0.6605040999711491,625.7435523000313,None,,,,,,,ppbb,2022_May_19_1058,training+cueing,2021.1.4,59.636479882248175,
Self.png,You,Self ,c,1,11,21,91,,,,,1,0,1,0,,,,,3,9,45,9,,,,,,,,,,,,,,,,,,,,,1.574,1.586,626.5333379000076,None,,,,,,,,,,,,,,,,,,,,627.0756541999872,627.5782449999824,0.5054419199586846,1.0057165200123563,627.5616154000163,627.6616447999841,627.5616154000163,627.6616447999841,627.6616447999841,None,c,1,0.5023868000134826,627.6616447999841,None,,,,,,,ppbb,2022_May_19_1058,training+cueing,2021.1.4,59.636479882248175,
Friend.png,Stranger,Friend,m,3.2,19,29,99,,,,,1,0,1,0,,,,,3,10,46,5,,,,,,,,,,,,,,,,,,,,,1.773,1.329,628.3015788000193,None,,,,,,,,,,,,,,,,,,,,628.8442668000353,629.3462271000026,0.5055667200358585,1.0059215200599283,629.3296375999926,629.4462803000351,629.3296375999926,629.4462803000351,629.4295909000211,None,m,1,0.9903810999821872,629.4295909000211,None,,,,,,,ppbb,2022_May_19_1058,training+cueing,2021.1.4,59.636479882248175,
Stranger.png,Stranger,Stranger,c,3,13,23,93,,,,,1,0,1,0,,,,,3,11,47,11,,,,,,,,,,,,,,,,,,,,,1.598,1.316,630.5535376000335,None,,,,,,,,,,,,,,,,,,,,631.0919305999996,631.5978768999921,0.509198319981806,1.0095195199828595,631.5811824999982,631.6979319999809,631.5811824999982,631.6979319999809,631.6812136000372,None,c,1,0.5787681000074372,631.6812136000372,None,,,,,,,ppbb,2022_May_19_1058,training+cueing,2021.1.4,59.636479882248175,
Friend.png,Friend,Friend,c,2,12,22,92,,,,,1,0,1,0,,,,,4,0,48,10,,,,,,,,,,,,,,,,,,,,,1.524,2.251,632.3880147000309,None,,,,,,,,,,,,,,,,,,,,632.9302938000183,633.432543300034,0.5050233200308867,1.0052962200716138,633.415856000036,633.5326004000381,633.415856000036,633.5326004000381,633.5158700000029,None,c,1,0.7281622000155039,633.5158700000029,None,,,,,,,ppbb,2022_May_19_1058,training+cueing,2021.1.4,59.636479882248175,
Self.png,Stranger,Self ,m,3.1,18,28,98,,,,,1,0,1,0,,,,,4,1,49,2,,,,,,,,,,,,,,,,,,,,,1.719,2.458,634.3727583999862,None,,,,,,,,,,,,,,,,,,,,634.9713678000262,635.4840592999826,0.5080234400229529,1.008313040016219,635.4673685000162,635.5840375000262,635.4673685000162,635.5840375000262,635.5673799000215,None,m,1,0.5645211000228301,635.5673799000215,None,,,,,,,ppbb,2022_May_19_1058,training+cueing,2021.1.4,59.636479882248175,
Stranger.png,Stranger,Stranger,c,3,13,23,93,,,,,1,0,1,0,,,,,4,2,50,8,,,,,,,,,,,,,,,,,,,,,1.708,1.713,636.2568698999821,None,,,,,,,,,,,,,,,,,,,,636.7960927999811,637.3020919000264,0.5100297200260684,1.010337419982534,637.2852971000248,637.4020981999929,637.2852971000248,637.4020981999929,637.3853594000102,None,c,1,0.4907035999931395,637.3853594000102,None,,,,,,,ppbb,2022_May_19_1058,training+cueing,2021.1.4,59.636479882248175,
Friend.png,Stranger,Friend,m,3.2,19,29,99,,,,,1,0,1,0,,,,,4,3,51,5,,,,,,,,,,,,,,,,,,,,,1.575,1.54,638.0081819000188,None,,,,,,,,,,,,,,,,,,,,638.5589816999855,639.0699789000209,0.5059523200034164,1.006833219958935,639.0532515000086,639.170008599991,639.0532515000086,639.170008599991,639.1532930000103,None,m,1,0.6267698000301607,639.1532930000103,None,,,,,,,ppbb,2022_May_19_1058,training+cueing,2021.1.4,59.636479882248175,
Stranger.png,You,Stranger,m,1.3,15,25,95,,,,,1,0,1,0,,,,,4,4,52,6,,,,,,,,,,,,,,,,,,,,,1.676,1.295,639.9107541000121,None,,,,,,,,,,,,,,,,,,,,640.4511290999944,640.9546692000004,0.5037048200611025,1.0040003200410865,640.9379603000125,641.0380098000169,640.9379603000125,641.0380098000169,641.0380098000169,None,m,1,0.7260107999900356,641.0380098000169,None,,,,,,,ppbb,2022_May_19_1058,training+cueing,2021.1.4,59.636479882248175,
Friend.png,Friend,Friend,c,2,12,22,92,,,,,1,0,1,0,,,,,4,5,53,4,,,,,,,,,,,,,,,,,,,,,1.514,1.695,641.8949301000102,None,,,,,,,,,,,,,,,,,,,,642.4364208999905,642.9395386999822,0.5047906200052239,1.0049942200421356,642.9228439999861,643.0394690000103,642.9228439999861,643.0394690000103,643.0228240999859,None,c,1,0.6933032000088133,643.0228240999859,None,,,,,,,ppbb,2022_May_19_1058,training+cueing,2021.1.4,59.636479882248175,
Self.png,You,Self ,c,1,11,21,91,,,,,1,0,1,0,,,,,4,6,54,0,,,,,,,,,,,,,,,,,,,,,1.713,2.431,643.8472648999887,None,,,,,,,,,,,,,,,,,,,,644.3933287999826,644.9075140000205,0.5111875199945644,1.0114992200396955,644.8908493000199,644.9909124000114,644.8908493000199,644.9909124000114,644.9909124000114,None,c,1,0.5170371999847703,644.9909124000114,None,,,,,,,ppbb,2022_May_19_1058,training+cueing,2021.1.4,59.636479882248175,
Self.png,Friend,Self ,m,2.1,16,26,96,,,,,1,0,1,0,,,,,4,7,55,1,,,,,,,,,,,,,,,,,,,,,1.65,1.749,645.6311527999933,None,,,,,,,,,,,,,,,,,,,,646.1720100000384,646.6754962999839,0.5044659200357273,1.0047228200128302,646.6588542999816,646.7755227999878,646.6588542999816,646.7755227999878,646.7588229000103,None,m,1,0.7171444999985397,646.7588229000103,None,,,,,,,ppbb,2022_May_19_1058,training+cueing,2021.1.4,59.636479882248175,
Self.png,You,Self ,c,1,11,21,91,,,,,1,0,1,0,,,,,4,8,56,9,,,,,,,,,,,,,,,,,,,,,1.402,2.334,647.599398899998,None,,,,,,,,,,,,,,,,,,,,648.1398601999972,648.643564100028,0.507615220034495,1.0080234199995175,648.6269121000078,648.7269649000373,648.6269121000078,648.7269649000373,648.7269649000373,None,c,1,0.47695959999691695,648.7269649000373,None,,,,,,,ppbb,2022_May_19_1058,training+cueing,2021.1.4,59.636479882248175,
Friend.png,You,Friend,m,1.2,14,24,94,,,,,1,0,1,0,,,,,4,9,57,3,,,,,,,,,,,,,,,,,,,,,1.72,2.097,649.3332323000068,None,,,,,,,,,,,,,,,,,,,,649.873259200016,650.3781587000121,0.5096187200397253,1.0099480200442486,650.3614261000184,650.4615138000227,650.3614261000184,650.4615138000227,650.4615138000227,None,m,1,0.6143592000007629,650.4615138000227,None,,,,,,,ppbb,2022_May_19_1058,training+cueing,2021.1.4,59.636479882248175,
Stranger.png,Stranger,Stranger,c,3,13,23,93,,,,,1,0,1,0,,,,,4,10,58,11,,,,,,,,,,,,,,,,,,,,,1.502,1.867,651.2012897999957,None,,,,,,,,,,,,,,,,,,,,651.7431644999888,652.246190899983,0.5036410200409591,1.0039100200519897,652.2294945000322,652.3462481999886,652.2294945000322,652.3462481999886,652.3295228999923,None,c,1,0.7463569999672472,652.3295228999923,None,,,,,,,ppbb,2022_May_19_1058,training+cueing,2021.1.4,59.636479882248175,
Stranger.png,Friend,Stranger,m,2.3,17,27,97,,,,,1,0,1,0,,,,,4,11,59,7,,,,,,,,,,,,,,,,,,,,,1.614,1.755,653.2029289000202,None,,,,,,,,,,,,,,,,,,,,653.7444666000083,654.2476150000002,0.5053849200485274,1.0107672200538218,654.2309073000215,654.3476208000211,654.2309073000215,654.3476208000211,654.3309805000317,None,m,1,0.9530686999787576,654.3309805000317,None,,,,,,,ppbb,2022_May_19_1058,training+cueing,2021.1.4,59.636479882248175,
Stranger.png,Stranger,Stranger,c,3,13,23,93,,,,,1,0,1,0,,,,,5,0,60,11,,,,,,,,,,,,,,,,,,,,,1.442,1.639,655.4224458999815,None,,,,,,,,,,,,,,,,,,,,655.9612701000297,656.4659123999882,0.5071033199783415,1.0074273200007156,656.4492158000357,656.5659680999815,656.4492158000357,656.5659680999815,656.5492491000332,None,c,1,0.6066597999888472,656.5492491000332,None,,,,,,,ppbb,2022_May_19_1058,training+cueing,2021.1.4,59.636479882248175,
Friend.png,Stranger,Friend,m,3.2,19,29,99,,,,,1,0,1,0,,,,,5,1,61,5,,,,,,,,,,,,,,,,,,,,,1.542,2.047,657.2904159000027,None,,,,,,,,,,,,,,,,,,,,657.8285557000199,658.333921900019,0.5103512200294062,1.0107715200283565,658.3172609999892,658.4345238999813,658.3172609999892,658.4345238999813,658.4173068000237,None,m,1,0.48263939999742433,658.4173068000237,None,,,,,,,ppbb,2022_May_19_1058,training+cueing,2021.1.4,59.636479882248175,
Stranger.png,Friend,Stranger,m,2.3,17,27,97,,,,,1,0,1,0,,,,,5,2,62,7,,,,,,,,,,,,,,,,,,,,,1.442,1.527,659.0255621999968,None,,,,,,,,,,,,,,,,,,,,659.5680912000244,660.0684948000126,0.501457020000089,1.0017908199806698,660.0518444000045,660.1685375000234,660.0518444000045,660.1685375000234,660.1685375000234,None,m,1,0.9714197000139393,660.1685375000234,None,,,,,,,ppbb,2022_May_19_1058,training+cueing,2021.1.4,59.636479882248175,
Self.png,You,Self ,c,1,11,21,91,,,,,1,0,1,0,,,,,5,3,63,0,,,,,,,,,,,,,,,,,,,,,1.58,1.753,661.2757239000057,None,,,,,,,,,,,,,,,,,,,,661.8161679999903,662.320152100001,0.5050983200781047,1.0053883200744167,662.3034817000153,662.4035466000205,662.3034817000153,662.4035466000205,662.4035466000205,None,c,1,0.544429500005208,662.4035466000205,None,,,,,,,ppbb,2022_May_19_1058,training+cueing,2021.1.4,59.636479882248175,
Self.png,Friend,Self ,m,2.1,16,26,96,,,,,1,0,1,0,,,,,5,4,64,1,,,,,,,,,,,,,,,,,,,,,1.575,2.42,663.0768829000299,None,,,,,,,,,,,,,,,,,,,,663.6218248000368,664.1214657999808,0.49940842000069097,0.9996377200004645,664.1047791999881,664.2216215000371,664.1047791999881,664.2216215000371,664.2216215000371,None,m,1,0.9342408000375144,664.2216215000371,None,,,,,,,ppbb,2022_May_19_1058,training+cueing,2021.1.4,59.636479882248175,
Stranger.png,You,Stranger,m,1.3,15,25,95,,,,,1,0,1,0,,,,,5,5,65,6,,,,,,,,,,,,,,,,,,,,,1.408,1.905,665.2778419000097,None,,,,,,,,,,,,,,,,,,,,665.8299146000063,666.3397612000117,0.5029734199633822,1.0032503199763596,666.3230591000174,666.4231118999887,666.3230591000174,666.4231118999887,666.4231118999887,None,m,1,0.7328220999916084,666.4231118999887,None,,,,,,,ppbb,2022_May_19_1058,training+cueing,2021.1.4,59.636479882248175,
Self.png,You,Self ,c,1,11,21,91,,,,,1,0,1,0,,,,,5,6,66,9,,,,,,,,,,,,,,,,,,,,,1.431,1.364,667.2794024000177,None,,,,,,,,,,,,,,,,,,,,667.8186327000149,668.3245150999865,0.5104734200285748,1.0108222200069577,668.3077955000335,668.4079063999816,668.3077955000335,668.4079063999816,668.4079063999816,None,c,1,0.5879595000296831,668.4079063999816,None,,,,,,,ppbb,2022_May_19_1058,training+cueing,2021.1.4,59.636479882248175,
Friend.png,Friend,Friend,c,2,12,22,92,,,,,1,0,1,0,,,,,5,7,67,4,,,,,,,,,,,,,,,,,,,,,1.547,2.33,669.1310831999872,None,,,,,,,,,,,,,,,,,,,,669.6731402000296,670.1758486999897,0.5052246199920774,1.0061195199959911,670.1591874000151,670.2759060999961,670.1591874000151,670.2759060999961,670.2592141000205,None,c,1,0.9767561000189744,670.2592141000205,None,,,,,,,ppbb,2022_May_19_1058,training+cueing,2021.1.4,59.636479882248175,
Friend.png,Friend,Friend,c,2,12,22,92,,,,,1,0,1,0,,,,,5,8,68,10,,,,,,,,,,,,,,,,,,,,,1.506,2.477,671.3676694000023,None,,,,,,,,,,,,,,,,,,,,671.905671400018,672.4107913000043,0.5069330199621618,1.0072256199782714,672.3941176999942,672.5108449999825,672.3941176999942,672.5108449999825,672.4941535000107,None,c,1,0.4858327000401914,672.4941535000107,None,,,,,,,ppbb,2022_May_19_1058,training+cueing,2021.1.4,59.636479882248175,
Stranger.png,Stranger,Stranger,c,3,13,23,93,,,,,1,0,1,0,,,,,5,9,69,8,,,,,,,,,,,,,,,,,,,,,1.797,2.116,673.1174607999856,None,,,,,,,,,,,,,,,,,,,,673.6591752000386,674.1620568000362,0.5054614200489596,1.0058082200121135,674.1454181000008,674.262134300021,674.1454181000008,674.262134300021,674.245449399983,None,c,1,0.5424186000018381,674.245449399983,None,,,,,,,ppbb,2022_May_19_1058,training+cueing,2021.1.4,59.636479882248175,
Self.png,Stranger,Self ,m,3.1,18,28,98,,,,,1,0,1,0,,,,,5,10,70,2,,,,,,,,,,,,,,,,,,,,,1.605,2.108,674.9191044000327,None,,,,,,,,,,,,,,,,,,,,675.4575277999975,675.9633955000318,0.5120673199999146,1.012373720004689,675.9467105999938,676.0634238999919,675.9467105999938,676.0634238999919,676.0467423000373,None,c,0,0.4691162999952212,676.0467423000373,None,,,,,,,ppbb,2022_May_19_1058,training+cueing,2021.1.4,59.636479882248175,
Friend.png,You,Friend,m,1.2,14,24,94,,,,,1,0,1,0,,,,,5,11,71,3,,,,,,,,,,,,,,,,,,,,,1.4,1.71,676.6537280000048,None,,,,,,,,,,,,,,,,,,,,677.1931731000077,677.6979745000135,0.5068814200349152,1.0073462200234644,677.681305999984,677.7814565000008,677.681305999984,677.7814565000008,677.7814565000008,None,m,1,0.7504319000290707,677.7814565000008,None,,,,,,,ppbb,2022_May_19_1058,training+cueing,2021.1.4,59.636479882248175,
Friend.png,Stranger,Friend,m,3.2,19,29,99,,,,,1,0,1,0,,,,,6,0,72,5,,,,,,,,,,,,,,,,,,,,,1.457,2.112,678.6555102000129,None,,,,,,,,,,,,,,,,,,,,679.1964822000009,679.6994150999817,0.5066066200379282,1.0070499200373888,679.6827867000247,679.8000117000192,679.6827867000247,679.8000117000192,679.7834716000361,None,m,1,1.1805526000098325,679.7834716000361,None,,,,,,,ppbb,2022_May_19_1058,training+cueing,2021.1.4,59.636479882248175,
Stranger.png,Stranger,Stranger,c,3,13,23,93,,,,,1,0,1,0,,,,,6,1,73,8,,,,,,,,,,,,,,,,,,,,,1.651,2.288,681.0906873000204,None,,,,,,,,,,,,,,,,,,,,681.62774299999,682.1344995999825,0.5126550200511701,1.0135774200316519,682.1178245000192,682.2345703000319,682.1178245000192,682.2345703000319,682.2178871000069,None,c,1,0.7140284000197425,682.2178871000069,None,,,,,,,ppbb,2022_May_19_1058,training+cueing,2021.1.4,59.636479882248175,
Self.png,You,Self ,c,1,11,21,91,,,,,1,0,1,0,,,,,6,2,74,0,,,,,,,,,,,,,,,,,,,,,1.687,2.068,683.0584743000218,None,,,,,,,,,,,,,,,,,,,,683.5979171000072,684.1025862999959,0.5069644199684262,1.0072457199566998,684.0859588999883,684.186004600022,684.0859588999883,684.186004600022,684.186004600022,None,c,1,0.55394090001937,684.186004600022,None,,,,,,,ppbb,2022_May_19_1058,training+cueing,2021.1.4,59.636479882248175,
Self.png,Friend,Self ,m,2.1,16,26,96,,,,,1,0,1,0,,,,,6,3,75,1,,,,,,,,,,,,,,,,,,,,,1.633,1.48,684.8755497999955,None,,,,,,,,,,,,,,,,,,,,685.416689100035,685.9205940000247,0.5077605199767277,1.0086195199983194,685.9039206000161,686.0206667000311,685.9039206000161,686.0206667000311,686.0039203999913,None,m,1,0.5919502999749966,686.0039203999913,None,,,,,,,ppbb,2022_May_19_1058,training+cueing,2021.1.4,59.636479882248175,
Stranger.png,Stranger,Stranger,c,3,13,23,93,,,,,1,0,1,0,,,,,6,4,76,11,,,,,,,,,,,,,,,,,,,,,1.538,2.354,686.7284556000377,None,,,,,,,,,,,,,,,,,,,,687.2689488999895,687.7721958000329,0.5046844200696796,1.0048043200513348,687.7554284000071,687.8720045000082,687.7554284000071,687.8720045000082,687.8553374999901,None,c,1,0.5645226999768056,687.8553374999901,None,,,,,,,ppbb,2022_May_19_1058,training+cueing,2021.1.4,59.636479882248175,
Friend.png,Friend,Friend,c,2,12,22,92,,,,,1,0,1,0,,,,,6,5,77,10,,,,,,,,,,,,,,,,,,,,,1.637,1.255,688.545354700007,None,,,,,,,,,,,,,,,,,,,,689.085379199998,689.589899500017,0.509607820014935,1.0104570200201124,689.5732725000125,689.6899719000212,689.5732725000125,689.6899719000212,689.673254000023,None,c,1,0.522923799988348,689.673254000023,None,,,,,,,ppbb,2022_May_19_1058,training+cueing,2021.1.4,59.636479882248175,
Friend.png,You,Friend,m,1.2,14,24,94,,,,,1,0,1,0,,,,,6,6,78,3,,,,,,,,,,,,,,,,,,,,,1.658,1.423,690.3309590999852,None,,,,,,,,,,,,,,,,,,,,690.8719722999958,691.37456690002,0.5058309200685471,1.0061100200400688,691.3578500000294,691.4578788999934,691.3578500000294,691.4578788999934,691.4578788999934,None,m,1,0.6580009000026621,691.4578788999934,None,,,,,,,ppbb,2022_May_19_1058,training+cueing,2021.1.4,59.636479882248175,
Stranger.png,Friend,Stranger,m,2.3,17,27,97,,,,,1,0,1,0,,,,,6,7,79,7,,,,,,,,,,,,,,,,,,,,,1.401,1.736,692.2479815999977,None,,,,,,,,,,,,,,,,,,,,692.7881281999871,693.2926226999843,0.505785420013126,1.006095019984059,693.2759457000066,693.3926543000271,693.2759457000066,693.3926543000271,693.3759636000032,None,m,1,0.6598950000479817,693.3759636000032,None,,,,,,,ppbb,2022_May_19_1058,training+cueing,2021.1.4,59.636479882248175,
Self.png,Stranger,Self ,m,3.1,18,28,98,,,,,1,0,1,0,,,,,6,8,80,2,,,,,,,,,,,,,,,,,,,,,1.478,1.534,694.1661049000104,None,,,,,,,,,,,,,,,,,,,,694.7392918000114,695.2441391000175,0.5107526000356302,1.0110623000073247,695.2274428000092,695.3442092000041,695.2274428000092,695.3442092000041,695.3275756000075,None,m,1,0.8684452999732457,695.3275756000075,None,,,,,,,ppbb,2022_May_19_1058,training+cueing,2021.1.4,59.636479882248175,
Friend.png,Friend,Friend,c,2,12,22,92,,,,,1,0,1,0,,,,,6,9,81,4,,,,,,,,,,,,,,,,,,,,,1.485,1.279,696.3180600000196,None,,,,,,,,,,,,,,,,,,,,696.8605321000214,697.3622463000356,0.5050097200437449,1.0052935200510547,697.345589100034,697.4623067000066,697.345589100034,697.4623067000066,697.4456148000318,None,c,1,0.7821896999957971,697.4456148000318,None,,,,,,,ppbb,2022_May_19_1058,training+cueing,2021.1.4,59.636479882248175,
Stranger.png,You,Stranger,m,1.3,15,25,95,,,,,1,0,1,0,,,,,6,10,82,6,,,,,,,,,,,,,,,,,,,,,1.638,2.27,698.3525060000247,None,,,,,,,,,,,,,,,,,,,,698.8921409000177,699.405537499988,0.5239114200230688,1.0240118199726567,699.3973194999853,699.4972440000274,699.3973194999853,699.4972440000274,699.4805171000189,None,m,1,0.7314025000086986,699.4805171000189,None,,,,,,,ppbb,2022_May_19_1058,training+cueing,2021.1.4,59.636479882248175,
Self.png,You,Self ,c,1,11,21,91,,,,,1,0,1,0,,,,,6,11,83,9,,,,,,,,,,,,,,,,,,,,,1.562,2.264,700.3372081000125,None,,,,,,,,,,,,,,,,,,,,700.875910600007,701.3818130000145,0.5114924200461246,1.0118010200094432,701.3651503000292,701.465202899999,701.3651503000292,701.465202899999,701.465202899999,None,c,1,1.2747248000232503,701.465202899999,None,,,,,,,ppbb,2022_May_19_1058,training+cueing,2021.1.4,59.636479882248175,
