Image,Name,Face,CorrAns,Match,Face_onset,CResponse_onset,IResponse_onset,Match.thisRepN,Match.thisTrialN,Match.thisN,Match.thisIndex,Blocks.thisRepN,Blocks.thisTrialN,Blocks.thisN,Blocks.thisIndex,trials.thisRepN,trials.thisTrialN,trials.thisN,trials.thisIndex,trials_2.thisRepN,trials_2.thisTrialN,trials_2.thisN,trials_2.thisIndex,text.started,text.stopped,p1.started,p1.stopped,MatchInstructions.started,MatchInstructions.stopped,Name1.started,Name1.stopped,Face_Relevance.started,Face_Relevance.stopped,MismatchInstructions.started,MismatchInstructions.stopped,Rest_trainingInstruct.started,Rest_trainingInstruct.stopped,next8.keys,next8.rt,next8.started,next8.stopped,Ready.started,Ready.stopped,delay_one_picked,delay_two_picked,blank0.started,blank0.stopped,FixationCross1.started,FixationCross1.stopped,Name3.started,Name3.stopped,Face_Relevance3.started,Face_Relevance3.stopped,responseTime.started,responseTime.stopped,resp.keys,resp.corr,resp.rt,resp.started,resp.stopped,Accuracy.started,Accuracy.stopped,questions.started,questions.stopped,p2.started,p2.stopped,FixationCross3.started,FixationCross3.stopped,port_Face_onset.started,port_Face_onset.stopped,Name4.started,Name4.stopped,Face_Relevance4.started,Face_Relevance4.stopped,responseTime2.started,responseTime2.stopped,Response.keys,Response.corr,Response.rt,Response.started,Response.stopped,p3.started,p3.stopped,Finish.started,Finish.stopped,gender,age,participant,date,expName,psychopyVersion,frameRate,
Stranger.png,Stranger,,,,,,,0,0,0,2,,,,,,,,,,,,,44.31292419997044,None,0.0019364815670996904,0.498779981629923,53.637205799808726,None,68.12264889990911,None,68.12264889990911,None,,,,,,,,,,,,,,,,,,,,,,,,,,,,,,,,,,,,,,,,,,,,,,,,,,,,,f,22,ppcc,2022-08-10_13h44.41.151,training+cueing,2022.1.3,60.011474141500926,
Friend.png,Friend,,,,,,,0,1,1,1,,,,,,,,,,,,,,,,,,,88.00934029999189,None,88.00934029999189,None,,,,,,,,,,,,,,,,,,,,,,,,,,,,,,,,,,,,,,,,,,,,,,,,,,,,,f,22,ppcc,2022-08-10_13h44.41.151,training+cueing,2022.1.3,60.011474141500926,
Self.png,You,,,,,,,0,2,2,0,,,,,,,,,,,,,,,,,,,107.97401009988971,None,107.97401009988971,None,,,,,,,,,,,,,,,,,,,,,,,,,,,,,,,,,,,,,,,,,,,,,,,,,,,,,f,22,ppcc,2022-08-10_13h44.41.151,training+cueing,2022.1.3,60.011474141500926,
Stranger.png,You,Stranger,m,1.3,15,25,95,,,,,0,0,0,0,0,0,0,6,,,,,,,,,,,,,,,127.92705059982836,None,155.2133256997913,None,space,17.22195879998617,2.0143909400794655,None,174.4438886998687,None,1.765,1.551,177.46380559983663,None,178.0775552999694,178.58057449990883,178.56391279981472,178.66384439985268,178.56391279981472,178.66384439985268,178.66384439985268,None,m,1,0.8267954001203179,178.66384439985268,None,179.5140401998069,None,,,,,,,,,,,,,,,,,,,,,,,,f,22,ppcc,2022-08-10_13h44.41.151,training+cueing,2022.1.3,60.011474141500926,
Friend.png,Friend,Friend,c,2,12,22,92,,,,,0,0,0,0,0,1,1,10,,,,,,,,,,,,,,,,,,,,,,,,,1.587,1.915,179.91459800000302,None,180.44715929985978,180.94871899997815,180.93201609980315,181.04873629985377,180.93201609980315,181.04873629985377,181.04873629985377,None,c,1,0.49001369997859,181.04873629985377,None,181.56585189979523,None,,,,,,,,,,,,,,,,,,,,,,,,f,22,ppcc,2022-08-10_13h44.41.151,training+cueing,2022.1.3,60.011474141500926,
Friend.png,Friend,Friend,c,2,12,22,92,,,,,0,0,0,0,0,2,2,4,,,,,,,,,,,,,,,,,,,,,,,,,1.786,1.544,181.96628669998609,None,182.4939868999645,183.00018479977734,182.98353530000895,183.100344899809,182.98353530000895,183.100344899809,183.08359139994718,None,c,1,0.29527619993314147,183.08359139994718,None,183.4004727997817,None,,,,,,,,,,,,,,,,,,,,,,,,f,22,ppcc,2022-08-10_13h44.41.151,training+cueing,2022.1.3,60.011474141500926,
Self.png,Stranger,Self ,m,3.1,18,28,98,,,,,0,0,0,0,0,3,3,2,,,,,,,,,,,,,,,,,,,,,,,,,1.776,1.697,183.8007211999502,None,184.33210479980335,184.834893199848,184.81816459982656,184.93487429991364,184.81816459982656,184.93487429991364,184.93487429991364,None,c,0,0.5560821001417935,184.93487429991364,None,185.51853259978816,None,,,,,,,,,,,,,,,,,,,,,,,,f,22,ppcc,2022-08-10_13h44.41.151,training+cueing,2022.1.3,60.011474141500926,
Self.png,You,Self ,c,1,11,21,91,,,,,0,0,0,0,0,4,4,0,,,,,,,,,,,,,,,,,,,,,,,,,1.693,2.211,185.9196736998856,None,186.44923359993845,186.9530250998214,186.93636349984445,187.03641800000332,186.93636349984445,187.03641800000332,187.03641800000332,None,c,1,1.1102126000914723,187.03641800000332,None,188.17046949989162,None,,,,,,,,,,,,,,,,,,,,,,,,f,22,ppcc,2022-08-10_13h44.41.151,training+cueing,2022.1.3,60.011474141500926,
Friend.png,Stranger,Friend,m,3.2,19,29,99,,,,,0,0,0,0,0,5,5,5,,,,,,,,,,,,,,,,,,,,,,,,,1.744,2.168,188.57086809980683,None,189.10505709983408,189.6049561998807,189.6049561998807,189.70499229989946,189.6049561998807,189.70499229989946,189.70499229989946,None,m,1,0.6012701001018286,189.70499229989946,None,190.33882609987631,None,,,,,,,,,,,,,,,,,,,,,,,,f,22,ppcc,2022-08-10_13h44.41.151,training+cueing,2022.1.3,60.011474141500926,
Stranger.png,Stranger,Stranger,c,3,13,23,93,,,,,0,0,0,0,0,6,6,11,,,,,,,,,,,,,,,,,,,,,,,,,1.735,1.874,190.7394973000046,None,191.27446519979276,191.78984979982488,191.77319909981452,191.88989439979196,191.77319909981452,191.88989439979196,191.87317269993946,None,c,1,1.0091936001554132,191.87317269993946,None,192.90733529999852,None,,,,,,,,,,,,,,,,,,,,,,,,f,22,ppcc,2022-08-10_13h44.41.151,training+cueing,2022.1.3,60.011474141500926,
Stranger.png,Stranger,Stranger,c,3,13,23,93,,,,,0,0,0,0,0,7,7,8,,,,,,,,,,,,,,,,,,,,,,,,,1.521,2.115,193.3079085999634,None,193.8353043999523,194.34185559977777,194.32504129991867,194.44177029980347,194.32504129991867,194.44177029980347,194.4250186998397,None,c,1,0.7788585999514908,194.4250186998397,None,195.2257140998263,None,,,,,,,,,,,,,,,,,,,,,,,,f,22,ppcc,2022-08-10_13h44.41.151,training+cueing,2022.1.3,60.011474141500926,
Stranger.png,Friend,Stranger,m,2.3,17,27,97,,,,,0,0,0,0,0,8,8,7,,,,,,,,,,,,,,,,,,,,,,,,,1.621,1.973,195.62593769980595,None,196.1570974998176,196.66006739996374,196.64335179980844,196.7600868998561,196.64335179980844,196.7600868998561,196.7600868998561,None,m,1,0.7472929998766631,196.7600868998561,None,197.52735399990343,None,,,,,,,,,,,,,,,,,,,,,,,,f,22,ppcc,2022-08-10_13h44.41.151,training+cueing,2022.1.3,60.011474141500926,
Self.png,You,Self ,c,1,11,21,91,,,,,0,0,0,0,0,9,9,9,,,,,,,,,,,,,,,,,,,,,,,,,1.745,1.611,197.9275925999973,None,198.4580788000021,198.96169769996777,198.9450348999817,199.04509319993667,198.9450348999817,199.04509319993667,199.04509319993667,None,c,1,0.9259951999410987,199.04509319993667,None,199.9957493999973,None,,,,,,,,,,,,,,,,,,,,,,,,f,22,ppcc,2022-08-10_13h44.41.151,training+cueing,2022.1.3,60.011474141500926,
Friend.png,You,Friend,m,1.2,14,24,94,,,,,0,0,0,0,0,10,10,3,,,,,,,,,,,,,,,,,,,,,,,,,1.455,2.116,200.39611859992146,None,200.92406929982826,201.43019369989634,201.41350779985078,201.5135121999774,201.41350779985078,201.5135121999774,201.5135121999774,None,m,1,0.6821735999546945,201.5135121999774,None,202.21406279993244,None,,,,,,,,,,,,,,,,,,,,,,,,f,22,ppcc,2022-08-10_13h44.41.151,training+cueing,2022.1.3,60.011474141500926,
Self.png,Friend,Self ,m,2.1,16,26,96,,,,,0,0,0,0,0,11,11,1,,,,,,,,,,,,,,,,,,,,,,,,,1.777,2.006,202.61433899984695,None,203.14932069997303,203.64841069979593,203.64841069979593,203.7484946998302,203.64841069979593,203.7484946998302,203.7484946998302,None,m,1,0.670368499821052,203.7484946998302,None,204.44903619983234,None,,,,,,,,,,,,,,,,,,,,,,,,f,22,ppcc,2022-08-10_13h44.41.151,training+cueing,2022.1.3,60.011474141500926,
Self.png,Stranger,Self ,m,3.1,18,28,98,,,,,0,0,0,0,,,,,0,0,0,2,,,,,,,,,,,,,,,,,,,221.12788489996456,None,1.795,2.094,224.63691309979185,None,,,,,,,,,,,,,,,,204.84929639985785,None,0.016166340094059706,None,225.25859759980813,225.76439009979367,0.5064285602420568,1.006913460092619,225.74774069990963,225.86508069979027,225.74774069990963,225.86508069979027,225.84773919987492,None,c,0,0.6832412998192012,225.84773919987492,None,,,,,f,22,ppcc,2022-08-10_13h44.41.151,training+cueing,2022.1.3,60.011474141500926,
Self.png,You,Self ,c,1,11,21,91,,,,,0,0,0,0,,,,,0,1,1,9,,,,,,,,,,,,,,,,,,,,,1.605,1.435,226.65098119992763,None,,,,,,,,,,,,,,,,,,,,227.19592369999737,227.69915569992736,0.5047176200896502,1.0049640198703855,227.68244559993036,227.78248059982434,227.68244559993036,227.78248059982434,227.78248059982434,None,m,0,0.8445693999528885,227.78248059982434,None,,,,,f,22,ppcc,2022-08-10_13h44.41.151,training+cueing,2022.1.3,60.011474141500926,
Friend.png,Stranger,Friend,m,3.2,19,29,99,,,,,0,0,0,0,,,,,0,2,2,5,,,,,,,,,,,,,,,,,,,,,1.693,1.757,228.75150759983808,None,,,,,,,,,,,,,,,,,,,,229.29764219978824,229.80069079995155,0.5038721198216081,1.004056119825691,229.78409409988672,229.90088949981146,229.78409409988672,229.90088949981146,229.88408449990675,None,m,1,0.6799864999484271,229.88408449990675,None,,,,,f,22,ppcc,2022-08-10_13h44.41.151,training+cueing,2022.1.3,60.011474141500926,
Friend.png,Friend,Friend,c,2,12,22,92,,,,,0,0,0,0,,,,,0,3,3,10,,,,,,,,,,,,,,,,,,,,,1.732,1.907,230.68624859978445,None,,,,,,,,,,,,,,,,,,,,231.23101699980907,231.73542029992677,0.5044407199602574,1.004708619788289,231.71876409999095,231.83540689991787,231.71876409999095,231.83540689991787,231.81870359997265,None,c,1,0.6002056999132037,231.81870359997265,None,,,,,f,22,ppcc,2022-08-10_13h44.41.151,training+cueing,2022.1.3,60.011474141500926,
Stranger.png,Stranger,Stranger,c,3,13,23,93,,,,,0,0,0,0,,,,,0,4,4,8,,,,,,,,,,,,,,,,,,,,,1.682,2.25,232.53766319993883,None,,,,,,,,,,,,,,,,,,,,233.08569589979015,233.58670519990847,0.49952321988530457,0.9998229199554771,233.57001019991003,233.6867504999973,233.57001019991003,233.6867504999973,233.6867504999973,None,c,1,0.829310400178656,233.6867504999973,None,,,,,f,22,ppcc,2022-08-10_13h44.41.151,training+cueing,2022.1.3,60.011474141500926,
Friend.png,Friend,Friend,c,2,12,22,92,,,,,0,0,0,0,,,,,0,5,5,4,,,,,,,,,,,,,,,,,,,,,1.727,1.403,234.63898659986444,None,,,,,,,,,,,,,,,,,,,,235.18450499977916,235.68821619986556,0.5046810200437903,1.0049198199994862,235.67152889980935,235.78826409997419,235.67152889980935,235.78826409997419,235.77154109999537,None,c,1,0.455793600063771,235.77154109999537,None,,,,,f,22,ppcc,2022-08-10_13h44.41.151,training+cueing,2022.1.3,60.011474141500926,
Friend.png,You,Friend,m,1.2,14,24,94,,,,,0,0,0,0,,,,,0,6,6,3,,,,,,,,,,,,,,,,,,,,,1.768,1.871,236.3568859999068,None,,,,,,,,,,,,,,,,,,,,236.90406479989178,237.40614379988983,0.5010276199318469,1.0013140197843313,237.38942619995214,237.48946479987353,237.38942619995214,237.48946479987353,237.48946479987353,None,m,1,0.5932570998556912,237.48946479987353,None,,,,,f,22,ppcc,2022-08-10_13h44.41.151,training+cueing,2022.1.3,60.011474141500926,
Self.png,Friend,Self ,m,2.1,16,26,96,,,,,0,0,0,0,,,,,0,7,7,1,,,,,,,,,,,,,,,,,,,,,1.517,2.472,238.2088088998571,None,,,,,,,,,,,,,,,,,,,,238.7537913999986,239.25749049987644,0.5045678201131523,1.0047592201735824,239.24081829981878,239.35753529984504,239.24081829981878,239.35753529984504,239.34082109993324,None,m,1,0.9018992001656443,239.34082109993324,None,,,,,f,22,ppcc,2022-08-10_13h44.41.151,training+cueing,2022.1.3,60.011474141500926,
Stranger.png,Stranger,Stranger,c,3,13,23,93,,,,,0,0,0,0,,,,,0,8,8,11,,,,,,,,,,,,,,,,,,,,,1.709,1.72,240.37702729995362,None,,,,,,,,,,,,,,,,,,,,240.92553349980153,241.42570549994707,0.513577519915998,1.0139225197490305,241.42570549994707,241.52577069983818,241.42570549994707,241.52577069983818,241.52577069983818,None,c,1,0.7008555000647902,241.52577069983818,None,,,,,f,22,ppcc,2022-08-10_13h44.41.151,training+cueing,2022.1.3,60.011474141500926,
Stranger.png,You,Stranger,m,1.3,15,25,95,,,,,0,0,0,0,,,,,0,9,9,6,,,,,,,,,,,,,,,,,,,,,1.607,2.445,242.36167909996584,None,,,,,,,,,,,,,,,,,,,,242.91356749995612,243.4271581999492,0.5079090197104961,1.0081286197528243,243.41047459980473,243.5105409999378,243.41047459980473,243.5105409999378,243.5105409999378,None,m,1,1.4356382999103516,243.5105409999378,None,,,,,f,22,ppcc,2022-08-10_13h44.41.151,training+cueing,2022.1.3,60.011474141500926,
Stranger.png,Friend,Stranger,m,2.3,17,27,97,,,,,0,0,0,0,,,,,0,10,10,7,,,,,,,,,,,,,,,,,,,,,1.415,1.879,245.079863099847,None,,,,,,,,,,,,,,,,,,,,245.6256948998198,246.12904159980826,0.5040147197432816,1.0043205197434872,246.1123882997781,246.22913479991257,246.1123882997781,246.22913479991257,246.2124266999308,None,m,1,0.8631271000485867,246.2124266999308,None,,,,,f,22,ppcc,2022-08-10_13h44.41.151,training+cueing,2022.1.3,60.011474141500926,
Self.png,You,Self ,c,1,11,21,91,,,,,0,0,0,0,,,,,0,11,11,0,,,,,,,,,,,,,,,,,,,,,1.406,1.908,247.1981855998747,None,,,,,,,,,,,,,,,,,,,,247.74255079985596,248.24734679982066,0.5050579200033098,1.0052812199573964,248.23066129977815,248.3306689998135,248.23066129977815,248.3306689998135,248.3306689998135,None,c,1,0.6970375999808311,248.3306689998135,None,,,,,f,22,ppcc,2022-08-10_13h44.41.151,training+cueing,2022.1.3,60.011474141500926,
Stranger.png,Stranger,Stranger,c,3,13,23,93,,,,,0,0,0,0,,,,,1,0,12,8,,,,,,,,,,,,,,,,,,,,,1.411,2.499,249.14933329983614,None,,,,,,,,,,,,,,,,,,,,249.6956309999805,250.19871969986707,0.5036161199677736,1.003902019932866,250.18201889982447,250.2987390998751,250.18201889982447,250.2987390998751,250.2819877997972,None,c,1,0.8894296002108604,250.2819877997972,None,,,,,f,22,ppcc,2022-08-10_13h44.41.151,training+cueing,2022.1.3,60.011474141500926,
Stranger.png,Stranger,Stranger,c,3,13,23,93,,,,,0,0,0,0,,,,,1,1,13,11,,,,,,,,,,,,,,,,,,,,,1.67,1.616,251.30118660000153,None,,,,,,,,,,,,,,,,,,,,251.84370299987495,252.35022189980373,0.5104507200885564,1.0108040201012045,252.33358089998364,252.45029629999772,252.33358089998364,252.45029629999772,252.43354829982854,None,c,1,1.2013455000706017,252.43354829982854,None,,,,,f,22,ppcc,2022-08-10_13h44.41.151,training+cueing,2022.1.3,60.011474141500926,
Self.png,You,Self ,c,1,11,21,91,,,,,0,0,0,0,,,,,1,2,14,0,,,,,,,,,,,,,,,,,,,,,1.696,1.653,253.7699893999379,None,,,,,,,,,,,,,,,,,,,,254.31492179981433,254.8186902999878,0.5037497200537473,1.0040263200644404,254.80208989977837,254.90207499987446,254.80208989977837,254.90207499987446,254.90207499987446,None,c,1,0.5719965000171214,254.90207499987446,None,,,,,f,22,ppcc,2022-08-10_13h44.41.151,training+cueing,2022.1.3,60.011474141500926,
Friend.png,Friend,Friend,c,2,12,22,92,,,,,0,0,0,0,,,,,1,3,15,4,,,,,,,,,,,,,,,,,,,,,1.473,2.041,255.6042847998906,None,,,,,,,,,,,,,,,,,,,,256.15090969996527,256.6534378998913,0.5034736196976155,None,256.63667879998684,256.75342349987477,256.63667879998684,256.75342349987477,256.7366841000039,None,c,1,0.3217401998117566,256.7366841000039,None,,,,,f,22,ppcc,2022-08-10_13h44.41.151,training+cueing,2022.1.3,60.011474141500926,
Friend.png,You,Friend,m,1.2,14,24,94,,,,,0,0,0,0,,,,,1,4,16,3,,,,,,,,,,,,,,,,,,,,,1.487,2.1,257.18866159999743,None,,,,,,,,,,,,,,,,,,,,257.733126899926,258.23788749985397,0.5051274199504405,1.0053159198723733,258.22125279996544,258.32123829983175,258.22125279996544,258.32123829983175,258.32123829983175,None,m,1,0.5938794000539929,258.32123829983175,None,,,,,f,22,ppcc,2022-08-10_13h44.41.151,training+cueing,2022.1.3,60.011474141500926,
Self.png,Stranger,Self ,m,3.1,18,28,98,,,,,0,0,0,0,,,,,1,5,17,2,,,,,,,,,,,,,,,,,,,,,1.561,2.181,259.04015629994683,None,,,,,,,,,,,,,,,,,,,,259.58672979986295,260.0892312999349,0.5033923196606338,1.0036571198143065,260.07253739982843,260.1892272999976,260.07253739982843,260.1892272999976,260.1725127999671,None,m,1,1.1425095000304282,260.1725127999671,None,,,,,f,22,ppcc,2022-08-10_13h44.41.151,training+cueing,2022.1.3,60.011474141500926,
Stranger.png,You,Stranger,m,1.3,15,25,95,,,,,0,0,0,0,,,,,1,6,18,6,,,,,,,,,,,,,,,,,,,,,1.744,1.397,261.4422530999873,None,,,,,,,,,,,,,,,,,,,,261.98669529985636,262.4908785999287,0.5047673196531832,1.0059043196961284,262.47321669990197,262.5743200997822,262.47321669990197,262.5743200997822,262.5743200997822,None,m,1,0.7560760001651943,262.5743200997822,None,,,,,f,22,ppcc,2022-08-10_13h44.41.151,training+cueing,2022.1.3,60.011474141500926,
Self.png,You,Self ,c,1,11,21,91,,,,,0,0,0,0,,,,,1,7,19,9,,,,,,,,,,,,,,,,,,,,,1.678,1.804,263.4603272997774,None,,,,,,,,,,,,,,,,,,,,264.00560129992664,264.50903670000844,0.509930020198226,1.0101828202605247,264.4923975998536,264.59240829991177,264.4923975998536,264.59240829991177,264.59240829991177,None,c,1,1.299406399950385,264.59240829991177,None,,,,,f,22,ppcc,2022-08-10_13h44.41.151,training+cueing,2022.1.3,60.011474141500926,
Friend.png,Stranger,Friend,m,3.2,19,29,99,,,,,0,0,0,0,,,,,1,8,20,5,,,,,,,,,,,,,,,,,,,,,1.744,1.448,266.0115849999711,None,,,,,,,,,,,,,,,,,,,,266.55792839988135,267.06105819996446,0.5038013199809939,1.0039028199389577,267.04437659983523,267.1611903999001,267.04437659983523,267.1611903999001,267.14440479991026,None,m,1,1.0343494999688119,267.14440479991026,None,,,,,f,22,ppcc,2022-08-10_13h44.41.151,training+cueing,2022.1.3,60.011474141500926,
Friend.png,Friend,Friend,c,2,12,22,92,,,,,0,0,0,0,,,,,1,9,21,10,,,,,,,,,,,,,,,,,,,,,1.693,1.961,268.31366509990767,None,,,,,,,,,,,,,,,,,,,,268.859110099962,269.36265419982374,0.5042621197644621,1.0044146198779345,269.3459586999379,269.4626100999303,269.3459586999379,269.4626100999303,269.4459683999885,None,c,1,0.6367395999841392,269.4459683999885,None,,,,,f,22,ppcc,2022-08-10_13h44.41.151,training+cueing,2022.1.3,60.011474141500926,
Stranger.png,Friend,Stranger,m,2.3,17,27,97,,,,,0,0,0,0,,,,,1,10,22,7,,,,,,,,,,,,,,,,,,,,,1.71,1.295,270.2147010997869,None,,,,,,,,,,,,,,,,,,,,270.7565185998101,271.26394149987027,0.5106318197213113,1.0109874196350574,271.2473176999483,271.36427229992114,271.2473176999483,271.36427229992114,271.347325099865,None,m,1,0.6555810999125242,271.347325099865,None,,,,,f,22,ppcc,2022-08-10_13h44.41.151,training+cueing,2022.1.3,60.011474141500926,
Self.png,Friend,Self ,m,2.1,16,26,96,,,,,0,0,0,0,,,,,1,11,23,1,,,,,,,,,,,,,,,,,,,,,1.55,1.244,272.1327329999767,None,,,,,,,,,,,,,,,,,,,,272.6751025998965,273.1818032998126,0.5107232199516147,1.0109677200671285,273.16515079978853,273.2818924000021,273.16515079978853,273.2818924000021,273.26517909998074,None,m,1,0.7056632998865098,273.26517909998074,None,,,,,f,22,ppcc,2022-08-10_13h44.41.151,training+cueing,2022.1.3,60.011474141500926,
Self.png,You,Self ,c,1,11,21,91,,,,,0,0,0,0,,,,,2,0,24,0,,,,,,,,,,,,,,,,,,,,,1.56,1.883,274.104868899798,None,,,,,,,,,,,,,,,,,,,,274.645362299867,275.1500950998161,0.5049291199538857,1.0051469199825078,275.13345629977994,275.2334796998184,275.13345629977994,275.2334796998184,275.2334796998184,None,c,1,0.9775068000890315,275.2334796998184,None,,,,,f,22,ppcc,2022-08-10_13h44.41.151,training+cueing,2022.1.3,60.011474141500926,
Stranger.png,Stranger,Stranger,c,3,13,23,93,,,,,0,0,0,0,,,,,2,1,25,11,,,,,,,,,,,,,,,,,,,,,1.73,1.834,276.3359355998691,None,,,,,,,,,,,,,,,,,,,,276.88638249994256,277.401699999813,0.5112753198482096,1.011535019846633,277.3849872997962,277.5017593000084,277.3849872997962,277.5017593000084,277.4850460998714,None,c,1,0.7736882998142391,277.4850460998714,None,,,,,f,22,ppcc,2022-08-10_13h44.41.151,training+cueing,2022.1.3,60.011474141500926,
Friend.png,Stranger,Friend,m,3.2,19,29,99,,,,,0,0,0,0,,,,,2,2,26,5,,,,,,,,,,,,,,,,,,,,,1.595,1.744,278.3887675998267,None,,,,,,,,,,,,,,,,,,,,278.93232169980183,279.4365014999639,0.5058124200440943,1.006202620221302,279.41985079995357,279.5365615999326,279.41985079995357,279.5365615999326,279.51986459991895,None,m,1,0.5631723999977112,279.51986459991895,None,,,,,f,22,ppcc,2022-08-10_13h44.41.151,training+cueing,2022.1.3,60.011474141500926,
Self.png,Friend,Self ,m,2.1,16,26,96,,,,,0,0,0,0,,,,,2,3,27,1,,,,,,,,,,,,,,,,,,,,,1.692,1.263,280.20547980000265,None,,,,,,,,,,,,,,,,,,,,280.7502493998036,281.2545154998079,0.504167219856754,1.0043939198367298,281.2378637997899,281.35536609985866,281.2378637997899,281.35536609985866,281.33851029979996,None,m,1,1.0481453000102192,281.33851029979996,None,,,,,f,22,ppcc,2022-08-10_13h44.41.151,training+cueing,2022.1.3,60.011474141500926,
Friend.png,Friend,Friend,c,2,12,22,92,,,,,0,0,0,0,,,,,2,4,28,10,,,,,,,,,,,,,,,,,,,,,1.406,2.397,282.50702479993924,None,,,,,,,,,,,,,,,,,,,,283.049727599835,283.5561968998518,0.5103216199204326,1.0105748199857771,283.5395001999568,283.65622729994357,283.5395001999568,283.65622729994357,283.63947839988396,None,c,1,0.5866284999065101,283.63947839988396,None,,,,,f,22,ppcc,2022-08-10_13h44.41.151,training+cueing,2022.1.3,60.011474141500926,
Stranger.png,Friend,Stranger,m,2.3,17,27,97,,,,,0,0,0,0,,,,,2,5,29,7,,,,,,,,,,,,,,,,,,,,,1.766,2.472,284.3585208998993,None,,,,,,,,,,,,,,,,,,,,284.9006999998819,285.4074579998851,0.5110229200217873,1.011161119909957,285.39092699997127,285.5075621998403,285.39092699997127,285.5075621998403,285.490887099877,None,m,1,0.6559727001003921,285.490887099877,None,,,,,f,22,ppcc,2022-08-10_13h44.41.151,training+cueing,2022.1.3,60.011474141500926,
Self.png,Stranger,Self ,m,3.1,18,28,98,,,,,0,0,0,0,,,,,2,6,30,2,,,,,,,,,,,,,,,,,,,,,1.488,1.689,286.2764794998802,None,,,,,,,,,,,,,,,,,,,,286.82187089999206,287.32563119987026,0.5034537201281637,1.0035583199933171,287.30898499977775,287.4255941999145,287.30898499977775,287.4255941999145,287.4088565998245,None,m,1,1.0575807001441717,287.4088565998245,None,,,,,f,22,ppcc,2022-08-10_13h44.41.151,training+cueing,2022.1.3,60.011474141500926,
Friend.png,You,Friend,m,1.2,14,24,94,,,,,0,0,0,0,,,,,2,7,31,3,,,,,,,,,,,,,,,,,,,,,1.787,2.021,288.59476349991746,None,,,,,,,,,,,,,,,,,,,,289.15717759984545,289.66057179984637,0.5043961599003524,1.0047306600026786,289.6439071998466,289.7439341999125,289.6439071998466,289.7439341999125,289.7439341999125,None,m,1,0.5470384999644011,289.7439341999125,None,,,,,f,22,ppcc,2022-08-10_13h44.41.151,training+cueing,2022.1.3,60.011474141500926,
Stranger.png,You,Stranger,m,1.3,15,25,95,,,,,0,0,0,0,,,,,2,8,32,6,,,,,,,,,,,,,,,,,,,,,1.616,1.693,290.4131824998185,None,,,,,,,,,,,,,,,,,,,,290.9543243998196,291.46187619981356,0.5104491200763732,1.0107389201875776,291.44519169977866,291.54526269994676,291.44519169977866,291.54526269994676,291.54526269994676,None,m,1,0.6022616000846028,291.54526269994676,None,,,,,f,22,ppcc,2022-08-10_13h44.41.151,training+cueing,2022.1.3,60.011474141500926,
Friend.png,Friend,Friend,c,2,12,22,92,,,,,0,0,0,0,,,,,2,9,33,4,,,,,,,,,,,,,,,,,,,,,1.567,2.406,292.28069379995577,None,,,,,,,,,,,,,,,,,,,,292.82685679988936,293.3299249999691,0.5039515197277069,1.004239919828251,293.313219799893,293.4299772998784,293.313219799893,293.4299772998784,293.4132293998264,None,c,1,0.4936720998957753,293.4132293998264,None,,,,,f,22,ppcc,2022-08-10_13h44.41.151,training+cueing,2022.1.3,60.011474141500926,
Stranger.png,Stranger,Stranger,c,3,13,23,93,,,,,0,0,0,0,,,,,2,10,34,8,,,,,,,,,,,,,,,,,,,,,1.662,1.791,294.03221099986695,None,,,,,,,,,,,,,,,,,,,,294.5783233998809,295.08115969994105,0.5035414199810475,None,295.0644965998363,295.18118149996735,295.0644965998363,295.18118149996735,295.16450349986553,None,c,1,0.3742331999819726,295.16450349986553,None,,,,,f,22,ppcc,2022-08-10_13h44.41.151,training+cueing,2022.1.3,60.011474141500926,
Self.png,You,Self ,c,1,11,21,91,,,,,0,0,0,0,,,,,2,11,35,9,,,,,,,,,,,,,,,,,,,,,1.792,2.035,295.6673955998849,None,,,,,,,,,,,,,,,,,,,,296.2108520998154,296.71565159992315,0.5052438196726143,None,296.69902169983834,296.79905049991794,296.69902169983834,296.79905049991794,296.79905049991794,None,c,1,0.3559300000779331,296.79905049991794,None,,,,,f,22,ppcc,2022-08-10_13h44.41.151,training+cueing,2022.1.3,60.011474141500926,
Stranger.png,You,Stranger,m,1.3,15,25,95,,,,,0,0,0,0,,,,,3,0,36,6,,,,,,,,,,,,,,,,,,,,,1.492,2.138,297.28429039986804,None,,,,,,,,,,,,,,,,,,,,297.8272229998838,298.33351929998025,0.5102385198697448,1.0103825198020786,298.31691239983775,298.41689719981514,298.31691239983775,298.41689719981514,298.41689719981514,None,m,1,0.7856523001100868,298.41689719981514,None,,,,,f,22,ppcc,2022-08-10_13h44.41.151,training+cueing,2022.1.3,60.011474141500926,
Stranger.png,Stranger,Stranger,c,3,13,23,93,,,,,0,0,0,0,,,,,3,1,37,8,,,,,,,,,,,,,,,,,,,,,1.458,1.54,299.3360039999243,None,,,,,,,,,,,,,,,,,,,,299.88268449995667,300.3849992000032,0.5030775198247284,1.0031240198295563,300.3684880998917,300.4850111999549,300.3684880998917,300.4850111999549,300.46836589998566,None,c,1,0.7022107997909188,300.46836589998566,None,,,,,f,22,ppcc,2022-08-10_13h44.41.151,training+cueing,2022.1.3,60.011474141500926,
Self.png,You,Self ,c,1,11,21,91,,,,,0,0,0,0,,,,,3,2,38,0,,,,,,,,,,,,,,,,,,,,,1.507,1.908,301.3041241997853,None,,,,,,,,,,,,,,,,,,,,301.8485260999296,302.3530899998732,0.5049065200146288,1.005283520091325,302.3364348998293,302.436458399985,302.3364348998293,302.436458399985,302.436458399985,None,c,1,1.309748100116849,302.436458399985,None,,,,,f,22,ppcc,2022-08-10_13h44.41.151,training+cueing,2022.1.3,60.011474141500926,
Stranger.png,Friend,Stranger,m,2.3,17,27,97,,,,,0,0,0,0,,,,,3,3,39,7,,,,,,,,,,,,,,,,,,,,,1.681,1.458,303.8730830999557,None,,,,,,,,,,,,,,,,,,,,304.4215792999603,304.92161459987983,0.5146577197592705,1.0149492197670043,304.92161459987983,305.0216830999125,304.92161459987983,305.0216830999125,305.0216830999125,None,c,0,0.38929300010204315,305.0216830999125,None,,,,,f,22,ppcc,2022-08-10_13h44.41.151,training+cueing,2022.1.3,60.011474141500926,
Stranger.png,Stranger,Stranger,c,3,13,23,93,,,,,0,0,0,0,,,,,3,4,40,11,,,,,,,,,,,,,,,,,,,,,1.757,1.284,305.54030369990505,None,,,,,,,,,,,,,,,,,,,,306.0878058997914,306.5894760999363,0.49977272003889084,1.00003561982885,306.57282070000656,306.6895138998516,306.57282070000656,306.6895138998516,306.6895138998516,None,c,1,1.04080619988963,306.6895138998516,None,,,,,f,22,ppcc,2022-08-10_13h44.41.151,training+cueing,2022.1.3,60.011474141500926,
Self.png,You,Self ,c,1,11,21,91,,,,,0,0,0,0,,,,,3,5,41,9,,,,,,,,,,,,,,,,,,,,,1.426,1.469,307.8585866999347,None,,,,,,,,,,,,,,,,,,,,308.4038856998086,308.90783789986745,0.5051361196674407,1.0054612196981907,308.89113969984464,308.99124109977856,308.89113969984464,308.99124109977856,308.99124109977856,None,c,1,1.027555099921301,308.99124109977856,None,,,,,f,22,ppcc,2022-08-10_13h44.41.151,training+cueing,2022.1.3,60.011474141500926,
Friend.png,You,Friend,m,1.2,14,24,94,,,,,0,0,0,0,,,,,3,6,42,3,,,,,,,,,,,,,,,,,,,,,1.436,1.624,310.1435537999496,None,,,,,,,,,,,,,,,,,,,,310.68683019978926,311.1928057000041,0.5093088198918849,1.0095843200106174,311.17613399983384,311.2761850999668,311.17613399983384,311.2761850999668,311.2761850999668,None,m,1,0.7261570999398828,311.2761850999668,None,,,,,f,22,ppcc,2022-08-10_13h44.41.151,training+cueing,2022.1.3,60.011474141500926,
Self.png,Stranger,Self ,m,3.1,18,28,98,,,,,0,0,0,0,,,,,3,7,43,2,,,,,,,,,,,,,,,,,,,,,1.626,1.6,312.1283030998893,None,,,,,,,,,,,,,,,,,,,,312.6736330999993,313.17764029977843,0.503466019872576,1.003619419876486,313.1610133999493,313.2776394998655,313.1610133999493,313.2776394998655,313.2609233998228,None,m,1,1.0774286000523716,313.2609233998228,None,,,,,f,22,ppcc,2022-08-10_13h44.41.151,training+cueing,2022.1.3,60.011474141500926,
Self.png,Friend,Self ,m,2.1,16,26,96,,,,,0,0,0,0,,,,,3,8,44,1,,,,,,,,,,,,,,,,,,,,,1.584,2.037,314.46391549985856,None,,,,,,,,,,,,,,,,,,,,315.0168169999961,315.5293048999738,0.5056376201100647,1.0058727199211717,315.5126364999451,315.6293283998966,315.5126364999451,315.6293283998966,315.6126498999074,None,m,1,1.0778041000012308,315.6126498999074,None,,,,,f,22,ppcc,2022-08-10_13h44.41.151,training+cueing,2022.1.3,60.011474141500926,
Friend.png,Stranger,Friend,m,3.2,19,29,99,,,,,0,0,0,0,,,,,3,9,45,5,,,,,,,,,,,,,,,,,,,,,1.706,2.367,316.81502649979666,None,,,,,,,,,,,,,,,,,,,,317.3618255998008,317.86429969989695,0.5033192199189216,1.0036832198966295,317.847629299853,317.9643306999933,317.847629299853,317.9643306999933,317.9476143999491,None,m,1,0.7273057999555022,317.9476143999491,None,,,,,f,22,ppcc,2022-08-10_13h44.41.151,training+cueing,2022.1.3,60.011474141500926,
Friend.png,Friend,Friend,c,2,12,22,92,,,,,0,0,0,0,,,,,3,10,46,10,,,,,,,,,,,,,,,,,,,,,1.502,1.316,318.8001834999304,None,,,,,,,,,,,,,,,,,,,,319.34509059996344,319.8491837999318,0.5037748201284558,1.0040966200176626,319.83249449986033,319.94925770000555,319.83249449986033,319.94925770000555,319.9325580999721,None,c,1,0.5178639001678675,319.9325580999721,None,,,,,f,22,ppcc,2022-08-10_13h44.41.151,training+cueing,2022.1.3,60.011474141500926,
Friend.png,Friend,Friend,c,2,12,22,92,,,,,0,0,0,0,,,,,3,11,47,4,,,,,,,,,,,,,,,,,,,,,1.434,1.306,320.5844280999154,None,,,,,,,,,,,,,,,,,,,,321.1272560998332,321.63376289978623,0.5102386199869215,1.01053252001293,321.61700619990006,321.73373549990356,321.61700619990006,321.73373549990356,321.71703289984725,None,c,1,0.42933960002847016,321.71703289984725,None,,,,,f,22,ppcc,2022-08-10_13h44.41.151,training+cueing,2022.1.3,60.011474141500926,
Self.png,You,Self ,c,1,11,21,91,,,,,0,0,0,0,,,,,4,0,48,0,,,,,,,,,,,,,,,,,,,,,1.695,1.729,322.268958899891,None,,,,,,,,,,,,,,,,,,,,322.8138530999422,323.318254499929,0.5044186199083924,1.0046241199597716,323.30160609981976,323.4016292998567,323.30160609981976,323.4016292998567,323.4016292998567,None,c,1,0.5204285997897387,323.4016292998567,None,,,,,f,22,ppcc,2022-08-10_13h44.41.151,training+cueing,2022.1.3,60.011474141500926,
Friend.png,Friend,Friend,c,2,12,22,92,,,,,0,0,0,0,,,,,4,1,49,10,,,,,,,,,,,,,,,,,,,,,1.726,2.416,324.0535254999995,None,,,,,,,,,,,,,,,,,,,,324.60006229998544,325.1029161999468,0.5034162199590355,1.0037374200765043,325.08616499998607,325.20297839981504,325.08616499998607,325.20297839981504,325.1862044997979,None,c,1,0.5285769000183791,325.1862044997979,None,,,,,f,22,ppcc,2022-08-10_13h44.41.151,training+cueing,2022.1.3,60.011474141500926,
Self.png,Friend,Self ,m,2.1,16,26,96,,,,,0,0,0,0,,,,,4,2,50,1,,,,,,,,,,,,,,,,,,,,,1.573,1.415,325.83854549983516,None,,,,,,,,,,,,,,,,,,,,326.3826119999867,326.8874892999884,0.5072029198054224,1.007672619773075,326.8708594997879,326.9875778998248,326.8708594997879,326.9875778998248,326.9708513999358,None,m,1,0.5996073000133038,326.9708513999358,None,,,,,f,22,ppcc,2022-08-10_13h44.41.151,training+cueing,2022.1.3,60.011474141500926,
Stranger.png,Stranger,Stranger,c,3,13,23,93,,,,,0,0,0,0,,,,,4,3,51,11,,,,,,,,,,,,,,,,,,,,,1.443,1.758,327.68956430000253,None,,,,,,,,,,,,,,,,,,,,328.25250379997306,328.75553269986995,0.5024459599517286,1.0027827599551529,328.7388417997863,328.85559899988584,328.7388417997863,328.85559899988584,328.83890619990416,None,c,1,0.7152784999925643,328.83890619990416,None,,,,,f,22,ppcc,2022-08-10_13h44.41.151,training+cueing,2022.1.3,60.011474141500926,
Friend.png,Friend,Friend,c,2,12,22,92,,,,,0,0,0,0,,,,,4,4,52,4,,,,,,,,,,,,,,,,,,,,,1.782,1.995,329.67430429998785,None,,,,,,,,,,,,,,,,,,,,330.2199683999643,330.72364779980853,0.504652519710362,1.005026219645515,330.7069198999088,330.8236567999702,330.7069198999088,330.8236567999702,330.8069471998606,None,c,1,1.0678717999253422,330.8069471998606,None,,,,,f,22,ppcc,2022-08-10_13h44.41.151,training+cueing,2022.1.3,60.011474141500926,
Friend.png,Stranger,Friend,m,3.2,19,29,99,,,,,0,0,0,0,,,,,4,5,53,5,,,,,,,,,,,,,,,,,,,,,1.474,2.455,332.0093215999659,None,,,,,,,,,,,,,,,,,,,,332.55554829980247,333.05863929982297,0.5037681197281927,1.0039388197474182,333.04202429996803,333.15870999987237,333.04202429996803,333.15870999987237,333.141990599921,None,m,1,0.7486477000638843,333.141990599921,None,,,,,f,22,ppcc,2022-08-10_13h44.41.151,training+cueing,2022.1.3,60.011474141500926,
Stranger.png,Stranger,Stranger,c,3,13,23,93,,,,,0,0,0,0,,,,,4,6,54,8,,,,,,,,,,,,,,,,,,,,,1.664,1.817,334.01077659986913,None,,,,,,,,,,,,,,,,,,,,334.5527136998717,335.06013709981926,0.5105847199447453,1.010783519828692,335.0434508000035,335.1601018998772,335.0434508000035,335.1601018998772,335.14346769987606,None,c,1,0.6031381001230329,335.14346769987606,None,,,,,f,22,ppcc,2022-08-10_13h44.41.151,training+cueing,2022.1.3,60.011474141500926,
Self.png,You,Self ,c,1,11,21,91,,,,,0,0,0,0,,,,,4,7,55,9,,,,,,,,,,,,,,,,,,,,,1.786,1.557,335.8788971998729,None,,,,,,,,,,,,,,,,,,,,336.4239326999523,336.92813649983145,0.5059271198697388,1.0062964200042188,336.9114661999047,337.01156179979444,336.9114661999047,337.01156179979444,337.01156179979444,None,c,1,0.5428990998771042,337.01156179979444,None,,,,,f,22,ppcc,2022-08-10_13h44.41.151,training+cueing,2022.1.3,60.011474141500926,
Friend.png,You,Friend,m,1.2,14,24,94,,,,,0,0,0,0,,,,,4,8,56,3,,,,,,,,,,,,,,,,,,,,,1.707,1.66,337.68385959998704,None,,,,,,,,,,,,,,,,,,,,338.22231609979644,338.7293939997908,0.5096402200870216,1.009893920039758,338.7127476998139,338.81275799986906,338.7127476998139,338.81275799986906,338.81275799986906,None,m,1,0.5651320999022573,338.81275799986906,None,,,,,f,22,ppcc,2022-08-10_13h44.41.151,training+cueing,2022.1.3,60.011474141500926,
Stranger.png,You,Stranger,m,1.3,15,25,95,,,,,0,0,0,0,,,,,4,9,57,6,,,,,,,,,,,,,,,,,,,,,1.474,1.979,339.498705299804,None,,,,,,,,,,,,,,,,,,,,340.047971499851,340.5474143999163,0.5132996200118214,1.0135580198839307,340.5474143999163,340.64741849992424,340.5474143999163,340.64741849992424,340.64741849992424,None,m,1,0.7154574000742286,340.64741849992424,None,,,,,f,22,ppcc,2022-08-10_13h44.41.151,training+cueing,2022.1.3,60.011474141500926,
Self.png,Stranger,Self ,m,3.1,18,28,98,,,,,0,0,0,0,,,,,4,10,58,2,,,,,,,,,,,,,,,,,,,,,1.489,1.918,341.4863394999411,None,,,,,,,,,,,,,,,,,,,,342.02907649986446,342.5321892998181,0.5037317199166864,1.0039191199466586,342.5155485998839,342.63225529994816,342.5155485998839,342.63225529994816,342.6155038999859,None,m,1,0.9548152999486774,342.6155038999859,None,,,,,f,22,ppcc,2022-08-10_13h44.41.151,training+cueing,2022.1.3,60.011474141500926,
Stranger.png,Friend,Stranger,m,2.3,17,27,97,,,,,0,0,0,0,,,,,4,11,59,7,,,,,,,,,,,,,,,,,,,,,1.699,2.052,343.7011402999051,None,,,,,,,,,,,,,,,,,,,,344.2461497997865,344.7504681998398,0.5042347197886556,1.0045816199854016,344.73375569982454,344.8504631998949,344.73375569982454,344.8504631998949,344.83376999991015,None,m,1,0.5608620999846607,344.83376999991015,None,,,,,f,22,ppcc,2022-08-10_13h44.41.151,training+cueing,2022.1.3,60.011474141500926,
Self.png,Stranger,Self ,m,3.1,18,28,98,,,,,0,0,0,0,,,,,5,0,60,2,,,,,,,,,,,,,,,,,,,,,1.61,1.669,345.51966149988584,None,,,,,,,,,,,,,,,,,,,,346.0652975998819,346.56840859982185,0.5038029197603464,1.0042362199164927,346.5516989999451,346.6684626999777,346.5516989999451,346.6684626999777,346.6517283997964,None,m,1,1.1265560002066195,346.6517283997964,None,,,,,f,22,ppcc,2022-08-10_13h44.41.151,training+cueing,2022.1.3,60.011474141500926,
Stranger.png,Stranger,Stranger,c,3,13,23,93,,,,,0,0,0,0,,,,,5,1,61,8,,,,,,,,,,,,,,,,,,,,,1.549,2.337,347.90431279991753,None,,,,,,,,,,,,,,,,,,,,348.4470810999628,348.9534887999762,0.5101960198953748,1.0105385198257864,348.9367825000081,349.0534822999034,348.9367825000081,349.0534822999034,349.03681369987316,None,None,0,,349.03681369987316,None,,,,,f,22,ppcc,2022-08-10_13h44.41.151,training+cueing,2022.1.3,60.011474141500926,
Friend.png,Friend,Friend,c,2,12,22,92,,,,,0,0,0,0,,,,,5,2,62,10,,,,,,,,,,,,,,,,,,,,,1.549,1.224,350.6898426997941,None,,,,,,,,,,,,,,,,,,,,351.2388035999611,351.73879769979976,0.5129438200965524,1.0133144198916852,351.73879769979976,351.83883689995855,351.73879769979976,351.83883689995855,351.83883689995855,None,c,1,0.8675516999792308,351.83883689995855,None,,,,,f,22,ppcc,2022-08-10_13h44.41.151,training+cueing,2022.1.3,60.011474141500926,
Self.png,You,Self ,c,1,11,21,91,,,,,0,0,0,0,,,,,5,3,63,9,,,,,,,,,,,,,,,,,,,,,1.691,1.649,352.82451119995676,None,,,,,,,,,,,,,,,,,,,,353.3701754999347,353.8737817998044,0.5047922201920301,None,353.85703339986503,353.95704659982584,353.85703339986503,353.95704659982584,353.95704659982584,None,c,1,0.3021028998773545,353.95704659982584,None,,,,,f,22,ppcc,2022-08-10_13h44.41.151,training+cueing,2022.1.3,60.011474141500926,
Stranger.png,You,Stranger,m,1.3,15,25,95,,,,,0,0,0,0,,,,,5,4,64,6,,,,,,,,,,,,,,,,,,,,,1.51,2.016,354.39261239999905,None,,,,,,,,,,,,,,,,,,,,354.93396049994044,355.4415283999406,0.5109075198415667,1.0109402199741453,355.42509289993905,355.52485769987106,355.42509289993905,355.52485769987106,355.52485769987106,None,m,1,0.7020761999301612,355.52485769987106,None,,,,,f,22,ppcc,2022-08-10_13h44.41.151,training+cueing,2022.1.3,60.011474141500926,
Stranger.png,Friend,Stranger,m,2.3,17,27,97,,,,,0,0,0,0,,,,,5,5,65,7,,,,,,,,,,,,,,,,,,,,,1.687,2.15,356.3642638998572,None,,,,,,,,,,,,,,,,,,,,356.9059578999877,357.40974969998933,0.5046306198928505,1.004840019857511,357.3930013999343,357.50962059991434,357.3930013999343,357.50962059991434,357.4929676000029,None,c,0,1.2134385998360813,357.4929676000029,None,,,,,f,22,ppcc,2022-08-10_13h44.41.151,training+cueing,2022.1.3,60.011474141500926,
Self.png,Friend,Self ,m,2.1,16,26,96,,,,,0,0,0,0,,,,,5,6,66,1,,,,,,,,,,,,,,,,,,,,,1.719,1.995,358.8286343999207,None,,,,,,,,,,,,,,,,,,,,359.37127289990894,359.8780611997936,0.5108996201306581,1.0113421201240271,359.8613781000022,359.978710899828,359.8613781000022,359.978710899828,359.9619983998127,None,m,1,0.6321890000253916,359.9619983998127,None,,,,,f,22,ppcc,2022-08-10_13h44.41.151,training+cueing,2022.1.3,60.011474141500926,
Friend.png,Friend,Friend,c,2,12,22,92,,,,,0,0,0,0,,,,,5,7,67,4,,,,,,,,,,,,,,,,,,,,,1.746,1.243,360.7136957999319,None,,,,,,,,,,,,,,,,,,,,361.25544859981164,361.7627732998226,0.5103703201748431,1.0105407200753689,361.74614459997974,361.8627437998075,361.74614459997974,361.8627437998075,361.8460955999326,None,c,1,0.588341600028798,361.8460955999326,None,,,,,f,22,ppcc,2022-08-10_13h44.41.151,training+cueing,2022.1.3,60.011474141500926,
Friend.png,You,Friend,m,1.2,14,24,94,,,,,0,0,0,0,,,,,5,8,68,3,,,,,,,,,,,,,,,,,,,,,1.551,1.395,362.56471329997294,None,,,,,,,,,,,,,,,,,,,,363.110294399783,363.6140770998318,0.5049889201764017,1.005269620101899,363.5974118998274,363.6974353999831,363.5974118998274,363.6974353999831,363.6974353999831,None,m,1,0.6733205001801252,363.6974353999831,None,,,,,f,22,ppcc,2022-08-10_13h44.41.151,training+cueing,2022.1.3,60.011474141500926,
Self.png,You,Self ,c,1,11,21,91,,,,,0,0,0,0,,,,,5,9,69,0,,,,,,,,,,,,,,,,,,,,,1.583,1.23,364.4999370998703,None,,,,,,,,,,,,,,,,,,,,365.04212609981187,365.54883959982544,0.5109067198354751,1.0111720198765397,365.5321699997876,365.63215899979696,365.5321699997876,365.63215899979696,365.63215899979696,None,c,1,0.9153565999586135,365.63215899979696,None,,,,,f,22,ppcc,2022-08-10_13h44.41.151,training+cueing,2022.1.3,60.011474141500926,
Friend.png,Stranger,Friend,m,3.2,19,29,99,,,,,0,0,0,0,,,,,5,10,70,5,,,,,,,,,,,,,,,,,,,,,1.793,2.326,366.66769739985466,None,,,,,,,,,,,,,,,,,,,,367.21904579992406,367.73387929983437,0.5088926199823618,1.0090889199636877,367.7172154998407,367.8338994998485,367.7172154998407,367.8338994998485,367.8172524999827,None,m,1,0.4890340000856668,367.8172524999827,None,,,,,f,22,ppcc,2022-08-10_13h44.41.151,training+cueing,2022.1.3,60.011474141500926,
Stranger.png,Stranger,Stranger,c,3,13,23,93,,,,,0,0,0,0,,,,,5,11,71,11,,,,,,,,,,,,,,,,,,,,,1.675,1.973,368.4372059998568,None,,,,,,,,,,,,,,,,,,,,368.97832109988667,369.4850290999748,0.5107290197629482,1.0111580197699368,369.46835059998557,369.5851959998254,369.46835059998557,369.5851959998254,369.5684004998766,None,c,1,0.6105249000247568,369.5684004998766,None,,,,,f,22,ppcc,2022-08-10_13h44.41.151,training+cueing,2022.1.3,60.011474141500926,
Stranger.png,Friend,Stranger,m,2.3,17,27,97,,,,,0,0,0,0,,,,,6,0,72,7,,,,,,,,,,,,,,,,,,,,,1.437,1.312,370.3047041997779,None,,,,,,,,,,,,,,,,,,,,370.8485800998751,371.35303919995204,0.5042706199456006,1.0044999199453741,371.33638669992797,371.4531032999512,371.33638669992797,371.4531032999512,371.43647479987703,None,m,1,0.5821374000515789,371.43647479987703,None,,,,,f,22,ppcc,2022-08-10_13h44.41.151,training+cueing,2022.1.3,60.011474141500926,
Self.png,You,Self ,c,1,11,21,91,,,,,0,0,0,0,,,,,6,1,73,9,,,,,,,,,,,,,,,,,,,,,1.504,1.861,372.1383928998839,None,,,,,,,,,,,,,,,,,,,,372.6839453999419,373.19248399999924,0.5050235199742019,1.022030419902876,373.1709886000026,373.27107669995166,373.1709886000026,373.27107669995166,373.27107669995166,None,c,1,0.634822100168094,373.27107669995166,None,,,,,f,22,ppcc,2022-08-10_13h44.41.151,training+cueing,2022.1.3,60.011474141500926,
Friend.png,You,Friend,m,1.2,14,24,94,,,,,0,0,0,0,,,,,6,2,74,3,,,,,,,,,,,,,,,,,,,,,1.604,1.913,374.03982669999823,None,,,,,,,,,,,,,,,,,,,,374.5823721999768,375.0890338998288,0.5107126198709011,1.01101551996544,375.0724098999053,375.1724210998509,375.0724098999053,375.1724210998509,375.1724210998509,None,m,1,0.5579649000428617,375.1724210998509,None,,,,,f,22,ppcc,2022-08-10_13h44.41.151,training+cueing,2022.1.3,60.011474141500926,
Friend.png,Friend,Friend,c,2,12,22,92,,,,,0,0,0,0,,,,,6,3,75,10,,,,,,,,,,,,,,,,,,,,,1.741,2.293,375.85772469989024,None,,,,,,,,,,,,,,,,,,,,376.40286459983326,376.90707339998335,0.5044256199616939,1.004738420015201,376.8903866999317,377.0070659997873,376.8903866999317,377.0070659997873,376.99038410000503,None,c,1,0.6278297998942435,376.99038410000503,None,,,,,f,22,ppcc,2022-08-10_13h44.41.151,training+cueing,2022.1.3,60.011474141500926,
Stranger.png,Stranger,Stranger,c,3,13,23,93,,,,,0,0,0,0,,,,,6,4,76,11,,,,,,,,,,,,,,,,,,,,,1.79,2.043,377.74257139978,None,,,,,,,,,,,,,,,,,,,,378.2922964999452,378.7918946999125,0.5131776197813451,1.0133962198160589,378.7918946999125,378.89195239986293,378.7918946999125,378.89195239986293,378.89195239986293,None,c,1,0.5183962001465261,378.89195239986293,None,,,,,f,22,ppcc,2022-08-10_13h44.41.151,training+cueing,2022.1.3,60.011474141500926,
Self.png,Friend,Self ,m,2.1,16,26,96,,,,,0,0,0,0,,,,,6,5,77,1,,,,,,,,,,,,,,,,,,,,,1.747,2.321,379.544186799787,None,,,,,,,,,,,,,,,,,,,,380.0893758998718,380.5930595998652,0.5046990199480206,1.005017319926992,380.57638129987754,380.6930858998094,380.57638129987754,380.6930858998094,380.6764122999739,None,m,1,0.5896842000074685,380.6764122999739,None,,,,,f,22,ppcc,2022-08-10_13h44.41.151,training+cueing,2022.1.3,60.011474141500926,
Friend.png,Friend,Friend,c,2,12,22,92,,,,,0,0,0,0,,,,,6,6,78,4,,,,,,,,,,,,,,,,,,,,,1.718,1.381,381.3951471999753,None,,,,,,,,,,,,,,,,,,,,381.93726409994997,382.44435509992763,0.5104021199513227,1.0107003198936582,382.42788239987567,382.54512039991096,382.42788239987567,382.54512039991096,382.52831669989973,None,m,0,0.577743100002408,382.52831669989973,None,,,,,f,22,ppcc,2022-08-10_13h44.41.151,training+cueing,2022.1.3,60.011474141500926,
Self.png,You,Self ,c,1,11,21,91,,,,,0,0,0,0,,,,,6,7,79,0,,,,,,,,,,,,,,,,,,,,,1.51,1.581,383.23076509987004,None,,,,,,,,,,,,,,,,,,,,383.77453850000165,384.27908949996345,0.5056810199748725,1.0059663199353963,384.2623633998446,384.3624193998985,384.2623633998446,384.3624193998985,384.3624193998985,None,c,1,0.7279939001891762,384.3624193998985,None,,,,,f,22,ppcc,2022-08-10_13h44.41.151,training+cueing,2022.1.3,60.011474141500926,
Stranger.png,Stranger,Stranger,c,3,13,23,93,,,,,0,0,0,0,,,,,6,8,80,8,,,,,,,,,,,,,,,,,,,,,1.414,1.852,385.2146478998475,None,,,,,,,,,,,,,,,,,,,,385.7601303998381,386.2638427999336,0.5029362197965384,1.003205019980669,386.24715700000525,386.36387679982,386.24715700000525,386.36387679982,386.3471592999995,None,m,0,0.7592112999409437,386.3471592999995,None,,,,,f,22,ppcc,2022-08-10_13h44.41.151,training+cueing,2022.1.3,60.011474141500926,
Self.png,Stranger,Self ,m,3.1,18,28,98,,,,,0,0,0,0,,,,,6,9,81,2,,,,,,,,,,,,,,,,,,,,,1.417,2.1,387.23283439991064,None,,,,,,,,,,,,,,,,,,,,387.77525749988854,388.2819756998215,0.5107621198985726,1.0111180199310184,388.2652881999966,388.38200659980066,388.2652881999966,388.38200659980066,388.3653217998799,None,m,1,1.269025499932468,388.3653217998799,None,,,,,f,22,ppcc,2022-08-10_13h44.41.151,training+cueing,2022.1.3,60.011474141500926,
Friend.png,Stranger,Friend,m,3.2,19,29,99,,,,,0,0,0,0,,,,,6,10,82,5,,,,,,,,,,,,,,,,,,,,,1.573,2.22,389.7678067998495,None,,,,,,,,,,,,,,,,,,,,390.3101483997889,390.81714549986646,0.5108378198929131,1.0110491199884564,390.8004502998665,390.9171847999096,390.8004502998665,390.9171847999096,390.9005116999615,None,m,1,0.893566699931398,390.9005116999615,None,,,,,f,22,ppcc,2022-08-10_13h44.41.151,training+cueing,2022.1.3,60.011474141500926,
Stranger.png,You,Stranger,m,1.3,15,25,95,,,,,0,0,0,0,,,,,6,11,83,6,,,,,,,,,,,,,,,,,,,,,1.63,2.15,391.9193309999537,None,,,,,,,,,,,,,,,,,,,,392.4689732999541,392.9686772997957,0.5117070199921727,1.0120100199710578,392.9686772997957,393.0686958997976,392.9686772997957,393.0686958997976,393.0686958997976,None,m,1,0.8535859999246895,393.0686958997976,None,,,,,f,22,ppcc,2022-08-10_13h44.41.151,training+cueing,2022.1.3,60.011474141500926,
Friend.png,Friend,Friend,c,2,12,22,92,,,,,0,0,0,0,,,,,7,0,84,4,,,,,,,,,,,,,,,,,,,,,1.745,1.447,394.05441839993,None,,,,,,,,,,,,,,,,,,,,394.60112579981796,395.1035568998195,0.5031938198953867,1.0034692198969424,395.086880199844,395.20360399992205,395.086880199844,395.20360399992205,395.1869336999953,None,c,1,0.5760123999789357,395.1869336999953,None,,,,,f,22,ppcc,2022-08-10_13h44.41.151,training+cueing,2022.1.3,60.011474141500926,
Stranger.png,Friend,Stranger,m,2.3,17,27,97,,,,,0,0,0,0,,,,,7,1,85,7,,,,,,,,,,,,,,,,,,,,,1.585,1.508,395.888997499831,None,,,,,,,,,,,,,,,,,,,,396.4323905999772,396.9381822999567,0.5091012199409306,1.009421420050785,396.92156169982627,397.03825479978696,396.92156169982627,397.03825479978696,397.02155559998937,None,m,1,0.5973412001039833,397.02155559998937,None,,,,,f,22,ppcc,2022-08-10_13h44.41.151,training+cueing,2022.1.3,60.011474141500926,
Friend.png,Stranger,Friend,m,3.2,19,29,99,,,,,0,0,0,0,,,,,7,2,86,5,,,,,,,,,,,,,,,,,,,,,1.705,2.359,397.74032059987076,None,,,,,,,,,,,,,,,,,,,,398.28561139991507,398.78954309993424,0.5035639200359583,1.0038169198669493,398.77289189980365,398.88960569980554,398.77289189980365,398.88960569980554,398.872917199973,None,m,1,0.6978925000876188,398.872917199973,None,,,,,f,22,ppcc,2022-08-10_13h44.41.151,training+cueing,2022.1.3,60.011474141500926,
Stranger.png,Stranger,Stranger,c,3,13,23,93,,,,,0,0,0,0,,,,,7,3,87,8,,,,,,,,,,,,,,,,,,,,,1.635,1.747,399.6917552999221,None,,,,,,,,,,,,,,,,,,,,400.2348165998701,400.74094129982404,0.5098837199620903,1.010323119815439,400.7242871997878,400.8410843999591,400.7242871997878,400.8410843999591,400.8243220997974,None,c,1,0.9695524999406189,400.8243220997974,None,,,,,f,22,ppcc,2022-08-10_13h44.41.151,training+cueing,2022.1.3,60.011474141500926,
Self.png,You,Self ,c,1,11,21,91,,,,,0,0,0,0,,,,,7,4,88,9,,,,,,,,,,,,,,,,,,,,,1.798,2.11,401.9265114997979,None,,,,,,,,,,,,,,,,,,,,402.4716367998626,402.97603319981135,0.504132519941777,1.0044664200395346,402.9592518999707,403.059333199868,402.9592518999707,403.059333199868,403.059333199868,None,c,1,0.5588391001801938,403.059333199868,None,,,,,f,22,ppcc,2022-08-10_13h44.41.151,training+cueing,2022.1.3,60.011474141500926,
Self.png,Stranger,Self ,m,3.1,18,28,98,,,,,0,0,0,0,,,,,7,5,89,2,,,,,,,,,,,,,,,,,,,,,1.411,1.7,403.74455549987033,None,,,,,,,,,,,,,,,,,,,,404.29445839999244,404.79397449991666,0.5129944200161844,1.0131980201695114,404.79397449991666,404.8939580998849,404.79397449991666,404.8939580998849,404.8939580998849,None,m,1,0.8046043000649661,404.8939580998849,None,,,,,f,22,ppcc,2022-08-10_13h44.41.151,training+cueing,2022.1.3,60.011474141500926,
Self.png,Friend,Self ,m,2.1,16,26,96,,,,,0,0,0,0,,,,,7,6,90,1,,,,,,,,,,,,,,,,,,,,,1.763,1.825,405.82952139992267,None,,,,,,,,,,,,,,,,,,,,406.37503449991345,406.8787835999392,0.5047315200790763,1.005011719884351,406.8620948998723,406.97875759983435,406.8620948998723,406.97875759983435,406.96210229978897,None,m,1,0.6879599001258612,406.96210229978897,None,,,,,f,22,ppcc,2022-08-10_13h44.41.151,training+cueing,2022.1.3,60.011474141500926,
Friend.png,You,Friend,m,1.2,14,24,94,,,,,0,0,0,0,,,,,7,7,91,3,,,,,,,,,,,,,,,,,,,,,1.464,1.75,407.7807373998221,None,,,,,,,,,,,,,,,,,,,,408.3253268999979,408.8302022998687,0.5049765198491514,1.0051815200131387,408.81353269983083,408.9135165999178,408.81353269983083,408.9135165999178,408.9135165999178,None,m,1,0.6088294999208301,408.9135165999178,None,,,,,f,22,ppcc,2022-08-10_13h44.41.151,training+cueing,2022.1.3,60.011474141500926,
Self.png,You,Self ,c,1,11,21,91,,,,,0,0,0,0,,,,,7,8,92,0,,,,,,,,,,,,,,,,,,,,,1.596,2.243,409.6490782999899,None,,,,,,,,,,,,,,,,,,,,410.1915274998173,410.6981752999127,0.5106649200897664,1.0109021202661097,410.681546599837,410.78154759993777,410.681546599837,410.78154759993777,410.78154759993777,None,m,0,0.5806728000752628,410.78154759993777,None,,,,,f,22,ppcc,2022-08-10_13h44.41.151,training+cueing,2022.1.3,60.011474141500926,
Stranger.png,Stranger,Stranger,c,3,13,23,93,,,,,0,0,0,0,,,,,7,9,93,11,,,,,,,,,,,,,,,,,,,,,1.754,2.3,411.4842929998413,None,,,,,,,,,,,,,,,,,,,,412.0297190998681,412.53284359979443,0.5037949201650918,1.0040161199867725,412.51620680000633,412.63292409991845,412.51620680000633,412.63292409991845,412.61619559978135,None,m,0,0.554119200212881,412.61619559978135,None,,,,,f,22,ppcc,2022-08-10_13h44.41.151,training+cueing,2022.1.3,60.011474141500926,
Friend.png,Friend,Friend,c,2,12,22,92,,,,,0,0,0,0,,,,,7,10,94,10,,,,,,,,,,,,,,,,,,,,,1.476,1.746,413.30166769982316,None,,,,,,,,,,,,,,,,,,,,413.8466095998883,414.35082109994255,0.5042789198923856,1.0046375200618058,414.334164599888,414.45101829990745,414.334164599888,414.45101829990745,414.43435869994573,None,c,1,0.6237288999836892,414.43435869994573,None,,,,,f,22,ppcc,2022-08-10_13h44.41.151,training+cueing,2022.1.3,60.011474141500926,
Stranger.png,You,Stranger,m,1.3,15,25,95,,,,,0,0,0,0,,,,,7,11,95,6,,,,,,,,,,,,,,,,,,,,,1.504,2.271,415.186528199818,None,,,,,,,,,,,,,,,,,,,,415.7315945997834,416.23553879978135,0.5050659200642258,1.0053439198527485,416.21886129979976,416.31889599980786,416.21886129979976,416.31889599980786,416.31889599980786,None,m,1,0.9158940000925213,416.31889599980786,None,,,,,f,22,ppcc,2022-08-10_13h44.41.151,training+cueing,2022.1.3,60.011474141500926,
Friend.png,You,Friend,m,1.2,14,24,94,,,,,0,0,0,0,,,,,8,0,96,3,,,,,,,,,,,,,,,,,,,,,1.552,2.012,417.3544706997927,None,,,,,,,,,,,,,,,,,,,,417.90338129992597,418.4037711999845,0.5134150199592113,1.0136561200488359,418.4037711999845,418.50380649999715,418.4037711999845,418.50380649999715,418.50380649999715,None,m,1,0.7622555000707507,418.50380649999715,None,,,,,f,22,ppcc,2022-08-10_13h44.41.151,training+cueing,2022.1.3,60.011474141500926,
Stranger.png,You,Stranger,m,1.3,15,25,95,,,,,0,0,0,0,,,,,8,1,97,6,,,,,,,,,,,,,,,,,,,,,1.723,1.883,419.38951279991306,None,,,,,,,,,,,,,,,,,,,,419.9426058998797,420.45519129978493,0.5065769196953624,1.0067933197133243,420.4386152999941,420.5386528999079,420.4386152999941,420.5386528999079,420.5386528999079,None,m,1,0.5510751998517662,420.5386528999079,None,,,,,f,22,ppcc,2022-08-10_13h44.41.151,training+cueing,2022.1.3,60.011474141500926,
Self.png,Friend,Self ,m,2.1,16,26,96,,,,,0,0,0,0,,,,,8,2,98,1,,,,,,,,,,,,,,,,,,,,,1.461,1.86,421.22450179979205,None,,,,,,,,,,,,,,,,,,,,421.7695619999431,422.27326639997773,0.504785519791767,1.004855919862166,422.25672979978845,422.3735006998759,422.25672979978845,422.3735006998759,422.35675629996695,None,m,1,0.7008454999886453,422.35675629996695,None,,,,,f,22,ppcc,2022-08-10_13h44.41.151,training+cueing,2022.1.3,60.011474141500926,
Self.png,You,Self ,c,1,11,21,91,,,,,0,0,0,0,,,,,8,3,99,0,,,,,,,,,,,,,,,,,,,,,1.764,1.589,423.19184069987386,None,,,,,,,,,,,,,,,,,,,,423.7205103999004,424.2246221997775,0.5038133200723678,1.0040381199214607,424.20800129999407,424.3080638998654,424.20800129999407,424.3080638998654,424.3080638998654,None,c,1,0.6062304999213666,424.3080638998654,None,,,,,f,22,ppcc,2022-08-10_13h44.41.151,training+cueing,2022.1.3,60.011474141500926,
Friend.png,Friend,Friend,c,2,12,22,92,,,,,0,0,0,0,,,,,8,4,100,4,,,,,,,,,,,,,,,,,,,,,1.742,2.432,425.0435481998138,None,,,,,,,,,,,,,,,,,,,,425.58913649991155,426.09266339987516,0.504418219672516,1.0046799196861684,426.0760160998907,426.1927091998514,426.0760160998907,426.1927091998514,426.17603229987435,None,c,1,0.43405319983139634,426.17603229987435,None,,,,,f,22,ppcc,2022-08-10_13h44.41.151,training+cueing,2022.1.3,60.011474141500926,
Self.png,Stranger,Self ,m,3.1,18,28,98,,,,,0,0,0,0,,,,,8,5,101,2,,,,,,,,,,,,,,,,,,,,,1.65,1.971,426.74448219989426,None,,,,,,,,,,,,,,,,,,,,427.29428759985603,427.7939148999285,0.5131868198513985,1.0136409199330956,427.7939148999285,427.8939493999351,427.7939148999285,427.8939493999351,427.8939493999351,None,m,1,0.7156613001134247,427.8939493999351,None,,,,,f,22,ppcc,2022-08-10_13h44.41.151,training+cueing,2022.1.3,60.011474141500926,
Stranger.png,Stranger,Stranger,c,3,13,23,93,,,,,0,0,0,0,,,,,8,6,102,8,,,,,,,,,,,,,,,,,,,,,1.445,1.439,428.72927919984795,None,,,,,,,,,,,,,,,,,,,,429.27131009986624,429.7786818998866,0.5105008198879659,1.011018019868061,429.7620136998594,429.8794420999475,429.7620136998594,429.8794420999475,429.86280449992046,None,c,1,0.6351159000769258,429.86280449992046,None,,,,,f,22,ppcc,2022-08-10_13h44.41.151,training+cueing,2022.1.3,60.011474141500926,
Stranger.png,Stranger,Stranger,c,3,13,23,93,,,,,0,0,0,0,,,,,8,7,103,11,,,,,,,,,,,,,,,,,,,,,1.596,2.343,430.630649499828,None,,,,,,,,,,,,,,,,,,,,431.17344529996626,431.68005189998075,0.5106516198720783,1.0109114197548479,431.6633724998683,431.7800942999311,431.6633724998683,431.7800942999311,431.7633980999235,None,c,1,0.4464994000736624,431.7633980999235,None,,,,,f,22,ppcc,2022-08-10_13h44.41.151,training+cueing,2022.1.3,60.011474141500926,
Stranger.png,Friend,Stranger,m,2.3,17,27,97,,,,,0,0,0,0,,,,,8,8,104,7,,,,,,,,,,,,,,,,,,,,,1.515,1.738,432.33189989998937,None,,,,,,,,,,,,,,,,,,,,432.8781514998991,433.38133029988967,0.5021288197021931,1.0022865198552608,433.3647742997855,433.481346399989,433.3647742997855,433.481346399989,433.46464149979874,None,m,1,0.6492733000777662,433.46464149979874,None,,,,,f,22,ppcc,2022-08-10_13h44.41.151,training+cueing,2022.1.3,60.011474141500926,
Friend.png,Friend,Friend,c,2,12,22,92,,,,,0,0,0,0,,,,,8,9,105,10,,,,,,,,,,,,,,,,,,,,,1.766,2.206,434.2333364998922,None,,,,,,,,,,,,,,,,,,,,434.7758761998266,435.2827088998165,0.5108526200056076,1.0111698200926185,435.2659697998315,435.38270309986547,435.2659697998315,435.38270309986547,435.3662485999521,None,c,1,0.6202130001038313,435.3662485999521,None,,,,,f,22,ppcc,2022-08-10_13h44.41.151,training+cueing,2022.1.3,60.011474141500926,
Friend.png,Stranger,Friend,m,3.2,19,29,99,,,,,0,0,0,0,,,,,8,10,106,5,,,,,,,,,,,,,,,,,,,,,1.73,1.349,436.11799789988436,None,,,,,,,,,,,,,,,,,,,,436.6651566999499,437.1673922999762,0.5028790198266506,1.0031499199103564,437.15069369995035,437.26742869988084,437.15069369995035,437.26742869988084,437.25071269995533,None,m,1,0.895277600036934,437.25071269995533,None,,,,,f,22,ppcc,2022-08-10_13h44.41.151,training+cueing,2022.1.3,60.011474141500926,
Self.png,You,Self ,c,1,11,21,91,,,,,0,0,0,0,,,,,8,11,107,9,,,,,,,,,,,,,,,,,,,,,1.45,2.181,438.26960299978964,None,,,,,,,,,,,,,,,,,,,,438.81430420000106,439.31894809985533,0.5048896200023592,1.0051696200389415,439.302285999991,439.40230869990773,439.302285999991,439.40230869990773,439.40230869990773,None,c,1,0.5839751998428255,439.40230869990773,None,,,,,f,22,ppcc,2022-08-10_13h44.41.151,training+cueing,2022.1.3,60.011474141500926,
Self.png,Friend,Self ,m,2.1,16,26,96,,,,,0,0,0,0,,,,,9,0,108,1,,,,,,,,,,,,,,,,,,,,,1.777,1.641,440.1045843998436,None,,,,,,,,,,,,,,,,,,,,440.6547013998497,441.1702817999758,0.511902819853276,1.0122311199083924,441.1535708999727,441.27029529982246,441.1535708999727,441.27029529982246,441.2535964997951,None,m,1,0.8443042000290006,441.2535964997951,None,,,,,f,22,ppcc,2022-08-10_13h44.41.151,training+cueing,2022.1.3,60.011474141500926,
Friend.png,Stranger,Friend,m,3.2,19,29,99,,,,,0,0,0,0,,,,,9,1,109,5,,,,,,,,,,,,,,,,,,,,,1.543,2.093,442.22320769983344,None,,,,,,,,,,,,,,,,,,,,442.7686532998923,443.271793999942,0.503722719848156,1.0039841197431087,443.25511399982497,443.37185029988177,443.25511399982497,443.37185029988177,443.3551591997966,None,m,1,0.824108999921009,443.3551591997966,None,,,,,f,22,ppcc,2022-08-10_13h44.41.151,training+cueing,2022.1.3,60.011474141500926,
Friend.png,You,Friend,m,1.2,14,24,94,,,,,0,0,0,0,,,,,9,2,110,3,,,,,,,,,,,,,,,,,,,,,1.705,1.395,444.3073867999483,None,,,,,,,,,,,,,,,,,,,,444.8520361999981,445.35658679995686,0.5051097199320793,1.0053604198619723,445.33996339980513,445.4401955998037,445.33996339980513,445.4401955998037,445.4401955998037,None,m,1,0.6097309000324458,445.4401955998037,None,,,,,f,22,ppcc,2022-08-10_13h44.41.151,training+cueing,2022.1.3,60.011474141500926,
Friend.png,Friend,Friend,c,2,12,22,92,,,,,0,0,0,0,,,,,9,3,111,4,,,,,,,,,,,,,,,,,,,,,1.617,1.41,446.1752841998823,None,,,,,,,,,,,,,,,,,,,,446.7210809998214,447.2248098999262,0.5046594198793173,1.0047815199941397,447.2080013998784,447.3247976999264,447.2080013998784,447.3247976999264,447.3081970999483,None,c,1,0.4858812000602484,447.3081970999483,None,,,,,f,22,ppcc,2022-08-10_13h44.41.151,training+cueing,2022.1.3,60.011474141500926,
Self.png,Stranger,Self ,m,3.1,18,28,98,,,,,0,0,0,0,,,,,9,4,112,2,,,,,,,,,,,,,,,,,,,,,1.641,1.396,447.9268869999796,None,,,,,,,,,,,,,,,,,,,,448.47223519999534,448.9759825000074,0.5029932199977338,1.0034095200244337,448.9591974997893,449.07597189978696,448.9591974997893,449.07597189978696,449.05926649994217,None,m,1,1.070938999997452,449.05926649994217,None,,,,,f,22,ppcc,2022-08-10_13h44.41.151,training+cueing,2022.1.3,60.011474141500926,
Self.png,You,Self ,c,1,11,21,91,,,,,0,0,0,0,,,,,9,5,113,0,,,,,,,,,,,,,,,,,,,,,1.474,1.829,450.261748699937,None,,,,,,,,,,,,,,,,,,,,450.80676549999043,451.3109845998697,0.50551812001504,1.0057482200209051,451.2943029999733,451.3943277997896,451.2943029999733,451.3943277997896,451.3943277997896,None,c,1,0.6395338999573141,451.3943277997896,None,,,,,f,22,ppcc,2022-08-10_13h44.41.151,training+cueing,2022.1.3,60.011474141500926,
Self.png,You,Self ,c,1,11,21,91,,,,,0,0,0,0,,,,,9,6,114,9,,,,,,,,,,,,,,,,,,,,,1.525,2.36,452.16320359986275,None,,,,,,,,,,,,,,,,,,,,452.705692099873,453.2123063998297,0.5105781198944896,1.0109232200775295,453.1956401998177,453.2956873998046,453.1956401998177,453.2956873998046,453.2956873998046,None,c,1,0.5630691000260413,453.2956873998046,None,,,,,f,22,ppcc,2022-08-10_13h44.41.151,training+cueing,2022.1.3,60.011474141500926,
Stranger.png,Stranger,Stranger,c,3,13,23,93,,,,,0,0,0,0,,,,,9,7,115,8,,,,,,,,,,,,,,,,,,,,,1.444,1.98,453.9809336999897,None,,,,,,,,,,,,,,,,,,,,454.52653279993683,455.03042560000904,0.5034392199013382,1.0036087199114263,455.013731099898,455.13047039997764,455.013731099898,455.13047039997764,455.11374109983444,None,m,0,0.8404204999096692,455.11374109983444,None,,,,,f,22,ppcc,2022-08-10_13h44.41.151,training+cueing,2022.1.3,60.011474141500926,
Stranger.png,Friend,Stranger,m,2.3,17,27,97,,,,,0,0,0,0,,,,,9,8,116,7,,,,,,,,,,,,,,,,,,,,,1.504,1.651,456.082270699786,None,,,,,,,,,,,,,,,,,,,,456.612158899894,457.115258899983,0.5040488198865205,1.0040177199989557,457.09871479985304,457.2153176998254,457.09871479985304,457.2153176998254,457.19861939991824,None,m,1,0.6917741000652313,457.19861939991824,None,,,,,f,22,ppcc,2022-08-10_13h44.41.151,training+cueing,2022.1.3,60.011474141500926,
Stranger.png,Stranger,Stranger,c,3,13,23,93,,,,,0,0,0,0,,,,,9,9,117,11,,,,,,,,,,,,,,,,,,,,,1.511,2.143,458.0173309999518,None,,,,,,,,,,,,,,,,,,,,458.563404899789,459.0665900998283,0.5039260198827833,1.0041605196893215,459.0499165998772,459.1665894999169,459.0499165998772,459.1665894999169,459.1499290999491,None,c,1,0.5800761000718921,459.1499290999491,None,,,,,f,22,ppcc,2022-08-10_13h44.41.151,training+cueing,2022.1.3,60.011474141500926,
Friend.png,Friend,Friend,c,2,12,22,92,,,,,0,0,0,0,,,,,9,10,118,10,,,,,,,,,,,,,,,,,,,,,1.414,2.314,459.85195819986984,None,,,,,,,,,,,,,,,,,,,,460.40072789997794,460.9012547999155,0.5140474196523428,1.0142463196534663,460.9012547999155,461.0012954999693,460.9012547999155,461.0012954999693,461.0012954999693,None,c,1,0.8410302000120282,461.0012954999693,None,,,,,f,22,ppcc,2022-08-10_13h44.41.151,training+cueing,2022.1.3,60.011474141500926,
Stranger.png,You,Stranger,m,1.3,15,25,95,,,,,0,0,0,0,,,,,9,11,119,6,,,,,,,,,,,,,,,,,,,,,1.755,2.071,461.9700758999679,None,,,,,,,,,,,,,,,,,,,,462.5156469999347,463.01945089991204,0.504960719961673,1.0053515201434493,463.00276329996996,463.1028224998154,463.00276329996996,463.1028224998154,463.1028224998154,None,m,1,0.8187323999591172,463.1028224998154,None,,,,,f,22,ppcc,2022-08-10_13h44.41.151,training+cueing,2022.1.3,60.011474141500926,
,,,,,,,,,,,,0,0,0,0,,,,,,,,,,,,,,,,,,,,,,,,,,,,,,,,,,,,,,,,,,,,,,,,,,,,,,,,,,,,,,,,,,,0.0025078800972551107,0.48861078009940684,,,f,22,ppcc,2022-08-10_13h44.41.151,training+cueing,2022.1.3,60.011474141500926,
Self.png,Friend,Self ,m,2.1,16,26,96,,,,,1,0,1,0,0,0,0,1,,,,,,,,,,,,,,,,,464.5537603998091,None,space,36.26370189990848,2.0158697399310768,None,502.831473399885,None,1.635,2.301,505.83717819978483,None,506.36067849979736,506.8678929999005,506.8512635999359,506.9679377998691,506.8512635999359,506.9679377998691,506.9512154997792,None,m,1,0.842495100107044,506.9512154997792,None,507.8185541999992,None,,,,,,,,,,,,,,,,,,,,,,,,f,22,ppcc,2022-08-10_13h44.41.151,training+cueing,2022.1.3,60.011474141500926,
Stranger.png,You,Stranger,m,1.3,15,25,95,,,,,1,0,1,0,0,1,1,6,,,,,,,,,,,,,,,,,,,,,,,,,1.58,1.975,508.2189232998062,None,508.7499191998504,509.25292629981413,509.23622989980504,509.3363105999306,509.23622989980504,509.3363105999306,509.3363105999306,None,m,1,0.5858038000296801,509.3363105999306,None,509.95346220000647,None,,,,,,,,,,,,,,,,,,,,,,,,f,22,ppcc,2022-08-10_13h44.41.151,training+cueing,2022.1.3,60.011474141500926,
Self.png,Stranger,Self ,m,3.1,18,28,98,,,,,1,0,1,0,0,2,2,2,,,,,,,,,,,,,,,,,,,,,,,,,1.616,2.263,510.3537273998372,None,510.885419299826,511.38779819989577,511.3711482998915,511.4880239998456,511.3711482998915,511.4880239998456,511.4713896999601,None,m,1,0.85065559996292,511.4713896999601,None,512.338546999963,None,,,,,,,,,,,,,,,,,,,,,,,,f,22,ppcc,2022-08-10_13h44.41.151,training+cueing,2022.1.3,60.011474141500926,
Friend.png,Stranger,Friend,m,3.2,19,29,99,,,,,1,0,1,0,0,3,3,5,,,,,,,,,,,,,,,,,,,,,,,,,1.571,1.722,512.7387780998833,None,513.266589100007,513.7728609999176,513.7562094999012,513.8729738998227,513.7562094999012,513.8729738998227,513.8562088999897,None,m,1,0.5148710000794381,513.8562088999897,None,514.390012399992,None,,,,,,,,,,,,,,,,,,,,,,,,f,22,ppcc,2022-08-10_13h44.41.151,training+cueing,2022.1.3,60.011474141500926,
Self.png,You,Self ,c,1,11,21,91,,,,,1,0,1,0,0,4,4,0,,,,,,,,,,,,,,,,,,,,,,,,,1.71,1.529,514.7902589999139,None,515.3206450999714,515.82438489981,515.807697399985,515.9077768998686,515.807697399985,515.9077768998686,515.9077768998686,None,c,1,0.430669300025329,515.9077768998686,None,516.3581196998712,None,,,,,,,,,,,,,,,,,,,,,,,,f,22,ppcc,2022-08-10_13h44.41.151,training+cueing,2022.1.3,60.011474141500926,
Friend.png,You,Friend,m,1.2,14,24,94,,,,,1,0,1,0,0,5,5,3,,,,,,,,,,,,,,,,,,,,,,,,,1.523,1.664,516.7583689999301,None,517.2950707999989,517.809125199914,517.7924870999996,517.8924976999406,517.7924870999996,517.8924976999406,517.8924976999406,None,c,0,0.4459873999003321,517.8924976999406,None,518.3598475998733,None,,,,,,,,,,,,,,,,,,,,,,,,f,22,ppcc,2022-08-10_13h44.41.151,training+cueing,2022.1.3,60.011474141500926,
Friend.png,Friend,Friend,c,2,12,22,92,,,,,1,0,1,0,0,6,6,4,,,,,,,,,,,,,,,,,,,,,,,,,1.616,2.183,518.7598221998196,None,519.2904102997854,519.7939075999893,519.7772422998678,519.8939310999122,519.7772422998678,519.8939310999122,519.8772688999306,None,c,1,0.460373800015077,519.8772688999306,None,520.3779409998097,None,,,,,,,,,,,,,,,,,,,,,,,,f,22,ppcc,2022-08-10_13h44.41.151,training+cueing,2022.1.3,60.011474141500926,
Stranger.png,Stranger,Stranger,c,3,13,23,93,,,,,1,0,1,0,0,7,7,11,,,,,,,,,,,,,,,,,,,,,,,,,1.452,1.227,520.7780565998983,None,521.3087448999286,521.8119983999059,521.795404799981,521.9120833999477,521.795404799981,521.9120833999477,521.89543829998,None,c,1,0.4902366001624614,521.89543829998,None,522.4124648999423,None,,,,,,,,,,,,,,,,,,,,,,,,f,22,ppcc,2022-08-10_13h44.41.151,training+cueing,2022.1.3,60.011474141500926,
Stranger.png,Friend,Stranger,m,2.3,17,27,97,,,,,1,0,1,0,0,8,8,7,,,,,,,,,,,,,,,,,,,,,,,,,1.466,1.474,522.8127370998263,None,523.3433534998912,523.8468346998561,523.8302354000043,523.9468576998916,523.8302354000043,523.9468576998916,523.9301857999526,None,m,1,0.6487155999056995,523.9301857999526,None,524.5974510998931,None,,,,,,,,,,,,,,,,,,,,,,,,f,22,ppcc,2022-08-10_13h44.41.151,training+cueing,2022.1.3,60.011474141500926,
Stranger.png,Stranger,Stranger,c,3,13,23,93,,,,,1,0,1,0,0,9,9,8,,,,,,,,,,,,,,,,,,,,,,,,,1.452,1.353,524.9976617000066,None,525.5321158999577,526.0317280997988,526.0317280997988,526.1318252999336,526.0317280997988,526.1318252999336,526.1318252999336,None,c,1,0.47860459983348846,526.1318252999336,None,526.632221599808,None,,,,,,,,,,,,,,,,,,,,,,,,f,22,ppcc,2022-08-10_13h44.41.151,training+cueing,2022.1.3,60.011474141500926,
Self.png,You,Self ,c,1,11,21,91,,,,,1,0,1,0,0,10,10,9,,,,,,,,,,,,,,,,,,,,,,,,,1.643,1.432,527.032466399949,None,527.5628799998667,528.0665247999132,528.0498828999698,528.1499160998501,528.0498828999698,528.1499160998501,528.1499160998501,None,c,1,0.4597934000194073,528.1499160998501,None,528.6337064998224,None,,,,,,,,,,,,,,,,,,,,,,,,f,22,ppcc,2022-08-10_13h44.41.151,training+cueing,2022.1.3,60.011474141500926,
Friend.png,Friend,Friend,c,2,12,22,92,,,,,1,0,1,0,0,11,11,10,,,,,,,,,,,,,,,,,,,,,,,,,1.597,2.07,529.0339197998401,None,529.5639734999277,530.0680389998015,530.05137679982,530.1680748998187,530.05137679982,530.1680748998187,530.1513203999493,None,c,1,0.36251490004360676,530.1513203999493,None,530.5350530999713,None,,,,,,,,,,,,,,,,,,,,,,,,f,22,ppcc,2022-08-10_13h44.41.151,training+cueing,2022.1.3,60.011474141500926,
Self.png,You,Self ,c,1,11,21,91,,,,,1,0,1,0,,,,,0,0,0,0,,,,,,,,,,,,,,,,,,,533.9375798997935,None,1.515,2.002,537.4440060998313,None,,,,,,,,,,,,,,,,530.9353150997777,None,0.016260339878499508,None,537.9678575999569,538.4743408998474,0.5102911198046058,1.010390019742772,538.4576156998519,538.557469899999,538.4576156998519,538.557469899999,538.557469899999,None,c,1,0.46836449997499585,538.557469899999,None,,,,,f,22,ppcc,2022-08-10_13h44.41.151,training+cueing,2022.1.3,60.011474141500926,
Friend.png,You,Friend,m,1.2,14,24,94,,,,,1,0,1,0,,,,,0,1,1,3,,,,,,,,,,,,,,,,,,,,,1.793,2.286,539.1603622999974,None,,,,,,,,,,,,,,,,,,,,539.7020415998995,540.2086815999355,0.510643919929862,1.0109718199819326,540.1920142997988,540.2920928997919,540.1920142997988,540.2920928997919,540.2920928997919,None,m,1,0.5578517999965698,540.2920928997919,None,,,,,f,22,ppcc,2022-08-10_13h44.41.151,training+cueing,2022.1.3,60.011474141500926,
Friend.png,Friend,Friend,c,2,12,22,92,,,,,1,0,1,0,,,,,0,2,2,10,,,,,,,,,,,,,,,,,,,,,1.492,1.67,540.9775015998166,None,,,,,,,,,,,,,,,,,,,,541.5228487998247,542.0266600998584,0.5035969200544059,1.0045836200006306,542.0100350999273,542.1267301999032,542.0100350999273,542.1267301999032,542.1100159999914,None,c,1,0.45234999991953373,542.1100159999914,None,,,,,f,22,ppcc,2022-08-10_13h44.41.151,training+cueing,2022.1.3,60.011474141500926,
Stranger.png,Stranger,Stranger,c,3,13,23,93,,,,,1,0,1,0,,,,,0,3,3,8,,,,,,,,,,,,,,,,,,,,,1.659,1.628,542.696099099936,None,,,,,,,,,,,,,,,,,,,,543.2420266999397,543.7445987998508,0.5032728200312704,1.0036526198964566,543.7279144998174,543.844630099833,543.7279144998174,543.844630099833,543.8279337999411,None,c,1,0.4619308998808265,543.8279337999411,None,,,,,f,22,ppcc,2022-08-10_13h44.41.151,training+cueing,2022.1.3,60.011474141500926,
Stranger.png,You,Stranger,m,1.3,15,25,95,,,,,1,0,1,0,,,,,0,4,4,6,,,,,,,,,,,,,,,,,,,,,1.655,2.362,544.4132474998478,None,,,,,,,,,,,,,,,,,,,,544.9610708998516,545.4625105999876,0.5154266199097037,1.0157683198340237,545.4625105999876,545.56253929995,545.4625105999876,545.56253929995,545.56253929995,None,m,1,0.5193091998808086,545.56253929995,None,,,,,f,22,ppcc,2022-08-10_13h44.41.151,training+cueing,2022.1.3,60.011474141500926,
Stranger.png,Stranger,Stranger,c,3,13,23,93,,,,,1,0,1,0,,,,,0,5,5,11,,,,,,,,,,,,,,,,,,,,,1.538,2.421,546.2143097999506,None,,,,,,,,,,,,,,,,,,,,546.7604993998539,547.2638133999426,0.5039082197472453,1.0041061197407544,547.2471897997893,547.3639106999617,547.2471897997893,547.3639106999617,547.3471540999599,None,c,1,0.5428279000334442,547.3471540999599,None,,,,,f,22,ppcc,2022-08-10_13h44.41.151,training+cueing,2022.1.3,60.011474141500926,
Self.png,Stranger,Self ,m,3.1,18,28,98,,,,,1,0,1,0,,,,,0,6,6,2,,,,,,,,,,,,,,,,,,,,,1.528,2.187,548.0158892998006,None,,,,,,,,,,,,,,,,,,,,548.5583672998473,549.0651278998703,0.5108582200482488,1.0111162199173123,549.0484958998859,549.1659855998587,549.0484958998859,549.1659855998587,549.1491788998246,None,m,1,0.7883812999352813,549.1491788998246,None,,,,,f,22,ppcc,2022-08-10_13h44.41.151,training+cueing,2022.1.3,60.011474141500926,
Self.png,You,Self ,c,1,11,21,91,,,,,1,0,1,0,,,,,0,7,7,9,,,,,,,,,,,,,,,,,,,,,1.589,2.24,550.0673278998584,None,,,,,,,,,,,,,,,,,,,,550.6118622999638,551.1166137999389,0.5050526198465377,1.005365219898522,551.0998990999069,551.1999837998301,551.0998990999069,551.1999837998301,551.1999837998301,None,c,1,0.5143202999606729,551.1999837998301,None,,,,,f,22,ppcc,2022-08-10_13h44.41.151,training+cueing,2022.1.3,60.011474141500926,
Friend.png,Stranger,Friend,m,3.2,19,29,99,,,,,1,0,1,0,,,,,0,8,8,5,,,,,,,,,,,,,,,,,,,,,1.716,1.949,551.8353234999813,None,,,,,,,,,,,,,,,,,,,,552.3811379999388,552.8847428997979,0.5049030599184334,1.0053198598325253,552.867836699821,552.9847204999533,552.867836699821,552.9847204999533,552.9681172999553,None,m,1,0.7297875999938697,552.9681172999553,None,,,,,f,22,ppcc,2022-08-10_13h44.41.151,training+cueing,2022.1.3,60.011474141500926,
Stranger.png,Friend,Stranger,m,2.3,17,27,97,,,,,1,0,1,0,,,,,0,9,9,7,,,,,,,,,,,,,,,,,,,,,1.465,1.42,553.8199867999647,None,,,,,,,,,,,,,,,,,,,,554.3692935998552,554.8693355999421,0.5146469199098647,1.01506841997616,554.8693355999421,554.970044999849,554.8693355999421,554.970044999849,554.970044999849,None,m,1,0.6159225001465529,554.970044999849,None,,,,,f,22,ppcc,2022-08-10_13h44.41.151,training+cueing,2022.1.3,60.011474141500926,
Friend.png,Friend,Friend,c,2,12,22,92,,,,,1,0,1,0,,,,,0,10,10,4,,,,,,,,,,,,,,,,,,,,,1.695,2.265,555.7046817999799,None,,,,,,,,,,,,,,,,,,,,556.2471979998518,556.7540439998265,0.5095818198751658,1.0098467199131846,556.7373537998646,556.8540603998117,556.7373537998646,556.8540603998117,556.8374015998561,None,c,1,0.4127231000456959,556.8374015998561,None,,,,,f,22,ppcc,2022-08-10_13h44.41.151,training+cueing,2022.1.3,60.011474141500926,
Self.png,Friend,Self ,m,2.1,16,26,96,,,,,1,0,1,0,,,,,0,11,11,1,,,,,,,,,,,,,,,,,,,,,1.781,1.997,557.3727283999324,None,,,,,,,,,,,,,,,,,,,,557.9153840998188,558.4219693997875,0.5105050199199468,1.0107657199259847,558.4052384998649,558.5219653998502,558.4052384998649,558.5219653998502,558.5053907998372,None,m,1,0.5202383000869304,558.5053907998372,None,,,,,f,22,ppcc,2022-08-10_13h44.41.151,training+cueing,2022.1.3,60.011474141500926,
Stranger.png,Friend,Stranger,m,2.3,17,27,97,,,,,1,0,1,0,,,,,1,0,12,7,,,,,,,,,,,,,,,,,,,,,1.795,1.489,559.15706329979,None,,,,,,,,,,,,,,,,,,,,559.6997566998471,560.2065381999128,0.5092843198217452,1.009478319901973,560.1899158998858,560.3065928998403,560.1899158998858,560.3065928998403,560.2899115998298,None,m,1,0.6248029000125825,560.2899115998298,None,,,,,f,22,ppcc,2022-08-10_13h44.41.151,training+cueing,2022.1.3,60.011474141500926,
Self.png,You,Self ,c,1,11,21,91,,,,,1,0,1,0,,,,,1,1,13,9,,,,,,,,,,,,,,,,,,,,,1.573,1.597,561.0420282999985,None,,,,,,,,,,,,,,,,,,,,561.5872478999663,562.0912210999522,0.5053055197931826,1.0055992198176682,562.0745565998368,562.1746259999927,562.0745565998368,562.1746259999927,562.1746259999927,None,c,1,0.6752591000404209,562.1746259999927,None,,,,,f,22,ppcc,2022-08-10_13h44.41.151,training+cueing,2022.1.3,60.011474141500926,
Friend.png,You,Friend,m,1.2,14,24,94,,,,,1,0,1,0,,,,,1,2,14,3,,,,,,,,,,,,,,,,,,,,,1.536,1.443,562.9767268998548,None,,,,,,,,,,,,,,,,,,,,563.5196038999129,564.0260273998138,0.5103104196023196,1.0105932196602225,564.0092942998745,564.1093262999784,564.0092942998745,564.1093262999784,564.1093262999784,None,m,1,0.5480847000144422,564.1093262999784,None,,,,,f,22,ppcc,2022-08-10_13h44.41.151,training+cueing,2022.1.3,60.011474141500926,
Self.png,Friend,Self ,m,2.1,16,26,96,,,,,1,0,1,0,,,,,1,3,15,1,,,,,,,,,,,,,,,,,,,,,1.515,2.054,564.7779611998703,None,,,,,,,,,,,,,,,,,,,,565.3227409999818,565.827292899834,0.5044941201340407,1.0047839200124145,565.8105904997792,565.927330999868,565.8105904997792,565.927330999868,565.9106173999608,None,m,1,0.8117569000460207,565.9106173999608,None,,,,,f,22,ppcc,2022-08-10_13h44.41.151,training+cueing,2022.1.3,60.011474141500926,
Friend.png,Stranger,Friend,m,3.2,19,29,99,,,,,1,0,1,0,,,,,1,4,16,5,,,,,,,,,,,,,,,,,,,,,1.669,1.855,566.8460274999961,None,,,,,,,,,,,,,,,,,,,,567.39255089988,567.8954545999877,0.5035953198093921,1.003867819905281,567.8787751998752,567.9954854999669,567.8787751998752,567.9954854999669,567.9787708998192,None,m,1,0.6475312998518348,567.9787708998192,None,,,,,f,22,ppcc,2022-08-10_13h44.41.151,training+cueing,2022.1.3,60.011474141500926,
Stranger.png,You,Stranger,m,1.3,15,25,95,,,,,1,0,1,0,,,,,1,5,17,6,,,,,,,,,,,,,,,,,,,,,1.792,1.618,568.752471699845,None,,,,,,,,,,,,,,,,,,,,569.2928405997809,569.7967885998078,0.5052726198919117,1.0054241199977696,569.7801843998022,569.8802438999992,569.7801843998022,569.8802438999992,569.8802438999992,None,m,1,0.5698285999242216,569.8802438999992,None,,,,,f,22,ppcc,2022-08-10_13h44.41.151,training+cueing,2022.1.3,60.011474141500926,
Self.png,Stranger,Self ,m,3.1,18,28,98,,,,,1,0,1,0,,,,,1,6,18,2,,,,,,,,,,,,,,,,,,,,,1.442,2.169,570.5828682999127,None,,,,,,,,,,,,,,,,,,,,571.127446499886,571.6315006997902,0.5036272199358791,1.0039383198600262,571.6148132998496,571.731579599902,571.6148132998496,571.731579599902,571.7148265999276,None,m,1,0.7665150999091566,571.7148265999276,None,,,,,f,22,ppcc,2022-08-10_13h44.41.151,training+cueing,2022.1.3,60.011474141500926,
Friend.png,Friend,Friend,c,2,12,22,92,,,,,1,0,1,0,,,,,1,7,19,10,,,,,,,,,,,,,,,,,,,,,1.641,1.959,572.6008817998227,None,,,,,,,,,,,,,,,,,,,,573.1459714998491,573.6496659999248,0.5046522200573236,1.0048597198911011,573.6329790998716,573.7496615999844,573.6329790998716,573.7496615999844,573.7329426999204,None,c,1,0.46058000018820167,573.7329426999204,None,,,,,f,22,ppcc,2022-08-10_13h44.41.151,training+cueing,2022.1.3,60.011474141500926,
Stranger.png,Stranger,Stranger,c,3,13,23,93,,,,,1,0,1,0,,,,,1,8,20,11,,,,,,,,,,,,,,,,,,,,,1.558,1.825,574.3188381998334,None,,,,,,,,,,,,,,,,,,,,574.8633190998808,575.3675577999093,0.5038417200557888,1.0040534201543778,575.3508637999184,575.4675811999477,575.3508637999184,575.4675811999477,575.4508365998045,None,m,0,0.7113980001304299,575.4508365998045,None,,,,,f,22,ppcc,2022-08-10_13h44.41.151,training+cueing,2022.1.3,60.011474141500926,
Stranger.png,Stranger,Stranger,c,3,13,23,93,,,,,1,0,1,0,,,,,1,9,21,8,,,,,,,,,,,,,,,,,,,,,1.645,2.208,576.2864615998697,None,,,,,,,,,,,,,,,,,,,,576.8288159999065,577.3355914999265,0.5109810198191553,1.0112270198296756,577.3189646999817,577.4356669997796,577.3189646999817,577.4356669997796,577.4189762999304,None,c,1,0.48701030015945435,577.4189762999304,None,,,,,f,22,ppcc,2022-08-10_13h44.41.151,training+cueing,2022.1.3,60.011474141500926,
Self.png,You,Self ,c,1,11,21,91,,,,,1,0,1,0,,,,,1,10,22,0,,,,,,,,,,,,,,,,,,,,,1.43,1.673,578.0375819997862,None,,,,,,,,,,,,,,,,,,,,578.5704015998635,579.0701527998317,0.5141554200090468,1.0145020198542625,579.0701527998317,579.1702443999238,579.0701527998317,579.1702443999238,579.1702443999238,None,m,0,0.6233558000531048,579.1702443999238,None,,,,,f,22,ppcc,2022-08-10_13h44.41.151,training+cueing,2022.1.3,60.011474141500926,
Friend.png,Friend,Friend,c,2,12,22,92,,,,,1,0,1,0,,,,,1,11,23,4,,,,,,,,,,,,,,,,,,,,,1.654,2.212,579.9230135998223,None,,,,,,,,,,,,,,,,,,,,580.4675121000037,580.9715853999369,0.5036405199207366,1.0038734199479222,580.9549455998931,581.0716414998751,580.9549455998931,581.0716414998751,581.0549346997868,None,c,1,0.707337100058794,581.0549346997868,None,,,,,f,22,ppcc,2022-08-10_13h44.41.151,training+cueing,2022.1.3,60.011474141500926,
Friend.png,Friend,Friend,c,2,12,22,92,,,,,1,0,1,0,,,,,2,0,24,10,,,,,,,,,,,,,,,,,,,,,1.561,1.445,581.8903545998037,None,,,,,,,,,,,,,,,,,,,,582.4330054998863,582.9397228998132,0.510776620125398,1.011089920066297,582.9230027999729,583.0404079998843,582.9230027999729,583.0404079998843,583.0230325998273,None,c,1,0.43437410006299615,583.0230325998273,None,,,,,f,22,ppcc,2022-08-10_13h44.41.151,training+cueing,2022.1.3,60.011474141500926,
Stranger.png,You,Stranger,m,1.3,15,25,95,,,,,1,0,1,0,,,,,2,1,25,6,,,,,,,,,,,,,,,,,,,,,1.636,1.517,583.5921919997782,None,,,,,,,,,,,,,,,,,,,,584.1370834999252,584.6409461998846,0.5051358200144023,1.0054934199433774,584.6242383997887,584.7242454998195,584.6242383997887,584.7242454998195,584.7242454998195,None,m,1,0.6052242000587285,584.7242454998195,None,,,,,f,22,ppcc,2022-08-10_13h44.41.151,training+cueing,2022.1.3,60.011474141500926,
Stranger.png,Stranger,Stranger,c,3,13,23,93,,,,,1,0,1,0,,,,,2,2,26,11,,,,,,,,,,,,,,,,,,,,,1.401,2.391,585.4601303997915,None,,,,,,,,,,,,,,,,,,,,586.0052541999612,586.5089707998559,0.5031420199666172,1.0034202199894935,586.4922644000035,586.6089907998685,586.4922644000035,586.6089907998685,586.5922897998244,None,c,1,0.6580385998822749,586.5922897998244,None,,,,,f,22,ppcc,2022-08-10_13h44.41.151,training+cueing,2022.1.3,60.011474141500926,
Self.png,You,Self ,c,1,11,21,91,,,,,1,0,1,0,,,,,2,3,27,0,,,,,,,,,,,,,,,,,,,,,1.77,2.354,587.3777079998981,None,,,,,,,,,,,,,,,,,,,,587.9229402998462,588.4270815998316,0.5055262197274715,1.005756019614637,588.4103691999335,588.5104702999815,588.4103691999335,588.5104702999815,588.5104702999815,None,c,1,0.6909934999421239,588.5104702999815,None,,,,,f,22,ppcc,2022-08-10_13h44.41.151,training+cueing,2022.1.3,60.011474141500926,
Self.png,Friend,Self ,m,2.1,16,26,96,,,,,1,0,1,0,,,,,2,4,28,1,,,,,,,,,,,,,,,,,,,,,1.685,1.989,589.3328263999429,None,,,,,,,,,,,,,,,,,,,,589.8734214999713,590.378279699944,0.5043676199857146,1.004755019908771,590.36156689981,590.4783228999004,590.36156689981,590.4783228999004,590.4616163999308,None,m,1,0.5961667001247406,590.4616163999308,None,,,,,f,22,ppcc,2022-08-10_13h44.41.151,training+cueing,2022.1.3,60.011474141500926,
Self.png,Stranger,Self ,m,3.1,18,28,98,,,,,1,0,1,0,,,,,2,5,29,2,,,,,,,,,,,,,,,,,,,,,1.444,2.29,591.1804365999997,None,,,,,,,,,,,,,,,,,,,,591.7266435998026,592.2298059999011,0.5037949196994305,1.0041804197244346,592.2130626998842,592.3298066998832,592.2130626998842,592.3298066998832,592.3130733999424,None,m,1,0.6655552999582142,592.3130733999424,None,,,,,f,22,ppcc,2022-08-10_13h44.41.151,training+cueing,2022.1.3,60.011474141500926,
Stranger.png,Friend,Stranger,m,2.3,17,27,97,,,,,1,0,1,0,,,,,2,6,30,7,,,,,,,,,,,,,,,,,,,,,1.652,2.086,593.0985633998644,None,,,,,,,,,,,,,,,,,,,,593.644189799903,594.147846999811,0.504536819877103,1.0049656198825687,594.1310957998503,594.2479277998209,594.1310957998503,594.2479277998209,594.2311378999148,None,m,1,0.6345064998604357,594.2311378999148,None,,,,,f,22,ppcc,2022-08-10_13h44.41.151,training+cueing,2022.1.3,60.011474141500926,
Friend.png,Friend,Friend,c,2,12,22,92,,,,,1,0,1,0,,,,,2,7,31,4,,,,,,,,,,,,,,,,,,,,,1.702,2.074,594.9997382999863,None,,,,,,,,,,,,,,,,,,,,595.5273864998017,596.0324789998122,0.5058831197675318,None,596.0158457998186,596.1325895998161,596.0158457998186,596.1325895998161,596.1158616999164,None,c,1,0.3822727999649942,596.1158616999164,None,,,,,f,22,ppcc,2022-08-10_13h44.41.151,training+cueing,2022.1.3,60.011474141500926,
Self.png,You,Self ,c,1,11,21,91,,,,,1,0,1,0,,,,,2,8,32,9,,,,,,,,,,,,,,,,,,,,,1.638,2.449,596.618149299873,None,,,,,,,,,,,,,,,,,,,,597.1628342999611,597.6669869998004,0.5055653199087828,1.0058375198859721,597.6503822999075,597.7503639999777,597.6503822999075,597.7503639999777,597.7503639999777,None,c,1,0.5086079000029713,597.7503639999777,None,,,,,f,22,ppcc,2022-08-10_13h44.41.151,training+cueing,2022.1.3,60.011474141500926,
Friend.png,Stranger,Friend,m,3.2,19,29,99,,,,,1,0,1,0,,,,,2,9,33,5,,,,,,,,,,,,,,,,,,,,,1.477,2.398,598.3857086999342,None,,,,,,,,,,,,,,,,,,,,598.9350928999484,599.4350272999145,0.5143662197515368,1.014520919881761,599.4350272999145,599.5350414998829,599.4350272999145,599.5350414998829,599.5350414998829,None,m,1,0.5466760999988765,599.5350414998829,None,,,,,f,22,ppcc,2022-08-10_13h44.41.151,training+cueing,2022.1.3,60.011474141500926,
Friend.png,You,Friend,m,1.2,14,24,94,,,,,1,0,1,0,,,,,2,10,34,3,,,,,,,,,,,,,,,,,,,,,1.621,1.831,600.2037482999731,None,,,,,,,,,,,,,,,,,,,,600.748930499889,601.2529787998646,0.5041229198686779,1.0042820197995752,601.2363806997892,601.3363758998457,601.2363806997892,601.3363758998457,601.3363758998457,None,m,1,0.6656861999072134,601.3363758998457,None,,,,,f,22,ppcc,2022-08-10_13h44.41.151,training+cueing,2022.1.3,60.011474141500926,
Stranger.png,Stranger,Stranger,c,3,13,23,93,,,,,1,0,1,0,,,,,2,11,35,8,,,,,,,,,,,,,,,,,,,,,1.614,2.168,602.1217131998856,None,,,,,,,,,,,,,,,,,,,,602.6678426999133,603.1710126998369,0.5038229199126363,1.0040466198697686,603.1543632999528,603.2711040999275,603.1543632999528,603.2711040999275,603.254420499783,None,c,1,0.6514812998939306,603.254420499783,None,,,,,f,22,ppcc,2022-08-10_13h44.41.151,training+cueing,2022.1.3,60.011474141500926,
Stranger.png,Friend,Stranger,m,2.3,17,27,97,,,,,1,0,1,0,,,,,3,0,36,7,,,,,,,,,,,,,,,,,,,,,1.688,1.92,604.0398089999799,None,,,,,,,,,,,,,,,,,,,,604.5694235998672,605.0723611998837,0.5019503198564053,1.0022147200070322,605.0557682998478,605.1724623998161,605.0557682998478,605.1724623998161,605.1557576998603,None,m,1,0.6383088999427855,605.1557576998603,None,,,,,f,22,ppcc,2022-08-10_13h44.41.151,training+cueing,2022.1.3,60.011474141500926,
Stranger.png,Stranger,Stranger,c,3,13,23,93,,,,,1,0,1,0,,,,,3,1,37,11,,,,,,,,,,,,,,,,,,,,,1.629,1.849,605.9245653999969,None,,,,,,,,,,,,,,,,,,,,606.4706435999833,606.9737979997881,0.5038997197989374,1.004201419884339,606.9570924998261,607.0738479997963,606.9570924998261,607.0738479997963,607.0571273998357,None,c,1,0.6408895999193192,607.0571273998357,None,,,,,f,22,ppcc,2022-08-10_13h44.41.151,training+cueing,2022.1.3,60.011474141500926,
Stranger.png,You,Stranger,m,1.3,15,25,95,,,,,1,0,1,0,,,,,3,2,38,6,,,,,,,,,,,,,,,,,,,,,1.771,2.319,607.8261981999967,None,,,,,,,,,,,,,,,,,,,,608.3711673999205,608.8751950999722,0.5052896200213581,1.0055041199084371,608.8585108998232,608.9585584998131,608.8585108998232,608.9585584998131,608.9585584998131,None,c,0,0.482637400040403,608.9585584998131,None,,,,,f,22,ppcc,2022-08-10_13h44.41.151,training+cueing,2022.1.3,60.011474141500926,
Stranger.png,Stranger,Stranger,c,3,13,23,93,,,,,1,0,1,0,,,,,3,3,39,8,,,,,,,,,,,,,,,,,,,,,1.588,2.354,609.5610471998807,None,,,,,,,,,,,,,,,,,,,,610.1061191000044,610.6098003999796,0.5030874200165272,1.00328972004354,610.5931613999419,610.7098059998825,610.5931613999419,610.7098059998825,610.6931232998613,None,c,1,1.052802899852395,610.6931232998613,None,,,,,f,22,ppcc,2022-08-10_13h44.41.151,training+cueing,2022.1.3,60.011474141500926,
Self.png,You,Self ,c,1,11,21,91,,,,,1,0,1,0,,,,,3,4,40,9,,,,,,,,,,,,,,,,,,,,,1.547,1.569,611.8786349999718,None,,,,,,,,,,,,,,,,,,,,612.4118898999877,612.9114537998103,0.5133551198523492,1.0136134198401123,612.9114537998103,613.011450199876,612.9114537998103,613.011450199876,613.011450199876,None,m,0,0.7664890999440104,613.011450199876,None,,,,,f,22,ppcc,2022-08-10_13h44.41.151,training+cueing,2022.1.3,60.011474141500926,
Friend.png,Friend,Friend,c,2,12,22,92,,,,,1,0,1,0,,,,,3,5,41,4,,,,,,,,,,,,,,,,,,,,,1.6,2.153,613.8968582998496,None,,,,,,,,,,,,,,,,,,,,614.4361257997807,614.9462520999368,0.5015204197261482,1.0017396197654307,614.9295578999445,615.0462545999326,614.9295578999445,615.0462545999326,615.0462545999326,None,c,1,0.49150920007377863,615.0462545999326,None,,,,,f,22,ppcc,2022-08-10_13h44.41.151,training+cueing,2022.1.3,60.011474141500926,
Self.png,You,Self ,c,1,11,21,91,,,,,1,0,1,0,,,,,3,6,42,0,,,,,,,,,,,,,,,,,,,,,1.552,1.508,615.6647121999413,None,,,,,,,,,,,,,,,,,,,,616.1933671999723,616.6975103998557,0.5040424196049571,1.0043238196521997,616.6808724999428,616.7808650999796,616.6808724999428,616.7808650999796,616.7808650999796,None,c,1,0.6130736998748034,616.7808650999796,None,,,,,f,22,ppcc,2022-08-10_13h44.41.151,training+cueing,2022.1.3,60.011474141500926,
Friend.png,Stranger,Friend,m,3.2,19,29,99,,,,,1,0,1,0,,,,,3,7,43,5,,,,,,,,,,,,,,,,,,,,,1.734,1.815,617.5163514998276,None,,,,,,,,,,,,,,,,,,,,618.0658627999946,618.565558000002,0.5132021198514849,1.0134436199441552,618.565558000002,618.6655602999963,618.565558000002,618.6655602999963,618.6655602999963,None,m,1,0.5841727000661194,618.6655602999963,None,,,,,f,22,ppcc,2022-08-10_13h44.41.151,training+cueing,2022.1.3,60.011474141500926,
Friend.png,Friend,Friend,c,2,12,22,92,,,,,1,0,1,0,,,,,3,8,44,10,,,,,,,,,,,,,,,,,,,,,1.546,2.273,619.3843287997879,None,,,,,,,,,,,,,,,,,,,,619.9297239999287,620.4335675998591,0.5031796200200915,1.003381219925359,620.4169004999567,620.5336019999813,620.4169004999567,620.5336019999813,620.5169513998553,None,c,1,0.6204636001493782,620.5169513998553,None,,,,,f,22,ppcc,2022-08-10_13h44.41.151,training+cueing,2022.1.3,60.011474141500926,
Self.png,Stranger,Self ,m,3.1,18,28,98,,,,,1,0,1,0,,,,,3,9,45,2,,,,,,,,,,,,,,,,,,,,,1.714,1.306,621.2691342998296,None,,,,,,,,,,,,,,,,,,,,621.8157781998161,622.3182641000021,0.50307831983082,1.0033958198036999,622.3015452998225,622.4183538998477,622.3015452998225,622.4183538998477,622.4015615999233,None,c,0,0.6083551000338048,622.4015615999233,None,,,,,f,22,ppcc,2022-08-10_13h44.41.151,training+cueing,2022.1.3,60.011474141500926,
Friend.png,You,Friend,m,1.2,14,24,94,,,,,1,0,1,0,,,,,3,10,46,3,,,,,,,,,,,,,,,,,,,,,1.684,1.384,623.1369976999704,None,,,,,,,,,,,,,,,,,,,,623.6823569999542,624.1862789997831,0.5051743199583143,1.0054672199767083,624.169581099879,624.2696659998037,624.169581099879,624.2696659998037,624.2696659998037,None,None,0,,624.2696659998037,None,,,,,f,22,ppcc,2022-08-10_13h44.41.151,training+cueing,2022.1.3,60.011474141500926,
Self.png,Friend,Self ,m,2.1,16,26,96,,,,,1,0,1,0,,,,,3,11,47,1,,,,,,,,,,,,,,,,,,,,,1.663,1.572,626.0552226998843,None,,,,,,,,,,,,,,,,,,,,626.586538199801,627.0883771998342,0.5019502199720591,1.0023294200655073,627.0716699999757,627.1884682998061,627.0716699999757,627.1884682998061,627.1717055998743,None,m,1,0.7177929000463337,627.1717055998743,None,,,,,f,22,ppcc,2022-08-10_13h44.41.151,training+cueing,2022.1.3,60.011474141500926,
Stranger.png,Friend,Stranger,m,2.3,17,27,97,,,,,1,0,1,0,,,,,4,0,48,7,,,,,,,,,,,,,,,,,,,,,1.608,1.666,628.0238791999873,None,,,,,,,,,,,,,,,,,,,,628.5668497998267,629.0735452999361,0.5104892200324684,1.0103876199573278,629.0567999999039,629.1733734000009,629.0567999999039,629.1733734000009,629.1566998998169,None,m,1,0.8125825000461191,629.1566998998169,None,,,,,f,22,ppcc,2022-08-10_13h44.41.151,training+cueing,2022.1.3,60.011474141500926,
Self.png,You,Self ,c,1,11,21,91,,,,,1,0,1,0,,,,,4,1,49,0,,,,,,,,,,,,,,,,,,,,,1.573,2.485,630.0923866999801,None,,,,,,,,,,,,,,,,,,,,630.6426059999503,631.1579591999762,0.5115233201067895,1.0118023201357573,631.14135359996,631.2413634997793,631.14135359996,631.2413634997793,631.2413634997793,None,c,1,0.44004009990021586,631.2413634997793,None,,,,,f,22,ppcc,2022-08-10_13h44.41.151,training+cueing,2022.1.3,60.011474141500926,
Friend.png,You,Friend,m,1.2,14,24,94,,,,,1,0,1,0,,,,,4,2,50,3,,,,,,,,,,,,,,,,,,,,,1.489,2.047,631.809739299817,None,,,,,,,,,,,,,,,,,,,,632.3361739998218,632.842547299806,0.508577719796449,1.0090754199773073,632.8258606998716,632.9259165998083,632.8258606998716,632.9259165998083,632.9259165998083,None,m,1,0.6595131000503898,632.9259165998083,None,,,,,f,22,ppcc,2022-08-10_13h44.41.151,training+cueing,2022.1.3,60.011474141500926,
Stranger.png,Stranger,Stranger,c,3,13,23,93,,,,,1,0,1,0,,,,,4,3,51,8,,,,,,,,,,,,,,,,,,,,,1.454,1.452,633.711164599983,None,,,,,,,,,,,,,,,,,,,,634.2419063998386,634.7439250999596,0.5026234202086926,1.0029639201238751,634.7272699999157,634.8439819999039,634.7272699999157,634.8439819999039,634.8272879999131,None,c,1,0.6301188000943512,634.8272879999131,None,,,,,f,22,ppcc,2022-08-10_13h44.41.151,training+cueing,2022.1.3,60.011474141500926,
Friend.png,Stranger,Friend,m,3.2,19,29,99,,,,,1,0,1,0,,,,,4,4,52,5,,,,,,,,,,,,,,,,,,,,,1.666,1.445,635.579896299867,None,,,,,,,,,,,,,,,,,,,,636.1211879998446,636.6286027999595,0.5103572197258472,1.0108549199067056,636.6119257998653,636.7294311998412,636.6119257998653,636.7294311998412,636.7125933999196,None,m,1,0.6335539000574499,636.7125933999196,None,,,,,f,22,ppcc,2022-08-10_13h44.41.151,training+cueing,2022.1.3,60.011474141500926,
Self.png,Stranger,Self ,m,3.1,18,28,98,,,,,1,0,1,0,,,,,4,5,53,2,,,,,,,,,,,,,,,,,,,,,1.542,2.286,637.4649003997911,None,,,,,,,,,,,,,,,,,,,,638.0071610999294,638.5133056999184,0.5099171199835837,1.0101798200048506,638.4967106999829,638.613402799936,638.4967106999829,638.613402799936,638.5966703000013,None,m,1,0.7822291997727007,638.5966703000013,None,,,,,f,22,ppcc,2022-08-10_13h44.41.151,training+cueing,2022.1.3,60.011474141500926,
Self.png,Friend,Self ,m,2.1,16,26,96,,,,,1,0,1,0,,,,,4,6,54,1,,,,,,,,,,,,,,,,,,,,,1.43,1.703,639.4987745999824,None,,,,,,,,,,,,,,,,,,,,640.0286830998957,640.5315617998131,0.503580620046705,1.0038542200345546,640.5148279999848,640.6314991998952,640.5148279999848,640.6314991998952,640.6148163999896,None,m,1,0.5739359001163393,640.6148163999896,None,,,,,f,22,ppcc,2022-08-10_13h44.41.151,training+cueing,2022.1.3,60.011474141500926,
Self.png,You,Self ,c,1,11,21,91,,,,,1,0,1,0,,,,,4,7,55,9,,,,,,,,,,,,,,,,,,,,,1.411,1.466,641.3171161999926,None,,,,,,,,,,,,,,,,,,,,641.865779099986,642.3661632000003,0.5134892195928842,1.0136944197583944,642.3661632000003,642.4661696997937,642.3661632000003,642.4661696997937,642.4661696997937,None,c,1,0.47947200015187263,642.4661696997937,None,,,,,f,22,ppcc,2022-08-10_13h44.41.151,training+cueing,2022.1.3,60.011474141500926,
Friend.png,Friend,Friend,c,2,12,22,92,,,,,1,0,1,0,,,,,4,8,56,4,,,,,,,,,,,,,,,,,,,,,1.53,2.312,643.0682751999702,None,,,,,,,,,,,,,,,,,,,,643.6138115997892,644.1174197997898,0.504464219789952,None,644.1007542998996,644.2174626998603,644.1007542998996,644.2174626998603,644.2007771998178,None,c,1,0.3607179999817163,644.2007771998178,None,,,,,f,22,ppcc,2022-08-10_13h44.41.151,training+cueing,2022.1.3,60.011474141500926,
Friend.png,Friend,Friend,c,2,12,22,92,,,,,1,0,1,0,,,,,4,9,57,10,,,,,,,,,,,,,,,,,,,,,1.648,1.282,644.6859821998514,None,,,,,,,,,,,,,,,,,,,,645.2289107998367,645.7352252998389,0.5101712201721966,1.010637619998306,645.7185920998454,645.8352733999491,645.7185920998454,645.8352733999491,645.8185492998455,None,c,1,0.48711700015701354,645.8185492998455,None,,,,,f,22,ppcc,2022-08-10_13h44.41.151,training+cueing,2022.1.3,60.011474141500926,
Stranger.png,Stranger,Stranger,c,3,13,23,93,,,,,1,0,1,0,,,,,4,10,58,11,,,,,,,,,,,,,,,,,,,,,1.549,1.962,646.4370855998714,None,,,,,,,,,,,,,,,,,,,,646.9680027998984,647.4698717999272,0.5004165198188275,None,647.4531831999775,647.5699417998549,647.4531831999775,647.5699417998549,647.5699417998549,None,c,1,0.32028259988874197,647.5699417998549,None,,,,,f,22,ppcc,2022-08-10_13h44.41.151,training+cueing,2022.1.3,60.011474141500926,
Stranger.png,You,Stranger,m,1.3,15,25,95,,,,,1,0,1,0,,,,,4,11,59,6,,,,,,,,,,,,,,,,,,,,,1.706,1.922,648.0216539998073,None,,,,,,,,,,,,,,,,,,,,648.5673878998496,649.0709793998394,0.5045666198711842,1.0051052200142294,649.0542736998759,649.154318299843,649.0542736998759,649.154318299843,649.154318299843,None,m,1,0.5113643000368029,649.154318299843,None,,,,,f,22,ppcc,2022-08-10_13h44.41.151,training+cueing,2022.1.3,60.011474141500926,
Self.png,Friend,Self ,m,2.1,16,26,96,,,,,1,0,1,0,,,,,5,0,60,1,,,,,,,,,,,,,,,,,,,,,1.696,1.458,649.7896827999502,None,,,,,,,,,,,,,,,,,,,,650.3346887999214,650.8389542999212,0.5039402199909091,1.0058752198237926,650.8222544000018,650.9389630998485,650.8222544000018,650.9389630998485,650.9222864999902,None,m,1,0.6154428001027554,650.9222864999902,None,,,,,f,22,ppcc,2022-08-10_13h44.41.151,training+cueing,2022.1.3,60.011474141500926,
Stranger.png,You,Stranger,m,1.3,15,25,95,,,,,1,0,1,0,,,,,5,1,61,6,,,,,,,,,,,,,,,,,,,,,1.463,1.958,651.6583608998917,None,,,,,,,,,,,,,,,,,,,,652.2028458998539,652.7069685999304,0.5055475200060755,1.0057802197989076,652.6902999999002,652.790288799908,652.6902999999002,652.790288799908,652.790288799908,None,m,1,0.5709829998668283,652.790288799908,None,,,,,f,22,ppcc,2022-08-10_13h44.41.151,training+cueing,2022.1.3,60.011474141500926,
Stranger.png,Friend,Stranger,m,2.3,17,27,97,,,,,1,0,1,0,,,,,5,2,62,7,,,,,,,,,,,,,,,,,,,,,1.634,2.46,653.4924474,None,,,,,,,,,,,,,,,,,,,,654.0378895998001,654.5417119998019,0.5046774197835475,1.0056511198636144,654.5249212998897,654.6416277999524,654.5249212998897,654.6416277999524,654.6249534999952,None,m,1,0.8967432000208646,654.6249534999952,None,,,,,f,22,ppcc,2022-08-10_13h44.41.151,training+cueing,2022.1.3,60.011474141500926,
Friend.png,Friend,Friend,c,2,12,22,92,,,,,1,0,1,0,,,,,5,3,63,10,,,,,,,,,,,,,,,,,,,,,1.698,1.293,655.6455276999623,None,,,,,,,,,,,,,,,,,,,,656.1855672998354,656.6930113998242,0.510238419752568,1.0106106197927147,656.6763835998718,656.7930067998823,656.6763835998718,656.7930067998823,656.7763429998886,None,c,1,0.5375473001040518,656.7763429998886,None,,,,,f,22,ppcc,2022-08-10_13h44.41.151,training+cueing,2022.1.3,60.011474141500926,
Self.png,Stranger,Self ,m,3.1,18,28,98,,,,,1,0,1,0,,,,,5,4,64,2,,,,,,,,,,,,,,,,,,,,,1.784,1.365,657.4453841999639,None,,,,,,,,,,,,,,,,,,,,657.9920963998884,658.4944892998319,0.5029751197434962,1.0031992197036743,658.4778143998701,658.5945870999712,658.4778143998701,658.5945870999712,658.578009699937,None,c,0,1.21563889994286,658.578009699937,None,,,,,f,22,ppcc,2022-08-10_13h44.41.151,training+cueing,2022.1.3,60.011474141500926,
Friend.png,Friend,Friend,c,2,12,22,92,,,,,1,0,1,0,,,,,5,5,65,4,,,,,,,,,,,,,,,,,,,,,1.438,1.362,659.9136615998577,None,,,,,,,,,,,,,,,,,,,,660.4592565998901,660.9629292997997,0.5046413200907409,1.0050039200577885,660.9462563998532,661.0629741000012,660.9462563998532,661.0629741000012,661.0462864998262,None,c,1,0.5397379999049008,661.0462864998262,None,,,,,f,22,ppcc,2022-08-10_13h44.41.151,training+cueing,2022.1.3,60.011474141500926,
Stranger.png,Stranger,Stranger,c,3,13,23,93,,,,,1,0,1,0,,,,,5,6,66,8,,,,,,,,,,,,,,,,,,,,,1.704,1.85,661.7150409999304,None,,,,,,,,,,,,,,,,,,,,662.2639564999845,662.7642822999042,0.5136657198891044,1.0139020199421793,662.7642822999042,662.8642736999318,662.7642822999042,662.8642736999318,662.8642736999318,None,c,1,0.5456749000586569,662.8642736999318,None,,,,,f,22,ppcc,2022-08-10_13h44.41.151,training+cueing,2022.1.3,60.011474141500926,
Self.png,You,Self ,c,1,11,21,91,,,,,1,0,1,0,,,,,5,7,67,9,,,,,,,,,,,,,,,,,,,,,1.691,1.293,663.5333988999482,None,,,,,,,,,,,,,,,,,,,,664.0781857999973,664.582258499926,0.5054601200390607,1.0056968200951815,664.5655974999536,664.6656124999281,664.5655974999536,664.6656124999281,664.6656124999281,None,c,1,0.5034173000603914,664.6656124999281,None,,,,,f,22,ppcc,2022-08-10_13h44.41.151,training+cueing,2022.1.3,60.011474141500926,
Stranger.png,Stranger,Stranger,c,3,13,23,93,,,,,1,0,1,0,,,,,5,8,68,11,,,,,,,,,,,,,,,,,,,,,1.448,2.408,665.3065552997869,None,,,,,,,,,,,,,,,,,,,,665.848042299971,666.350160599919,0.5007763197645545,1.0010371196549386,666.3335336998571,666.4502238999121,666.3335336998571,666.4502238999121,666.4502238999121,None,c,1,0.7031847999896854,666.4502238999121,None,,,,,f,22,ppcc,2022-08-10_13h44.41.151,training+cueing,2022.1.3,60.011474141500926,
Friend.png,Stranger,Friend,m,3.2,19,29,99,,,,,1,0,1,0,,,,,5,9,69,5,,,,,,,,,,,,,,,,,,,,,1.679,2.218,667.2859409998637,None,,,,,,,,,,,,,,,,,,,,667.8283461998217,668.334926399868,0.510537319816649,1.0108744197059423,668.3182737999596,668.4350043998566,668.3182737999596,668.4350043998566,668.418341799872,None,m,1,0.6227939000818878,668.418341799872,None,,,,,f,22,ppcc,2022-08-10_13h44.41.151,training+cueing,2022.1.3,60.011474141500926,
Friend.png,You,Friend,m,1.2,14,24,94,,,,,1,0,1,0,,,,,5,10,70,3,,,,,,,,,,,,,,,,,,,,,1.407,2.082,669.1719730999321,None,,,,,,,,,,,,,,,,,,,,669.7156547999475,670.2196380000096,0.505512619856745,1.0055920197628438,670.2031486998312,670.3029998999555,670.2031486998312,670.3029998999555,670.3029998999555,None,m,1,1.1384161999449134,670.3029998999555,None,,,,,f,22,ppcc,2022-08-10_13h44.41.151,training+cueing,2022.1.3,60.011474141500926,
Self.png,You,Self ,c,1,11,21,91,,,,,1,0,1,0,,,,,5,11,71,0,,,,,,,,,,,,,,,,,,,,,1.584,2.276,671.5726022999734,None,,,,,,,,,,,,,,,,,,,,672.1139681998175,672.621344299987,0.5106048197485507,1.0107969199307263,672.6047631998081,672.7047484999057,672.6047631998081,672.7047484999057,672.7047484999057,None,c,1,0.6734152999706566,672.7047484999057,None,,,,,f,22,ppcc,2022-08-10_13h44.41.151,training+cueing,2022.1.3,60.011474141500926,
Self.png,You,Self ,c,1,11,21,91,,,,,1,0,1,0,,,,,6,0,72,9,,,,,,,,,,,,,,,,,,,,,1.425,2.217,673.506883499911,None,,,,,,,,,,,,,,,,,,,,674.049308499787,674.5562663997989,0.5109718199819326,1.0111687199678272,674.5394469997846,674.6401717998087,674.5394469997846,674.6401717998087,674.6401717998087,None,c,1,0.48129999986849725,674.6401717998087,None,,,,,f,22,ppcc,2022-08-10_13h44.41.151,training+cueing,2022.1.3,60.011474141500926,
Self.png,Friend,Self ,m,2.1,16,26,96,,,,,1,0,1,0,,,,,6,1,73,1,,,,,,,,,,,,,,,,,,,,,1.492,2.004,675.2426257999614,None,,,,,,,,,,,,,,,,,,,,675.7911896998994,676.2907141998876,0.5123700201511383,1.0126668200828135,676.2907141998876,676.3907644997817,676.2907141998876,676.3907644997817,676.3907644997817,None,m,1,0.5549211001489311,676.3907644997817,None,,,,,f,22,ppcc,2022-08-10_13h44.41.151,training+cueing,2022.1.3,60.011474141500926,
Self.png,You,Self ,c,1,11,21,91,,,,,1,0,1,0,,,,,6,2,74,0,,,,,,,,,,,,,,,,,,,,,1.596,2.494,677.0759611998219,None,,,,,,,,,,,,,,,,,,,,677.6207476998679,678.1253727998119,0.5050453199073672,1.0052588197868317,678.1087570998352,678.2087304999586,678.1087570998352,678.2087304999586,678.2087304999586,None,c,1,0.6564030000008643,678.2087304999586,None,,,,,f,22,ppcc,2022-08-10_13h44.41.151,training+cueing,2022.1.3,60.011474141500926,
Stranger.png,Stranger,Stranger,c,3,13,23,93,,,,,1,0,1,0,,,,,6,3,75,8,,,,,,,,,,,,,,,,,,,,,1.49,1.278,678.9941218998283,None,,,,,,,,,,,,,,,,,,,,679.5416321998928,680.0434369998984,0.5018700195942074,1.002159119816497,680.0267327998299,680.1434711997863,680.0267327998299,680.1434711997863,680.1267783998046,None,c,1,0.5472532999701798,680.1267783998046,None,,,,,f,22,ppcc,2022-08-10_13h44.41.151,training+cueing,2022.1.3,60.011474141500926,
Friend.png,You,Friend,m,1.2,14,24,94,,,,,1,0,1,0,,,,,6,4,76,3,,,,,,,,,,,,,,,,,,,,,1.559,2.146,680.7954915999435,None,,,,,,,,,,,,,,,,,,,,681.3346418999135,681.8447455998976,0.49923815997317433,0.9994797599501908,681.8113794999663,681.9114182000048,681.8113794999663,681.9114182000048,681.9114182000048,None,m,1,0.5535371000878513,681.9114182000048,None,,,,,f,22,ppcc,2022-08-10_13h44.41.151,training+cueing,2022.1.3,60.011474141500926,
Stranger.png,Stranger,Stranger,c,3,13,23,93,,,,,1,0,1,0,,,,,6,5,77,11,,,,,,,,,,,,,,,,,,,,,1.71,1.302,682.5971378998365,None,,,,,,,,,,,,,,,,,,,,683.1427886998281,683.6460002998356,0.5040310197509825,1.0042214198037982,683.6293918997981,683.7461057999171,683.6293918997981,683.7461057999171,683.7293979998212,None,c,1,0.5450914001557976,683.7293979998212,None,,,,,f,22,ppcc,2022-08-10_13h44.41.151,training+cueing,2022.1.3,60.011474141500926,
Friend.png,Friend,Friend,c,2,12,22,92,,,,,1,0,1,0,,,,,6,6,78,10,,,,,,,,,,,,,,,,,,,,,1.626,1.289,684.3981433999725,None,,,,,,,,,,,,,,,,,,,,684.943785399897,685.4473892999813,0.5044691199436784,1.004702519858256,685.4306981998961,685.5473954998888,685.4306981998961,685.5473954998888,685.5307052999269,None,c,1,0.5029849999118596,685.5307052999269,None,,,,,f,22,ppcc,2022-08-10_13h44.41.151,training+cueing,2022.1.3,60.011474141500926,
