Image,Name,Face,CorrAns,Match,Face_onset,CResponse_onset,IResponse_onset,Match.thisRepN,Match.thisTrialN,Match.thisN,Match.thisIndex,Blocks.thisRepN,Blocks.thisTrialN,Blocks.thisN,Blocks.thisIndex,trials.thisRepN,trials.thisTrialN,trials.thisN,trials.thisIndex,trials_2.thisRepN,trials_2.thisTrialN,trials_2.thisN,trials_2.thisIndex,text.started,text.stopped,p1.started,p1.stopped,MatchInstructions.started,MatchInstructions.stopped,Name1.started,Name1.stopped,Face_Relevance.started,Face_Relevance.stopped,MismatchInstructions.started,MismatchInstructions.stopped,Rest_trainingInstruct.started,Rest_trainingInstruct.stopped,next8.keys,next8.rt,next8.started,next8.stopped,Ready.started,Ready.stopped,delay_one_picked,delay_two_picked,blank0.started,blank0.stopped,FixationCross1.started,FixationCross1.stopped,Name3.started,Name3.stopped,Face_Relevance3.started,Face_Relevance3.stopped,responseTime.started,responseTime.stopped,resp.keys,resp.corr,resp.rt,resp.started,resp.stopped,Accuracy.started,Accuracy.stopped,questions.started,questions.stopped,p2.started,p2.stopped,FixationCross3.started,FixationCross3.stopped,port_Face_onset.started,port_Face_onset.stopped,Name4.started,Name4.stopped,Face_Relevance4.started,Face_Relevance4.stopped,responseTime2.started,responseTime2.stopped,Response.keys,Response.corr,Response.rt,Response.started,Response.stopped,p3.started,p3.stopped,Finish.started,Finish.stopped,gender,age,participant,date,expName,psychopyVersion,frameRate,
Stranger.png,Stranger,,,,,,,0,0,0,2,,,,,,,,,,,,,22.644285200163722,None,0.010690446477383375,0.5095656462945044,24.651250099763274,None,26.78600660013035,None,26.78600660013035,None,,,,,,,,,,,,,,,,,,,,,,,,,,,,,,,,,,,,,,,,,,,,,,,,,,,,,f,20,ppdd2,2022-08-15_15h30.13.738,training+cueing,2022.1.3,59.93917379358871,
Friend.png,Friend,,,,,,,0,1,1,1,,,,,,,,,,,,,,,,,,,46.687153399921954,None,46.687153399921954,None,,,,,,,,,,,,,,,,,,,,,,,,,,,,,,,,,,,,,,,,,,,,,,,,,,,,,f,20,ppdd2,2022-08-15_15h30.13.738,training+cueing,2022.1.3,59.93917379358871,
Self.png,You,,,,,,,0,2,2,0,,,,,,,,,,,,,,,,,,,66.69755649985746,None,66.69755649985746,None,,,,,,,,,,,,,,,,,,,,,,,,,,,,,,,,,,,,,,,,,,,,,,,,,,,,,f,20,ppdd2,2022-08-15_15h30.13.738,training+cueing,2022.1.3,59.93917379358871,
Friend.png,You,Friend,m,1.2,14,24,94,,,,,0,0,0,0,0,0,0,3,,,,,,,,,,,,,,,86.64858919987455,None,98.94070040015504,None,space,-0.9990932000800967,2.0001754402182996,None,100.92581499973312,None,1.438,1.747,103.93081329995766,None,104.55095899989828,105.06208560010418,105.02869120007381,105.1287909001112,105.02869120007381,105.1287909001112,105.1287909001112,None,m,1,0.7818952002562582,105.1287909001112,None,105.92924960004166,None,,,,,,,,,,,,,,,,,,,,,,,,f,20,ppdd2,2022-08-15_15h30.13.738,training+cueing,2022.1.3,59.93917379358871,
Self.png,Friend,Self ,m,2.1,16,26,96,,,,,0,0,0,0,0,1,1,1,,,,,,,,,,,,,,,,,,,,,,,,,1.519,1.555,106.32962690014392,None,106.86850479990244,107.38041139999405,107.36373669980094,107.48043650016189,107.36373669980094,107.48043650016189,107.46376519976184,None,m,1,0.7511436999775469,107.46376519976184,None,108.23117600008845,None,,,,,,,,,,,,,,,,,,,,,,,,f,20,ppdd2,2022-08-15_15h30.13.738,training+cueing,2022.1.3,59.93917379358871,
Self.png,You,Self ,c,1,11,21,91,,,,,0,0,0,0,0,2,2,0,,,,,,,,,,,,,,,,,,,,,,,,,1.666,1.362,108.6314281001687,None,109.1722864001058,109.68206210015342,109.64870239980519,109.74881639983505,109.64870239980519,109.74881639983505,109.74881639983505,None,c,1,0.5772317997179925,109.74881639983505,None,110.34922500001267,None,,,,,,,,,,,,,,,,,,,,,,,,f,20,ppdd2,2022-08-15_15h30.13.738,training+cueing,2022.1.3,59.93917379358871,
Self.png,You,Self ,c,1,11,21,91,,,,,0,0,0,0,0,3,3,9,,,,,,,,,,,,,,,,,,,,,,,,,1.528,1.861,110.74946579989046,None,111.27707199985161,111.78361789975315,111.76691670017317,111.8669607997872,111.76691670017317,111.8669607997872,111.8669607997872,None,c,1,0.47567279962822795,111.8669607997872,None,112.36745329992846,None,,,,,,,,,,,,,,,,,,,,,,,,f,20,ppdd2,2022-08-15_15h30.13.738,training+cueing,2022.1.3,59.93917379358871,
Stranger.png,Stranger,Stranger,c,3,13,23,93,,,,,0,0,0,0,0,4,4,8,,,,,,,,,,,,,,,,,,,,,,,,,1.624,1.853,112.76808589976281,None,113.29946050001308,113.80156409973279,113.78490079985932,113.90159429982305,113.78490079985932,113.90159429982305,113.88490060018376,None,c,1,0.7776255998760462,113.88490060018376,None,114.68574609979987,None,,,,,,,,,,,,,,,,,,,,,,,,f,20,ppdd2,2022-08-15_15h30.13.738,training+cueing,2022.1.3,59.93917379358871,
Stranger.png,You,Stranger,m,1.3,15,25,95,,,,,0,0,0,0,0,5,5,6,,,,,,,,,,,,,,,,,,,,,,,,,1.506,1.311,115.08604029985145,None,115.61651899991557,116.1200776998885,116.10336889978498,116.20344799989834,116.10336889978498,116.20344799989834,116.20344799989834,None,m,1,0.7945876000449061,116.20344799989834,None,117.02069139992818,None,,,,,,,,,,,,,,,,,,,,,,,,f,20,ppdd2,2022-08-15_15h30.13.738,training+cueing,2022.1.3,59.93917379358871,
Friend.png,Friend,Friend,c,2,12,22,92,,,,,0,0,0,0,0,6,6,10,,,,,,,,,,,,,,,,,,,,,,,,,1.523,1.911,117.42093579983339,None,117.95457409974188,118.4550728998147,118.4550728998147,118.55514980014414,118.4550728998147,118.55514980014414,118.55514980014414,None,c,1,0.6989959999918938,118.55514980014414,None,119.27235969994217,None,,,,,,,,,,,,,,,,,,,,,,,,f,20,ppdd2,2022-08-15_15h30.13.738,training+cueing,2022.1.3,59.93917379358871,
Stranger.png,Stranger,Stranger,c,3,13,23,93,,,,,0,0,0,0,0,7,7,11,,,,,,,,,,,,,,,,,,,,,,,,,1.719,2.038,119.67260729987174,None,120.20444000000134,120.70668540010229,120.69002369977534,120.8067701999098,120.69002369977534,120.8067701999098,120.79005939979106,None,c,1,1.0403692000545561,120.79005939979106,None,121.85755650000647,None,,,,,,,,,,,,,,,,,,,,,,,,f,20,ppdd2,2022-08-15_15h30.13.738,training+cueing,2022.1.3,59.93917379358871,
Friend.png,Stranger,Friend,m,3.2,19,29,99,,,,,0,0,0,0,0,8,8,5,,,,,,,,,,,,,,,,,,,,,,,,,1.692,2.177,122.2578035001643,None,122.78516669990495,123.29184120008722,123.27524199988693,123.39193559996784,123.27524199988693,123.39193559996784,123.37525130016729,None,m,1,0.6630782997235656,123.37525130016729,None,124.05914929974824,None,,,,,,,,,,,,,,,,,,,,,,,,f,20,ppdd2,2022-08-15_15h30.13.738,training+cueing,2022.1.3,59.93917379358871,
Stranger.png,Friend,Stranger,m,2.3,17,27,97,,,,,0,0,0,0,0,9,9,7,,,,,,,,,,,,,,,,,,,,,,,,,1.633,2.194,124.45944170001894,None,124.99021299974993,125.4936095001176,125.47689429996535,125.59357729973271,125.47689429996535,125.59357729973271,125.5769342998974,None,m,1,0.8458568002097309,125.5769342998974,None,126.44424350000918,None,,,,,,,,,,,,,,,,,,,,,,,,f,20,ppdd2,2022-08-15_15h30.13.738,training+cueing,2022.1.3,59.93917379358871,
Friend.png,Friend,Friend,c,2,12,22,92,,,,,0,0,0,0,0,10,10,4,,,,,,,,,,,,,,,,,,,,,,,,,1.784,1.838,126.84444440016523,None,127.37223389977589,127.87856259988621,127.86193289980292,127.97858149977401,127.86193289980292,127.97858149977401,127.96188820013776,None,c,1,0.9248171001672745,127.96188820013776,None,128.9126976998523,None,,,,,,,,,,,,,,,,,,,,,,,,f,20,ppdd2,2022-08-15_15h30.13.738,training+cueing,2022.1.3,59.93917379358871,
Self.png,Stranger,Self ,m,3.1,18,28,98,,,,,0,0,0,0,0,11,11,2,,,,,,,,,,,,,,,,,,,,,,,,,1.691,1.835,129.3130108001642,None,129.84445609990507,130.34700459986925,130.33033460006118,130.44705229997635,130.33033460006118,130.44705229997635,130.44705229997635,None,m,1,1.0156439999118447,130.44705229997635,None,131.481205499731,None,,,,,,,,,,,,,,,,,,,,,,,,f,20,ppdd2,2022-08-15_15h30.13.738,training+cueing,2022.1.3,59.93917379358871,
Friend.png,You,Friend,m,1.2,14,24,94,,,,,0,0,0,0,,,,,0,0,0,3,,,,,,,,,,,,,,,,,,,174.5791170997545,None,1.646,2.272,178.08835709979758,None,,,,,,,,,,,,,,,,131.88149099983275,None,0.01624764036387205,None,178.70392929995432,179.2157938000746,0.5016105202957988,1.0019063204526901,179.19909649994224,179.29915330000222,179.19909649994224,179.29915330000222,179.29915330000222,None,m,1,0.6591520002111793,179.29915330000222,None,,,,,f,20,ppdd2,2022-08-15_15h30.13.738,training+cueing,2022.1.3,59.93917379358871,
Stranger.png,You,Stranger,m,1.3,15,25,95,,,,,0,0,0,0,,,,,0,1,1,6,,,,,,,,,,,,,,,,,,,,,1.417,1.715,180.08586259977892,None,,,,,,,,,,,,,,,,,,,,180.62729159975424,181.13386130006984,0.5102848201058805,1.0107594202272594,181.11715100007132,181.21718560019508,181.11715100007132,181.21718560019508,181.21718560019508,None,m,1,0.9972413000650704,181.21718560019508,None,,,,,f,20,ppdd2,2022-08-15_15h30.13.738,training+cueing,2022.1.3,59.93917379358871,
Friend.png,Stranger,Friend,m,3.2,19,29,99,,,,,0,0,0,0,,,,,0,2,2,5,,,,,,,,,,,,,,,,,,,,,1.46,1.37,182.3363223997876,None,,,,,,,,,,,,,,,,,,,,182.88374349987134,183.38546269992366,0.5017587197944522,1.001990919932723,183.36881380015984,183.48550330009311,183.36881380015984,183.48550330009311,183.48550330009311,None,m,1,0.5841400003992021,183.48550330009311,None,,,,,f,20,ppdd2,2022-08-15_15h30.13.738,training+cueing,2022.1.3,59.93917379358871,
Self.png,You,Self ,c,1,11,21,91,,,,,0,0,0,0,,,,,0,3,3,9,,,,,,,,,,,,,,,,,,,,,1.489,1.668,184.18841760000214,None,,,,,,,,,,,,,,,,,,,,184.73216449981555,185.23680509999394,0.5048723202198744,1.0051587200723588,185.22012579999864,185.32013109978288,185.22012579999864,185.32013109978288,185.32013109978288,None,c,1,0.5101013001985848,185.32013109978288,None,,,,,f,20,ppdd2,2022-08-15_15h30.13.738,training+cueing,2022.1.3,59.93917379358871,
Stranger.png,Stranger,Stranger,c,3,13,23,93,,,,,0,0,0,0,,,,,0,4,4,8,,,,,,,,,,,,,,,,,,,,,1.581,1.718,185.95595100009814,None,,,,,,,,,,,,,,,,,,,,186.51418389985338,187.02141840010881,0.5119854598306119,1.0121917598880827,187.00478840013966,187.1214315998368,187.00478840013966,187.1214315998368,187.10471099987626,None,c,1,0.7249224004335701,187.10471099987626,None,,,,,f,20,ppdd2,2022-08-15_15h30.13.738,training+cueing,2022.1.3,59.93917379358871,
Stranger.png,Stranger,Stranger,c,3,13,23,93,,,,,0,0,0,0,,,,,0,5,5,11,,,,,,,,,,,,,,,,,,,,,1.497,1.591,187.95762360002846,None,,,,,,,,,,,,,,,,,,,,188.49939360003918,189.00619739992544,0.5107779204845428,1.011387920472771,188.98953269980848,189.10621860018,188.98953269980848,189.10621860018,189.08959339978173,None,c,1,0.5968149001710117,189.08959339978173,None,,,,,f,20,ppdd2,2022-08-15_15h30.13.738,training+cueing,2022.1.3,59.93917379358871,
Friend.png,Friend,Friend,c,2,12,22,92,,,,,0,0,0,0,,,,,0,6,6,4,,,,,,,,,,,,,,,,,,,,,1.681,1.379,189.80996630014852,None,,,,,,,,,,,,,,,,,,,,190.35309930006042,190.85738760000095,0.5035543199628592,1.0038053197786212,190.84083110000938,190.95747599983588,190.84083110000938,190.95747599983588,190.94073599996045,None,c,1,0.6978571997024119,190.94073599996045,None,,,,,f,20,ppdd2,2022-08-15_15h30.13.738,training+cueing,2022.1.3,59.93917379358871,
Self.png,Friend,Self ,m,2.1,16,26,96,,,,,0,0,0,0,,,,,0,7,7,1,,,,,,,,,,,,,,,,,,,,,1.466,2.487,191.75983909983188,None,,,,,,,,,,,,,,,,,,,,192.30251700012013,192.80908469995484,0.5106462202966213,1.0108647206798196,192.79240350006148,192.90908579993993,192.79240350006148,192.90908579993993,192.89232830004767,None,m,1,0.8900551996193826,192.89232830004767,None,,,,,f,20,ppdd2,2022-08-15_15h30.13.738,training+cueing,2022.1.3,59.93917379358871,
Friend.png,Friend,Friend,c,2,12,22,92,,,,,0,0,0,0,,,,,0,8,8,10,,,,,,,,,,,,,,,,,,,,,1.715,1.203,193.91169600002468,None,,,,,,,,,,,,,,,,,,,,194.45298029994592,194.96058439975604,0.5106313205324113,1.0108213205821812,194.94389900006354,195.06057470012456,194.94389900006354,195.06057470012456,195.04383629979566,None,c,1,0.7059041997417808,195.04383629979566,None,,,,,f,20,ppdd2,2022-08-15_15h30.13.738,training+cueing,2022.1.3,59.93917379358871,
Self.png,Stranger,Self ,m,3.1,18,28,98,,,,,0,0,0,0,,,,,0,9,9,2,,,,,,,,,,,,,,,,,,,,,1.738,2.222,195.87988930009305,None,,,,,,,,,,,,,,,,,,,,196.42613729974255,196.92863789992407,0.5030098198913038,1.0034869201481342,196.91181509988382,197.02867370005697,196.91181509988382,197.02867370005697,197.01194120012224,None,m,1,0.7062856997363269,197.01194120012224,None,,,,,f,20,ppdd2,2022-08-15_15h30.13.738,training+cueing,2022.1.3,59.93917379358871,
Stranger.png,Friend,Stranger,m,2.3,17,27,97,,,,,0,0,0,0,,,,,0,10,10,7,,,,,,,,,,,,,,,,,,,,,1.601,1.933,197.84753159992397,None,,,,,,,,,,,,,,,,,,,,198.3931005001068,198.8966668001376,0.5049006203189492,1.004956820514053,198.88009409978986,198.99672339996323,198.88009409978986,198.99672339996323,198.9800383001566,None,c,0,0.8819681000895798,198.9800383001566,None,,,,,f,20,ppdd2,2022-08-15_15h30.13.738,training+cueing,2022.1.3,59.93917379358871,
Self.png,You,Self ,c,1,11,21,91,,,,,0,0,0,0,,,,,0,11,11,0,,,,,,,,,,,,,,,,,,,,,1.641,2.057,199.98309799982235,None,,,,,,,,,,,,,,,,,,,,200.53125219978392,201.0316058001481,0.5133729204535484,1.0136866206303239,201.0316058001481,201.1316225999035,201.0316058001481,201.1316225999035,201.1316225999035,None,c,1,0.5860938001424074,201.1316225999035,None,,,,,f,20,ppdd2,2022-08-15_15h30.13.738,training+cueing,2022.1.3,59.93917379358871,
Friend.png,Stranger,Friend,m,3.2,19,29,99,,,,,0,0,0,0,,,,,1,0,12,5,,,,,,,,,,,,,,,,,,,,,1.413,2.35,201.8504495001398,None,,,,,,,,,,,,,,,,,,,,202.3967083999887,202.89956940012053,0.5035769203677773,1.0036984202452004,202.88295259978622,202.99965849984437,202.88295259978622,202.99965849984437,202.9829744999297,None,m,1,0.6721572000533342,202.9829744999297,None,,,,,f,20,ppdd2,2022-08-15_15h30.13.738,training+cueing,2022.1.3,59.93917379358871,
Friend.png,Friend,Friend,c,2,12,22,92,,,,,0,0,0,0,,,,,1,1,13,4,,,,,,,,,,,,,,,,,,,,,1.504,1.342,203.78521180013195,None,,,,,,,,,,,,,,,,,,,,204.3318070997484,204.83435710007325,0.5034748199395835,1.00380141986534,204.81767399981618,204.93441820004955,204.81767399981618,204.93441820004955,204.91770939994603,None,c,1,0.8164091999642551,204.91770939994603,None,,,,,f,20,ppdd2,2022-08-15_15h30.13.738,training+cueing,2022.1.3,59.93917379358871,
Self.png,Stranger,Self ,m,3.1,18,28,98,,,,,0,0,0,0,,,,,1,2,14,2,,,,,,,,,,,,,,,,,,,,,1.656,1.224,205.8534332998097,None,,,,,,,,,,,,,,,,,,,,206.41045780014247,206.91923299990594,0.5133927599526942,1.013794959988445,206.9024569997564,207.0192490001209,206.9024569997564,207.0192490001209,207.0025416999124,None,m,1,1.0355171002447605,207.0025416999124,None,,,,,f,20,ppdd2,2022-08-15_15h30.13.738,training+cueing,2022.1.3,59.93917379358871,
Stranger.png,You,Stranger,m,1.3,15,25,95,,,,,0,0,0,0,,,,,1,3,15,6,,,,,,,,,,,,,,,,,,,,,1.716,2.241,208.1716963998042,None,,,,,,,,,,,,,,,,,,,,208.71687880018726,209.22091689985245,0.5053103202953935,1.0054522203281522,209.2043098001741,209.3042731997557,209.2043098001741,209.3042731997557,209.3042731997557,None,m,1,0.6541896997950971,209.3042731997557,None,,,,,f,20,ppdd2,2022-08-15_15h30.13.738,training+cueing,2022.1.3,59.93917379358871,
Self.png,You,Self ,c,1,11,21,91,,,,,0,0,0,0,,,,,1,4,16,0,,,,,,,,,,,,,,,,,,,,,1.503,2.392,210.09296210017055,None,,,,,,,,,,,,,,,,,,,,210.63176390016451,211.13894539978355,0.5103876204229891,1.010669520124793,211.12229119986296,211.2223073998466,211.12229119986296,211.2223073998466,211.2223073998466,None,c,1,1.167963100131601,211.2223073998466,None,,,,,f,20,ppdd2,2022-08-15_15h30.13.738,training+cueing,2022.1.3,59.93917379358871,
Self.png,Friend,Self ,m,2.1,16,26,96,,,,,0,0,0,0,,,,,1,5,17,1,,,,,,,,,,,,,,,,,,,,,1.77,1.369,212.52471859985963,None,,,,,,,,,,,,,,,,,,,,213.07237900001928,213.5740716001019,0.5010351203382015,1.001322920434177,213.55740729998797,213.67409839993343,213.55740729998797,213.67409839993343,213.67409839993343,None,m,1,0.667610100004822,213.67409839993343,None,,,,,f,20,ppdd2,2022-08-15_15h30.13.738,training+cueing,2022.1.3,59.93917379358871,
Stranger.png,Stranger,Stranger,c,3,13,23,93,,,,,0,0,0,0,,,,,1,6,18,11,,,,,,,,,,,,,,,,,,,,,1.775,1.303,214.47608309984207,None,,,,,,,,,,,,,,,,,,,,215.02231519995257,215.52544960007071,0.5040340200066566,1.0042168200016022,215.50886210007593,215.62550429999828,215.50886210007593,215.62550429999828,215.60878799995407,None,m,0,0.7817989997565746,215.60878799995407,None,,,,,f,20,ppdd2,2022-08-15_15h30.13.738,training+cueing,2022.1.3,59.93917379358871,
Stranger.png,Friend,Stranger,m,2.3,17,27,97,,,,,0,0,0,0,,,,,1,7,19,7,,,,,,,,,,,,,,,,,,,,,1.575,2.398,216.51097679976374,None,,,,,,,,,,,,,,,,,,,,217.0557625000365,217.5604603001848,0.5046465205959976,1.0046975202858448,217.54375849990174,217.66051279986277,217.54375849990174,217.66051279986277,217.6437546997331,None,c,0,1.4346187999472022,217.6437546997331,None,,,,,f,20,ppdd2,2022-08-15_15h30.13.738,training+cueing,2022.1.3,59.93917379358871,
Friend.png,Friend,Friend,c,2,12,22,92,,,,,0,0,0,0,,,,,1,8,20,10,,,,,,,,,,,,,,,,,,,,,1.505,1.565,219.21280180010945,None,,,,,,,,,,,,,,,,,,,,219.75562379974872,220.2620986001566,0.5098798195831478,1.0102950199507177,220.2454193001613,220.36213199980557,220.2454193001613,220.36213199980557,220.3454344999045,None,c,1,0.8928482001647353,220.3454344999045,None,,,,,f,20,ppdd2,2022-08-15_15h30.13.738,training+cueing,2022.1.3,59.93917379358871,
Stranger.png,Stranger,Stranger,c,3,13,23,93,,,,,0,0,0,0,,,,,1,9,21,8,,,,,,,,,,,,,,,,,,,,,1.591,2.406,221.36469219997525,None,,,,,,,,,,,,,,,,,,,,221.90932710003108,222.41379640018567,0.5071220602840185,1.0074073602445424,222.39708429994062,222.51387700019404,222.39708429994062,222.51387700019404,222.49707990000024,None,m,0,1.1415034998208284,222.49707990000024,None,,,,,f,20,ppdd2,2022-08-15_15h30.13.738,training+cueing,2022.1.3,59.93917379358871,
Self.png,You,Self ,c,1,11,21,91,,,,,0,0,0,0,,,,,1,10,22,9,,,,,,,,,,,,,,,,,,,,,1.49,2.209,223.76662900019437,None,,,,,,,,,,,,,,,,,,,,224.31156829977408,224.81553409993649,0.5035532200708985,1.0038688201457262,224.79887709999457,224.89897389989346,224.79887709999457,224.89897389989346,224.89897389989346,None,c,1,0.45041249971836805,224.89897389989346,None,,,,,f,20,ppdd2,2022-08-15_15h30.13.738,training+cueing,2022.1.3,59.93917379358871,
Friend.png,You,Friend,m,1.2,14,24,94,,,,,0,0,0,0,,,,,1,11,23,3,,,,,,,,,,,,,,,,,,,,,1.647,1.282,225.4675095998682,None,,,,,,,,,,,,,,,,,,,,226.01026559993625,226.5168253998272,0.5103405206464231,1.010558120906353,226.50011490006,226.60014430014417,226.50011490006,226.60014430014417,226.60014430014417,None,m,1,0.637650600168854,226.60014430014417,None,,,,,f,20,ppdd2,2022-08-15_15h30.13.738,training+cueing,2022.1.3,59.93917379358871,
Friend.png,Friend,Friend,c,2,12,22,92,,,,,0,0,0,0,,,,,2,0,24,4,,,,,,,,,,,,,,,,,,,,,1.434,1.215,227.36926589999348,None,,,,,,,,,,,,,,,,,,,,227.91473900014535,228.41814249986783,0.5021941205486655,1.002509320154786,228.40154440002516,228.51816560002044,228.40154440002516,228.51816560002044,228.50151570001617,None,c,1,0.7200674000196159,228.50151570001617,None,,,,,f,20,ppdd2,2022-08-15_15h30.13.738,training+cueing,2022.1.3,59.93917379358871,
Self.png,Friend,Self ,m,2.1,16,26,96,,,,,0,0,0,0,,,,,2,1,25,1,,,,,,,,,,,,,,,,,,,,,1.541,1.877,229.3536600000225,None,,,,,,,,,,,,,,,,,,,,229.89637439977378,230.4030188000761,0.5106954197399318,1.0110038197599351,230.38633939996362,230.50308879977092,230.38633939996362,230.50308879977092,230.48630819981918,None,m,1,0.943809799849987,230.48630819981918,None,,,,,f,20,ppdd2,2022-08-15_15h30.13.738,training+cueing,2022.1.3,59.93917379358871,
Stranger.png,Friend,Stranger,m,2.3,17,27,97,,,,,0,0,0,0,,,,,2,2,26,7,,,,,,,,,,,,,,,,,,,,,1.442,2.226,231.5551285999827,None,,,,,,,,,,,,,,,,,,,,232.0979279000312,232.60458929976448,0.510562620125711,1.010809919796884,232.5878503001295,232.70462520001456,232.5878503001295,232.70462520001456,232.68791949981824,None,m,1,0.7584493001922965,232.68791949981824,None,,,,,f,20,ppdd2,2022-08-15_15h30.13.738,training+cueing,2022.1.3,59.93917379358871,
Friend.png,Friend,Friend,c,2,12,22,92,,,,,0,0,0,0,,,,,2,3,27,10,,,,,,,,,,,,,,,,,,,,,1.788,2.243,233.5735097997822,None,,,,,,,,,,,,,,,,,,,,234.11546859983355,234.62266719993204,0.5100969206541777,1.0103120203129947,234.60603650007397,234.72274200012907,234.60603650007397,234.72274200012907,234.70600430015475,None,c,1,0.6922899000346661,234.70600430015475,None,,,,,f,20,ppdd2,2022-08-15_15h30.13.738,training+cueing,2022.1.3,59.93917379358871,
Friend.png,You,Friend,m,1.2,14,24,94,,,,,0,0,0,0,,,,,2,4,28,3,,,,,,,,,,,,,,,,,,,,,1.62,1.602,235.52478200010955,None,,,,,,,,,,,,,,,,,,,,236.07022419990972,236.57406730018556,0.505263919942081,1.005519320257008,236.55743419984356,236.65750270010903,236.55743419984356,236.65750270010903,236.65750270010903,None,m,1,0.6442340998910367,236.65750270010903,None,,,,,f,20,ppdd2,2022-08-15_15h30.13.738,training+cueing,2022.1.3,59.93917379358871,
Friend.png,Stranger,Friend,m,3.2,19,29,99,,,,,0,0,0,0,,,,,2,5,29,5,,,,,,,,,,,,,,,,,,,,,1.576,2.462,237.426247399766,None,,,,,,,,,,,,,,,,,,,,237.97294820006937,238.47552149975672,0.5031672199256718,1.0034408196806908,238.4587918999605,238.57554379990324,238.4587918999605,238.57554379990324,238.55884289974347,None,m,1,0.5674364999867976,238.55884289974347,None,,,,,f,20,ppdd2,2022-08-15_15h30.13.738,training+cueing,2022.1.3,59.93917379358871,
Self.png,You,Self ,c,1,11,21,91,,,,,0,0,0,0,,,,,2,6,30,0,,,,,,,,,,,,,,,,,,,,,1.53,2.236,239.26112189982086,None,,,,,,,,,,,,,,,,,,,,239.80511790001765,240.31014860002324,0.5055613196454942,1.0057684197090566,240.29346909979358,240.39352490007877,240.29346909979358,240.39352490007877,240.39352490007877,None,c,1,0.6200610003434122,240.39352490007877,None,,,,,f,20,ppdd2,2022-08-15_15h30.13.738,training+cueing,2022.1.3,59.93917379358871,
Stranger.png,You,Stranger,m,1.3,15,25,95,,,,,0,0,0,0,,,,,2,7,31,6,,,,,,,,,,,,,,,,,,,,,1.637,1.228,241.1461034999229,None,,,,,,,,,,,,,,,,,,,,241.68846389977261,242.1948438999243,0.5106214201077819,1.0110430200584233,242.17818190017715,242.27818189980462,242.17818190017715,242.27818189980462,242.27818189980462,None,m,1,0.46436529979109764,242.27818189980462,None,,,,,f,20,ppdd2,2022-08-15_15h30.13.738,training+cueing,2022.1.3,59.93917379358871,
Stranger.png,Stranger,Stranger,c,3,13,23,93,,,,,0,0,0,0,,,,,2,8,32,11,,,,,,,,,,,,,,,,,,,,,1.414,2.293,242.86390399979427,None,,,,,,,,,,,,,,,,,,,,243.40872619999573,243.91275939997286,0.5034200199879706,1.003754320088774,243.8960420000367,244.01280569983646,243.8960420000367,244.01280569983646,243.99607170000672,None,c,1,0.7456336002796888,243.99607170000672,None,,,,,f,20,ppdd2,2022-08-15_15h30.13.738,training+cueing,2022.1.3,59.93917379358871,
Self.png,Stranger,Self ,m,3.1,18,28,98,,,,,0,0,0,0,,,,,2,9,33,2,,,,,,,,,,,,,,,,,,,,,1.435,1.562,244.86537660006434,None,,,,,,,,,,,,,,,,,,,,245.40829609986395,245.91439739987254,0.5091181201860309,1.0093665202148259,245.89753879979253,246.0142407999374,245.89753879979253,246.0142407999374,245.99753500008956,None,m,1,0.712480999995023,245.99753500008956,None,,,,,f,20,ppdd2,2022-08-15_15h30.13.738,training+cueing,2022.1.3,59.93917379358871,
Stranger.png,Stranger,Stranger,c,3,13,23,93,,,,,0,0,0,0,,,,,2,10,34,8,,,,,,,,,,,,,,,,,,,,,1.618,1.519,246.83362590009347,None,,,,,,,,,,,,,,,,,,,,247.3762507000938,247.8823461001739,0.5095812203362584,1.0097724199295044,247.86567510012537,247.98237269977108,247.86567510012537,247.98237269977108,247.96566350013018,None,c,1,0.5842955997213721,247.96566350013018,None,,,,,f,20,ppdd2,2022-08-15_15h30.13.738,training+cueing,2022.1.3,59.93917379358871,
Self.png,You,Self ,c,1,11,21,91,,,,,0,0,0,0,,,,,2,11,35,9,,,,,,,,,,,,,,,,,,,,,1.623,2.424,248.6843578000553,None,,,,,,,,,,,,,,,,,,,,249.22934560012072,249.7338752001524,0.5041987197473645,1.0043682199902833,249.7170477998443,249.81838509999216,249.7170477998443,249.81838509999216,249.81838509999216,None,c,1,0.46001389995217323,249.81838509999216,None,,,,,f,20,ppdd2,2022-08-15_15h30.13.738,training+cueing,2022.1.3,59.93917379358871,
Self.png,Stranger,Self ,m,3.1,18,28,98,,,,,0,0,0,0,,,,,3,0,36,2,,,,,,,,,,,,,,,,,,,,,1.726,2.378,250.40262549975887,None,,,,,,,,,,,,,,,,,,,,250.9492458999157,251.45160390017554,0.5029486203566194,1.0032670199871063,251.4348544999957,251.5522913997993,251.4348544999957,251.5522913997993,251.53558020014316,None,m,1,0.6307496000081301,251.53558020014316,None,,,,,f,20,ppdd2,2022-08-15_15h30.13.738,training+cueing,2022.1.3,59.93917379358871,
Self.png,You,Self ,c,1,11,21,91,,,,,0,0,0,0,,,,,3,1,37,0,,,,,,,,,,,,,,,,,,,,,1.583,1.882,252.29243410006166,None,,,,,,,,,,,,,,,,,,,,252.83228420000523,253.3363075000234,0.5052238199859858,1.005499420221895,253.3195814001374,253.41959979990497,253.3195814001374,253.41959979990497,253.41959979990497,None,c,1,0.4905729000456631,253.41959979990497,None,,,,,f,20,ppdd2,2022-08-15_15h30.13.738,training+cueing,2022.1.3,59.93917379358871,
Stranger.png,Friend,Stranger,m,2.3,17,27,97,,,,,0,0,0,0,,,,,3,2,38,7,,,,,,,,,,,,,,,,,,,,,1.583,1.269,254.03886329988018,None,,,,,,,,,,,,,,,,,,,,254.58383509982377,255.08754390012473,0.5031127198599279,1.0034529198892415,255.07089209975675,255.187521699816,255.07089209975675,255.187521699816,255.17089790012687,None,c,0,0.851422400213778,255.17089790012687,None,,,,,f,20,ppdd2,2022-08-15_15h30.13.738,training+cueing,2022.1.3,59.93917379358871,
Self.png,You,Self ,c,1,11,21,91,,,,,0,0,0,0,,,,,3,3,39,9,,,,,,,,,,,,,,,,,,,,,1.626,2.429,256.156585900113,None,,,,,,,,,,,,,,,,,,,,256.7018765998073,257.2057356997393,0.5052743200212717,1.005695020314306,257.1890742997639,257.289083099924,257.1890742997639,257.289083099924,257.289083099924,None,c,1,0.5412417999468744,257.289083099924,None,,,,,f,20,ppdd2,2022-08-15_15h30.13.738,training+cueing,2022.1.3,59.93917379358871,
Friend.png,Friend,Friend,c,2,12,22,92,,,,,0,0,0,0,,,,,3,4,40,10,,,,,,,,,,,,,,,,,,,,,1.616,2.471,257.95834439992905,None,,,,,,,,,,,,,,,,,,,,258.50705070002005,259.007108699996,0.5042140199802816,1.0045761200599372,258.9903947999701,259.1071588001214,258.9903947999701,259.1071588001214,259.0903869001195,None,m,0,0.5647734999656677,259.0903869001195,None,,,,,f,20,ppdd2,2022-08-15_15h30.13.738,training+cueing,2022.1.3,59.93917379358871,
Stranger.png,Stranger,Stranger,c,3,13,23,93,,,,,0,0,0,0,,,,,3,5,41,11,,,,,,,,,,,,,,,,,,,,,1.609,1.632,259.7759517999366,None,,,,,,,,,,,,,,,,,,,,260.3219353999011,260.8250576001592,0.5037573203444481,1.0040646204724908,260.8084006998688,260.9253063998185,260.8084006998688,260.9253063998185,260.90838269982487,None,m,0,0.7140623000450432,260.90838269982487,None,,,,,f,20,ppdd2,2022-08-15_15h30.13.738,training+cueing,2022.1.3,59.93917379358871,
Self.png,Friend,Self ,m,2.1,16,26,96,,,,,0,0,0,0,,,,,3,6,42,1,,,,,,,,,,,,,,,,,,,,,1.623,1.386,261.74415320018306,None,,,,,,,,,,,,,,,,,,,,262.2927149999887,262.7931618997827,0.5152549198828638,1.0155340200290084,262.7931618997827,262.89319169986993,262.7931618997827,262.89319169986993,262.89319169986993,None,m,1,0.7614688999019563,262.89319169986993,None,,,,,f,20,ppdd2,2022-08-15_15h30.13.738,training+cueing,2022.1.3,59.93917379358871,
Friend.png,You,Friend,m,1.2,14,24,94,,,,,0,0,0,0,,,,,3,7,43,3,,,,,,,,,,,,,,,,,,,,,1.798,2.079,263.7788766999729,None,,,,,,,,,,,,,,,,,,,,264.32378580002114,264.82798360008746,0.5038710199296474,1.0041355197317898,264.8112639999017,264.9113004999235,264.8112639999017,264.9113004999235,264.9113004999235,None,m,1,0.7751427995972335,264.9113004999235,None,,,,,f,20,ppdd2,2022-08-15_15h30.13.738,training+cueing,2022.1.3,59.93917379358871,
Stranger.png,Stranger,Stranger,c,3,13,23,93,,,,,0,0,0,0,,,,,3,8,44,8,,,,,,,,,,,,,,,,,,,,,1.459,1.849,265.8137205997482,None,,,,,,,,,,,,,,,,,,,,266.3598243999295,266.86278979992494,0.5035314201377332,1.0040302202105522,266.8460972001776,266.96290480019525,266.8460972001776,266.96290480019525,266.9462015000172,None,c,1,0.5479756002314389,266.9462015000172,None,,,,,f,20,ppdd2,2022-08-15_15h30.13.738,training+cueing,2022.1.3,59.93917379358871,
Friend.png,Stranger,Friend,m,3.2,19,29,99,,,,,0,0,0,0,,,,,3,9,45,5,,,,,,,,,,,,,,,,,,,,,1.426,1.78,267.61509189987555,None,,,,,,,,,,,,,,,,,,,,268.1577018997632,268.6641345000826,0.5100220199674368,1.0103091201744974,268.6474004997872,268.76415969990194,268.6474004997872,268.76415969990194,268.7473892001435,None,m,1,0.6507570003159344,268.7473892001435,None,,,,,f,20,ppdd2,2022-08-15_15h30.13.738,training+cueing,2022.1.3,59.93917379358871,
Stranger.png,You,Stranger,m,1.3,15,25,95,,,,,0,0,0,0,,,,,3,10,46,6,,,,,,,,,,,,,,,,,,,,,1.653,1.544,269.5165726998821,None,,,,,,,,,,,,,,,,,,,,270.0611915998161,270.56549429986626,0.5042777201160789,1.0045779198408127,270.54878140008077,270.64881510008126,270.54878140008077,270.64881510008126,270.64881510008126,None,c,0,0.6367044001817703,270.64881510008126,None,,,,,f,20,ppdd2,2022-08-15_15h30.13.738,training+cueing,2022.1.3,59.93917379358871,
Friend.png,Friend,Friend,c,2,12,22,92,,,,,0,0,0,0,,,,,3,11,47,4,,,,,,,,,,,,,,,,,,,,,1.617,1.386,271.41763529973105,None,,,,,,,,,,,,,,,,,,,,271.96487719984725,272.4668310000561,0.5024813204072416,1.0028932206332684,272.4501887001097,272.56685090018436,272.4501887001097,272.56685090018436,272.5501127000898,None,c,1,0.6557883997447789,272.5501127000898,None,,,,,f,20,ppdd2,2022-08-15_15h30.13.738,training+cueing,2022.1.3,59.93917379358871,
Friend.png,Friend,Friend,c,2,12,22,92,,,,,0,0,0,0,,,,,4,0,48,10,,,,,,,,,,,,,,,,,,,,,1.791,1.383,273.339764600154,None,,,,,,,,,,,,,,,,,,,,273.8772800001316,274.38496079994366,0.5107532199472189,1.0110871200449765,274.3682558997534,274.48496530018747,274.3682558997534,274.48496530018747,274.46824249997735,None,m,0,0.6102388999424875,274.46824249997735,None,,,,,f,20,ppdd2,2022-08-15_15h30.13.738,training+cueing,2022.1.3,59.93917379358871,
Self.png,You,Self ,c,1,11,21,91,,,,,0,0,0,0,,,,,4,1,49,9,,,,,,,,,,,,,,,,,,,,,1.591,1.538,275.2038611001335,None,,,,,,,,,,,,,,,,,,,,275.74929820001125,276.2529600998387,0.5046759201213717,1.0049209203571081,276.2362655000761,276.336317199748,276.2362655000761,276.336317199748,276.336317199748,None,c,1,0.5177230001427233,276.336317199748,None,,,,,f,20,ppdd2,2022-08-15_15h30.13.738,training+cueing,2022.1.3,59.93917379358871,
Self.png,You,Self ,c,1,11,21,91,,,,,0,0,0,0,,,,,4,2,50,0,,,,,,,,,,,,,,,,,,,,,1.609,2.058,276.9889421998523,None,,,,,,,,,,,,,,,,,,,,277.53128350013867,278.0375716998242,0.5098894201219082,1.0101139200851321,278.0208907998167,278.12095290003344,278.0208907998167,278.12095290003344,278.12095290003344,None,c,1,0.5088224001228809,278.12095290003344,None,,,,,f,20,ppdd2,2022-08-15_15h30.13.738,training+cueing,2022.1.3,59.93917379358871,
Self.png,Friend,Self ,m,2.1,16,26,96,,,,,0,0,0,0,,,,,4,3,51,1,,,,,,,,,,,,,,,,,,,,,1.721,1.931,278.75636939983815,None,,,,,,,,,,,,,,,,,,,,279.30107419984415,279.80555299995467,0.5044822203926742,1.0046720202080905,279.7888839999214,279.9055666998029,279.7888839999214,279.9055666998029,279.8889419999905,None,m,1,0.7248472003266215,279.8889419999905,None,,,,,f,20,ppdd2,2022-08-15_15h30.13.738,training+cueing,2022.1.3,59.93917379358871,
Friend.png,Stranger,Friend,m,3.2,19,29,99,,,,,0,0,0,0,,,,,4,4,52,5,,,,,,,,,,,,,,,,,,,,,1.62,1.745,280.7410968001932,None,,,,,,,,,,,,,,,,,,,,281.2869814001024,281.79028559988365,0.5039128200151026,1.00421151984483,281.77365079987794,281.8903379999101,281.77365079987794,281.8903379999101,281.8736386997625,None,m,1,0.7896441998891532,281.8736386997625,None,,,,,f,20,ppdd2,2022-08-15_15h30.13.738,training+cueing,2022.1.3,59.93917379358871,
Stranger.png,You,Stranger,m,1.3,15,25,95,,,,,0,0,0,0,,,,,4,5,53,6,,,,,,,,,,,,,,,,,,,,,1.679,2.468,282.7927985000424,None,,,,,,,,,,,,,,,,,,,,283.3375213001855,283.841645100154,0.5058569200336933,1.0061000199057162,283.8251279001124,283.92518599983305,283.8251279001124,283.92518599983305,283.92518599983305,None,m,1,0.7207460002973676,283.92518599983305,None,,,,,f,20,ppdd2,2022-08-15_15h30.13.738,training+cueing,2022.1.3,59.93917379358871,
Self.png,Stranger,Self ,m,3.1,18,28,98,,,,,0,0,0,0,,,,,4,6,54,2,,,,,,,,,,,,,,,,,,,,,1.426,2.125,284.7775789001025,None,,,,,,,,,,,,,,,,,,,,285.3265152000822,285.82663410017267,0.5129853202961385,1.0131537201814353,285.82663410017267,285.9266654001549,285.82663410017267,285.9266654001549,285.9266654001549,None,m,1,0.6716736000962555,285.9266654001549,None,,,,,f,20,ppdd2,2022-08-15_15h30.13.738,training+cueing,2022.1.3,59.93917379358871,
Stranger.png,Stranger,Stranger,c,3,13,23,93,,,,,0,0,0,0,,,,,4,7,55,8,,,,,,,,,,,,,,,,,,,,,1.569,1.399,286.7287794998847,None,,,,,,,,,,,,,,,,,,,,287.27127229981124,287.7779953000136,0.5106365201063454,1.0155437202192843,287.76126360008493,287.8779926998541,287.76126360008493,287.8779926998541,287.8613092000596,None,c,1,0.7361592999659479,287.8613092000596,None,,,,,f,20,ppdd2,2022-08-15_15h30.13.738,training+cueing,2022.1.3,59.93917379358871,
Stranger.png,Friend,Stranger,m,2.3,17,27,97,,,,,0,0,0,0,,,,,4,8,56,7,,,,,,,,,,,,,,,,,,,,,1.584,1.44,288.730652499944,None,,,,,,,,,,,,,,,,,,,,289.2760473000817,289.7795847998932,0.5024005202576518,1.0024830200709403,289.7629128000699,289.87944169994444,289.7629128000699,289.87944169994444,289.86277789995074,None,m,1,0.5764631000347435,289.86277789995074,None,,,,,f,20,ppdd2,2022-08-15_15h30.13.738,training+cueing,2022.1.3,59.93917379358871,
Friend.png,You,Friend,m,1.2,14,24,94,,,,,0,0,0,0,,,,,4,9,57,3,,,,,,,,,,,,,,,,,,,,,1.524,1.909,290.5649755997583,None,,,,,,,,,,,,,,,,,,,,291.10981749976054,291.6141125001013,0.5057750199921429,1.0061886198818684,291.5973764001392,291.69748390000314,291.5973764001392,291.69748390000314,291.69748390000314,None,m,1,0.9483354999683797,291.69748390000314,None,,,,,f,20,ppdd2,2022-08-15_15h30.13.738,training+cueing,2022.1.3,59.93917379358871,
Stranger.png,Stranger,Stranger,c,3,13,23,93,,,,,0,0,0,0,,,,,4,10,58,11,,,,,,,,,,,,,,,,,,,,,1.617,1.25,292.7666897000745,None,,,,,,,,,,,,,,,,,,,,293.3132094000466,293.8157024998218,0.5031254198402166,1.0032666199840605,293.79911539983004,293.91576679982245,293.79911539983004,293.91576679982245,293.89906430011615,None,c,1,0.746346099767834,293.89906430011615,None,,,,,f,20,ppdd2,2022-08-15_15h30.13.738,training+cueing,2022.1.3,59.93917379358871,
Friend.png,Friend,Friend,c,2,12,22,92,,,,,0,0,0,0,,,,,4,11,59,4,,,,,,,,,,,,,,,,,,,,,1.421,1.442,294.7681168001145,None,,,,,,,,,,,,,,,,,,,,295.31592279998586,295.81716129975393,0.5147825204767287,1.0150277204811573,295.81716129975393,295.91718340013176,295.81716129975393,295.91718340013176,295.91718340013176,None,c,1,1.0170426000840962,295.91718340013176,None,,,,,f,20,ppdd2,2022-08-15_15h30.13.738,training+cueing,2022.1.3,59.93917379358871,
Self.png,Stranger,Self ,m,3.1,18,28,98,,,,,0,0,0,0,,,,,5,0,60,2,,,,,,,,,,,,,,,,,,,,,1.639,1.934,297.05343260010704,None,,,,,,,,,,,,,,,,,,,,297.5990617000498,298.1021369001828,0.5035678199492395,1.0038791201077402,298.0854393998161,298.20220280019566,298.0854393998161,298.20220280019566,298.18546209996566,None,m,1,1.11658150004223,298.18546209996566,None,,,,,f,20,ppdd2,2022-08-15_15h30.13.738,training+cueing,2022.1.3,59.93917379358871,
Self.png,Friend,Self ,m,2.1,16,26,96,,,,,0,0,0,0,,,,,5,1,61,1,,,,,,,,,,,,,,,,,,,,,1.478,1.949,299.42126369988546,None,,,,,,,,,,,,,,,,,,,,299.9678305997513,300.4712694999762,0.5032963203266263,1.0037338202819228,300.45391120016575,300.5707290000282,300.45391120016575,300.5707290000282,300.5539750000462,None,m,1,0.7485136999748647,300.5539750000462,None,,,,,f,20,ppdd2,2022-08-15_15h30.13.738,training+cueing,2022.1.3,59.93917379358871,
Self.png,You,Self ,c,1,11,21,91,,,,,0,0,0,0,,,,,5,2,62,0,,,,,,,,,,,,,,,,,,,,,1.557,2.46,301.42451649997383,None,,,,,,,,,,,,,,,,,,,,301.973388500046,302.4886612999253,0.5098621202632785,1.0102244201116264,302.47197329998016,302.5719948997721,302.47197329998016,302.5719948997721,302.5719948997721,None,c,1,0.4896581000648439,302.5719948997721,None,,,,,f,20,ppdd2,2022-08-15_15h30.13.738,training+cueing,2022.1.3,59.93917379358871,
Friend.png,Friend,Friend,c,2,12,22,92,,,,,0,0,0,0,,,,,5,3,63,4,,,,,,,,,,,,,,,,,,,,,1.441,2.091,303.19076699996367,None,,,,,,,,,,,,,,,,,,,,303.7400775998831,304.23994420003146,0.5141536202281713,1.0144923198968172,304.23994420003146,304.33999949973077,304.23994420003146,304.33999949973077,304.33999949973077,None,c,1,0.6897840001620352,304.33999949973077,None,,,,,f,20,ppdd2,2022-08-15_15h30.13.738,training+cueing,2022.1.3,59.93917379358871,
Self.png,You,Self ,c,1,11,21,91,,,,,0,0,0,0,,,,,5,4,64,9,,,,,,,,,,,,,,,,,,,,,1.641,2.137,305.15893069980666,None,,,,,,,,,,,,,,,,,,,,305.7064968999475,306.2080652997829,0.5156405200250447,1.0158643196336925,306.2080652997829,306.3080691001378,306.2080652997829,306.3080691001378,306.3080691001378,None,c,1,0.7699512001127005,306.3080691001378,None,,,,,f,20,ppdd2,2022-08-15_15h30.13.738,training+cueing,2022.1.3,59.93917379358871,
Friend.png,Stranger,Friend,m,3.2,19,29,99,,,,,0,0,0,0,,,,,5,5,65,5,,,,,,,,,,,,,,,,,,,,,1.67,2.458,307.2106319000013,None,,,,,,,,,,,,,,,,,,,,307.757377400063,308.25955750001594,0.5027842200361192,1.0030883201397955,308.2428341000341,308.35963620012626,308.2428341000341,308.35963620012626,308.3428819999099,None,m,1,0.6551088998094201,308.3428819999099,None,,,,,f,20,ppdd2,2022-08-15_15h30.13.738,training+cueing,2022.1.3,59.93917379358871,
Friend.png,Friend,Friend,c,2,12,22,92,,,,,0,0,0,0,,,,,5,6,66,10,,,,,,,,,,,,,,,,,,,,,1.728,1.234,309.12840439984575,None,,,,,,,,,,,,,,,,,,,,309.6748393001035,310.17763999989256,0.5034294202923775,1.0038905199617147,310.1609387001954,310.2776474999264,310.1609387001954,310.2776474999264,310.26094330009073,None,c,1,0.7525296001695096,310.26094330009073,None,,,,,f,20,ppdd2,2022-08-15_15h30.13.738,training+cueing,2022.1.3,59.93917379358871,
Stranger.png,Stranger,Stranger,c,3,13,23,93,,,,,0,0,0,0,,,,,5,7,67,8,,,,,,,,,,,,,,,,,,,,,1.595,2.011,311.1479341997765,None,,,,,,,,,,,,,,,,,,,,311.69445149973035,312.1957537997514,0.515033720061183,1.015484919771552,312.1957537997514,312.2958141998388,312.1957537997514,312.2958141998388,312.2958141998388,None,c,1,0.765396099537611,312.2958141998388,None,,,,,f,20,ppdd2,2022-08-15_15h30.13.738,training+cueing,2022.1.3,59.93917379358871,
Stranger.png,You,Stranger,m,1.3,15,25,95,,,,,0,0,0,0,,,,,5,8,68,6,,,,,,,,,,,,,,,,,,,,,1.549,2.488,313.18144669989124,None,,,,,,,,,,,,,,,,,,,,313.7267473000102,314.2305054999888,0.5051067201420665,1.0053313202224672,314.2139061000198,314.313928199932,314.2139061000198,314.313928199932,314.313928199932,None,m,1,0.6193646998144686,314.313928199932,None,,,,,f,20,ppdd2,2022-08-15_15h30.13.738,training+cueing,2022.1.3,59.93917379358871,
Stranger.png,Stranger,Stranger,c,3,13,23,93,,,,,0,0,0,0,,,,,5,9,69,11,,,,,,,,,,,,,,,,,,,,,1.607,1.788,315.0664413999766,None,,,,,,,,,,,,,,,,,,,,315.61226429976523,316.11524670012295,0.5037726196460426,1.0039821197278798,316.0985817001201,316.2152927997522,316.0985817001201,316.2152927997522,316.1985983001068,None,c,1,0.8633086998015642,316.1985983001068,None,,,,,f,20,ppdd2,2022-08-15_15h30.13.738,training+cueing,2022.1.3,59.93917379358871,
Stranger.png,Friend,Stranger,m,2.3,17,27,97,,,,,0,0,0,0,,,,,5,10,70,7,,,,,,,,,,,,,,,,,,,,,1.506,2.46,317.1842613997869,None,,,,,,,,,,,,,,,,,,,,317.73020470002666,318.23340869974345,0.5025577200576663,1.0029056202620268,318.2167480001226,318.333460399881,318.2167480001226,318.333460399881,318.3167448998429,None,m,1,0.7127811000682414,318.3167448998429,None,,,,,f,20,ppdd2,2022-08-15_15h30.13.738,training+cueing,2022.1.3,59.93917379358871,
Friend.png,You,Friend,m,1.2,14,24,94,,,,,0,0,0,0,,,,,5,11,71,3,,,,,,,,,,,,,,,,,,,,,1.434,1.653,319.15243470016867,None,,,,,,,,,,,,,,,,,,,,319.69753789994866,320.20156370010227,0.5053012203425169,1.005594120360911,320.184855400119,320.2847770000808,320.184855400119,320.2847770000808,320.2847770000808,None,m,1,0.5843845000490546,320.2847770000808,None,,,,,f,20,ppdd2,2022-08-15_15h30.13.738,training+cueing,2022.1.3,59.93917379358871,
Stranger.png,Friend,Stranger,m,2.3,17,27,97,,,,,0,0,0,0,,,,,6,0,72,7,,,,,,,,,,,,,,,,,,,,,1.674,1.379,321.00390380015597,None,,,,,,,,,,,,,,,,,,,,321.5483837998472,322.0528982998803,0.5044424198567867,1.0046189199201763,322.036245000083,322.152913399972,322.036245000083,322.152913399972,322.13619989994913,None,c,0,0.5587730999104679,322.13619989994913,None,,,,,f,20,ppdd2,2022-08-15_15h30.13.738,training+cueing,2022.1.3,59.93917379358871,
Self.png,Stranger,Self ,m,3.1,18,28,98,,,,,0,0,0,0,,,,,6,1,73,2,,,,,,,,,,,,,,,,,,,,,1.598,2.143,322.82149939984083,None,,,,,,,,,,,,,,,,,,,,323.37069180002436,323.87088540010154,0.5148712201043963,1.015133020002395,323.87088540010154,323.97096720011905,323.87088540010154,323.97096720011905,323.97096720011905,None,m,1,0.8662491999566555,323.97096720011905,None,,,,,f,20,ppdd2,2022-08-15_15h30.13.738,training+cueing,2022.1.3,59.93917379358871,
Friend.png,Friend,Friend,c,2,12,22,92,,,,,0,0,0,0,,,,,6,2,74,10,,,,,,,,,,,,,,,,,,,,,1.703,1.658,324.95658949995413,None,,,,,,,,,,,,,,,,,,,,325.50221950002015,326.0057823001407,0.5043877195566893,1.0046633197925985,325.98907910007983,326.1058340999298,325.98907910007983,326.1058340999298,326.08910680003464,None,c,1,0.813261799979955,326.08910680003464,None,,,,,f,20,ppdd2,2022-08-15_15h30.13.738,training+cueing,2022.1.3,59.93917379358871,
Self.png,Friend,Self ,m,2.1,16,26,96,,,,,0,0,0,0,,,,,6,3,75,1,,,,,,,,,,,,,,,,,,,,,1.657,2.024,327.02524789981544,None,,,,,,,,,,,,,,,,,,,,327.5664725997485,328.07393250009045,0.5105099203065038,1.010769520420581,328.0572738000192,328.1740081999451,328.0572738000192,328.1740081999451,328.15729659982026,None,m,1,0.7122792997397482,328.15729659982026,None,,,,,f,20,ppdd2,2022-08-15_15h30.13.738,training+cueing,2022.1.3,59.93917379358871,
Self.png,You,Self ,c,1,11,21,91,,,,,0,0,0,0,,,,,6,4,76,9,,,,,,,,,,,,,,,,,,,,,1.552,2.397,328.9932884001173,None,,,,,,,,,,,,,,,,,,,,329.53797069983557,330.0420647999272,0.5053322203457355,1.0055687204003334,330.0253667999059,330.125427799765,330.0253667999059,330.125427799765,330.125427799765,None,c,1,0.48835370037704706,330.125427799765,None,,,,,f,20,ppdd2,2022-08-15_15h30.13.738,training+cueing,2022.1.3,59.93917379358871,
Friend.png,You,Friend,m,1.2,14,24,94,,,,,0,0,0,0,,,,,6,5,77,3,,,,,,,,,,,,,,,,,,,,,1.555,2.356,330.7440833998844,None,,,,,,,,,,,,,,,,,,,,331.286553400103,331.79332399973646,0.5105666201561689,None,331.77660370012745,331.8766310000792,331.77660370012745,331.8766310000792,331.8766310000792,None,c,0,0.3689529998227954,331.8766310000792,None,,,,,f,20,ppdd2,2022-08-15_15h30.13.738,training+cueing,2022.1.3,59.93917379358871,
Stranger.png,You,Stranger,m,1.3,15,25,95,,,,,0,0,0,0,,,,,6,6,78,6,,,,,,,,,,,,,,,,,,,,,1.785,1.561,332.3847034997307,None,,,,,,,,,,,,,,,,,,,,332.920901699923,333.42782089998946,0.5095108202658594,1.0098122204653919,333.41119850007817,333.5112084001303,333.41119850007817,333.5112084001303,333.5112084001303,None,c,0,0.4622595002874732,333.5112084001303,None,,,,,f,20,ppdd2,2022-08-15_15h30.13.738,training+cueing,2022.1.3,59.93917379358871,
Stranger.png,Stranger,Stranger,c,3,13,23,93,,,,,0,0,0,0,,,,,6,7,79,8,,,,,,,,,,,,,,,,,,,,,1.445,1.692,334.0969110997394,None,,,,,,,,,,,,,,,,,,,,334.642961199861,335.14569440018386,0.5033794203773141,1.0036835204809904,335.1290718000382,335.24575879983604,335.1290718000382,335.24575879983604,335.22909909999,None,c,1,0.9685599999502301,335.22909909999,None,,,,,f,20,ppdd2,2022-08-15_15h30.13.738,training+cueing,2022.1.3,59.93917379358871,
Self.png,You,Self ,c,1,11,21,91,,,,,0,0,0,0,,,,,6,8,80,0,,,,,,,,,,,,,,,,,,,,,1.523,1.724,336.3313782000914,None,,,,,,,,,,,,,,,,,,,,336.8802747000009,337.38070059986785,0.5134769203141332,1.0138288200832903,337.38070059986785,337.4807834001258,337.38070059986785,337.4807834001258,337.4807834001258,None,c,1,0.49278830038383603,337.4807834001258,None,,,,,f,20,ppdd2,2022-08-15_15h30.13.738,training+cueing,2022.1.3,59.93917379358871,
Stranger.png,Stranger,Stranger,c,3,13,23,93,,,,,0,0,0,0,,,,,6,9,81,11,,,,,,,,,,,,,,,,,,,,,1.688,1.893,338.0994894001633,None,,,,,,,,,,,,,,,,,,,,338.6456687999889,339.14874489977956,0.5036918199621141,1.0040073203854263,339.13197139976546,339.2486994997598,339.13197139976546,339.2486994997598,339.2319943001494,None,c,1,0.837822699919343,339.2319943001494,None,,,,,f,20,ppdd2,2022-08-15_15h30.13.738,training+cueing,2022.1.3,59.93917379358871,
Friend.png,Stranger,Friend,m,3.2,19,29,99,,,,,0,0,0,0,,,,,6,10,82,5,,,,,,,,,,,,,,,,,,,,,1.783,1.93,340.201222400181,None,,,,,,,,,,,,,,,,,,,,340.7437184997834,341.2502143001184,0.5103598204441369,1.0106536205857992,341.23347530001774,341.3502167998813,341.23347530001774,341.3502167998813,341.33350959979,None,m,1,0.5282644000835717,341.33350959979,None,,,,,f,20,ppdd2,2022-08-15_15h30.13.738,training+cueing,2022.1.3,59.93917379358871,
Friend.png,Friend,Friend,c,2,12,22,92,,,,,0,0,0,0,,,,,6,11,83,4,,,,,,,,,,,,,,,,,,,,,1.408,2.031,341.985969199799,None,,,,,,,,,,,,,,,,,,,,342.53049869975075,343.03480640007183,0.5041111200116575,1.0043970197439194,343.01816459978,343.13483980018646,343.01816459978,343.13483980018646,343.1181553998031,None,c,1,0.6153822001069784,343.1181553998031,None,,,,,f,20,ppdd2,2022-08-15_15h30.13.738,training+cueing,2022.1.3,59.93917379358871,
Self.png,Friend,Self ,m,2.1,16,26,96,,,,,0,0,0,0,,,,,7,0,84,1,,,,,,,,,,,,,,,,,,,,,1.64,1.596,343.8536487999372,None,,,,,,,,,,,,,,,,,,,,344.3965209000744,344.9028949001804,0.5101650198921561,1.0104580200277269,344.88615160016343,345.00292980019003,344.88615160016343,345.00292980019003,344.9863486997783,None,m,1,0.8273322000168264,344.9863486997783,None,,,,,f,20,ppdd2,2022-08-15_15h30.13.738,training+cueing,2022.1.3,59.93917379358871,
Stranger.png,Stranger,Stranger,c,3,13,23,93,,,,,0,0,0,0,,,,,7,1,85,11,,,,,,,,,,,,,,,,,,,,,1.71,1.479,345.938492000103,None,,,,,,,,,,,,,,,,,,,,346.4849882000126,346.98768710019067,0.5033578197471797,1.0035273199900985,346.9710165001452,347.0877478001639,346.9710165001452,347.0877478001639,347.0710605997592,None,c,1,0.7263831999152899,347.0710605997592,None,,,,,f,20,ppdd2,2022-08-15_15h30.13.738,training+cueing,2022.1.3,59.93917379358871,
Friend.png,Friend,Friend,c,2,12,22,92,,,,,0,0,0,0,,,,,7,2,86,10,,,,,,,,,,,,,,,,,,,,,1.782,2.12,347.92309870012105,None,,,,,,,,,,,,,,,,,,,,348.47247810009867,348.972702300176,0.5132440202869475,1.013248820323497,348.972702300176,349.07250660005957,348.972702300176,349.07250660005957,349.07250660005957,None,m,0,0.5330497999675572,349.07250660005957,None,,,,,f,20,ppdd2,2022-08-15_15h30.13.738,training+cueing,2022.1.3,59.93917379358871,
Stranger.png,Friend,Stranger,m,2.3,17,27,97,,,,,0,0,0,0,,,,,7,3,87,7,,,,,,,,,,,,,,,,,,,,,1.429,1.336,349.7246962999925,None,,,,,,,,,,,,,,,,,,,,350.2675973000005,350.7738370001316,0.5098030199296772,1.0100646200589836,350.7571791000664,350.8738597999327,350.7571791000664,350.8738597999327,350.85714290011674,None,m,1,0.4282929999753833,350.85714290011674,None,,,,,f,20,ppdd2,2022-08-15_15h30.13.738,training+cueing,2022.1.3,59.93917379358871,
Stranger.png,Stranger,Stranger,c,3,13,23,93,,,,,0,0,0,0,,,,,7,4,88,8,,,,,,,,,,,,,,,,,,,,,1.416,1.796,351.4092612997629,None,,,,,,,,,,,,,,,,,,,,351.9547211001627,352.4583950000815,0.5026457197964191,1.0028691198676825,352.44166050013155,352.5583830997348,352.44166050013155,352.5583830997348,352.5416635000147,None,c,1,0.5200086003169417,352.5416635000147,None,,,,,f,20,ppdd2,2022-08-15_15h30.13.738,training+cueing,2022.1.3,59.93917379358871,
Self.png,You,Self ,c,1,11,21,91,,,,,0,0,0,0,,,,,7,5,89,9,,,,,,,,,,,,,,,,,,,,,1.403,2.114,353.1942921997979,None,,,,,,,,,,,,,,,,,,,,353.73913990007713,354.2429773998447,0.5050443196669221,1.0053899195045233,354.22630129987374,354.3263640999794,354.22630129987374,354.3263640999794,354.3263640999794,None,c,1,0.5432627000845969,354.3263640999794,None,,,,,f,20,ppdd2,2022-08-15_15h30.13.738,training+cueing,2022.1.3,59.93917379358871,
Stranger.png,You,Stranger,m,1.3,15,25,95,,,,,0,0,0,0,,,,,7,6,90,6,,,,,,,,,,,,,,,,,,,,,1.491,2.014,354.99570169998333,None,,,,,,,,,,,,,,,,,,,,355.5425678999163,356.04429659992456,0.5016430197283626,1.001911620143801,356.02762460010126,356.12769850017503,356.02762460010126,356.12769850017503,356.12769850017503,None,m,1,0.773989699780941,356.12769850017503,None,,,,,f,20,ppdd2,2022-08-15_15h30.13.738,training+cueing,2022.1.3,59.93917379358871,
Friend.png,Friend,Friend,c,2,12,22,92,,,,,0,0,0,0,,,,,7,7,91,4,,,,,,,,,,,,,,,,,,,,,1.674,1.68,357.03041710006073,None,,,,,,,,,,,,,,,,,,,,357.57477020006627,358.0791505998932,0.5042039197869599,1.0044667199254036,358.062444599811,358.1791528998874,358.062444599811,358.1791528998874,358.16246369993314,None,c,1,0.595236100256443,358.16246369993314,None,,,,,f,20,ppdd2,2022-08-15_15h30.13.738,training+cueing,2022.1.3,59.93917379358871,
Friend.png,You,Friend,m,1.2,14,24,94,,,,,0,0,0,0,,,,,7,8,92,3,,,,,,,,,,,,,,,,,,,,,1.404,1.567,358.88139399979264,None,,,,,,,,,,,,,,,,,,,,359.4305477999151,359.9305222001858,0.5140842199325562,1.0143235200084746,359.9305222001858,360.030553500168,359.9305222001858,360.030553500168,360.030553500168,None,m,1,0.8392787999473512,360.030553500168,None,,,,,f,20,ppdd2,2022-08-15_15h30.13.738,training+cueing,2022.1.3,59.93917379358871,
Self.png,You,Self ,c,1,11,21,91,,,,,0,0,0,0,,,,,7,9,93,0,,,,,,,,,,,,,,,,,,,,,1.742,2.33,361.0000698999502,None,,,,,,,,,,,,,,,,,,,,361.54196259984747,362.04864529985934,0.5107092200778425,1.0109997200779617,362.03200009977445,362.13211299991235,362.03200009977445,362.13211299991235,362.13211299991235,None,c,1,0.7216659998521209,362.13211299991235,None,,,,,f,20,ppdd2,2022-08-15_15h30.13.738,training+cueing,2022.1.3,59.93917379358871,
Self.png,Stranger,Self ,m,3.1,18,28,98,,,,,0,0,0,0,,,,,7,10,94,2,,,,,,,,,,,,,,,,,,,,,1.492,1.289,362.9857843001373,None,,,,,,,,,,,,,,,,,,,,363.5295690000057,364.0334581001662,0.5035346201620996,1.003640120383352,364.0168114998378,364.13349819974974,364.0168114998378,364.13349819974974,364.1167068001814,None,c,0,0.48156540002673864,364.1167068001814,None,,,,,f,20,ppdd2,2022-08-15_15h30.13.738,training+cueing,2022.1.3,59.93917379358871,
Friend.png,Stranger,Friend,m,3.2,19,29,99,,,,,0,0,0,0,,,,,7,11,95,5,,,,,,,,,,,,,,,,,,,,,1.704,2.397,364.71888609975576,None,,,,,,,,,,,,,,,,,,,,365.26156210014597,365.76803420018405,0.5103646200150251,1.0106734200380743,365.751368700061,365.8680638000369,365.751368700061,365.8680638000369,365.8513802997768,None,m,1,0.6983942999504507,365.8513802997768,None,,,,,f,20,ppdd2,2022-08-15_15h30.13.738,training+cueing,2022.1.3,59.93917379358871,
Stranger.png,Friend,Stranger,m,2.3,17,27,97,,,,,0,0,0,0,,,,,8,0,96,7,,,,,,,,,,,,,,,,,,,,,1.416,1.949,366.67064179992303,None,,,,,,,,,,,,,,,,,,,,367.2155075999908,367.7195278001018,0.5034509198740125,1.0036782203242183,367.7028283001855,367.81954389996827,367.7028283001855,367.81954389996827,367.80278179980814,None,m,1,0.5708951996639371,367.80278179980814,None,,,,,f,20,ppdd2,2022-08-15_15h30.13.738,training+cueing,2022.1.3,59.93917379358871,
Stranger.png,You,Stranger,m,1.3,15,25,95,,,,,0,0,0,0,,,,,8,1,97,6,,,,,,,,,,,,,,,,,,,,,1.537,2.402,368.5055154999718,None,,,,,,,,,,,,,,,,,,,,369.05019900016487,369.55416580010206,0.5053687198087573,1.0055501200258732,369.53752089990303,369.63751630019397,369.53752089990303,369.63751630019397,369.63751630019397,None,m,1,0.7364234002307057,369.63751630019397,None,,,,,f,20,ppdd2,2022-08-15_15h30.13.738,training+cueing,2022.1.3,59.93917379358871,
Friend.png,Stranger,Friend,m,3.2,19,29,99,,,,,0,0,0,0,,,,,8,2,98,5,,,,,,,,,,,,,,,,,,,,,1.563,2.066,370.5065299998969,None,,,,,,,,,,,,,,,,,,,,371.05645419983193,371.5556030999869,0.5122983204200864,1.0125707206316292,371.5556030999869,371.6556652998552,371.5556030999869,371.6556652998552,371.6556652998552,None,m,1,1.069599499925971,371.6556652998552,None,,,,,f,20,ppdd2,2022-08-15_15h30.13.738,training+cueing,2022.1.3,59.93917379358871,
Stranger.png,Stranger,Stranger,c,3,13,23,93,,,,,0,0,0,0,,,,,8,3,99,8,,,,,,,,,,,,,,,,,,,,,1.569,1.875,372.85887579992414,None,,,,,,,,,,,,,,,,,,,,373.4000324998051,373.90733069973066,0.51011032005772,1.0104246200062335,373.8906399998814,374.0074551999569,373.8906399998814,374.0074551999569,373.99071520008147,None,c,1,0.6069135996513069,373.99071520008147,None,,,,,f,20,ppdd2,2022-08-15_15h30.13.738,training+cueing,2022.1.3,59.93917379358871,
Self.png,You,Self ,c,1,11,21,91,,,,,0,0,0,0,,,,,8,4,100,0,,,,,,,,,,,,,,,,,,,,,1.777,1.97,374.72598539991304,None,,,,,,,,,,,,,,,,,,,,375.2718770997599,375.7753332997672,0.5043975198641419,1.0047706202603877,375.7586468998343,375.8586967000738,375.7586468998343,375.8586967000738,375.8586967000738,None,c,1,0.7389704999513924,375.8586967000738,None,,,,,f,20,ppdd2,2022-08-15_15h30.13.738,training+cueing,2022.1.3,59.93917379358871,
Friend.png,Friend,Friend,c,2,12,22,92,,,,,0,0,0,0,,,,,8,5,101,4,,,,,,,,,,,,,,,,,,,,,1.502,2.33,376.7276511997916,None,,,,,,,,,,,,,,,,,,,,377.2734676999971,377.7768480000086,0.5042274198494852,1.0044292202219367,377.76013589976355,377.87681629974395,377.76013589976355,377.87681629974395,377.86008499981835,None,m,0,0.5134161999449134,377.86008499981835,None,,,,,f,20,ppdd2,2022-08-15_15h30.13.738,training+cueing,2022.1.3,59.93917379358871,
Stranger.png,Stranger,Stranger,c,3,13,23,93,,,,,0,0,0,0,,,,,8,6,102,11,,,,,,,,,,,,,,,,,,,,,1.752,2.023,378.4956204998307,None,,,,,,,,,,,,,,,,,,,,379.0410044998862,379.5449414001778,0.5028488198295236,1.0031414199620485,379.52803550008684,379.64484799979255,379.52803550008684,379.64484799979255,379.6280657001771,None,c,1,0.5066530997864902,379.6280657001771,None,,,,,f,20,ppdd2,2022-08-15_15h30.13.738,training+cueing,2022.1.3,59.93917379358871,
Self.png,Friend,Self ,m,2.1,16,26,96,,,,,0,0,0,0,,,,,8,7,103,1,,,,,,,,,,,,,,,,,,,,,1.766,1.577,380.26947470009327,None,,,,,,,,,,,,,,,,,,,,380.8106762999669,381.3127088001929,0.5026543200947344,1.0029753199778497,381.29602639982477,381.41270009987056,381.29602639982477,381.41270009987056,381.3959972001612,None,m,1,0.7062282999977469,381.3959972001612,None,,,,,f,20,ppdd2,2022-08-15_15h30.13.738,training+cueing,2022.1.3,59.93917379358871,
Self.png,You,Self ,c,1,11,21,91,,,,,0,0,0,0,,,,,8,8,104,9,,,,,,,,,,,,,,,,,,,,,1.677,1.77,382.2317494000308,None,,,,,,,,,,,,,,,,,,,,382.77636650018394,383.2807864998467,0.5043842201121151,1.004647220019251,383.26413050014526,383.3641690998338,383.26413050014526,383.3641690998338,383.3641690998338,None,c,1,0.6410487997345626,383.3641690998338,None,,,,,f,20,ppdd2,2022-08-15_15h30.13.738,training+cueing,2022.1.3,59.93917379358871,
Friend.png,Friend,Friend,c,2,12,22,92,,,,,0,0,0,0,,,,,8,9,105,10,,,,,,,,,,,,,,,,,,,,,1.511,2.216,384.13352080015466,None,,,,,,,,,,,,,,,,,,,,384.6786716999486,385.18217859975994,0.5042253201827407,1.004414820112288,385.165540299844,385.28223880007863,385.165540299844,385.28223880007863,385.2654865998775,None,m,0,0.4841593997552991,385.2654865998775,None,,,,,f,20,ppdd2,2022-08-15_15h30.13.738,training+cueing,2022.1.3,59.93917379358871,
Friend.png,You,Friend,m,1.2,14,24,94,,,,,0,0,0,0,,,,,8,10,106,3,,,,,,,,,,,,,,,,,,,,,1.735,2.083,385.8842007997446,None,,,,,,,,,,,,,,,,,,,,386.4297814001329,386.9334569000639,0.5047905202955008,1.0049932203255594,386.9168279999867,387.01685689995065,386.9168279999867,387.01685689995065,387.01685689995065,None,m,1,0.5729394000954926,387.01685689995065,None,,,,,f,20,ppdd2,2022-08-15_15h30.13.738,training+cueing,2022.1.3,59.93917379358871,
Self.png,Stranger,Self ,m,3.1,18,28,98,,,,,0,0,0,0,,,,,8,11,107,2,,,,,,,,,,,,,,,,,,,,,1.531,1.925,387.7190931001678,None,,,,,,,,,,,,,,,,,,,,388.2643401999958,388.76808549975976,0.5030391202308238,1.0033141202293336,388.7514327997342,388.86817630007863,388.7514327997342,388.86817630007863,388.8514470998198,None,m,1,0.7222470999695361,388.8514470998198,None,,,,,f,20,ppdd2,2022-08-15_15h30.13.738,training+cueing,2022.1.3,59.93917379358871,
Self.png,Stranger,Self ,m,3.1,18,28,98,,,,,0,0,0,0,,,,,9,0,108,2,,,,,,,,,,,,,,,,,,,,,1.746,1.628,389.70361750014126,None,,,,,,,,,,,,,,,,,,,,390.24640369974077,390.7528825998306,0.5104858204722404,1.0107181202620268,390.73626009980217,390.8529682997614,390.73626009980217,390.8529682997614,390.83625679975376,None,m,1,0.7694579004310071,390.83625679975376,None,,,,,f,20,ppdd2,2022-08-15_15h30.13.738,training+cueing,2022.1.3,59.93917379358871,
Stranger.png,Friend,Stranger,m,2.3,17,27,97,,,,,0,0,0,0,,,,,9,1,109,7,,,,,,,,,,,,,,,,,,,,,1.691,1.804,391.73851789999753,None,,,,,,,,,,,,,,,,,,,,392.28822200000286,392.7877136999741,0.5131172202527523,1.0134406201541424,392.7877136999741,392.88774400018156,392.7877136999741,392.88774400018156,392.88774400018156,None,m,1,0.6222206996753812,392.88774400018156,None,,,,,f,20,ppdd2,2022-08-15_15h30.13.738,training+cueing,2022.1.3,59.93917379358871,
Stranger.png,Stranger,Stranger,c,3,13,23,93,,,,,0,0,0,0,,,,,9,2,110,8,,,,,,,,,,,,,,,,,,,,,1.6,2.311,393.6398523999378,None,,,,,,,,,,,,,,,,,,,,394.1863068998791,394.68912780005485,0.502056120429188,1.0022628200240433,394.6724674999714,394.7891418999061,394.6724674999714,394.7891418999061,394.7724350001663,None,c,1,0.592907200101763,394.7724350001663,None,,,,,f,20,ppdd2,2022-08-15_15h30.13.738,training+cueing,2022.1.3,59.93917379358871,
Self.png,You,Self ,c,1,11,21,91,,,,,0,0,0,0,,,,,9,3,111,9,,,,,,,,,,,,,,,,,,,,,1.524,1.545,395.491713100113,None,,,,,,,,,,,,,,,,,,,,396.0365238999948,396.540464699734,0.505189920309931,1.0054557202383876,396.5238231001422,396.6238196999766,396.5238231001422,396.6238196999766,396.6238196999766,None,c,1,0.6614569998346269,396.6238196999766,None,,,,,f,20,ppdd2,2022-08-15_15h30.13.738,training+cueing,2022.1.3,59.93917379358871,
Friend.png,Friend,Friend,c,2,12,22,92,,,,,0,0,0,0,,,,,9,4,112,10,,,,,,,,,,,,,,,,,,,,,1.528,2.494,397.4092696001753,None,,,,,,,,,,,,,,,,,,,,397.954034099821,398.45851279981434,0.504363919608295,1.0045568197965622,398.4418990998529,398.5585372997448,398.4418990998529,398.5585372997448,398.54186479980126,None,c,1,0.5993935996666551,398.54186479980126,None,,,,,f,20,ppdd2,2022-08-15_15h30.13.738,training+cueing,2022.1.3,59.93917379358871,
Friend.png,Friend,Friend,c,2,12,22,92,,,,,0,0,0,0,,,,,9,5,113,4,,,,,,,,,,,,,,,,,,,,,1.793,2.459,399.26076819980517,None,,,,,,,,,,,,,,,,,,,,399.80366919981316,400.30989339994267,0.5099756205454469,1.0102303205057979,400.29322269978,400.4098995998502,400.29322269978,400.4098995998502,400.3932075998746,None,c,1,0.5570619003847241,400.3932075998746,None,,,,,f,20,ppdd2,2022-08-15_15h30.13.738,training+cueing,2022.1.3,59.93917379358871,
Friend.png,You,Friend,m,1.2,14,24,94,,,,,0,0,0,0,,,,,9,6,114,3,,,,,,,,,,,,,,,,,,,,,1.546,1.536,401.0790969999507,None,,,,,,,,,,,,,,,,,,,,401.62380299996585,402.1278840000741,0.505476419813931,1.0057358196936548,402.1111624999903,402.211226799991,402.1111624999903,402.211226799991,402.211226799991,None,m,1,0.5785402003675699,402.211226799991,None,,,,,f,20,ppdd2,2022-08-15_15h30.13.738,training+cueing,2022.1.3,59.93917379358871,
Friend.png,Stranger,Friend,m,3.2,19,29,99,,,,,0,0,0,0,,,,,9,7,115,5,,,,,,,,,,,,,,,,,,,,,1.703,1.595,402.91742679988965,None,,,,,,,,,,,,,,,,,,,,403.4595258999616,403.96253640018404,0.5020743203349411,1.0023376201279461,403.9458745000884,404.0625840998255,403.9458745000884,404.0625840998255,404.0458909999579,None,m,1,0.6319814999587834,404.0458909999579,None,,,,,f,20,ppdd2,2022-08-15_15h30.13.738,training+cueing,2022.1.3,59.93917379358871,
Stranger.png,Stranger,Stranger,c,3,13,23,93,,,,,0,0,0,0,,,,,9,8,116,11,,,,,,,,,,,,,,,,,,,,,1.555,1.699,404.7979731997475,None,,,,,,,,,,,,,,,,,,,,405.3409037999809,405.8472215998918,0.5099507202394307,1.0102437203750014,405.8305493998341,405.94725639978424,405.8305493998341,405.94725639978424,405.9305714000948,None,c,1,0.5549882999621332,405.9305714000948,None,,,,,f,20,ppdd2,2022-08-15_15h30.13.738,training+cueing,2022.1.3,59.93917379358871,
Stranger.png,You,Stranger,m,1.3,15,25,95,,,,,0,0,0,0,,,,,9,9,117,6,,,,,,,,,,,,,,,,,,,,,1.506,2.398,406.6159272999503,None,,,,,,,,,,,,,,,,,,,,407.1613631998189,407.66528489999473,0.504909020382911,1.0052320202812552,407.6485391999595,407.74857150018215,407.6485391999595,407.74857150018215,407.74857150018215,None,m,1,0.6249380996450782,407.74857150018215,None,,,,,f,20,ppdd2,2022-08-15_15h30.13.738,training+cueing,2022.1.3,59.93917379358871,
Self.png,You,Self ,c,1,11,21,91,,,,,0,0,0,0,,,,,9,10,118,0,,,,,,,,,,,,,,,,,,,,,1.687,1.631,408.50081960018724,None,,,,,,,,,,,,,,,,,,,,409.04380640015006,409.54998430004343,0.5082098203711212,1.0085146203637123,409.5332399001345,409.633302600123,409.5332399001345,409.633302600123,409.633302600123,None,c,1,0.5002529001794755,409.633302600123,None,,,,,f,20,ppdd2,2022-08-15_15h30.13.738,training+cueing,2022.1.3,59.93917379358871,
Self.png,Friend,Self ,m,2.1,16,26,96,,,,,0,0,0,0,,,,,9,11,119,1,,,,,,,,,,,,,,,,,,,,,1.758,1.338,410.25211359979585,None,,,,,,,,,,,,,,,,,,,,410.79837810015306,411.30124170007184,0.5036312197335064,1.0039026197046041,411.2845280999318,411.40126139996573,411.2845280999318,411.40126139996573,411.384518600069,None,m,1,0.557279400061816,411.384518600069,None,,,,,f,20,ppdd2,2022-08-15_15h30.13.738,training+cueing,2022.1.3,59.93917379358871,
,,,,,,,,,,,,0,0,0,0,,,,,,,,,,,,,,,,,,,,,,,,,,,,,,,,,,,,,,,,,,,,,,,,,,,,,,,,,,,,,,,,,,,0.003516680095344782,0.4915125803090632,,,f,20,ppdd2,2022-08-15_15h30.13.738,training+cueing,2022.1.3,59.93917379358871,
Stranger.png,Stranger,Stranger,c,3,13,23,93,,,,,1,0,1,0,0,0,0,8,,,,,,,,,,,,,,,,,412.5695138000883,None,space,36.58754310011864,2.0122163398191333,None,451.1636080997996,None,1.586,2.138,454.1713477000594,None,454.6928272000514,455.19989729998633,455.1832425999455,455.29989599995315,455.1832425999455,455.29989599995315,455.283168700058,None,m,0,0.7541769002564251,455.283168700058,None,456.0656502000056,None,,,,,,,,,,,,,,,,,,,,,,,,f,20,ppdd2,2022-08-15_15h30.13.738,training+cueing,2022.1.3,59.93917379358871,
Friend.png,You,Friend,m,1.2,14,24,94,,,,,1,0,1,0,0,1,1,3,,,,,,,,,,,,,,,,,,,,,,,,,1.739,2.026,456.4674093998037,None,456.9980921000242,457.5015362999402,457.48482629982755,457.58490219991654,457.48482629982755,457.58490219991654,457.58490219991654,None,m,1,0.6447866000235081,457.58490219991654,None,458.25200989982113,None,,,,,,,,,,,,,,,,,,,,,,,,f,20,ppdd2,2022-08-15_15h30.13.738,training+cueing,2022.1.3,59.93917379358871,
Stranger.png,You,Stranger,m,1.3,15,25,95,,,,,1,0,1,0,0,2,2,6,,,,,,,,,,,,,,,,,,,,,,,,,1.543,1.495,458.65255540004,None,459.1804157998413,459.68645949987695,459.66984590003267,459.7698379000649,459.66984590003267,459.7698379000649,459.7698379000649,None,m,1,0.6999870003201067,459.7698379000649,None,460.4873200999573,None,,,,,,,,,,,,,,,,,,,,,,,,f,20,ppdd2,2022-08-15_15h30.13.738,training+cueing,2022.1.3,59.93917379358871,
Friend.png,Stranger,Friend,m,3.2,19,29,99,,,,,1,0,1,0,0,3,3,5,,,,,,,,,,,,,,,,,,,,,,,,,1.679,1.939,460.8874129001051,None,461.4177451999858,461.9213960999623,461.9047107999213,462.02146199997514,461.9047107999213,462.02146199997514,462.00475679989904,None,m,1,0.7844620998948812,462.00475679989904,None,462.8220532000996,None,,,,,,,,,,,,,,,,,,,,,,,,f,20,ppdd2,2022-08-15_15h30.13.738,training+cueing,2022.1.3,59.93917379358871,
Self.png,You,Self ,c,1,11,21,91,,,,,1,0,1,0,0,4,4,0,,,,,,,,,,,,,,,,,,,,,,,,,1.651,2.192,463.22229800000787,None,463.75415020016953,464.25647979974747,464.2397779999301,464.3398055997677,464.2397779999301,464.3398055997677,464.3398055997677,None,c,1,0.5298886997625232,464.3398055997677,None,464.890229600016,None,,,,,,,,,,,,,,,,,,,,,,,,f,20,ppdd2,2022-08-15_15h30.13.738,training+cueing,2022.1.3,59.93917379358871,
Stranger.png,Stranger,Stranger,c,3,13,23,93,,,,,1,0,1,0,0,5,5,11,,,,,,,,,,,,,,,,,,,,,,,,,1.45,1.58,465.2904866999015,None,465.8255854998715,466.3245966001414,466.3245966001414,466.4246411998756,466.3245966001414,466.4246411998756,466.4246411998756,None,c,1,0.5572026004083455,466.4246411998756,None,467.00846769986674,None,,,,,,,,,,,,,,,,,,,,,,,,f,20,ppdd2,2022-08-15_15h30.13.738,training+cueing,2022.1.3,59.93917379358871,
Self.png,You,Self ,c,1,11,21,91,,,,,1,0,1,0,0,6,6,9,,,,,,,,,,,,,,,,,,,,,,,,,1.638,1.372,467.40868439991027,None,467.93906830018386,468.44283800013363,468.42619499983266,468.52618250017986,468.42619499983266,468.52618250017986,468.52618250017986,None,c,1,0.6481532999314368,468.52618250017986,None,469.1933308998123,None,,,,,,,,,,,,,,,,,,,,,,,,f,20,ppdd2,2022-08-15_15h30.13.738,training+cueing,2022.1.3,59.93917379358871,
Friend.png,Friend,Friend,c,2,12,22,92,,,,,1,0,1,0,0,7,7,4,,,,,,,,,,,,,,,,,,,,,,,,,1.563,2.248,469.5936218998395,None,470.12534969998524,470.6277411999181,470.6110700001009,470.7277851998806,470.6110700001009,470.7277851998806,470.71107359975576,None,c,1,0.6227905000559986,470.71107359975576,None,471.36167320003733,None,,,,,,,,,,,,,,,,,,,,,,,,f,20,ppdd2,2022-08-15_15h30.13.738,training+cueing,2022.1.3,59.93917379358871,
Self.png,Stranger,Self ,m,3.1,18,28,98,,,,,1,0,1,0,0,8,8,2,,,,,,,,,,,,,,,,,,,,,,,,,1.635,1.923,471.76191010000184,None,472.299054000061,472.81268429988995,472.7960438998416,472.9127250998281,472.7960438998416,472.9127250998281,472.89605139987543,None,m,1,0.5814848002046347,472.89605139987543,None,473.4965968001634,None,,,,,,,,,,,,,,,,,,,,,,,,f,20,ppdd2,2022-08-15_15h30.13.738,training+cueing,2022.1.3,59.93917379358871,
Self.png,Friend,Self ,m,2.1,16,26,96,,,,,1,0,1,0,0,9,9,1,,,,,,,,,,,,,,,,,,,,,,,,,1.533,1.542,473.89679179992527,None,474.4281987999566,474.9308813000098,474.9142395998351,475.03093839995563,474.9142395998351,475.03093839995563,475.01426569977775,None,m,1,0.9915327997878194,475.01426569977775,None,476.03149819979444,None,,,,,,,,,,,,,,,,,,,,,,,,f,20,ppdd2,2022-08-15_15h30.13.738,training+cueing,2022.1.3,59.93917379358871,
Friend.png,Friend,Friend,c,2,12,22,92,,,,,1,0,1,0,0,10,10,10,,,,,,,,,,,,,,,,,,,,,,,,,1.656,1.38,476.4319464000873,None,476.9606721000746,477.4662418998778,477.44942410010844,477.5661018001847,477.44942410010844,477.5661018001847,477.5493847997859,None,c,1,1.0489400997757912,477.5493847997859,None,478.6168945999816,None,,,,,,,,,,,,,,,,,,,,,,,,f,20,ppdd2,2022-08-15_15h30.13.738,training+cueing,2022.1.3,59.93917379358871,
Stranger.png,Friend,Stranger,m,2.3,17,27,97,,,,,1,0,1,0,0,11,11,7,,,,,,,,,,,,,,,,,,,,,,,,,1.705,1.37,479.0171710001305,None,479.5446898001246,480.05123129999265,480.03461589990184,480.1513292999007,480.03461589990184,480.1513292999007,480.13462879974395,None,m,1,0.6549703003838658,480.13462879974395,None,480.81854010000825,None,,,,,,,,,,,,,,,,,,,,,,,,f,20,ppdd2,2022-08-15_15h30.13.738,training+cueing,2022.1.3,59.93917379358871,
Self.png,You,Self ,c,1,11,21,91,,,,,1,0,1,0,,,,,0,0,0,0,,,,,,,,,,,,,,,,,,,516.0941229998134,None,1.541,2.482,519.5998724000528,None,,,,,,,,,,,,,,,,481.21887429989874,None,0.016231540124863386,None,520.129376700148,520.6308844997548,0.5007150201126933,1.0010030204430223,520.6141902999952,520.7142257997766,520.6141902999952,520.7142257997766,520.7142257997766,None,c,1,0.5227893996052444,520.7142257997766,None,,,,,f,20,ppdd2,2022-08-15_15h30.13.738,training+cueing,2022.1.3,59.93917379358871,
Self.png,Stranger,Self ,m,3.1,18,28,98,,,,,1,0,1,0,,,,,0,1,1,2,,,,,,,,,,,,,,,,,,,,,1.661,1.347,521.3674135999754,None,,,,,,,,,,,,,,,,,,,,521.9127913997509,522.4154710001312,0.50354642001912,1.0038389200344682,522.3988886000589,522.5155627997592,522.3988886000589,522.5155627997592,522.4988394998945,None,m,1,0.7222964996472001,522.4988394998945,None,,,,,f,20,ppdd2,2022-08-15_15h30.13.738,training+cueing,2022.1.3,59.93917379358871,
Friend.png,You,Friend,m,1.2,14,24,94,,,,,1,0,1,0,,,,,0,2,2,3,,,,,,,,,,,,,,,,,,,,,1.552,1.407,523.3511120998301,None,,,,,,,,,,,,,,,,,,,,523.8983269999735,524.4003396001644,0.5001948201097548,1.0004519200883806,524.3835967001505,524.4836486000568,524.3835967001505,524.4836486000568,524.4836486000568,None,m,1,0.6898396001197398,524.4836486000568,None,,,,,f,20,ppdd2,2022-08-15_15h30.13.738,training+cueing,2022.1.3,59.93917379358871,
Self.png,Friend,Self ,m,2.1,16,26,96,,,,,1,0,1,0,,,,,0,3,3,1,,,,,,,,,,,,,,,,,,,,,1.726,1.253,525.3024884997867,None,,,,,,,,,,,,,,,,,,,,525.8486140999012,526.3516997997649,0.5037080198526382,1.003972820006311,526.3350300998427,526.4517159997486,526.3350300998427,526.4517159997486,526.4350854000077,None,m,1,0.6898533999919891,526.4350854000077,None,,,,,f,20,ppdd2,2022-08-15_15h30.13.738,training+cueing,2022.1.3,59.93917379358871,
Friend.png,Stranger,Friend,m,3.2,19,29,99,,,,,1,0,1,0,,,,,0,4,4,5,,,,,,,,,,,,,,,,,,,,,1.61,1.573,527.2541728001088,None,,,,,,,,,,,,,,,,,,,,527.7994550000876,528.3031560997479,0.502745820209384,1.0039287200197577,528.2864406998269,528.4038494997658,528.2864406998269,528.4038494997658,528.387286900077,None,m,1,0.5474416995421052,528.387286900077,None,,,,,f,20,ppdd2,2022-08-15_15h30.13.738,training+cueing,2022.1.3,59.93917379358871,
Stranger.png,You,Stranger,m,1.3,15,25,95,,,,,1,0,1,0,,,,,0,5,5,6,,,,,,,,,,,,,,,,,,,,,1.488,1.618,529.0600013001822,None,,,,,,,,,,,,,,,,,,,,529.6012817998417,530.1044585001655,0.5038535203784704,1.004212620202452,530.0876422999427,530.1877843001857,530.0876422999427,530.1877843001857,530.1877843001857,None,m,1,0.6817645998671651,530.1877843001857,None,,,,,f,20,ppdd2,2022-08-15_15h30.13.738,training+cueing,2022.1.3,59.93917379358871,
Stranger.png,Stranger,Stranger,c,3,13,23,93,,,,,1,0,1,0,,,,,0,6,6,8,,,,,,,,,,,,,,,,,,,,,1.648,2.236,530.9900543000549,None,,,,,,,,,,,,,,,,,,,,531.5372390998527,532.0392399998382,0.5027475203387439,1.0030311201699078,532.022503899876,532.1392259998247,532.022503899876,532.1392259998247,532.1225231001154,None,c,1,0.6670752000063658,532.1225231001154,None,,,,,f,20,ppdd2,2022-08-15_15h30.13.738,training+cueing,2022.1.3,59.93917379358871,
Friend.png,Friend,Friend,c,2,12,22,92,,,,,1,0,1,0,,,,,0,7,7,4,,,,,,,,,,,,,,,,,,,,,1.735,1.79,532.9080467000604,None,,,,,,,,,,,,,,,,,,,,533.455371200107,533.9572617001832,0.5002883202396333,1.0006445203907788,533.9405912999064,534.0573587999679,533.9405912999064,534.0573587999679,534.0573587999679,None,c,1,0.7807886996306479,534.0573587999679,None,,,,,f,20,ppdd2,2022-08-15_15h30.13.738,training+cueing,2022.1.3,59.93917379358871,
Stranger.png,Stranger,Stranger,c,3,13,23,93,,,,,1,0,1,0,,,,,0,8,8,11,,,,,,,,,,,,,,,,,,,,,1.63,1.532,534.9594152001664,None,,,,,,,,,,,,,,,,,,,,535.5087454998866,536.0087708001956,0.5147245205007493,1.0150069203227758,536.0087708001956,536.1088274000213,536.0087708001956,536.1088274000213,536.1088274000213,None,c,1,0.8083068998530507,536.1088274000213,None,,,,,f,20,ppdd2,2022-08-15_15h30.13.738,training+cueing,2022.1.3,59.93917379358871,
Friend.png,Friend,Friend,c,2,12,22,92,,,,,1,0,1,0,,,,,0,9,9,10,,,,,,,,,,,,,,,,,,,,,1.738,1.208,537.0441616000608,None,,,,,,,,,,,,,,,,,,,,537.5903169000521,538.0935856997967,0.5041304198093712,1.0043460200540721,538.0769580998458,538.1937346998602,538.0769580998458,538.1937346998602,538.17765579978,None,c,1,0.7870733998715878,538.17765579978,None,,,,,f,20,ppdd2,2022-08-15_15h30.13.738,training+cueing,2022.1.3,59.93917379358871,
Self.png,You,Self ,c,1,11,21,91,,,,,1,0,1,0,,,,,0,10,10,9,,,,,,,,,,,,,,,,,,,,,1.648,1.852,539.0972842997871,None,,,,,,,,,,,,,,,,,,,,539.6405744999647,540.1451261998154,0.5048429202288389,1.0050493204034865,540.1284480001777,540.2284347000532,540.1284480001777,540.2284347000532,540.2284347000532,None,c,1,0.5449660001322627,540.2284347000532,None,,,,,f,20,ppdd2,2022-08-15_15h30.13.738,training+cueing,2022.1.3,59.93917379358871,
Stranger.png,Friend,Stranger,m,2.3,17,27,97,,,,,1,0,1,0,,,,,0,11,11,7,,,,,,,,,,,,,,,,,,,,,1.538,1.857,540.8969958000816,None,,,,,,,,,,,,,,,,,,,,541.4428818998858,541.94642199995,0.5043648201972246,1.004567320458591,541.9297397001646,542.0464697000571,541.9297397001646,542.0464697000571,542.0296851000749,None,m,1,0.487625400070101,542.0296851000749,None,,,,,f,20,ppdd2,2022-08-15_15h30.13.738,training+cueing,2022.1.3,59.93917379358871,
Friend.png,Stranger,Friend,m,3.2,19,29,99,,,,,1,0,1,0,,,,,1,0,12,5,,,,,,,,,,,,,,,,,,,,,1.707,1.274,542.6482783998363,None,,,,,,,,,,,,,,,,,,,,543.193808699958,543.6976856999099,0.5030837198719382,1.0035900198854506,543.6810038997792,543.7977057998069,543.6810038997792,543.7977057998069,543.7809788999148,None,m,1,0.7521075997501612,543.7809788999148,None,,,,,f,20,ppdd2,2022-08-15_15h30.13.738,training+cueing,2022.1.3,59.93917379358871,
Stranger.png,Stranger,Stranger,c,3,13,23,93,,,,,1,0,1,0,,,,,1,1,13,8,,,,,,,,,,,,,,,,,,,,,1.762,1.85,544.666994499974,None,,,,,,,,,,,,,,,,,,,,545.2095051999204,545.7158221998252,0.5100776203908026,1.0104445205070078,545.6991383000277,545.8158709001727,545.6991383000277,545.8158709001727,545.7990856999531,None,c,1,0.527390499599278,545.7990856999531,None,,,,,f,20,ppdd2,2022-08-15_15h30.13.738,training+cueing,2022.1.3,59.93917379358871,
Self.png,Friend,Self ,m,2.1,16,26,96,,,,,1,0,1,0,,,,,1,2,14,1,,,,,,,,,,,,,,,,,,,,,1.594,2.07,546.4511191998608,None,,,,,,,,,,,,,,,,,,,,546.9969289000146,547.5004893001169,0.5043332204222679,1.0045869201421738,547.4837795998901,547.6005278998055,547.4837795998901,547.6005278998055,547.5837858999148,None,m,1,0.6775842001661658,547.5837858999148,None,,,,,f,20,ppdd2,2022-08-15_15h30.13.738,training+cueing,2022.1.3,59.93917379358871,
Stranger.png,Stranger,Stranger,c,3,13,23,93,,,,,1,0,1,0,,,,,1,3,15,11,,,,,,,,,,,,,,,,,,,,,1.743,1.38,548.3909582998604,None,,,,,,,,,,,,,,,,,,,,548.9315237998962,549.4352091997862,0.5028169201686978,1.0031336201354861,549.4185494999401,549.5352337001823,549.4185494999401,549.5352337001823,549.5185814001597,None,m,0,0.7750512999482453,549.5185814001597,None,,,,,f,20,ppdd2,2022-08-15_15h30.13.738,training+cueing,2022.1.3,59.93917379358871,
Stranger.png,Friend,Stranger,m,2.3,17,27,97,,,,,1,0,1,0,,,,,1,4,16,7,,,,,,,,,,,,,,,,,,,,,1.781,2.076,550.4210580000654,None,,,,,,,,,,,,,,,,,,,,550.9664901997894,551.470036199782,0.504251719918102,1.0045192199759185,551.4533250001259,551.5700763999484,551.4533250001259,551.5700763999484,551.5533392000943,None,m,1,0.8040378000587225,551.5533392000943,None,,,,,f,20,ppdd2,2022-08-15_15h30.13.738,training+cueing,2022.1.3,59.93917379358871,
Friend.png,Friend,Friend,c,2,12,22,92,,,,,1,0,1,0,,,,,1,5,17,4,,,,,,,,,,,,,,,,,,,,,1.414,2.468,552.488985999953,None,,,,,,,,,,,,,,,,,,,,553.031712200027,553.5382155999541,0.5103370202705264,1.010653920006007,553.5215655998327,553.6382721001282,553.5215655998327,553.6382721001282,553.6215328997932,None,c,1,0.6710429000668228,553.6215328997932,None,,,,,f,20,ppdd2,2022-08-15_15h30.13.738,training+cueing,2022.1.3,59.93917379358871,
Friend.png,Friend,Friend,c,2,12,22,92,,,,,1,0,1,0,,,,,1,6,18,10,,,,,,,,,,,,,,,,,,,,,1.782,1.551,554.4239345998503,None,,,,,,,,,,,,,,,,,,,,554.965956099797,555.4729196997359,0.5097142201848328,1.0100028198212385,555.456251999829,555.572975399904,555.456251999829,555.572975399904,555.5562482997775,None,c,1,0.5770034999586642,555.5562482997775,None,,,,,f,20,ppdd2,2022-08-15_15h30.13.738,training+cueing,2022.1.3,59.93917379358871,
Self.png,Stranger,Self ,m,3.1,18,28,98,,,,,1,0,1,0,,,,,1,7,19,2,,,,,,,,,,,,,,,,,,,,,1.556,2.14,556.2638980997726,None,,,,,,,,,,,,,,,,,,,,556.8046361999586,557.3076769998297,0.5035357195883989,1.0038229199126363,557.2909230999649,557.407676700037,557.2909230999649,557.407676700037,557.3909958000295,None,m,1,0.566113299690187,557.3909958000295,None,,,,,f,20,ppdd2,2022-08-15_15h30.13.738,training+cueing,2022.1.3,59.93917379358871,
Self.png,You,Self ,c,1,11,21,91,,,,,1,0,1,0,,,,,1,8,20,9,,,,,,,,,,,,,,,,,,,,,1.701,1.67,558.0813233000226,None,,,,,,,,,,,,,,,,,,,,558.6206435998902,559.1255959998816,0.5054285200312734,1.0056251198984683,559.1089653000236,559.2089811000042,559.1089653000236,559.2089811000042,559.2089811000042,None,c,1,0.5407104999758303,559.2089811000042,None,,,,,f,20,ppdd2,2022-08-15_15h30.13.738,training+cueing,2022.1.3,59.93917379358871,
Friend.png,You,Friend,m,1.2,14,24,94,,,,,1,0,1,0,,,,,1,9,21,3,,,,,,,,,,,,,,,,,,,,,1.65,1.517,559.8774481997825,None,,,,,,,,,,,,,,,,,,,,560.4047165000811,560.9102977998555,0.5090212197974324,1.0093231201171875,560.8935465998948,560.9936287999153,560.8935465998948,560.9936287999153,560.9936287999153,None,m,1,0.6117231999523938,560.9936287999153,None,,,,,f,20,ppdd2,2022-08-15_15h30.13.738,training+cueing,2022.1.3,59.93917379358871,
Stranger.png,You,Stranger,m,1.3,15,25,95,,,,,1,0,1,0,,,,,1,10,22,6,,,,,,,,,,,,,,,,,,,,,1.461,1.351,561.7291858000681,None,,,,,,,,,,,,,,,,,,,,562.2719760998152,562.7782572000287,0.5099214198999107,1.0101720201782882,562.7616384997964,562.8617038000375,562.7616384997964,562.8617038000375,562.8617038000375,None,m,1,0.6633672001771629,562.8617038000375,None,,,,,f,20,ppdd2,2022-08-15_15h30.13.738,training+cueing,2022.1.3,59.93917379358871,
Self.png,You,Self ,c,1,11,21,91,,,,,1,0,1,0,,,,,1,11,23,0,,,,,,,,,,,,,,,,,,,,,1.666,1.427,563.647000099998,None,,,,,,,,,,,,,,,,,,,,564.1896580001339,564.6963980998844,0.5090156202204525,1.0099532203748822,564.6797128999606,564.7797233997844,564.6797128999606,564.7797233997844,564.7797233997844,None,c,1,0.5532275997102261,564.7797233997844,None,,,,,f,20,ppdd2,2022-08-15_15h30.13.738,training+cueing,2022.1.3,59.93917379358871,
Stranger.png,Stranger,Stranger,c,3,13,23,93,,,,,1,0,1,0,,,,,2,0,24,8,,,,,,,,,,,,,,,,,,,,,1.518,1.269,565.4661151999608,None,,,,,,,,,,,,,,,,,,,,566.0119177000597,566.5142743000761,0.5029906206764281,1.003267620690167,566.4976838999428,566.6143446001224,566.4976838999428,566.6143446001224,566.5977194998413,None,c,1,0.527412099763751,566.5977194998413,None,,,,,f,20,ppdd2,2022-08-15_15h30.13.738,training+cueing,2022.1.3,59.93917379358871,
Self.png,You,Self ,c,1,11,21,91,,,,,1,0,1,0,,,,,2,1,25,9,,,,,,,,,,,,,,,,,,,,,1.415,1.853,567.2498058001511,None,,,,,,,,,,,,,,,,,,,,567.7952141999267,568.2989348997362,0.5047752200625837,1.0050506200641394,568.2822675001808,568.3823063001037,568.2822675001808,568.3823063001037,568.3823063001037,None,c,1,0.6472289999946952,568.3823063001037,None,,,,,f,20,ppdd2,2022-08-15_15h30.13.738,training+cueing,2022.1.3,59.93917379358871,
Self.png,You,Self ,c,1,11,21,91,,,,,1,0,1,0,,,,,2,2,26,0,,,,,,,,,,,,,,,,,,,,,1.488,2.117,569.1514618997462,None,,,,,,,,,,,,,,,,,,,,569.6933116000146,570.2003746000119,0.5096772201359272,1.010031620040536,570.1836355999112,570.2836751998402,570.1836355999112,570.2836751998402,570.2836751998402,None,c,1,0.7936653001233935,570.2836751998402,None,,,,,f,20,ppdd2,2022-08-15_15h30.13.738,training+cueing,2022.1.3,59.93917379358871,
Friend.png,Stranger,Friend,m,3.2,19,29,99,,,,,1,0,1,0,,,,,2,3,27,5,,,,,,,,,,,,,,,,,,,,,1.568,2.477,571.2030182001181,None,,,,,,,,,,,,,,,,,,,,571.7533503999002,572.2687212000601,0.510857820045203,1.011059120297432,572.2519474998116,572.3685008999892,572.2519474998116,572.3685008999892,572.3520033000968,None,m,1,1.156858399976045,572.3520033000968,None,,,,,f,20,ppdd2,2022-08-15_15h30.13.738,training+cueing,2022.1.3,59.93917379358871,
Self.png,Stranger,Self ,m,3.1,18,28,98,,,,,1,0,1,0,,,,,2,4,28,2,,,,,,,,,,,,,,,,,,,,,1.67,1.968,573.6384828998707,None,,,,,,,,,,,,,,,,,,,,574.1821689000353,574.6870622001588,0.5046242205426097,1.004986420739442,574.6702280999161,574.7870319001377,574.6702280999161,574.7870319001377,574.7703514997847,None,c,0,0.6110310000367463,574.7703514997847,None,,,,,f,20,ppdd2,2022-08-15_15h30.13.738,training+cueing,2022.1.3,59.93917379358871,
Stranger.png,Friend,Stranger,m,2.3,17,27,97,,,,,1,0,1,0,,,,,2,5,29,7,,,,,,,,,,,,,,,,,,,,,1.76,2.33,575.5060172001831,None,,,,,,,,,,,,,,,,,,,,576.0519495997578,576.5548930000514,0.5036849202588201,1.0039382204413414,576.538224699907,576.6550875999965,576.538224699907,576.6550875999965,576.6383797000162,None,m,1,0.6307263998314738,576.6383797000162,None,,,,,f,20,ppdd2,2022-08-15_15h30.13.738,training+cueing,2022.1.3,59.93917379358871,
Stranger.png,Stranger,Stranger,c,3,13,23,93,,,,,1,0,1,0,,,,,2,6,30,11,,,,,,,,,,,,,,,,,,,,,1.573,1.613,577.3908056998625,None,,,,,,,,,,,,,,,,,,,,577.9369373000227,578.4396255998872,0.503756619989872,1.0038730199448764,578.4229882997461,578.5398683999665,578.4229882997461,578.5398683999665,578.5230614999309,None,m,0,0.8736200998537242,578.5230614999309,None,,,,,f,20,ppdd2,2022-08-15_15h30.13.738,training+cueing,2022.1.3,59.93917379358871,
Friend.png,You,Friend,m,1.2,14,24,94,,,,,1,0,1,0,,,,,2,7,31,3,,,,,,,,,,,,,,,,,,,,,1.594,1.796,579.5257911998779,None,,,,,,,,,,,,,,,,,,,,580.070532400161,580.5745272999629,0.5040577203035355,1.004312220029533,580.5579344998114,580.6579494001344,580.5579344998114,580.6579494001344,580.6579494001344,None,m,1,0.6429437003098428,580.6579494001344,None,,,,,f,20,ppdd2,2022-08-15_15h30.13.738,training+cueing,2022.1.3,59.93917379358871,
Stranger.png,You,Stranger,m,1.3,15,25,95,,,,,1,0,1,0,,,,,2,8,32,6,,,,,,,,,,,,,,,,,,,,,1.651,1.466,581.4274770999327,None,,,,,,,,,,,,,,,,,,,,581.9698828998953,582.4758378001861,0.5096680200658739,1.0100864199921489,582.45921120001,582.5592827000655,582.45921120001,582.5592827000655,582.5592827000655,None,m,1,0.5813354998826981,582.5592827000655,None,,,,,f,20,ppdd2,2022-08-15_15h30.13.738,training+cueing,2022.1.3,59.93917379358871,
Self.png,Friend,Self ,m,2.1,16,26,96,,,,,1,0,1,0,,,,,2,9,33,1,,,,,,,,,,,,,,,,,,,,,1.564,2.324,583.2619225997478,None,,,,,,,,,,,,,,,,,,,,583.8116358998232,584.3273069001734,0.5121949203312397,1.0126295201480389,584.3105000001378,584.4273859998211,584.3105000001378,584.4273859998211,584.4106415999122,None,m,1,0.6343224002048373,584.4106415999122,None,,,,,f,20,ppdd2,2022-08-15_15h30.13.738,training+cueing,2022.1.3,59.93917379358871,
Friend.png,Friend,Friend,c,2,12,22,92,,,,,1,0,1,0,,,,,2,10,34,10,,,,,,,,,,,,,,,,,,,,,1.71,1.404,585.1800186000764,None,,,,,,,,,,,,,,,,,,,,585.7213702998124,586.2287078001536,0.510469920001924,1.0108230202458799,586.2120563001372,586.3287014998496,586.2120563001372,586.3287014998496,586.3120415997691,None,c,1,0.525252599734813,586.3120415997691,None,,,,,f,20,ppdd2,2022-08-15_15h30.13.738,training+cueing,2022.1.3,59.93917379358871,
Friend.png,Friend,Friend,c,2,12,22,92,,,,,1,0,1,0,,,,,2,11,35,4,,,,,,,,,,,,,,,,,,,,,1.725,1.444,586.9639429999515,None,,,,,,,,,,,,,,,,,,,,587.5066517000087,588.0134121999145,0.5107512208633125,1.0110208205878735,587.9966674000025,588.1134342001751,587.9966674000025,588.1134342001751,588.096893500071,None,c,1,0.4844327000901103,588.096893500071,None,,,,,f,20,ppdd2,2022-08-15_15h30.13.738,training+cueing,2022.1.3,59.93917379358871,
Stranger.png,Stranger,Stranger,c,3,13,23,93,,,,,1,0,1,0,,,,,3,0,36,8,,,,,,,,,,,,,,,,,,,,,1.521,2.332,588.7155960998498,None,,,,,,,,,,,,,,,,,,,,589.2602792000398,589.7646419997327,0.5049200598150492,1.005088159814477,589.747991300188,589.8646701001562,589.747991300188,589.8646701001562,589.8479439998046,None,c,1,0.5898150997236371,589.8479439998046,None,,,,,f,20,ppdd2,2022-08-15_15h30.13.738,training+cueing,2022.1.3,59.93917379358871,
Stranger.png,Stranger,Stranger,c,3,13,23,93,,,,,1,0,1,0,,,,,3,1,37,11,,,,,,,,,,,,,,,,,,,,,1.537,1.242,590.5677724000998,None,,,,,,,,,,,,,,,,,,,,591.1101146000437,591.6159787001088,0.5090181198902428,1.0095844198949635,591.5992688001134,591.7160589001141,591.5992688001134,591.7160589001141,591.699289099779,None,c,1,0.4332718001678586,591.699289099779,None,,,,,f,20,ppdd2,2022-08-15_15h30.13.738,training+cueing,2022.1.3,59.93917379358871,
Self.png,Stranger,Self ,m,3.1,18,28,98,,,,,1,0,1,0,,,,,3,2,38,2,,,,,,,,,,,,,,,,,,,,,1.491,1.328,592.2514669001102,None,,,,,,,,,,,,,,,,,,,,592.793795300182,593.300501300022,0.5108655202202499,1.0110951205715537,593.2838932997547,593.4005760001019,593.2838932997547,593.4005760001019,593.3838893999346,None,m,1,0.6213695998303592,593.3838893999346,None,,,,,f,20,ppdd2,2022-08-15_15h30.13.738,training+cueing,2022.1.3,59.93917379358871,
Friend.png,You,Friend,m,1.2,14,24,94,,,,,1,0,1,0,,,,,3,3,39,3,,,,,,,,,,,,,,,,,,,,,1.533,1.983,594.1363844000734,None,,,,,,,,,,,,,,,,,,,,594.680370000191,595.1853118999861,0.5053328201174736,1.0055806199088693,595.1685882001184,595.2686129999347,595.1685882001184,595.2686129999347,595.2686129999347,None,c,0,0.6565890000201762,595.2686129999347,None,,,,,f,20,ppdd2,2022-08-15_15h30.13.738,training+cueing,2022.1.3,59.93917379358871,
Self.png,Friend,Self ,m,2.1,16,26,96,,,,,1,0,1,0,,,,,3,4,40,1,,,,,,,,,,,,,,,,,,,,,1.614,2.064,596.0540781999007,None,,,,,,,,,,,,,,,,,,,,596.5996352997608,597.103325900156,0.5048108203336596,1.0050209201872349,597.0866755000316,597.2033799998462,597.0866755000316,597.2033799998462,597.1866628001444,None,m,1,0.70603570016101,597.1866628001444,None,,,,,f,20,ppdd2,2022-08-15_15h30.13.738,training+cueing,2022.1.3,59.93917379358871,
Friend.png,Friend,Friend,c,2,12,22,92,,,,,1,0,1,0,,,,,3,5,41,10,,,,,,,,,,,,,,,,,,,,,1.515,2.343,598.0278125000186,None,,,,,,,,,,,,,,,,,,,,598.5659329001792,599.0714002000168,0.5080609200522304,1.0082591199316084,599.0548085998744,599.1714753000997,599.0548085998744,599.1714753000997,599.1547512998804,None,c,1,0.48239610018208623,599.1547512998804,None,,,,,f,20,ppdd2,2022-08-15_15h30.13.738,training+cueing,2022.1.3,59.93917379358871,
Friend.png,Stranger,Friend,m,3.2,19,29,99,,,,,1,0,1,0,,,,,3,6,42,5,,,,,,,,,,,,,,,,,,,,,1.478,1.811,599.757033099886,None,,,,,,,,,,,,,,,,,,,,600.3112000999972,600.822723200079,0.5020827199332416,1.0023637199774384,600.8060162998736,600.9227342000231,600.8060162998736,600.9227342000231,600.9060009997338,None,m,1,0.5875221998430789,600.9060009997338,None,,,,,f,20,ppdd2,2022-08-15_15h30.13.738,training+cueing,2022.1.3,59.93917379358871,
Stranger.png,Friend,Stranger,m,2.3,17,27,97,,,,,1,0,1,0,,,,,3,7,43,7,,,,,,,,,,,,,,,,,,,,,1.653,1.599,601.6248637000099,None,,,,,,,,,,,,,,,,,,,,602.1703256000765,602.6741025997326,0.5047783204354346,1.0049922200851142,602.6573791997507,602.7742075999267,602.6573791997507,602.7742075999267,602.7575191999786,None,m,1,1.02443669969216,602.7575191999786,None,,,,,f,20,ppdd2,2022-08-15_15h30.13.738,training+cueing,2022.1.3,59.93917379358871,
Friend.png,Friend,Friend,c,2,12,22,92,,,,,1,0,1,0,,,,,3,8,44,4,,,,,,,,,,,,,,,,,,,,,1.772,2.418,603.9098259997554,None,,,,,,,,,,,,,,,,,,,,604.4514883998781,604.9590296000242,0.5106076202355325,1.0108366198837757,604.9423911999911,605.0590498000383,604.9423911999911,605.0590498000383,605.04234299995,None,m,0,0.5471499999985099,605.04234299995,None,,,,,f,20,ppdd2,2022-08-15_15h30.13.738,training+cueing,2022.1.3,59.93917379358871,
Self.png,You,Self ,c,1,11,21,91,,,,,1,0,1,0,,,,,3,9,45,9,,,,,,,,,,,,,,,,,,,,,1.705,2.309,605.7111575999297,None,,,,,,,,,,,,,,,,,,,,606.2562151001766,606.7603425998241,0.5056178201921284,1.005960919894278,606.7437146999873,606.8437545998022,606.7437146999873,606.8437545998022,606.8437545998022,None,c,1,0.45785330003127456,606.8437545998022,None,,,,,f,20,ppdd2,2022-08-15_15h30.13.738,training+cueing,2022.1.3,59.93917379358871,
Self.png,You,Self ,c,1,11,21,91,,,,,1,0,1,0,,,,,3,10,46,0,,,,,,,,,,,,,,,,,,,,,1.693,1.8,607.4290585000999,None,,,,,,,,,,,,,,,,,,,,607.9736048001796,608.4781666998751,0.5068181208334863,1.0069305207580328,608.4617268000729,608.5616084998474,608.4617268000729,608.5616084998474,608.5616084998474,None,c,1,0.531595699954778,608.5616084998474,None,,,,,f,20,ppdd2,2022-08-15_15h30.13.738,training+cueing,2022.1.3,59.93917379358871,
Stranger.png,You,Stranger,m,1.3,15,25,95,,,,,1,0,1,0,,,,,3,11,47,6,,,,,,,,,,,,,,,,,,,,,1.672,2.266,609.2143414998427,None,,,,,,,,,,,,,,,,,,,,609.7556980997324,610.262904800009,0.509849919937551,1.0100773200392723,610.2462868997827,610.3463495001197,610.2462868997827,610.3463495001197,610.3463495001197,None,m,1,0.41051620012149215,610.3463495001197,None,,,,,f,20,ppdd2,2022-08-15_15h30.13.738,training+cueing,2022.1.3,59.93917379358871,
Stranger.png,You,Stranger,m,1.3,15,25,95,,,,,1,0,1,0,,,,,4,0,48,6,,,,,,,,,,,,,,,,,,,,,1.599,2.337,610.8817527000792,None,,,,,,,,,,,,,,,,,,,,611.4241961999796,611.9308055997826,0.5105310203507543,1.0108437202870846,611.9141429997981,612.014157100115,611.9141429997981,612.014157100115,612.014157100115,None,m,1,0.4550199997611344,612.014157100115,None,,,,,f,20,ppdd2,2022-08-15_15h30.13.738,training+cueing,2022.1.3,59.93917379358871,
Self.png,Friend,Self ,m,2.1,16,26,96,,,,,1,0,1,0,,,,,4,1,49,1,,,,,,,,,,,,,,,,,,,,,1.778,1.822,612.5996071998961,None,,,,,,,,,,,,,,,,,,,,613.1500750998966,613.6654293001629,0.5113067198544741,1.0114566199481487,613.6487662000582,613.7654560999945,613.6487662000582,613.7654560999945,613.7487265998498,None,m,1,0.5768633000552654,613.7487265998498,None,,,,,f,20,ppdd2,2022-08-15_15h30.13.738,training+cueing,2022.1.3,59.93917379358871,
Stranger.png,Stranger,Stranger,c,3,13,23,93,,,,,1,0,1,0,,,,,4,2,50,11,,,,,,,,,,,,,,,,,,,,,1.492,1.776,614.4513229001313,None,,,,,,,,,,,,,,,,,,,,614.9969068001956,615.5000542001799,0.5023143198341131,1.002599020022899,615.4833876998164,615.6000832999125,615.4833876998164,615.6000832999125,615.5834085000679,None,m,0,0.6791070001199841,615.5834085000679,None,,,,,f,20,ppdd2,2022-08-15_15h30.13.738,training+cueing,2022.1.3,59.93917379358871,
Friend.png,Friend,Friend,c,2,12,22,92,,,,,1,0,1,0,,,,,4,3,51,10,,,,,,,,,,,,,,,,,,,,,1.755,1.61,616.3856732998975,None,,,,,,,,,,,,,,,,,,,,616.9371540001594,617.4514891998842,0.5094203194603324,1.0096966195851564,617.4347946001217,617.5515633998439,617.4347946001217,617.5515633998439,617.5348264998756,None,c,1,0.6621051002293825,617.5348264998756,None,,,,,f,20,ppdd2,2022-08-15_15h30.13.738,training+cueing,2022.1.3,59.93917379358871,
Friend.png,You,Friend,m,1.2,14,24,94,,,,,1,0,1,0,,,,,4,4,52,3,,,,,,,,,,,,,,,,,,,,,1.642,1.371,618.3204530999064,None,,,,,,,,,,,,,,,,,,,,618.8652209001593,619.3695523999631,0.5042287204414606,1.0045181205496192,619.3528789998963,619.452932599932,619.3528789998963,619.452932599932,619.452932599932,None,m,1,0.48919769981876016,619.452932599932,None,,,,,f,20,ppdd2,2022-08-15_15h30.13.738,training+cueing,2022.1.3,59.93917379358871,
Self.png,You,Self ,c,1,11,21,91,,,,,1,0,1,0,,,,,4,5,53,9,,,,,,,,,,,,,,,,,,,,,1.518,1.477,620.0715922000818,None,,,,,,,,,,,,,,,,,,,,620.608158600051,621.1207778998651,0.5068012201227248,1.0069100204855204,621.104165200144,621.2041923999786,621.104165200144,621.2041923999786,621.2041923999786,None,c,1,0.5610229000449181,621.2041923999786,None,,,,,f,20,ppdd2,2022-08-15_15h30.13.738,training+cueing,2022.1.3,59.93917379358871,
Stranger.png,Friend,Stranger,m,2.3,17,27,97,,,,,1,0,1,0,,,,,4,6,54,7,,,,,,,,,,,,,,,,,,,,,1.712,2.455,621.8893975000829,None,,,,,,,,,,,,,,,,,,,,622.4387509999797,622.9388621998951,0.5146738202311099,1.0148940198123455,622.9388621998951,623.0388615997508,622.9388621998951,623.0388615997508,623.0388615997508,None,m,1,0.5662179999053478,623.0388615997508,None,,,,,f,20,ppdd2,2022-08-15_15h30.13.738,training+cueing,2022.1.3,59.93917379358871,
Self.png,Stranger,Self ,m,3.1,18,28,98,,,,,1,0,1,0,,,,,4,7,55,2,,,,,,,,,,,,,,,,,,,,,1.673,1.694,623.7242841999978,None,,,,,,,,,,,,,,,,,,,,624.275456899777,624.7902218997478,0.5034549203701317,1.003682620357722,624.7569542001002,624.8569788001478,624.7569542001002,624.8569788001478,624.8569788001478,None,m,1,0.6994982999749482,624.8569788001478,None,,,,,f,20,ppdd2,2022-08-15_15h30.13.738,training+cueing,2022.1.3,59.93917379358871,
Friend.png,Stranger,Friend,m,3.2,19,29,99,,,,,1,0,1,0,,,,,4,8,56,5,,,,,,,,,,,,,,,,,,,,,1.524,1.363,625.6768396999687,None,,,,,,,,,,,,,,,,,,,,626.2183754998259,626.7248829999007,0.5106281200423837,1.010832920204848,626.7082593999803,626.8249587998725,626.7082593999803,626.8249587998725,626.8082869001664,None,c,0,0.5410854001529515,626.8082869001664,None,,,,,f,20,ppdd2,2022-08-15_15h30.13.738,training+cueing,2022.1.3,59.93917379358871,
Self.png,You,Self ,c,1,11,21,91,,,,,1,0,1,0,,,,,4,9,57,0,,,,,,,,,,,,,,,,,,,,,1.507,1.477,627.477014400065,None,,,,,,,,,,,,,,,,,,,,628.0221290998161,628.5261610001326,0.5056439200416207,1.0058868201449513,628.5096199000254,628.609594900161,628.5096199000254,628.609594900161,628.609594900161,None,m,0,0.5800850000232458,628.609594900161,None,,,,,f,20,ppdd2,2022-08-15_15h30.13.738,training+cueing,2022.1.3,59.93917379358871,
Friend.png,Friend,Friend,c,2,12,22,92,,,,,1,0,1,0,,,,,4,10,58,4,,,,,,,,,,,,,,,,,,,,,1.713,1.436,629.3117978000082,None,,,,,,,,,,,,,,,,,,,,629.8572442000732,630.360926900059,0.5031480202451348,1.003376720007509,630.344250400085,630.4609376001172,630.344250400085,630.4609376001172,630.4442063998431,None,c,1,0.6167818000540137,630.4442063998431,None,,,,,f,20,ppdd2,2022-08-15_15h30.13.738,training+cueing,2022.1.3,59.93917379358871,
Stranger.png,Stranger,Stranger,c,3,13,23,93,,,,,1,0,1,0,,,,,4,11,59,8,,,,,,,,,,,,,,,,,,,,,1.673,1.564,631.1803216999397,None,,,,,,,,,,,,,,,,,,,,631.7290889001451,632.2289021001197,0.5139649203047156,1.0142820202745497,632.2289021001197,632.3290308001451,632.2289021001197,632.3290308001451,632.3290308001451,None,c,1,0.860559199936688,632.3290308001451,None,,,,,f,20,ppdd2,2022-08-15_15h30.13.738,training+cueing,2022.1.3,59.93917379358871,
Friend.png,Stranger,Friend,m,3.2,19,29,99,,,,,1,0,1,0,,,,,5,0,60,5,,,,,,,,,,,,,,,,,,,,,1.637,1.293,633.3148504998535,None,,,,,,,,,,,,,,,,,,,,633.8568695001304,634.3637525001541,0.5096898199990392,1.0099574201740324,634.3471797001548,634.463871799875,634.3471797001548,634.463871799875,634.4471674999222,None,m,1,0.5335448002442718,634.4471674999222,None,,,,,f,20,ppdd2,2022-08-15_15h30.13.738,training+cueing,2022.1.3,59.93917379358871,
Self.png,Friend,Self ,m,2.1,16,26,96,,,,,1,0,1,0,,,,,5,1,61,1,,,,,,,,,,,,,,,,,,,,,1.604,2.081,635.0998586001806,None,,,,,,,,,,,,,,,,,,,,635.6447227997705,636.1484781000763,0.5046841204166412,1.0052506201900542,636.131748800166,636.2485309997573,636.131748800166,636.2485309997573,636.2317780000158,None,m,1,0.493386700283736,636.2317780000158,None,,,,,f,20,ppdd2,2022-08-15_15h30.13.738,training+cueing,2022.1.3,59.93917379358871,
Self.png,You,Self ,c,1,11,21,91,,,,,1,0,1,0,,,,,5,2,62,9,,,,,,,,,,,,,,,,,,,,,1.688,1.85,636.8520839000121,None,,,,,,,,,,,,,,,,,,,,637.3956275000237,637.8997720000334,0.5055619203485548,1.0057456200011075,637.8830952998251,637.9830462997779,637.8830952998251,637.9830462997779,637.9830462997779,None,c,1,0.598509100265801,637.9830462997779,None,,,,,f,20,ppdd2,2022-08-15_15h30.13.738,training+cueing,2022.1.3,59.93917379358871,
Stranger.png,You,Stranger,m,1.3,15,25,95,,,,,1,0,1,0,,,,,5,3,63,6,,,,,,,,,,,,,,,,,,,,,1.425,1.706,638.7016912000254,None,,,,,,,,,,,,,,,,,,,,639.2436322998255,639.7511765998788,0.5106684202328324,1.0108709204941988,639.7345044999383,639.8345288001001,639.7345044999383,639.8345288001001,639.8345288001001,None,m,1,0.6819043001160026,639.8345288001001,None,,,,,f,20,ppdd2,2022-08-15_15h30.13.738,training+cueing,2022.1.3,59.93917379358871,
Stranger.png,Friend,Stranger,m,2.3,17,27,97,,,,,1,0,1,0,,,,,5,4,64,7,,,,,,,,,,,,,,,,,,,,,1.662,2.287,640.6364853000268,None,,,,,,,,,,,,,,,,,,,,641.1821161000989,641.685833199881,0.5047317203134298,1.0049936203286052,641.669153700117,641.7858806997538,641.669153700117,641.7858806997538,641.7691461001523,None,m,1,0.635825099889189,641.7691461001523,None,,,,,f,20,ppdd2,2022-08-15_15h30.13.738,training+cueing,2022.1.3,59.93917379358871,
Stranger.png,Stranger,Stranger,c,3,13,23,93,,,,,1,0,1,0,,,,,5,5,65,11,,,,,,,,,,,,,,,,,,,,,1.451,2.12,642.538070099894,None,,,,,,,,,,,,,,,,,,,,643.0877978997305,643.587232499849,0.5128226201049984,1.0130871199071407,643.587232499849,643.6872566998936,643.587232499849,643.6872566998936,643.6872566998936,None,c,1,0.8461366002447903,643.6872566998936,None,,,,,f,20,ppdd2,2022-08-15_15h30.13.738,training+cueing,2022.1.3,59.93917379358871,
Friend.png,Friend,Friend,c,2,12,22,92,,,,,1,0,1,0,,,,,5,6,66,4,,,,,,,,,,,,,,,,,,,,,1.797,2.188,644.6560872001573,None,,,,,,,,,,,,,,,,,,,,645.2013320997357,645.7056244001724,0.5042119203135371,1.0042718201875687,645.6889420999214,645.8056274000555,645.6889420999214,645.8056274000555,645.7890741000883,None,c,1,0.6649946998804808,645.7890741000883,None,,,,,f,20,ppdd2,2022-08-15_15h30.13.738,training+cueing,2022.1.3,59.93917379358871,
Friend.png,You,Friend,m,1.2,14,24,94,,,,,1,0,1,0,,,,,5,7,67,3,,,,,,,,,,,,,,,,,,,,,1.509,1.818,646.5739170000888,None,,,,,,,,,,,,,,,,,,,,647.1114396001212,647.6233455999754,0.5039230203256011,1.0044938204810023,647.6066590999253,647.7066776999272,647.6066590999253,647.7066776999272,647.7066776999272,None,m,1,0.5223429002799094,647.7066776999272,None,,,,,f,20,ppdd2,2022-08-15_15h30.13.738,training+cueing,2022.1.3,59.93917379358871,
Self.png,Stranger,Self ,m,3.1,18,28,98,,,,,1,0,1,0,,,,,5,8,68,2,,,,,,,,,,,,,,,,,,,,,1.682,2.164,648.3584842998534,None,,,,,,,,,,,,,,,,,,,,648.8881815001369,649.3914553001523,0.5020387200638652,1.00230712024495,649.3747585001402,649.4914803998545,649.3747585001402,649.4914803998545,649.4748085001484,None,m,1,0.6107711996883154,649.4748085001484,None,,,,,f,20,ppdd2,2022-08-15_15h30.13.738,training+cueing,2022.1.3,59.93917379358871,
Friend.png,Friend,Friend,c,2,12,22,92,,,,,1,0,1,0,,,,,5,9,69,10,,,,,,,,,,,,,,,,,,,,,1.539,1.359,650.2108629001305,None,,,,,,,,,,,,,,,,,,,,650.7562707997859,651.2595182000659,0.5040083196945488,1.0042780200019479,651.2427900000475,651.3595766001381,651.2427900000475,651.3595766001381,651.3427948998287,None,c,1,0.7742272997274995,651.3427948998287,None,,,,,f,20,ppdd2,2022-08-15_15h30.13.738,training+cueing,2022.1.3,59.93917379358871,
Stranger.png,Stranger,Stranger,c,3,13,23,93,,,,,1,0,1,0,,,,,5,10,70,8,,,,,,,,,,,,,,,,,,,,,1.567,1.291,652.2449865997769,None,,,,,,,,,,,,,,,,,,,,652.7942776000127,653.2943000998348,0.5151885598897934,1.0155470599420369,653.2943000998348,653.3943314999342,653.2943000998348,653.3943314999342,653.3943314999342,None,c,1,0.6264260997995734,653.3943314999342,None,,,,,f,20,ppdd2,2022-08-15_15h30.13.738,training+cueing,2022.1.3,59.93917379358871,
Self.png,You,Self ,c,1,11,21,91,,,,,1,0,1,0,,,,,5,11,71,0,,,,,,,,,,,,,,,,,,,,,1.595,1.293,654.1467754999176,None,,,,,,,,,,,,,,,,,,,,654.7016634000465,655.2123261000961,0.5006782202981412,1.000952620524913,655.1957132001407,655.2957206000574,655.1957132001407,655.2957206000574,655.2957206000574,None,c,1,0.8371552000753582,655.2957206000574,None,,,,,f,20,ppdd2,2022-08-15_15h30.13.738,training+cueing,2022.1.3,59.93917379358871,
Stranger.png,Friend,Stranger,m,2.3,17,27,97,,,,,1,0,1,0,,,,,6,0,72,7,,,,,,,,,,,,,,,,,,,,,1.602,2.215,656.2704503000714,None,,,,,,,,,,,,,,,,,,,,656.8100926000625,657.3139419998042,0.5047885202802718,1.0050355205312371,657.2972395000979,657.4139211000875,657.2972395000979,657.4139211000875,657.3972114999779,None,m,1,0.671284300275147,657.3972114999779,None,,,,,f,20,ppdd2,2022-08-15_15h30.13.738,training+cueing,2022.1.3,59.93917379358871,
Stranger.png,Stranger,Stranger,c,3,13,23,93,,,,,1,0,1,0,,,,,6,1,73,8,,,,,,,,,,,,,,,,,,,,,1.485,1.893,658.1999646998011,None,,,,,,,,,,,,,,,,,,,,658.7451757998206,659.2486641998403,0.5040442198514938,1.0043352199718356,659.2319534001872,659.3487144000828,659.2319534001872,659.3487144000828,659.3319385000505,None,c,1,0.7363756000995636,659.3319385000505,None,,,,,f,20,ppdd2,2022-08-15_15h30.13.738,training+cueing,2022.1.3,59.93917379358871,
Friend.png,You,Friend,m,1.2,14,24,94,,,,,1,0,1,0,,,,,6,2,74,3,,,,,,,,,,,,,,,,,,,,,1.74,1.973,660.2013519997708,None,,,,,,,,,,,,,,,,,,,,660.7459815000184,661.2500999001786,0.5039120204746723,1.0041918205097318,661.2334245000966,661.3335045999847,661.2334245000966,661.3335045999847,661.3335045999847,None,c,0,0.87985929986462,661.3335045999847,None,,,,,f,20,ppdd2,2022-08-15_15h30.13.738,training+cueing,2022.1.3,59.93917379358871,
Stranger.png,Stranger,Stranger,c,3,13,23,93,,,,,1,0,1,0,,,,,6,3,75,11,,,,,,,,,,,,,,,,,,,,,1.557,2.275,662.3432161998935,None,,,,,,,,,,,,,,,,,,,,662.8830050998367,663.3849355997518,0.5024079200811684,1.0029180198907852,663.3683325001039,663.4850012999959,663.3683325001039,663.4850012999959,663.4683463000692,None,c,1,0.7604209003038704,663.4683463000692,None,,,,,f,20,ppdd2,2022-08-15_15h30.13.738,training+cueing,2022.1.3,59.93917379358871,
Friend.png,Friend,Friend,c,2,12,22,92,,,,,1,0,1,0,,,,,6,4,76,10,,,,,,,,,,,,,,,,,,,,,1.666,2.271,664.3538333000615,None,,,,,,,,,,,,,,,,,,,,664.9013057998382,665.4030908001587,0.5009715198539197,1.0012163198553026,665.3864417001605,665.503146099858,665.3864417001605,665.503146099858,665.503146099858,None,c,1,0.6782789002172649,665.503146099858,None,,,,,f,20,ppdd2,2022-08-15_15h30.13.738,training+cueing,2022.1.3,59.93917379358871,
Stranger.png,You,Stranger,m,1.3,15,25,95,,,,,1,0,1,0,,,,,6,5,77,6,,,,,,,,,,,,,,,,,,,,,1.77,1.827,666.3095446000807,None,,,,,,,,,,,,,,,,,,,,666.8511947998777,667.3545649000444,0.5041297203861177,1.0044143199920654,667.3378571001813,667.4378895000555,667.3378571001813,667.4378895000555,667.4378895000555,None,m,1,0.7754474002867937,667.4378895000555,None,,,,,f,20,ppdd2,2022-08-15_15h30.13.738,training+cueing,2022.1.3,59.93917379358871,
