Image,Name,Face,CorrAns,Match,Face_onset,CResponse_onset,IResponse_onset,Match.thisRepN,Match.thisTrialN,Match.thisN,Match.thisIndex,Blocks.thisRepN,Blocks.thisTrialN,Blocks.thisN,Blocks.thisIndex,trials.thisRepN,trials.thisTrialN,trials.thisN,trials.thisIndex,trials_2.thisRepN,trials_2.thisTrialN,trials_2.thisN,trials_2.thisIndex,text.started,text.stopped,p1.started,p1.stopped,MatchInstructions.started,MatchInstructions.stopped,Name1.started,Name1.stopped,Face_Relevance.started,Face_Relevance.stopped,MismatchInstructions.started,MismatchInstructions.stopped,Rest_trainingInstruct.started,Rest_trainingInstruct.stopped,next8.keys,next8.rt,next8.started,next8.stopped,Ready.started,Ready.stopped,delay_one_picked,delay_two_picked,blank0.started,blank0.stopped,FixationCross1.started,FixationCross1.stopped,Name3.started,Name3.stopped,Face_Relevance3.started,Face_Relevance3.stopped,responseTime.started,responseTime.stopped,resp.keys,resp.corr,resp.rt,resp.started,resp.stopped,Accuracy.started,Accuracy.stopped,questions.started,questions.stopped,p2.started,p2.stopped,FixationCross3.started,FixationCross3.stopped,port_Face_onset.started,port_Face_onset.stopped,Name4.started,Name4.stopped,Face_Relevance4.started,Face_Relevance4.stopped,responseTime2.started,responseTime2.stopped,Response.keys,Response.corr,Response.rt,Response.started,Response.stopped,p3.started,p3.stopped,Finish.started,Finish.stopped,gender,age,participant,date,expName,psychopyVersion,frameRate,
Friend.png,Friend,,,,,,,0,0,0,1,,,,,,,,,,,,,17.637091299999156,None,0.002593860095657874,0.49869816009595525,19.64135570000508,None,21.772041200005333,None,21.772041200005333,None,,,,,,,,,,,,,,,,,,,,,,,,,,,,,,,,,,,,,,,,,,,,,,,,,,,,,,,ppee2,2022-08-16_11h07.01.910,training+cueing,2022.1.3,59.939497073239394,
Self.png,You,,,,,,,0,1,1,0,,,,,,,,,,,,,,,,,,,41.675561399999424,None,41.675561399999424,None,,,,,,,,,,,,,,,,,,,,,,,,,,,,,,,,,,,,,,,,,,,,,,,,,,,,,,,ppee2,2022-08-16_11h07.01.910,training+cueing,2022.1.3,59.939497073239394,
Stranger.png,Stranger,,,,,,,0,2,2,2,,,,,,,,,,,,,,,,,,,61.67720560000453,None,61.67720560000453,None,,,,,,,,,,,,,,,,,,,,,,,,,,,,,,,,,,,,,,,,,,,,,,,,,,,,,,,ppee2,2022-08-16_11h07.01.910,training+cueing,2022.1.3,59.939497073239394,
Self.png,Stranger,Self ,m,3.1,18,28,98,,,,,0,0,0,0,0,0,0,2,,,,,,,,,,,,,,,81.6388139000046,None,91.47896550000587,None,space,-0.1265925000043353,2.0010335199986002,None,93.46418500000436,None,1.728,1.306,96.46887730000162,None,97.08979750000435,97.6004138999997,97.56714430000284,97.66718860000401,97.56714430000284,97.66718860000401,97.66718860000401,None,m,1,1.334183999999368,97.66718860000401,None,99.01809800000046,None,,,,,,,,,,,,,,,,,,,,,,,,,,ppee2,2022-08-16_11h07.01.910,training+cueing,2022.1.3,59.939497073239394,
Friend.png,You,Friend,m,1.2,14,24,94,,,,,0,0,0,0,0,1,1,3,,,,,,,,,,,,,,,,,,,,,,,,,1.671,1.395,99.41843410000001,None,99.94897680000577,100.45253570000204,100.43583059999946,100.53587320000224,100.43583059999946,100.53587320000224,100.53587320000224,None,m,1,1.089153000000806,100.53587320000224,None,101.65346610000415,None,,,,,,,,,,,,,,,,,,,,,,,,,,ppee2,2022-08-16_11h07.01.910,training+cueing,2022.1.3,59.939497073239394,
Stranger.png,Stranger,Stranger,c,3,13,23,93,,,,,0,0,0,0,0,2,2,11,,,,,,,,,,,,,,,,,,,,,,,,,1.658,2.46,102.05369570000039,None,102.58557250000013,103.08776750000106,103.071131100005,103.18780140000308,103.071131100005,103.18780140000308,103.17114340000262,None,c,1,1.349728099994536,103.17114340000262,None,104.53883450000285,None,,,,,,,,,,,,,,,,,,,,,,,,,,ppee2,2022-08-16_11h07.01.910,training+cueing,2022.1.3,59.939497073239394,
Stranger.png,You,Stranger,m,1.3,15,25,95,,,,,0,0,0,0,0,3,3,6,,,,,,,,,,,,,,,,,,,,,,,,,1.638,2.406,104.93930530000216,None,105.47688420000486,105.98986349999905,105.97319699999935,106.07325169999967,105.97319699999935,106.07325169999967,106.07325169999967,None,m,1,1.0714500999965821,106.07325169999967,None,107.1740848000045,None,,,,,,,,,,,,,,,,,,,,,,,,,,ppee2,2022-08-16_11h07.01.910,training+cueing,2022.1.3,59.939497073239394,
Friend.png,Friend,Friend,c,2,12,22,92,,,,,0,0,0,0,0,4,4,4,,,,,,,,,,,,,,,,,,,,,,,,,1.492,1.524,107.57455520000076,None,108.1108091999995,108.62511530000484,108.60843230000319,108.72517420000077,108.60843230000319,108.72517420000077,108.70844600000419,None,m,0,1.204629699990619,108.70844600000419,None,109.94097390000388,None,,,,,,,,,,,,,,,,,,,,,,,,,,ppee2,2022-08-16_11h07.01.910,training+cueing,2022.1.3,59.939497073239394,
Friend.png,Friend,Friend,c,2,12,22,92,,,,,0,0,0,0,0,5,5,10,,,,,,,,,,,,,,,,,,,,,,,,,1.599,1.583,110.34306330000254,None,110.87002310000389,111.3771173999994,111.36044050000055,111.4772202000022,111.36044050000055,111.4772202000022,111.46044670000265,None,c,1,1.0291256999989855,111.46044670000265,None,112.51114220000454,None,,,,,,,,,,,,,,,,,,,,,,,,,,ppee2,2022-08-16_11h07.01.910,training+cueing,2022.1.3,59.939497073239394,
Stranger.png,Stranger,Stranger,c,3,13,23,93,,,,,0,0,0,0,0,6,6,8,,,,,,,,,,,,,,,,,,,,,,,,,1.716,1.497,112.91152530000545,None,113.4420042999991,113.94566440000199,113.92898940000305,114.04567990000214,113.92898940000305,114.04567990000214,114.02905029999965,None,m,0,1.2917840000009164,114.02905029999965,None,115.34651940000185,None,,,,,,,,,,,,,,,,,,,,,,,,,,ppee2,2022-08-16_11h07.01.910,training+cueing,2022.1.3,59.939497073239394,
Self.png,You,Self ,c,1,11,21,91,,,,,0,0,0,0,0,7,7,9,,,,,,,,,,,,,,,,,,,,,,,,,1.704,1.589,115.74706069999957,None,116.276949900006,116.78107780000573,116.76443890000519,116.86440630000288,116.76443890000519,116.86440630000288,116.86440630000288,None,c,1,0.6006865999952424,116.86440630000288,None,117.48129090000293,None,,,,,,,,,,,,,,,,,,,,,,,,,,ppee2,2022-08-16_11h07.01.910,training+cueing,2022.1.3,59.939497073239394,
Self.png,Friend,Self ,m,2.1,16,26,96,,,,,0,0,0,0,0,8,8,1,,,,,,,,,,,,,,,,,,,,,,,,,1.546,1.82,117.88175110000157,None,118.41183760000422,118.91585810000106,118.89925650000077,119.01597920000495,118.89925650000077,119.01597920000495,118.99925070000609,None,c,0,1.3143684999959078,118.99925070000609,None,120.33349630000157,None,,,,,,,,,,,,,,,,,,,,,,,,,,ppee2,2022-08-16_11h07.01.910,training+cueing,2022.1.3,59.939497073239394,
Friend.png,Stranger,Friend,m,3.2,19,29,99,,,,,0,0,0,0,0,9,9,5,,,,,,,,,,,,,,,,,,,,,,,,,1.406,2.282,120.73386310000205,None,121.26461270000436,121.767983800004,121.75146060000407,121.86799270000483,121.75146060000407,121.86799270000483,121.8513649000015,None,None,0,,121.8513649000015,None,123.26902030000201,None,,,,,,,,,,,,,,,,,,,,,,,,,,ppee2,2022-08-16_11h07.01.910,training+cueing,2022.1.3,59.939497073239394,
Stranger.png,Friend,Stranger,m,2.3,17,27,97,,,,,0,0,0,0,0,10,10,7,,,,,,,,,,,,,,,,,,,,,,,,,1.481,2.409,123.66929499999969,None,124.20576300000539,124.72005320000608,124.70345200000156,124.82015740000497,124.70345200000156,124.82015740000497,124.80349260000366,None,m,1,0.8531237999995938,124.80349260000366,None,125.68728190000547,None,,,,,,,,,,,,,,,,,,,,,,,,,,ppee2,2022-08-16_11h07.01.910,training+cueing,2022.1.3,59.939497073239394,
Self.png,You,Self ,c,1,11,21,91,,,,,0,0,0,0,0,11,11,0,,,,,,,,,,,,,,,,,,,,,,,,,1.428,1.498,126.0877873999998,None,126.61739500000112,127.12185809999937,127.10514510000212,127.2052033,127.10514510000212,127.2052033,127.2052033,None,c,1,0.5962055999989389,127.2052033,None,127.82242050000059,None,,,,,,,,,,,,,,,,,,,,,,,,,,ppee2,2022-08-16_11h07.01.910,training+cueing,2022.1.3,59.939497073239394,
Stranger.png,Stranger,Stranger,c,3,13,23,93,,,,,0,0,0,0,,,,,0,0,0,8,,,,,,,,,,,,,,,,,,,268.74107670000376,None,1.454,1.323,272.24751050000486,None,,,,,,,,,,,,,,,,128.22277260000556,None,0.01631512000312796,None,272.86867590000475,273.3779785000006,0.5136946800121223,1.0140239800093696,273.36128100000496,273.47796070000186,273.36128100000496,273.47796070000186,273.46136190000107,None,c,1,1.2192619999987073,273.46136190000107,None,,,,,,,ppee2,2022-08-16_11h07.01.910,training+cueing,2022.1.3,59.939497073239394,
Friend.png,Friend,Friend,c,2,12,22,92,,,,,0,0,0,0,,,,,0,1,1,10,,,,,,,,,,,,,,,,,,,,,1.628,1.614,274.8152126999994,None,,,,,,,,,,,,,,,,,,,,275.3589734000052,275.86311320000095,0.5055132600027719,1.0058042600066983,275.8464247000011,275.9631965000008,275.8464247000011,275.9631965000008,275.94642269999895,None,m,0,0.8472162999969441,275.94642269999895,None,,,,,,,ppee2,2022-08-16_11h07.01.910,training+cueing,2022.1.3,59.939497073239394,
Self.png,Friend,Self ,m,2.1,16,26,96,,,,,0,0,0,0,,,,,0,2,2,1,,,,,,,,,,,,,,,,,,,,,1.515,2.053,276.91572210000595,None,,,,,,,,,,,,,,,,,,,,277.45757530000265,277.9646372999996,0.5116574599960586,1.011935659997107,277.9479704000041,278.0646684000021,277.9479704000041,278.0646684000021,278.0479680999997,None,c,0,0.44088339999871096,278.0479680999997,None,,,,,,,ppee2,2022-08-16_11h07.01.910,training+cueing,2022.1.3,59.939497073239394,
Self.png,You,Self ,c,1,11,21,91,,,,,0,0,0,0,,,,,0,3,3,0,,,,,,,,,,,,,,,,,,,,,1.563,1.61,278.6165719000055,None,,,,,,,,,,,,,,,,,,,,279.16056100000424,279.6658968000047,0.5060438599975896,1.0063373599987244,279.649182000001,279.74927420000313,279.649182000001,279.74927420000313,279.74927420000313,None,c,1,0.755982499998936,279.74927420000313,None,,,,,,,ppee2,2022-08-16_11h07.01.910,training+cueing,2022.1.3,59.939497073239394,
Self.png,Stranger,Self ,m,3.1,18,28,98,,,,,0,0,0,0,,,,,0,4,4,2,,,,,,,,,,,,,,,,,,,,,1.582,1.485,280.6346962000025,None,,,,,,,,,,,,,,,,,,,,281.1802744000015,281.6842733000012,0.5039965600080905,1.0053372600086732,281.66625130000466,281.78411620000406,281.66625130000466,281.78411620000406,281.7675357000044,None,m,1,1.0410102999958326,281.7675357000044,None,,,,,,,ppee2,2022-08-16_11h07.01.910,training+cueing,2022.1.3,59.939497073239394,
Stranger.png,You,Stranger,m,1.3,15,25,95,,,,,0,0,0,0,,,,,0,5,5,6,,,,,,,,,,,,,,,,,,,,,1.401,2.28,282.9383665999994,None,,,,,,,,,,,,,,,,,,,,283.4881084000008,284.0023835000029,0.5098315600043861,1.0099935600010213,283.98577460000524,284.0856935000047,283.98577460000524,284.0856935000047,284.0856935000047,None,m,1,0.9487510999970254,284.0856935000047,None,,,,,,,ppee2,2022-08-16_11h07.01.910,training+cueing,2022.1.3,59.939497073239394,
Stranger.png,Friend,Stranger,m,2.3,17,27,97,,,,,0,0,0,0,,,,,0,6,6,7,,,,,,,,,,,,,,,,,,,,,1.471,2.371,285.15468500000134,None,,,,,,,,,,,,,,,,,,,,285.6991526999991,286.20395600000484,0.5048173600007431,1.0050860600022133,286.1872689000011,286.3039953000043,286.1872689000011,286.3039953000043,286.2873044000007,None,None,0,,286.2873044000007,None,,,,,,,ppee2,2022-08-16_11h07.01.910,training+cueing,2022.1.3,59.939497073239394,
Friend.png,Friend,Friend,c,2,12,22,92,,,,,0,0,0,0,,,,,0,7,7,4,,,,,,,,,,,,,,,,,,,,,1.413,1.308,287.8730951000034,None,,,,,,,,,,,,,,,,,,,,288.40991300000314,288.9225663000034,0.5061254600077518,1.0063288600067608,288.9059305000046,289.0226567999998,288.9059305000046,289.0226567999998,289.00590890000603,None,m,0,1.2913403999918955,289.00590890000603,None,,,,,,,ppee2,2022-08-16_11h07.01.910,training+cueing,2022.1.3,59.939497073239394,
Stranger.png,Stranger,Stranger,c,3,13,23,93,,,,,0,0,0,0,,,,,0,8,8,11,,,,,,,,,,,,,,,,,,,,,1.797,1.499,290.4259435000058,None,,,,,,,,,,,,,,,,,,,,290.96923909999896,291.47445940000034,0.5053813599952264,1.0056468599941581,291.45775590000267,291.57455800000025,291.45775590000267,291.57455800000025,291.5577607000014,None,m,0,1.203330600001209,291.5577607000014,None,,,,,,,ppee2,2022-08-16_11h07.01.910,training+cueing,2022.1.3,59.939497073239394,
Self.png,You,Self ,c,1,11,21,91,,,,,0,0,0,0,,,,,0,9,9,9,,,,,,,,,,,,,,,,,,,,,1.436,1.25,292.8939769999997,None,,,,,,,,,,,,,,,,,,,,293.4400367000053,293.9429405000046,0.5033544600009918,1.0036474600055953,293.9262214000046,294.0262434000033,293.9262214000046,294.0262434000033,294.0262434000033,None,c,1,0.5745916000014404,294.0262434000033,None,,,,,,,ppee2,2022-08-16_11h07.01.910,training+cueing,2022.1.3,59.939497073239394,
Friend.png,You,Friend,m,1.2,14,24,94,,,,,0,0,0,0,,,,,0,10,10,3,,,,,,,,,,,,,,,,,,,,,1.497,1.572,294.7280713,None,,,,,,,,,,,,,,,,,,,,295.25455660000443,295.7609159000058,0.5101316599975689,1.0103798599957372,295.74423090000346,295.84438670000236,295.74423090000346,295.84438670000236,295.84438670000236,None,m,1,1.0445075999959954,295.84438670000236,None,,,,,,,ppee2,2022-08-16_11h07.01.910,training+cueing,2022.1.3,59.939497073239394,
Friend.png,Stranger,Friend,m,3.2,19,29,99,,,,,0,0,0,0,,,,,0,11,11,5,,,,,,,,,,,,,,,,,,,,,1.418,1.782,297.0134324000028,None,,,,,,,,,,,,,,,,,,,,297.55826030000026,298.0626101000016,0.5038960599995335,1.0041660599963507,298.04587660000107,298.16269280000415,298.04587660000107,298.16269280000415,298.1458877000041,None,c,0,1.3508959999962826,298.1458877000041,None,,,,,,,ppee2,2022-08-16_11h07.01.910,training+cueing,2022.1.3,59.939497073239394,
Friend.png,You,Friend,m,1.2,14,24,94,,,,,0,0,0,0,,,,,1,0,12,3,,,,,,,,,,,,,,,,,,,,,1.738,2.496,299.61524950000603,None,,,,,,,,,,,,,,,,,,,,300.17132090000086,300.68119730000035,0.5006742600016878,1.0009414599990123,300.66453100000217,300.76451200000156,300.66453100000217,300.76451200000156,300.76451200000156,None,m,1,0.9245539999974426,300.76451200000156,None,,,,,,,ppee2,2022-08-16_11h07.01.910,training+cueing,2022.1.3,59.939497073239394,
Self.png,You,Self ,c,1,11,21,91,,,,,0,0,0,0,,,,,1,1,13,0,,,,,,,,,,,,,,,,,,,,,1.536,2.382,301.81765490000544,None,,,,,,,,,,,,,,,,,,,,302.3648194000052,302.86602900000435,0.49994545999652473,1.000244559996645,302.8494198000044,302.9494335000054,302.8494198000044,302.9494335000054,302.9494335000054,None,c,1,0.6121087999999872,302.9494335000054,None,,,,,,,ppee2,2022-08-16_11h07.01.910,training+cueing,2022.1.3,59.939497073239394,
Friend.png,Friend,Friend,c,2,12,22,92,,,,,0,0,0,0,,,,,1,2,14,4,,,,,,,,,,,,,,,,,,,,,1.678,1.235,303.68512349999946,None,,,,,,,,,,,,,,,,,,,,304.2296237000046,304.7340375000058,0.5050907600016217,1.0054504600047949,304.7174057000011,304.8342804999993,304.7174057000011,304.8342804999993,304.81743040000583,None,c,1,1.0311778999966918,304.81743040000583,None,,,,,,,ppee2,2022-08-16_11h07.01.910,training+cueing,2022.1.3,59.939497073239394,
Stranger.png,Stranger,Stranger,c,3,13,23,93,,,,,0,0,0,0,,,,,1,3,15,11,,,,,,,,,,,,,,,,,,,,,1.455,1.79,305.96998330000497,None,,,,,,,,,,,,,,,,,,,,306.51759660000243,307.0193939000019,0.5012175599986222,1.0009629600026528,307.00284630000533,307.1191336000047,307.00284630000533,307.1191336000047,307.1191336000047,None,c,1,0.9863097999914316,307.1191336000047,None,,,,,,,ppee2,2022-08-16_11h07.01.910,training+cueing,2022.1.3,59.939497073239394,
Friend.png,Friend,Friend,c,2,12,22,92,,,,,0,0,0,0,,,,,1,4,16,10,,,,,,,,,,,,,,,,,,,,,1.761,1.399,308.2380854000003,None,,,,,,,,,,,,,,,,,,,,308.7827411000035,309.28736260000005,0.5044735600095009,1.004763560005813,309.27075239999976,309.38742679999996,309.27075239999976,309.38742679999996,309.3708022999999,None,m,0,1.215703299996676,309.3708022999999,None,,,,,,,ppee2,2022-08-16_11h07.01.910,training+cueing,2022.1.3,59.939497073239394,
Stranger.png,Stranger,Stranger,c,3,13,23,93,,,,,0,0,0,0,,,,,1,5,17,8,,,,,,,,,,,,,,,,,,,,,1.498,1.861,310.7065935999999,None,,,,,,,,,,,,,,,,,,,,311.2530992000029,311.7558002000005,0.5036994599940954,1.004024659996503,311.7391837000032,311.85588540000026,311.7391837000032,311.85588540000026,311.8393694000042,None,c,1,1.3537385999952676,311.8393694000042,None,,,,,,,ppee2,2022-08-16_11h07.01.910,training+cueing,2022.1.3,59.939497073239394,
Self.png,Stranger,Self ,m,3.1,18,28,98,,,,,0,0,0,0,,,,,1,6,18,2,,,,,,,,,,,,,,,,,,,,,1.516,1.659,313.3251713999998,None,,,,,,,,,,,,,,,,,,,,313.86740770000324,314.37446120000095,0.5116725600018981,1.011954860005062,314.3577817000041,314.4744712000029,314.3577817000041,314.4744712000029,314.45774650000385,None,c,0,0.5588266999984626,314.45774650000385,None,,,,,,,ppee2,2022-08-16_11h07.01.910,training+cueing,2022.1.3,59.939497073239394,
Self.png,You,Self ,c,1,11,21,91,,,,,0,0,0,0,,,,,1,7,19,9,,,,,,,,,,,,,,,,,,,,,1.648,2.427,315.1431359000053,None,,,,,,,,,,,,,,,,,,,,315.6872833000016,316.19258130000526,0.5060622599994531,1.0059052599972347,316.1761967000057,316.27577230000315,316.1761967000057,316.27577230000315,316.27577230000315,None,c,1,0.7415155999988201,316.27577230000315,None,,,,,,,ppee2,2022-08-16_11h07.01.910,training+cueing,2022.1.3,59.939497073239394,
Self.png,Friend,Self ,m,2.1,16,26,96,,,,,0,0,0,0,,,,,1,8,20,1,,,,,,,,,,,,,,,,,,,,,1.46,1.701,317.14429300000484,None,,,,,,,,,,,,,,,,,,,,317.67369619999954,318.17713590000494,0.5044584600036615,1.0047277600024245,318.1605364999996,318.277213500005,318.1605364999996,318.277213500005,318.2605330000006,None,m,1,0.900139899997157,318.2605330000006,None,,,,,,,ppee2,2022-08-16_11h07.01.910,training+cueing,2022.1.3,59.939497073239394,
Stranger.png,Friend,Stranger,m,2.3,17,27,97,,,,,0,0,0,0,,,,,1,9,21,7,,,,,,,,,,,,,,,,,,,,,1.429,1.365,319.27955840000504,None,,,,,,,,,,,,,,,,,,,,319.82159140000294,320.3287302000026,0.5117151599988574,1.0119247600014205,320.3121406999999,320.42875600000116,320.3121406999999,320.42875600000116,320.41208480000205,None,m,1,1.3890496999956667,320.41208480000205,None,,,,,,,ppee2,2022-08-16_11h07.01.910,training+cueing,2022.1.3,59.939497073239394,
Stranger.png,You,Stranger,m,1.3,15,25,95,,,,,0,0,0,0,,,,,1,10,22,6,,,,,,,,,,,,,,,,,,,,,1.44,1.807,321.93294590000005,None,,,,,,,,,,,,,,,,,,,,322.47503270000016,322.980676500003,0.5064575600044918,1.0075631600047927,322.96399720000045,323.06412970000383,322.96399720000045,323.06412970000383,323.06412970000383,None,m,1,1.1371808999974746,323.06412970000383,None,,,,,,,ppee2,2022-08-16_11h07.01.910,training+cueing,2022.1.3,59.939497073239394,
Friend.png,Stranger,Friend,m,3.2,19,29,99,,,,,0,0,0,0,,,,,1,11,23,5,,,,,,,,,,,,,,,,,,,,,1.642,1.819,324.33269940000173,None,,,,,,,,,,,,,,,,,,,,324.86331440000504,325.36576230000355,0.5031854600019869,1.0037535600058618,325.3489952000018,325.46585320000304,325.3489952000018,325.46585320000304,325.44904240000324,None,c,0,0.8797456999964197,325.44904240000324,None,,,,,,,ppee2,2022-08-16_11h07.01.910,training+cueing,2022.1.3,59.939497073239394,
Self.png,You,Self ,c,1,11,21,91,,,,,0,0,0,0,,,,,2,0,24,0,,,,,,,,,,,,,,,,,,,,,1.42,1.505,326.45146670000395,None,,,,,,,,,,,,,,,,,,,,326.9947319999992,327.50060099999973,0.50685736000014,1.0071694599973853,327.4839487999998,327.5840174000041,327.4839487999998,327.5840174000041,327.5840174000041,None,c,1,0.7454381999996258,327.5840174000041,None,,,,,,,ppee2,2022-08-16_11h07.01.910,training+cueing,2022.1.3,59.939497073239394,
Friend.png,Friend,Friend,c,2,12,22,92,,,,,0,0,0,0,,,,,2,1,25,10,,,,,,,,,,,,,,,,,,,,,1.594,1.68,328.45265250000375,None,,,,,,,,,,,,,,,,,,,,328.98126030000276,329.48541190000105,0.5057618600112619,1.0059426600055303,329.4687908000051,329.5855034000051,329.4687908000051,329.5855034000051,329.5687195999999,None,c,1,1.3358405999970273,329.5687195999999,None,,,,,,,ppee2,2022-08-16_11h07.01.910,training+cueing,2022.1.3,59.939497073239394,
Self.png,Friend,Self ,m,2.1,16,26,96,,,,,0,0,0,0,,,,,2,2,26,1,,,,,,,,,,,,,,,,,,,,,1.506,2.041,331.03796610000427,None,,,,,,,,,,,,,,,,,,,,331.5806408999997,332.0873176000023,0.5106448600054136,1.0108345600019675,332.07070390000445,332.187356500006,332.07070390000445,332.187356500006,332.1706934000031,None,c,0,0.6395859999975073,332.1706934000031,None,,,,,,,ppee2,2022-08-16_11h07.01.910,training+cueing,2022.1.3,59.939497073239394,
Stranger.png,You,Stranger,m,1.3,15,25,95,,,,,0,0,0,0,,,,,2,3,27,6,,,,,,,,,,,,,,,,,,,,,1.706,1.601,332.93989860000147,None,,,,,,,,,,,,,,,,,,,,333.4851778000011,333.9886412000051,0.5023745599974063,1.0026442599992151,333.97198840000055,334.07206280000537,333.97198840000055,334.07206280000537,334.07206280000537,None,m,1,0.8009579999998095,334.07206280000537,None,,,,,,,ppee2,2022-08-16_11h07.01.910,training+cueing,2022.1.3,59.939497073239394,
Self.png,You,Self ,c,1,11,21,91,,,,,0,0,0,0,,,,,2,4,28,9,,,,,,,,,,,,,,,,,,,,,1.764,1.896,335.00737030000164,None,,,,,,,,,,,,,,,,,,,,335.5335877000034,336.04016980000597,0.5105447600071784,1.0107515600029728,336.02352149999933,336.12350460000016,336.02352149999933,336.12350460000016,336.12350460000016,None,c,1,0.6215522999991663,336.12350460000016,None,,,,,,,ppee2,2022-08-16_11h07.01.910,training+cueing,2022.1.3,59.939497073239394,
Friend.png,You,Friend,m,1.2,14,24,94,,,,,0,0,0,0,,,,,2,5,29,3,,,,,,,,,,,,,,,,,,,,,1.675,1.885,336.8764239000011,None,,,,,,,,,,,,,,,,,,,,337.42665549999947,337.94158679999964,0.5104834599987953,1.0108541599984164,337.9248823000016,338.0249193000054,337.9248823000016,338.0249193000054,338.0249193000054,None,m,1,0.7680831999969087,338.0249193000054,None,,,,,,,ppee2,2022-08-16_11h07.01.910,training+cueing,2022.1.3,59.939497073239394,
Friend.png,Friend,Friend,c,2,12,22,92,,,,,0,0,0,0,,,,,2,6,30,4,,,,,,,,,,,,,,,,,,,,,1.545,1.956,338.92851090000477,None,,,,,,,,,,,,,,,,,,,,339.4716464000012,339.9764138000028,0.5057169600040652,1.0059905600064667,339.95970330000273,340.07636990000174,339.95970330000273,340.07636990000174,340.05966450000415,None,c,1,1.0057018999941647,340.05966450000415,None,,,,,,,ppee2,2022-08-16_11h07.01.910,training+cueing,2022.1.3,59.939497073239394,
Stranger.png,Stranger,Stranger,c,3,13,23,93,,,,,0,0,0,0,,,,,2,7,31,8,,,,,,,,,,,,,,,,,,,,,1.746,1.555,341.19531120000465,None,,,,,,,,,,,,,,,,,,,,341.74123650000547,342.2446856000024,0.5043677600042429,1.0047336600036942,342.22800120000466,342.34480050000275,342.22800120000466,342.34480050000275,342.32799440000235,None,m,0,0.9288351999930455,342.32799440000235,None,,,,,,,ppee2,2022-08-16_11h07.01.910,training+cueing,2022.1.3,59.939497073239394,
Stranger.png,Friend,Stranger,m,2.3,17,27,97,,,,,0,0,0,0,,,,,2,8,32,7,,,,,,,,,,,,,,,,,,,,,1.599,1.518,343.38062139999965,None,,,,,,,,,,,,,,,,,,,,343.92389320000075,344.4297450000013,0.5067754600095213,1.006763460005459,344.4131290000005,344.52963250000175,344.4131290000005,344.52963250000175,344.5128773000033,None,m,1,1.225488599993696,344.5128773000033,None,,,,,,,ppee2,2022-08-16_11h07.01.910,training+cueing,2022.1.3,59.939497073239394,
Self.png,Stranger,Self ,m,3.1,18,28,98,,,,,0,0,0,0,,,,,2,9,33,2,,,,,,,,,,,,,,,,,,,,,1.415,2.168,345.86723370000254,None,,,,,,,,,,,,,,,,,,,,346.4132127000048,346.91470259999915,0.5008820599978208,1.0011071600019932,346.8980661000023,347.01485640000465,346.8980661000023,347.01485640000465,347.01485640000465,None,m,1,1.04209969999647,347.01485640000465,None,,,,,,,ppee2,2022-08-16_11h07.01.910,training+cueing,2022.1.3,59.939497073239394,
Friend.png,Stranger,Friend,m,3.2,19,29,99,,,,,0,0,0,0,,,,,2,10,34,5,,,,,,,,,,,,,,,,,,,,,1.655,2.008,348.18585480000183,None,,,,,,,,,,,,,,,,,,,,348.7260688000024,349.2330554,0.511380760006432,1.0114928600014537,349.21657640000194,349.3331221000044,349.21657640000194,349.3331221000044,349.31647180000436,None,c,0,1.444776099990122,349.31647180000436,None,,,,,,,ppee2,2022-08-16_11h07.01.910,training+cueing,2022.1.3,59.939497073239394,
Stranger.png,Stranger,Stranger,c,3,13,23,93,,,,,0,0,0,0,,,,,2,11,35,11,,,,,,,,,,,,,,,,,,,,,1.603,2.084,350.88727859999926,None,,,,,,,,,,,,,,,,,,,,351.4268293000059,351.935011900001,0.5115324599901214,1.011823059991002,351.9184124000021,352.03508390000206,351.9184124000021,352.03508390000206,352.01839850000397,None,c,1,0.9663665999978548,352.01839850000397,None,,,,,,,ppee2,2022-08-16_11h07.01.910,training+cueing,2022.1.3,59.939497073239394,
Stranger.png,Stranger,Stranger,c,3,13,23,93,,,,,0,0,0,0,,,,,3,0,36,8,,,,,,,,,,,,,,,,,,,,,1.79,1.316,353.1038935000033,None,,,,,,,,,,,,,,,,,,,,353.63053980000404,354.1371961000041,0.5102723599993624,1.010206359998847,354.12052020000556,354.2368325999996,354.12052020000556,354.2368325999996,354.22015490000194,None,c,1,1.0204234999910113,354.22015490000194,None,,,,,,,ppee2,2022-08-16_11h07.01.910,training+cueing,2022.1.3,59.939497073239394,
Friend.png,Friend,Friend,c,2,12,22,92,,,,,0,0,0,0,,,,,3,1,37,4,,,,,,,,,,,,,,,,,,,,,1.754,2.139,355.37345800000185,None,,,,,,,,,,,,,,,,,,,,355.91733390000445,356.42167150000023,0.506310159995337,1.0066956599985133,356.4049759000045,356.52189440000075,356.4049759000045,356.52189440000075,356.5056618000017,None,m,0,1.3447145999962231,356.5056618000017,None,,,,,,,ppee2,2022-08-16_11h07.01.910,training+cueing,2022.1.3,59.939497073239394,
Stranger.png,Stranger,Stranger,c,3,13,23,93,,,,,0,0,0,0,,,,,3,2,38,11,,,,,,,,,,,,,,,,,,,,,1.666,2.439,357.9746630000009,None,,,,,,,,,,,,,,,,,,,,358.5190261000025,359.0235935000019,0.5044617599996855,1.0047144600030151,359.00689050000074,359.12355290000414,359.00689050000074,359.12355290000414,359.1068729000035,None,None,0,,359.1068729000035,None,,,,,,,ppee2,2022-08-16_11h07.01.910,training+cueing,2022.1.3,59.939497073239394,
Self.png,You,Self ,c,1,11,21,91,,,,,0,0,0,0,,,,,3,3,39,0,,,,,,,,,,,,,,,,,,,,,1.666,2.326,360.8766054000007,None,,,,,,,,,,,,,,,,,,,,361.4211254000038,361.9256325000024,0.5062983600000734,1.0066426600023988,361.9089568999989,362.0090727000061,361.9089568999989,362.0090727000061,362.0090727000061,None,c,1,0.5119611999980407,362.0090727000061,None,,,,,,,ppee2,2022-08-16_11h07.01.910,training+cueing,2022.1.3,59.939497073239394,
Stranger.png,You,Stranger,m,1.3,15,25,95,,,,,0,0,0,0,,,,,3,4,40,6,,,,,,,,,,,,,,,,,,,,,1.767,1.938,362.6442829000007,None,,,,,,,,,,,,,,,,,,,,363.18515789999947,363.6936082000029,0.5118607600015821,1.0121649599968805,363.6769043000022,363.7769699000055,363.6769043000022,363.7769699000055,363.7769699000055,None,m,1,1.2241371999989497,363.7769699000055,None,,,,,,,ppee2,2022-08-16_11h07.01.910,training+cueing,2022.1.3,59.939497073239394,
Self.png,Friend,Self ,m,2.1,16,26,96,,,,,0,0,0,0,,,,,3,5,41,1,,,,,,,,,,,,,,,,,,,,,1.634,2.486,365.1320106999992,None,,,,,,,,,,,,,,,,,,,,365.6774036000061,366.1787237000026,0.5003225600012229,1.0004700600038632,366.1621388000058,366.2787524000014,366.1621388000058,366.2787524000014,366.2787524000014,None,m,1,1.3784465999997337,366.2787524000014,None,,,,,,,ppee2,2022-08-16_11h07.01.910,training+cueing,2022.1.3,59.939497073239394,
Stranger.png,Friend,Stranger,m,2.3,17,27,97,,,,,0,0,0,0,,,,,3,6,42,7,,,,,,,,,,,,,,,,,,,,,1.634,1.86,367.7811031000019,None,,,,,,,,,,,,,,,,,,,,368.3077651000058,368.8139461000028,0.5099177599986433,1.0101766599982511,368.7972999000049,368.91410370000085,368.7972999000049,368.91410370000085,368.89732030000596,None,None,0,,368.89732030000596,None,,,,,,,ppee2,2022-08-16_11h07.01.910,training+cueing,2022.1.3,59.939497073239394,
Self.png,You,Self ,c,1,11,21,91,,,,,0,0,0,0,,,,,3,7,43,9,,,,,,,,,,,,,,,,,,,,,1.599,1.404,370.63280020000093,None,,,,,,,,,,,,,,,,,,,,371.1611009000044,371.6660924000025,0.5053644600120606,1.0056229600086226,371.64940390000265,371.749438800005,371.64940390000265,371.749438800005,371.749438800005,None,c,1,0.851426299996092,371.749438800005,None,,,,,,,ppee2,2022-08-16_11h07.01.910,training+cueing,2022.1.3,59.939497073239394,
Self.png,Stranger,Self ,m,3.1,18,28,98,,,,,0,0,0,0,,,,,3,8,44,2,,,,,,,,,,,,,,,,,,,,,1.457,1.445,372.73490429999947,None,,,,,,,,,,,,,,,,,,,,373.2814969000028,373.784284500005,0.5036822600013693,1.0044872600046801,373.7676756000001,373.8843405000007,373.7676756000001,373.8843405000007,373.86777680000523,None,m,1,0.9093397999968147,373.86777680000523,None,,,,,,,ppee2,2022-08-16_11h07.01.910,training+cueing,2022.1.3,59.939497073239394,
Friend.png,You,Friend,m,1.2,14,24,94,,,,,0,0,0,0,,,,,3,9,45,3,,,,,,,,,,,,,,,,,,,,,1.619,1.412,374.9046765000021,None,,,,,,,,,,,,,,,,,,,,375.44775859999936,375.9525131000046,0.5068239599931985,1.007054559995595,375.935859600002,376.0358856000021,375.935859600002,376.0358856000021,376.0358856000021,None,m,1,1.3819028999932925,376.0358856000021,None,,,,,,,ppee2,2022-08-16_11h07.01.910,training+cueing,2022.1.3,59.939497073239394,
Friend.png,Stranger,Friend,m,3.2,19,29,99,,,,,0,0,0,0,,,,,3,10,46,5,,,,,,,,,,,,,,,,,,,,,1.701,2.043,377.5401423000003,None,,,,,,,,,,,,,,,,,,,,378.085021400002,378.58772760000284,0.5014998599945102,1.001770859991666,378.5711183000021,378.68778759999987,378.5711183000021,378.68778759999987,378.68778759999987,None,m,1,1.3693053999959375,378.68778759999987,None,,,,,,,ppee2,2022-08-16_11h07.01.910,training+cueing,2022.1.3,59.939497073239394,
Friend.png,Friend,Friend,c,2,12,22,92,,,,,0,0,0,0,,,,,3,11,47,10,,,,,,,,,,,,,,,,,,,,,1.65,2.393,380.1902104000037,None,,,,,,,,,,,,,,,,,,,,380.7194563000012,381.22301320000406,0.5043898599979002,1.0046552599960705,381.2063224000012,381.32304770000337,381.2063224000012,381.32304770000337,381.30639240000164,None,c,1,1.6155470999947283,381.30639240000164,None,,,,,,,ppee2,2022-08-16_11h07.01.910,training+cueing,2022.1.3,59.939497073239394,
Self.png,You,Self ,c,1,11,21,91,,,,,0,0,0,0,,,,,4,0,48,9,,,,,,,,,,,,,,,,,,,,,1.489,1.714,383.0428863000052,None,,,,,,,,,,,,,,,,,,,,383.5962237000058,384.1083906000058,0.5028840600061812,1.0031983600056265,384.0917350000018,384.19182759999967,384.0917350000018,384.19182759999967,384.19182759999967,None,c,1,0.6172629999928176,384.19182759999967,None,,,,,,,ppee2,2022-08-16_11h07.01.910,training+cueing,2022.1.3,59.939497073239394,
Friend.png,Stranger,Friend,m,3.2,19,29,99,,,,,0,0,0,0,,,,,4,1,49,5,,,,,,,,,,,,,,,,,,,,,1.63,2.215,384.92776440000307,None,,,,,,,,,,,,,,,,,,,,385.4727223000009,385.976496400006,0.5052394600061234,1.0054268599997158,385.9598870000045,386.0765163000033,385.9598870000045,386.0765163000033,386.05983050000214,None,m,1,1.19673719999264,386.05983050000214,None,,,,,,,ppee2,2022-08-16_11h07.01.910,training+cueing,2022.1.3,59.939497073239394,
Stranger.png,Friend,Stranger,m,2.3,17,27,97,,,,,0,0,0,0,,,,,4,2,50,7,,,,,,,,,,,,,,,,,,,,,1.506,1.48,387.37876450000476,None,,,,,,,,,,,,,,,,,,,,387.90780050000467,388.411549000004,0.5050454599986551,1.0055051599993021,388.39483499999915,388.5115974,388.39483499999915,388.5115974,388.4948203000022,None,m,1,1.2105995000019902,388.4948203000022,None,,,,,,,ppee2,2022-08-16_11h07.01.910,training+cueing,2022.1.3,59.939497073239394,
Stranger.png,You,Stranger,m,1.3,15,25,95,,,,,0,0,0,0,,,,,4,3,51,6,,,,,,,,,,,,,,,,,,,,,1.492,2.186,389.8305260000052,None,,,,,,,,,,,,,,,,,,,,390.35996729999897,390.86345430000074,0.5020568599938997,1.0023616599937668,390.8466976999989,390.946721100001,390.8466976999989,390.946721100001,390.946721100001,None,c,0,1.0623436999958358,390.946721100001,None,,,,,,,ppee2,2022-08-16_11h07.01.910,training+cueing,2022.1.3,59.939497073239394,
Stranger.png,Stranger,Stranger,c,3,13,23,93,,,,,0,0,0,0,,,,,4,4,52,8,,,,,,,,,,,,,,,,,,,,,1.621,1.72,392.1322294999991,None,,,,,,,,,,,,,,,,,,,,392.6627854000035,393.1650370999996,0.5026969600075972,1.002936260010756,393.1483195000037,393.26511759999994,393.1483195000037,393.26511759999994,393.24836190000497,None,c,1,1.4321025000026566,393.24836190000497,None,,,,,,,ppee2,2022-08-16_11h07.01.910,training+cueing,2022.1.3,59.939497073239394,
Friend.png,Friend,Friend,c,2,12,22,92,,,,,0,0,0,0,,,,,4,5,53,10,,,,,,,,,,,,,,,,,,,,,1.719,1.47,394.8008665000016,None,,,,,,,,,,,,,,,,,,,,395.3303541999994,395.8354401000033,0.504115460003959,1.0209739600031753,395.8170081999997,395.933577900003,395.8170081999997,395.933577900003,395.916867800006,None,c,1,1.196688500000164,395.916867800006,None,,,,,,,ppee2,2022-08-16_11h07.01.910,training+cueing,2022.1.3,59.939497073239394,
Friend.png,Friend,Friend,c,2,12,22,92,,,,,0,0,0,0,,,,,4,6,54,4,,,,,,,,,,,,,,,,,,,,,1.745,1.945,397.2374579000025,None,,,,,,,,,,,,,,,,,,,,397.7889495999989,398.30206710000493,0.504808760000742,1.0050935600011144,398.2853679000036,398.40211740000086,398.2853679000036,398.40211740000086,398.3853805000035,None,c,1,1.0325353000007453,398.3853805000035,None,,,,,,,ppee2,2022-08-16_11h07.01.910,training+cueing,2022.1.3,59.939497073239394,
Self.png,You,Self ,c,1,11,21,91,,,,,0,0,0,0,,,,,4,7,55,0,,,,,,,,,,,,,,,,,,,,,1.787,1.974,399.53783939999994,None,,,,,,,,,,,,,,,,,,,,400.082642500005,400.58711010000115,0.5062225599976955,1.0065169599911314,400.57040500000585,400.67043209999974,400.57040500000585,400.67043209999974,400.67043209999974,None,c,1,0.442242899996927,400.67043209999974,None,,,,,,,ppee2,2022-08-16_11h07.01.910,training+cueing,2022.1.3,59.939497073239394,
Self.png,Stranger,Self ,m,3.1,18,28,98,,,,,0,0,0,0,,,,,4,8,56,2,,,,,,,,,,,,,,,,,,,,,1.791,2.195,401.2389456000019,None,,,,,,,,,,,,,,,,,,,,401.7854398000054,402.2883002000017,0.5012111600008211,1.0014997600010247,402.27164579999953,402.3883424000014,402.27164579999953,402.3883424000014,402.3883424000014,None,m,1,0.6618020999958389,402.3883424000014,None,,,,,,,ppee2,2022-08-16_11h07.01.910,training+cueing,2022.1.3,59.939497073239394,
Self.png,Friend,Self ,m,2.1,16,26,96,,,,,0,0,0,0,,,,,4,9,57,1,,,,,,,,,,,,,,,,,,,,,1.534,1.396,403.17361209999945,None,,,,,,,,,,,,,,,,,,,,403.7029588000005,404.2063416000019,0.5044130599999335,1.0046735600044485,404.1896882000001,404.30638790000376,404.1896882000001,404.30638790000376,404.28969280000456,None,m,1,1.032236599996395,404.28969280000456,None,,,,,,,ppee2,2022-08-16_11h07.01.910,training+cueing,2022.1.3,59.939497073239394,
Stranger.png,Stranger,Stranger,c,3,13,23,93,,,,,0,0,0,0,,,,,4,10,58,11,,,,,,,,,,,,,,,,,,,,,1.5,1.633,405.4421857000052,None,,,,,,,,,,,,,,,,,,,,405.9871784000061,406.49143890000414,0.5055959599922062,1.0058406599928276,406.474684300003,406.5913970000038,406.474684300003,406.5913970000038,406.57467120000365,None,c,1,1.3545014999981504,406.57467120000365,None,,,,,,,ppee2,2022-08-16_11h07.01.910,training+cueing,2022.1.3,59.939497073239394,
Friend.png,You,Friend,m,1.2,14,24,94,,,,,0,0,0,0,,,,,4,11,59,3,,,,,,,,,,,,,,,,,,,,,1.635,1.899,408.0606203999996,None,,,,,,,,,,,,,,,,,,,,408.6049894000025,409.11077070000465,0.5041729600052349,1.0053501600050367,409.0923108999996,409.1933575000003,409.0923108999996,409.1933575000003,409.1933575000003,None,m,1,1.0400913999983459,409.1933575000003,None,,,,,,,ppee2,2022-08-16_11h07.01.910,training+cueing,2022.1.3,59.939497073239394,
Self.png,You,Self ,c,1,11,21,91,,,,,0,0,0,0,,,,,5,0,60,9,,,,,,,,,,,,,,,,,,,,,1.777,1.866,410.36221740000474,None,,,,,,,,,,,,,,,,,,,,410.8882661000025,411.3948814000032,0.510978359998262,1.0112308600000688,411.37829480000073,411.4783094000013,411.37829480000073,411.4783094000013,411.4783094000013,None,c,1,0.46671219999552704,411.4783094000013,None,,,,,,,ppee2,2022-08-16_11h07.01.910,training+cueing,2022.1.3,59.939497073239394,
Friend.png,Friend,Friend,c,2,12,22,92,,,,,0,0,0,0,,,,,5,1,61,10,,,,,,,,,,,,,,,,,,,,,1.42,1.221,412.06358900000487,None,,,,,,,,,,,,,,,,,,,,412.6090286000035,413.1128128000055,0.5052583600045182,1.0064056600022013,413.0962043000036,413.2128997000036,413.0962043000036,413.2128997000036,413.1962330000024,None,c,1,0.812661299991305,413.1962330000024,None,,,,,,,ppee2,2022-08-16_11h07.01.910,training+cueing,2022.1.3,59.939497073239394,
Stranger.png,Stranger,Stranger,c,3,13,23,93,,,,,0,0,0,0,,,,,5,2,62,11,,,,,,,,,,,,,,,,,,,,,1.628,2.364,414.13164900000265,None,,,,,,,,,,,,,,,,,,,,414.6720927999995,415.18108550000034,0.5144860799991875,1.0147017800045433,415.16448080000555,415.2811132000061,415.16448080000555,415.2811132000061,415.2644272000034,None,c,1,0.809077799996885,415.2644272000034,None,,,,,,,ppee2,2022-08-16_11h07.01.910,training+cueing,2022.1.3,59.939497073239394,
Stranger.png,You,Stranger,m,1.3,15,25,95,,,,,0,0,0,0,,,,,5,3,63,6,,,,,,,,,,,,,,,,,,,,,1.422,1.516,416.19976800000586,None,,,,,,,,,,,,,,,,,,,,416.72869300000457,417.2324585000024,0.5052450599978329,1.0054462600019178,417.215866999999,417.3158534000031,417.215866999999,417.3158534000031,417.3158534000031,None,m,1,0.8213558999996167,417.3158534000031,None,,,,,,,ppee2,2022-08-16_11h07.01.910,training+cueing,2022.1.3,59.939497073239394,
Self.png,Stranger,Self ,m,3.1,18,28,98,,,,,0,0,0,0,,,,,5,4,64,2,,,,,,,,,,,,,,,,,,,,,1.665,1.529,418.267855099999,None,,,,,,,,,,,,,,,,,,,,418.7970013000013,419.3007269000009,0.5026688600046327,1.002867460003472,419.2841535000043,419.40085890000046,419.2841535000043,419.40085890000046,419.3841926000023,None,m,1,1.2331195999940974,419.3841926000023,None,,,,,,,ppee2,2022-08-16_11h07.01.910,training+cueing,2022.1.3,59.939497073239394,
Stranger.png,Stranger,Stranger,c,3,13,23,93,,,,,0,0,0,0,,,,,5,5,65,8,,,,,,,,,,,,,,,,,,,,,1.607,1.25,420.736828699999,None,,,,,,,,,,,,,,,,,,,,421.27904610000405,421.7858631000054,0.5107164599976386,1.0110003599984339,421.76910180000414,421.88597100000334,421.76910180000414,421.88597100000334,421.86916439999914,None,m,0,0.8125589999981457,421.86916439999914,None,,,,,,,ppee2,2022-08-16_11h07.01.910,training+cueing,2022.1.3,59.939497073239394,
Friend.png,Friend,Friend,c,2,12,22,92,,,,,0,0,0,0,,,,,5,6,66,4,,,,,,,,,,,,,,,,,,,,,1.525,1.489,422.8045665000027,None,,,,,,,,,,,,,,,,,,,,423.3505526000008,423.8539776000034,0.504485460005526,1.0049073600021075,423.83725050000066,423.9540710000001,423.83725050000066,423.9540710000001,423.9372843000019,None,c,1,1.1117727999953786,423.9372843000019,None,,,,,,,ppee2,2022-08-16_11h07.01.910,training+cueing,2022.1.3,59.939497073239394,
Self.png,You,Self ,c,1,11,21,91,,,,,0,0,0,0,,,,,5,7,67,0,,,,,,,,,,,,,,,,,,,,,1.53,1.606,425.1729653000002,None,,,,,,,,,,,,,,,,,,,,425.7028777000014,426.2057463000019,0.5012947599971085,1.0016013600034057,426.18896560000576,426.28900050000084,426.18896560000576,426.28900050000084,426.28900050000084,None,c,1,0.5679014999986975,426.28900050000084,None,,,,,,,ppee2,2022-08-16_11h07.01.910,training+cueing,2022.1.3,59.939497073239394,
Stranger.png,Friend,Stranger,m,2.3,17,27,97,,,,,0,0,0,0,,,,,5,8,68,7,,,,,,,,,,,,,,,,,,,,,1.748,1.676,426.99124940000183,None,,,,,,,,,,,,,,,,,,,,427.53637990000425,428.04037550000066,0.5055405599996448,1.0057180599978892,428.0237488000057,428.1404154000047,428.0237488000057,428.1404154000047,428.12371050000365,None,c,0,1.4532034999938332,428.12371050000365,None,,,,,,,ppee2,2022-08-16_11h07.01.910,training+cueing,2022.1.3,59.939497073239394,
Friend.png,Stranger,Friend,m,3.2,19,29,99,,,,,0,0,0,0,,,,,5,9,69,5,,,,,,,,,,,,,,,,,,,,,1.696,1.518,429.70961720000196,None,,,,,,,,,,,,,,,,,,,,430.2552066999997,430.7589788000041,0.5048091600037878,1.0050732600066112,430.74233000000095,430.8590092000013,430.74233000000095,430.8590092000013,430.84235090000584,None,m,1,0.9903983999975026,430.84235090000584,None,,,,,,,ppee2,2022-08-16_11h07.01.910,training+cueing,2022.1.3,59.939497073239394,
Friend.png,You,Friend,m,1.2,14,24,94,,,,,0,0,0,0,,,,,5,10,70,3,,,,,,,,,,,,,,,,,,,,,1.76,2.299,431.961544100006,None,,,,,,,,,,,,,,,,,,,,432.50566940000135,433.01061290000507,0.5060451600002125,1.0063019599983818,432.99396980000165,433.0940372000041,432.99396980000165,433.0940372000041,433.0940372000041,None,m,1,1.2033478999946965,433.0940372000041,None,,,,,,,ppee2,2022-08-16_11h07.01.910,training+cueing,2022.1.3,59.939497073239394,
Self.png,Friend,Self ,m,2.1,16,26,96,,,,,0,0,0,0,,,,,5,11,71,1,,,,,,,,,,,,,,,,,,,,,1.412,1.998,434.42961330000253,None,,,,,,,,,,,,,,,,,,,,434.958552300006,435.4623739000017,0.5054693599959137,1.0057581599976402,435.4457495000024,435.56244400000287,435.4457495000024,435.56244400000287,435.5457475000003,None,m,1,0.8951540999987628,435.5457475000003,None,,,,,,,ppee2,2022-08-16_11h07.01.910,training+cueing,2022.1.3,59.939497073239394,
Stranger.png,Stranger,Stranger,c,3,13,23,93,,,,,0,0,0,0,,,,,6,0,72,11,,,,,,,,,,,,,,,,,,,,,1.575,1.358,436.56558770000265,None,,,,,,,,,,,,,,,,,,,,437.1109970000034,437.6139928000048,0.5015115599962883,1.0017060600002878,437.5973449000012,437.7140872000018,437.5973449000012,437.7140872000018,437.7140872000018,None,c,1,1.1107654999941587,437.7140872000018,None,,,,,,,ppee2,2022-08-16_11h07.01.910,training+cueing,2022.1.3,59.939497073239394,
Self.png,Friend,Self ,m,2.1,16,26,96,,,,,0,0,0,0,,,,,6,1,73,1,,,,,,,,,,,,,,,,,,,,,1.691,1.779,438.94997920000606,None,,,,,,,,,,,,,,,,,,,,439.4955240999989,439.999011800006,0.5042412600014359,1.0045104600067134,439.9823901999989,440.0990785000031,439.9823901999989,440.0990785000031,440.0823856999996,None,c,0,0.6154667000009795,440.0823856999996,None,,,,,,,ppee2,2022-08-16_11h07.01.910,training+cueing,2022.1.3,59.939497073239394,
Friend.png,You,Friend,m,1.2,14,24,94,,,,,0,0,0,0,,,,,6,2,74,3,,,,,,,,,,,,,,,,,,,,,1.569,1.719,440.8175094000035,None,,,,,,,,,,,,,,,,,,,,441.3466750000007,441.8503961000024,0.5048478600001545,1.0052093600024818,441.8337214999992,441.93388720000075,441.8337214999992,441.93388720000075,441.93388720000075,None,m,1,0.731625599997642,441.93388720000075,None,,,,,,,ppee2,2022-08-16_11h07.01.910,training+cueing,2022.1.3,59.939497073239394,
Stranger.png,Friend,Stranger,m,2.3,17,27,97,,,,,0,0,0,0,,,,,6,3,75,7,,,,,,,,,,,,,,,,,,,,,1.544,2.49,442.78690030000143,None,,,,,,,,,,,,,,,,,,,,443.33043739999994,443.835141800002,0.504589260002831,1.0048945600065053,443.8184365000052,443.93514430000505,443.8184365000052,443.93514430000505,443.918462200003,None,c,0,1.4994094999929075,443.918462200003,None,,,,,,,ppee2,2022-08-16_11h07.01.910,training+cueing,2022.1.3,59.939497073239394,
Stranger.png,Stranger,Stranger,c,3,13,23,93,,,,,0,0,0,0,,,,,6,4,76,8,,,,,,,,,,,,,,,,,,,,,1.642,2.359,445.5378838000033,None,,,,,,,,,,,,,,,,,,,,446.08362680000573,446.5871158000009,0.5047539600054733,1.0050255600071978,446.57046330000594,446.68722560000606,446.57046330000594,446.68722560000606,446.6705509000021,None,c,1,1.3547853999989456,446.6705509000021,None,,,,,,,ppee2,2022-08-16_11h07.01.910,training+cueing,2022.1.3,59.939497073239394,
Self.png,You,Self ,c,1,11,21,91,,,,,0,0,0,0,,,,,6,5,77,9,,,,,,,,,,,,,,,,,,,,,1.748,2.254,448.15660280000156,None,,,,,,,,,,,,,,,,,,,,448.70102910000423,449.2057378000027,0.5066844600005425,1.0069900599992252,449.1890185000011,449.28905400000076,449.1890185000011,449.28905400000076,449.28905400000076,None,c,1,0.52844969999569,449.28905400000076,None,,,,,,,ppee2,2022-08-16_11h07.01.910,training+cueing,2022.1.3,59.939497073239394,
Friend.png,Stranger,Friend,m,3.2,19,29,99,,,,,0,0,0,0,,,,,6,6,78,5,,,,,,,,,,,,,,,,,,,,,1.632,1.958,449.94169910000346,None,,,,,,,,,,,,,,,,,,,,450.48582150000584,450.99034519999987,0.5044009599951096,1.0046612599981017,450.97370480000245,451.0903643999991,450.97370480000245,451.0903643999991,451.07367879999947,None,None,0,,451.07367879999947,None,,,,,,,ppee2,2022-08-16_11h07.01.910,training+cueing,2022.1.3,59.939497073239394,
Friend.png,Friend,Friend,c,2,12,22,92,,,,,0,0,0,0,,,,,6,7,79,10,,,,,,,,,,,,,,,,,,,,,1.473,1.903,452.80972280000424,None,,,,,,,,,,,,,,,,,,,,453.3553677000018,453.8590780000013,0.5050383600027999,1.0053447600002983,453.84248270000535,453.95910350000486,453.84248270000535,453.95910350000486,453.94247620000533,None,m,0,1.0108716999966418,453.94247620000533,None,,,,,,,ppee2,2022-08-16_11h07.01.910,training+cueing,2022.1.3,59.939497073239394,
Stranger.png,You,Stranger,m,1.3,15,25,95,,,,,0,0,0,0,,,,,6,8,80,6,,,,,,,,,,,,,,,,,,,,,1.726,1.296,455.0781166000015,None,,,,,,,,,,,,,,,,,,,,455.62262550000014,456.1274587000007,0.5044994600029895,1.0048044600043795,456.110714500006,456.2107965000032,456.110714500006,456.2107965000032,456.2107965000032,None,m,1,1.4474803999983124,456.2107965000032,None,,,,,,,ppee2,2022-08-16_11h07.01.910,training+cueing,2022.1.3,59.939497073239394,
Friend.png,Friend,Friend,c,2,12,22,92,,,,,0,0,0,0,,,,,6,9,81,4,,,,,,,,,,,,,,,,,,,,,1.533,1.53,457.7798318000059,None,,,,,,,,,,,,,,,,,,,,458.30953489999956,458.8127222000039,0.5040955600052257,1.0043273600022076,458.7960672000045,458.91276530000323,458.7960672000045,458.91276530000323,458.8962352000017,None,c,1,1.0487257999993744,458.8962352000017,None,,,,,,,ppee2,2022-08-16_11h07.01.910,training+cueing,2022.1.3,59.939497073239394,
Self.png,You,Self ,c,1,11,21,91,,,,,0,0,0,0,,,,,6,10,82,0,,,,,,,,,,,,,,,,,,,,,1.612,2.165,460.0649601000041,None,,,,,,,,,,,,,,,,,,,,460.61162080000213,461.11431180000363,0.5033519600037835,1.0036743600066984,461.09773549999954,461.1977329000001,461.09773549999954,461.1977329000001,461.1977329000001,None,c,1,0.49119749999954365,461.1977329000001,None,,,,,,,ppee2,2022-08-16_11h07.01.910,training+cueing,2022.1.3,59.939497073239394,
Self.png,Stranger,Self ,m,3.1,18,28,98,,,,,0,0,0,0,,,,,6,11,83,2,,,,,,,,,,,,,,,,,,,,,1.546,1.661,461.81630289999885,None,,,,,,,,,,,,,,,,,,,,462.36143950000405,462.8656351000027,0.5038897600024939,1.0042145600018557,462.84892270000273,462.965683800001,462.84892270000273,462.965683800001,462.9489803000033,None,m,1,0.9485543999908259,462.9489803000033,None,,,,,,,ppee2,2022-08-16_11h07.01.910,training+cueing,2022.1.3,59.939497073239394,
Friend.png,Friend,Friend,c,2,12,22,92,,,,,0,0,0,0,,,,,7,0,84,4,,,,,,,,,,,,,,,,,,,,,1.764,1.859,464.0192973000012,None,,,,,,,,,,,,,,,,,,,,464.5634557000012,465.06729720000294,0.5052493600014714,1.0055284600020968,465.0505495000034,465.1672527000046,465.0505495000034,465.1672527000046,465.1506029000011,None,c,1,0.8263147999969078,465.1506029000011,None,,,,,,,ppee2,2022-08-16_11h07.01.910,training+cueing,2022.1.3,59.939497073239394,
Self.png,You,Self ,c,1,11,21,91,,,,,0,0,0,0,,,,,7,1,85,9,,,,,,,,,,,,,,,,,,,,,1.534,1.593,466.10320219999994,None,,,,,,,,,,,,,,,,,,,,466.6483135000017,467.1520976000029,0.505028460000176,1.0054666600044584,467.13538790000166,467.23549710000225,467.13538790000166,467.23549710000225,467.23549710000225,None,c,1,0.5332417999961763,467.23549710000225,None,,,,,,,ppee2,2022-08-16_11h07.01.910,training+cueing,2022.1.3,59.939497073239394,
Stranger.png,Stranger,Stranger,c,3,13,23,93,,,,,0,0,0,0,,,,,7,2,86,11,,,,,,,,,,,,,,,,,,,,,1.715,1.262,467.88751980000234,None,,,,,,,,,,,,,,,,,,,,468.4325761,468.93675610000355,0.504384959996969,1.0046162599974195,468.9200609000036,469.0368047000011,468.9200609000036,469.0368047000011,469.020079599999,None,c,1,1.4696619999958784,469.020079599999,None,,,,,,,ppee2,2022-08-16_11h07.01.910,training+cueing,2022.1.3,59.939497073239394,
Friend.png,Friend,Friend,c,2,12,22,92,,,,,0,0,0,0,,,,,7,3,87,10,,,,,,,,,,,,,,,,,,,,,1.556,1.568,470.6230322000047,None,,,,,,,,,,,,,,,,,,,,471.1677481000006,471.6722690000024,0.5059426600055303,1.0061187600076664,471.655413600005,471.7721156000043,471.655413600005,471.7721156000043,471.75535189999937,None,c,1,0.8616434999930789,471.75535189999937,None,,,,,,,ppee2,2022-08-16_11h07.01.910,training+cueing,2022.1.3,59.939497073239394,
Self.png,You,Self ,c,1,11,21,91,,,,,0,0,0,0,,,,,7,4,88,0,,,,,,,,,,,,,,,,,,,,,1.424,2.356,472.7406833000059,None,,,,,,,,,,,,,,,,,,,,473.2686201000033,473.77360440000484,0.5050097600033041,1.005267560001812,473.75690400000167,473.8569537000003,473.75690400000167,473.8569537000003,473.8569537000003,None,c,1,0.4410799999968731,473.8569537000003,None,,,,,,,ppee2,2022-08-16_11h07.01.910,training+cueing,2022.1.3,59.939497073239394,
Stranger.png,Friend,Stranger,m,2.3,17,27,97,,,,,0,0,0,0,,,,,7,5,89,7,,,,,,,,,,,,,,,,,,,,,1.609,2.237,474.4253405000054,None,,,,,,,,,,,,,,,,,,,,474.953954800003,475.4583879000056,0.505771360003564,1.0061099600061425,475.441530300006,475.55820089999906,475.441530300006,475.55820089999906,475.54153130000486,None,m,1,1.1074461999960477,475.54153130000486,None,,,,,,,ppee2,2022-08-16_11h07.01.910,training+cueing,2022.1.3,59.939497073239394,
Stranger.png,Stranger,Stranger,c,3,13,23,93,,,,,0,0,0,0,,,,,7,6,90,8,,,,,,,,,,,,,,,,,,,,,1.776,1.356,476.7772038000039,None,,,,,,,,,,,,,,,,,,,,477.3233423999991,477.8265002000044,0.5040945600048872,1.0043608600026346,477.8099074000056,477.9265472000043,477.8099074000056,477.9265472000043,477.9098636999988,None,m,0,1.0431764999957522,477.9098636999988,None,,,,,,,ppee2,2022-08-16_11h07.01.910,training+cueing,2022.1.3,59.939497073239394,
Friend.png,Stranger,Friend,m,3.2,19,29,99,,,,,0,0,0,0,,,,,7,7,91,5,,,,,,,,,,,,,,,,,,,,,1.485,1.503,479.07871850000083,None,,,,,,,,,,,,,,,,,,,,479.6043712000028,480.11151940000127,0.5095177600014722,1.0097341599976062,480.09488010000496,480.21156760000304,480.09488010000496,480.21156760000304,480.194808799999,None,m,1,1.190762199999881,480.194808799999,None,,,,,,,ppee2,2022-08-16_11h07.01.910,training+cueing,2022.1.3,59.939497073239394,
Stranger.png,You,Stranger,m,1.3,15,25,95,,,,,0,0,0,0,,,,,7,8,92,6,,,,,,,,,,,,,,,,,,,,,1.781,2.4,481.51389259999996,None,,,,,,,,,,,,,,,,,,,,482.0608632000003,482.563418800004,0.5033590599996387,1.0035050600054092,482.54679990000295,482.64689270000235,482.54679990000295,482.64689270000235,482.64689270000235,None,c,0,0.48170179999578977,482.64689270000235,None,,,,,,,ppee2,2022-08-16_11h07.01.910,training+cueing,2022.1.3,59.939497073239394,
Self.png,Friend,Self ,m,2.1,16,26,96,,,,,0,0,0,0,,,,,7,9,93,1,,,,,,,,,,,,,,,,,,,,,1.664,1.476,483.24859510000533,None,,,,,,,,,,,,,,,,,,,,483.79422180000256,484.29792880000605,0.5050344599949312,1.0052464599939412,484.28123150000465,484.39795450000383,484.28123150000465,484.39795450000383,484.38119670000015,None,m,1,0.8437556999924709,484.38119670000015,None,,,,,,,ppee2,2022-08-16_11h07.01.910,training+cueing,2022.1.3,59.939497073239394,
Friend.png,You,Friend,m,1.2,14,24,94,,,,,0,0,0,0,,,,,7,10,94,3,,,,,,,,,,,,,,,,,,,,,1.459,1.337,485.34999750000134,None,,,,,,,,,,,,,,,,,,,,485.8789537000048,486.3826904000016,0.5036800599991693,1.0040373599986196,486.36607619999995,486.46673290000035,486.36607619999995,486.46673290000035,486.46673290000035,None,m,1,0.5982741999978316,486.46673290000035,None,,,,,,,ppee2,2022-08-16_11h07.01.910,training+cueing,2022.1.3,59.939497073239394,
Self.png,Stranger,Self ,m,3.1,18,28,98,,,,,0,0,0,0,,,,,7,11,95,2,,,,,,,,,,,,,,,,,,,,,1.796,1.929,487.18449300000066,None,,,,,,,,,,,,,,,,,,,,487.71449940000457,488.2175209000052,0.5035535600036383,1.0038883599991095,488.2007417999994,488.3175793000046,488.2007417999994,488.3175793000046,488.3007777000021,None,m,1,1.2616886999967392,488.3007777000021,None,,,,,,,ppee2,2022-08-16_11h07.01.910,training+cueing,2022.1.3,59.939497073239394,
Friend.png,You,Friend,m,1.2,14,24,94,,,,,0,0,0,0,,,,,8,0,96,3,,,,,,,,,,,,,,,,,,,,,1.5,1.585,489.68647970000166,None,,,,,,,,,,,,,,,,,,,,490.23013419999916,490.7358819000001,0.5067503600002965,1.0070464599994011,490.719227900001,490.8192399000036,490.719227900001,490.8192399000036,490.8192399000036,None,m,1,1.2699267999996664,490.8192399000036,None,,,,,,,ppee2,2022-08-16_11h07.01.910,training+cueing,2022.1.3,59.939497073239394,
Friend.png,Stranger,Friend,m,3.2,19,29,99,,,,,0,0,0,0,,,,,8,1,97,5,,,,,,,,,,,,,,,,,,,,,1.411,1.959,492.22142780000286,None,,,,,,,,,,,,,,,,,,,,492.75273740000557,493.25444500000594,0.5011802599983639,1.0015043599996716,493.2376713000049,493.3544372000033,493.2376713000049,493.3544372000033,493.3544372000033,None,m,1,1.0546593999970355,493.3544372000033,None,,,,,,,ppee2,2022-08-16_11h07.01.910,training+cueing,2022.1.3,59.939497073239394,
Self.png,Stranger,Self ,m,3.1,18,28,98,,,,,0,0,0,0,,,,,8,2,98,2,,,,,,,,,,,,,,,,,,,,,1.553,1.303,494.54046129999915,None,,,,,,,,,,,,,,,,,,,,495.0820804000032,495.58962430000247,0.5123039599930053,1.012484159997257,495.5728079000037,495.68961639999907,495.5728079000037,495.68961639999907,495.67288420000114,None,m,1,0.9283810999986599,495.67288420000114,None,,,,,,,ppee2,2022-08-16_11h07.01.910,training+cueing,2022.1.3,59.939497073239394,
Self.png,You,Self ,c,1,11,21,91,,,,,0,0,0,0,,,,,8,3,99,0,,,,,,,,,,,,,,,,,,,,,1.517,2.004,496.72487000000547,None,,,,,,,,,,,,,,,,,,,,497.2524107999998,497.75773050000134,0.5055915599950822,1.0058816599994316,497.74097320000146,497.84100860000035,497.74097320000146,497.84100860000035,497.84100860000035,None,c,1,0.7439611999943736,497.84100860000035,None,,,,,,,ppee2,2022-08-16_11h07.01.910,training+cueing,2022.1.3,59.939497073239394,
Stranger.png,Stranger,Stranger,c,3,13,23,93,,,,,0,0,0,0,,,,,8,4,100,8,,,,,,,,,,,,,,,,,,,,,1.567,2.157,498.70973290000256,None,,,,,,,,,,,,,,,,,,,,499.2553171000036,499.75915460000397,0.5050988599978155,1.0053599599996232,499.74242770000274,499.8591404000035,499.74242770000274,499.8591404000035,499.8424391000008,None,None,0,,499.8424391000008,None,,,,,,,ppee2,2022-08-16_11h07.01.910,training+cueing,2022.1.3,59.939497073239394,
Stranger.png,Friend,Stranger,m,2.3,17,27,97,,,,,0,0,0,0,,,,,8,5,101,7,,,,,,,,,,,,,,,,,,,,,1.795,1.561,501.51100620000216,None,,,,,,,,,,,,,,,,,,,,502.0404007000034,502.5444429000054,0.5058058600043296,1.0061637600010727,502.52783090000594,502.6445135000031,502.52783090000594,502.6445135000031,502.62789899999916,None,None,0,,502.62789899999916,None,,,,,,,ppee2,2022-08-16_11h07.01.910,training+cueing,2022.1.3,59.939497073239394,
Stranger.png,You,Stranger,m,1.3,15,25,95,,,,,0,0,0,0,,,,,8,6,102,6,,,,,,,,,,,,,,,,,,,,,1.73,1.896,504.53001240000594,None,,,,,,,,,,,,,,,,,,,,505.0603054000021,505.56332660000044,0.5017529600008857,1.0020458599974518,505.5466790999999,505.6467647000027,505.5466790999999,505.6467647000027,505.6467647000027,None,m,1,0.8260786999962875,505.6467647000027,None,,,,,,,ppee2,2022-08-16_11h07.01.910,training+cueing,2022.1.3,59.939497073239394,
Self.png,You,Self ,c,1,11,21,91,,,,,0,0,0,0,,,,,8,7,103,9,,,,,,,,,,,,,,,,,,,,,1.525,2.33,506.598742400005,None,,,,,,,,,,,,,,,,,,,,507.1250998000032,507.6315057000029,0.5101487600040855,1.0103949600015767,507.61482290000276,507.7149500000014,507.61482290000276,507.7149500000014,507.7149500000014,None,c,1,0.9816624999948544,507.7149500000014,None,,,,,,,ppee2,2022-08-16_11h07.01.910,training+cueing,2022.1.3,59.939497073239394,
Stranger.png,Stranger,Stranger,c,3,13,23,93,,,,,0,0,0,0,,,,,8,8,104,11,,,,,,,,,,,,,,,,,,,,,1.671,1.35,508.8172454000014,None,,,,,,,,,,,,,,,,,,,,509.3619203000053,509.86645860000135,0.5041318599978695,1.0043985599986627,509.8498267000032,509.96647540000413,509.8498267000032,509.96647540000413,509.9498418000003,None,c,1,1.3391514999966603,509.9498418000003,None,,,,,,,ppee2,2022-08-16_11h07.01.910,training+cueing,2022.1.3,59.939497073239394,
Self.png,Friend,Self ,m,2.1,16,26,96,,,,,0,0,0,0,,,,,8,9,105,1,,,,,,,,,,,,,,,,,,,,,1.483,1.414,511.4193973000001,None,,,,,,,,,,,,,,,,,,,,511.96402490000037,512.468441200006,0.5065849599996,1.006659660000878,512.4518841000026,512.5684955000033,512.4518841000026,512.5684955000033,512.5518097000022,None,m,1,0.8492474999948172,512.5518097000022,None,,,,,,,ppee2,2022-08-16_11h07.01.910,training+cueing,2022.1.3,59.939497073239394,
Friend.png,Friend,Friend,c,2,12,22,92,,,,,0,0,0,0,,,,,8,10,106,4,,,,,,,,,,,,,,,,,,,,,1.617,1.371,513.5243986999994,None,,,,,,,,,,,,,,,,,,,,514.0623931000009,514.5698739,0.5126057599991327,1.0128228600005968,514.5532680000033,514.6699376000033,514.5532680000033,514.6699376000033,514.6532393000016,None,m,0,0.8924398000017391,514.6532393000016,None,,,,,,,ppee2,2022-08-16_11h07.01.910,training+cueing,2022.1.3,59.939497073239394,
Friend.png,Friend,Friend,c,2,12,22,92,,,,,0,0,0,0,,,,,8,11,107,10,,,,,,,,,,,,,,,,,,,,,1.585,1.99,515.6722971999989,None,,,,,,,,,,,,,,,,,,,,516.2195831999998,516.7214208000005,0.5000704600024619,1.00035236000258,516.704768100004,516.8216194000051,516.704768100004,516.8216194000051,516.8216194000051,None,c,1,1.4111580999961006,516.8216194000051,None,,,,,,,ppee2,2022-08-16_11h07.01.910,training+cueing,2022.1.3,59.939497073239394,
Friend.png,Friend,Friend,c,2,12,22,92,,,,,0,0,0,0,,,,,9,0,108,4,,,,,,,,,,,,,,,,,,,,,1.422,1.664,518.357216000004,None,,,,,,,,,,,,,,,,,,,,518.8839951000045,519.3904170000023,0.508282959999633,1.009675260000222,519.3723533000011,519.490180300003,519.3723533000011,519.490180300003,519.473439500005,None,c,1,0.7273303999972995,519.473439500005,None,,,,,,,ppee2,2022-08-16_11h07.01.910,training+cueing,2022.1.3,59.939497073239394,
Friend.png,Friend,Friend,c,2,12,22,92,,,,,0,0,0,0,,,,,9,1,109,10,,,,,,,,,,,,,,,,,,,,,1.665,1.783,520.3251936000015,None,,,,,,,,,,,,,,,,,,,,520.8520463000023,521.3581043000013,0.509524760003842,1.0098166600000695,521.3414948999998,521.4581934000016,521.3414948999998,521.4581934000016,521.4415232000028,None,c,1,0.5514657999956398,521.4415232000028,None,,,,,,,ppee2,2022-08-16_11h07.01.910,training+cueing,2022.1.3,59.939497073239394,
Self.png,Stranger,Self ,m,3.1,18,28,98,,,,,0,0,0,0,,,,,9,2,110,2,,,,,,,,,,,,,,,,,,,,,1.687,1.701,522.1267487000005,None,,,,,,,,,,,,,,,,,,,,522.6585061000005,523.1595110000053,0.5150719600060256,1.0152786600083346,523.1595110000053,523.2595405000029,523.1595110000053,523.2595405000029,523.2595405000029,None,None,0,,523.2595405000029,None,,,,,,,ppee2,2022-08-16_11h07.01.910,training+cueing,2022.1.3,59.939497073239394,
Self.png,Friend,Self ,m,2.1,16,26,96,,,,,0,0,0,0,,,,,9,3,111,1,,,,,,,,,,,,,,,,,,,,,1.55,1.901,525.0619966000013,None,,,,,,,,,,,,,,,,,,,,525.5913661000013,526.0949142000027,0.5044461600045906,1.0047473600061494,526.0782341000013,526.1950918000002,526.0782341000013,526.1950918000002,526.1783148000031,None,m,1,0.7760518999930355,526.1783148000031,None,,,,,,,ppee2,2022-08-16_11h07.01.910,training+cueing,2022.1.3,59.939497073239394,
Friend.png,Stranger,Friend,m,3.2,19,29,99,,,,,0,0,0,0,,,,,9,4,112,5,,,,,,,,,,,,,,,,,,,,,1.427,1.333,527.0803349000053,None,,,,,,,,,,,,,,,,,,,,527.6211172000039,528.1298225999999,0.5127572799974587,1.0128550800000085,528.1133220000047,528.2299444000018,528.1133220000047,528.2299444000018,528.2132171000048,None,None,0,,528.2132171000048,None,,,,,,,ppee2,2022-08-16_11h07.01.910,training+cueing,2022.1.3,59.939497073239394,
Stranger.png,Stranger,Stranger,c,3,13,23,93,,,,,0,0,0,0,,,,,9,5,113,8,,,,,,,,,,,,,,,,,,,,,1.613,2.371,529.7480221000005,None,,,,,,,,,,,,,,,,,,,,530.2746837000013,530.7816702000055,0.5105047600009129,1.0107723600012832,530.7649703999996,530.8817152000047,530.7649703999996,530.8817152000047,530.8649844000029,None,c,1,0.8245883999989019,530.8649844000029,None,,,,,,,ppee2,2022-08-16_11h07.01.910,training+cueing,2022.1.3,59.939497073239394,
Stranger.png,You,Stranger,m,1.3,15,25,95,,,,,0,0,0,0,,,,,9,6,114,6,,,,,,,,,,,,,,,,,,,,,1.6,2.235,531.8171093000055,None,,,,,,,,,,,,,,,,,,,,532.362341,532.8665072000003,0.5056042600044748,1.0058748600058607,532.8498655000003,532.9499633000014,532.8498655000003,532.9499633000014,532.9499633000014,None,m,1,0.8829796999925748,532.9499633000014,None,,,,,,,ppee2,2022-08-16_11h07.01.910,training+cueing,2022.1.3,59.939497073239394,
Friend.png,You,Friend,m,1.2,14,24,94,,,,,0,0,0,0,,,,,9,7,115,3,,,,,,,,,,,,,,,,,,,,,1.578,1.807,533.9524100999988,None,,,,,,,,,,,,,,,,,,,,534.4932447000028,535.001608000006,0.5116900599969085,1.0118520600008196,534.9849954000019,535.0849163000021,534.9849954000019,535.0849163000021,535.0849163000021,None,m,1,0.7002925999913714,535.0849163000021,None,,,,,,,ppee2,2022-08-16_11h07.01.910,training+cueing,2022.1.3,59.939497073239394,
Self.png,You,Self ,c,1,11,21,91,,,,,0,0,0,0,,,,,9,8,116,0,,,,,,,,,,,,,,,,,,,,,1.628,2.145,535.9051319999999,None,,,,,,,,,,,,,,,,,,,,536.4452399000002,536.9526926000035,0.5115587600012077,1.0118738599994686,536.9359564000042,537.0360212000014,536.9359564000042,537.0360212000014,537.0360212000014,None,c,1,0.4927858999944874,537.0360212000014,None,,,,,,,ppee2,2022-08-16_11h07.01.910,training+cueing,2022.1.3,59.939497073239394,
Stranger.png,Friend,Stranger,m,2.3,17,27,97,,,,,0,0,0,0,,,,,9,9,117,7,,,,,,,,,,,,,,,,,,,,,1.696,1.684,537.6547028999994,None,,,,,,,,,,,,,,,,,,,,538.1995625000054,538.7041030000037,0.5063716599979671,1.0066364599988447,538.6874050000042,538.8041807000045,538.6874050000042,538.8041807000045,538.787430299999,None,c,0,1.0295278999910806,538.787430299999,None,,,,,,,ppee2,2022-08-16_11h07.01.910,training+cueing,2022.1.3,59.939497073239394,
Self.png,You,Self ,c,1,11,21,91,,,,,0,0,0,0,,,,,9,10,118,9,,,,,,,,,,,,,,,,,,,,,1.768,1.896,539.9401923000041,None,,,,,,,,,,,,,,,,,,,,540.4836690000011,540.9891433000012,0.5062673599968548,1.006540459995449,540.972388400005,541.0724470000059,540.972388400005,541.0724470000059,541.0724470000059,None,c,1,1.16071259999444,541.0724470000059,None,,,,,,,ppee2,2022-08-16_11h07.01.910,training+cueing,2022.1.3,59.939497073239394,
Stranger.png,Stranger,Stranger,c,3,13,23,93,,,,,0,0,0,0,,,,,9,11,119,11,,,,,,,,,,,,,,,,,,,,,1.464,2.382,542.3579510000054,None,,,,,,,,,,,,,,,,,,,,542.8889822000056,543.390945500003,0.5022223599953577,1.0026180599961663,543.3742270000002,543.4909063000014,543.3742270000002,543.4909063000014,543.474264299999,None,c,1,1.4309992999988026,543.474264299999,None,,,,,,,ppee2,2022-08-16_11h07.01.910,training+cueing,2022.1.3,59.939497073239394,
,,,,,,,,,,,,0,0,0,0,,,,,,,,,,,,,,,,,,,,,,,,,,,,,,,,,,,,,,,,,,,,,,,,,,,,,,,,,,,,,,,,,,,0.003957640001317486,0.4911854400052107,,,,,ppee2,2022-08-16_11h07.01.910,training+cueing,2022.1.3,59.939497073239394,
Friend.png,Stranger,Friend,m,3.2,19,29,99,,,,,1,0,1,0,0,0,0,5,,,,,,,,,,,,,,,,,545.525704700005,None,space,22.146269500000926,2.0157700200070394,None,569.6765474000058,None,1.609,2.443,572.6790010000041,None,573.2087006000002,573.7129113000046,573.6962241000001,573.8129654000004,573.6962241000001,573.8129654000004,573.7962038000042,None,None,0,,573.7962038000042,None,575.4139236000046,None,,,,,,,,,,,,,,,,,,,,,,,,,,ppee2,2022-08-16_11h07.01.910,training+cueing,2022.1.3,59.939497073239394,
Friend.png,Friend,Friend,c,2,12,22,92,,,,,1,0,1,0,0,1,1,4,,,,,,,,,,,,,,,,,,,,,,,,,1.647,1.458,575.8143669000056,None,576.3452781000015,576.8484382000024,576.8318141999989,576.9485357000012,576.8318141999989,576.9485357000012,576.9318142000047,None,c,1,0.7732689999975264,576.9318142000047,None,577.7323623000048,None,,,,,,,,,,,,,,,,,,,,,,,,,,ppee2,2022-08-16_11h07.01.910,training+cueing,2022.1.3,59.939497073239394,
Self.png,Friend,Self ,m,2.1,16,26,96,,,,,1,0,1,0,0,2,2,1,,,,,,,,,,,,,,,,,,,,,,,,,1.692,1.76,578.1327086000019,None,578.6604346000022,579.1668056000053,579.1501984999995,579.266889999999,579.1501984999995,579.266889999999,579.2502051000047,None,m,1,0.7271465999947395,579.2502051000047,None,580.0008607000054,None,,,,,,,,,,,,,,,,,,,,,,,,,,ppee2,2022-08-16_11h07.01.910,training+cueing,2022.1.3,59.939497073239394,
Friend.png,You,Friend,m,1.2,14,24,94,,,,,1,0,1,0,0,3,3,3,,,,,,,,,,,,,,,,,,,,,,,,,1.497,2.422,580.4011324000021,None,580.9302930000049,581.4351910000041,581.4184845999989,581.5185112000036,581.4184845999989,581.5185112000036,581.5185112000036,None,m,1,0.50802339999791,581.5185112000036,None,582.052279800002,None,,,,,,,,,,,,,,,,,,,,,,,,,,ppee2,2022-08-16_11h07.01.910,training+cueing,2022.1.3,59.939497073239394,
Self.png,You,Self ,c,1,11,21,91,,,,,1,0,1,0,0,4,4,9,,,,,,,,,,,,,,,,,,,,,,,,,1.638,2.134,582.4524936000016,None,582.9798919000023,583.4866269000049,583.4699989000001,583.5700448999996,583.4699989000001,583.5700448999996,583.5700448999996,None,c,1,0.48672439999791095,583.5700448999996,None,584.0870816000024,None,,,,,,,,,,,,,,,,,,,,,,,,,,ppee2,2022-08-16_11h07.01.910,training+cueing,2022.1.3,59.939497073239394,
Stranger.png,Stranger,Stranger,c,3,13,23,93,,,,,1,0,1,0,0,5,5,8,,,,,,,,,,,,,,,,,,,,,,,,,1.67,1.655,584.4872904000003,None,585.0187947000013,585.5214983000042,585.5047571000032,585.621516500003,585.5047571000032,585.621516500003,585.6048315000007,None,c,1,1.3156688999952166,585.6048315000007,None,586.939229100004,None,,,,,,,,,,,,,,,,,,,,,,,,,,ppee2,2022-08-16_11h07.01.910,training+cueing,2022.1.3,59.939497073239394,
Self.png,Stranger,Self ,m,3.1,18,28,98,,,,,1,0,1,0,0,6,6,2,,,,,,,,,,,,,,,,,,,,,,,,,1.589,1.262,587.3400380000021,None,587.8717407000004,588.3735545000018,588.3568593000018,588.4736061000003,588.3568593000018,588.4736061000003,588.4736061000003,None,m,1,0.6723153999992064,588.4736061000003,None,589.1741494000016,None,,,,,,,,,,,,,,,,,,,,,,,,,,ppee2,2022-08-16_11h07.01.910,training+cueing,2022.1.3,59.939497073239394,
Stranger.png,Friend,Stranger,m,2.3,17,27,97,,,,,1,0,1,0,0,7,7,7,,,,,,,,,,,,,,,,,,,,,,,,,1.731,2.111,589.5744411000051,None,590.1070016000012,590.6085252000048,590.5917900999993,590.7085421000011,590.5917900999993,590.7085421000011,590.7085421000011,None,c,0,1.540828600001987,590.7085421000011,None,592.2762153000003,None,,,,,,,,,,,,,,,,,,,,,,,,,,ppee2,2022-08-16_11h07.01.910,training+cueing,2022.1.3,59.939497073239394,
Stranger.png,You,Stranger,m,1.3,15,25,95,,,,,1,0,1,0,0,8,8,6,,,,,,,,,,,,,,,,,,,,,,,,,1.785,1.626,592.6766283000034,None,593.2053790999998,593.7107625999997,593.6940825000056,593.7941687000057,593.6940825000056,593.7941687000057,593.7941687000057,None,m,1,0.9032598999983747,593.7941687000057,None,594.7280663000056,None,,,,,,,,,,,,,,,,,,,,,,,,,,ppee2,2022-08-16_11h07.01.910,training+cueing,2022.1.3,59.939497073239394,
Self.png,You,Self ,c,1,11,21,91,,,,,1,0,1,0,0,9,9,0,,,,,,,,,,,,,,,,,,,,,,,,,1.579,1.916,595.1284230000019,None,595.663732699999,596.179195100005,596.162544800005,596.2626175000041,596.162544800005,596.2626175000041,596.2626175000041,None,c,1,0.7705620999986422,596.2626175000041,None,597.0632360000018,None,,,,,,,,,,,,,,,,,,,,,,,,,,ppee2,2022-08-16_11h07.01.910,training+cueing,2022.1.3,59.939497073239394,
Friend.png,Friend,Friend,c,2,12,22,92,,,,,1,0,1,0,0,10,10,10,,,,,,,,,,,,,,,,,,,,,,,,,1.621,1.991,597.4635249000057,None,597.9964974000031,598.4975704000026,598.480833600006,598.5976646000054,598.480833600006,598.5976646000054,598.5976646000054,None,c,1,0.8676708999919356,598.5976646000054,None,599.4982755000019,None,,,,,,,,,,,,,,,,,,,,,,,,,,ppee2,2022-08-16_11h07.01.910,training+cueing,2022.1.3,59.939497073239394,
Stranger.png,Stranger,Stranger,c,3,13,23,93,,,,,1,0,1,0,0,11,11,11,,,,,,,,,,,,,,,,,,,,,,,,,1.712,2.38,599.8986173000012,None,600.4303696999996,600.9327154999992,600.9160004000005,601.0326835000014,600.9160004000005,601.0326835000014,601.0326835000014,None,c,1,0.6245163999919896,601.0326835000014,None,601.6831870000024,None,,,,,,,,,,,,,,,,,,,,,,,,,,ppee2,2022-08-16_11h07.01.910,training+cueing,2022.1.3,59.939497073239394,
Stranger.png,Friend,Stranger,m,2.3,17,27,97,,,,,1,0,1,0,,,,,0,0,0,7,,,,,,,,,,,,,,,,,,,627.1849136000019,None,1.587,1.523,630.6902164000057,None,,,,,,,,,,,,,,,,602.0834792000023,None,0.01627572000870714,None,631.2181274000031,631.7218751000037,0.504870659991866,1.005114859995956,631.7051248999996,631.8218716000047,631.7051248999996,631.8218716000047,631.8051321000021,None,c,0,1.0835571999996318,631.8051321000021,None,,,,,,,ppee2,2022-08-16_11h07.01.910,training+cueing,2022.1.3,59.939497073239394,
Friend.png,Friend,Friend,c,2,12,22,92,,,,,1,0,1,0,,,,,0,1,1,10,,,,,,,,,,,,,,,,,,,,,1.655,1.623,633.0088300999996,None,,,,,,,,,,,,,,,,,,,,633.5497485000014,634.0571510000009,0.5119037600015872,1.0124619599955622,634.0403981000054,634.1569435000056,634.0403981000054,634.1569435000056,634.1402280000038,None,m,0,1.4053194000007352,634.1402280000038,None,,,,,,,ppee2,2022-08-16_11h07.01.910,training+cueing,2022.1.3,59.939497073239394,
Self.png,You,Self ,c,1,11,21,91,,,,,1,0,1,0,,,,,0,2,2,9,,,,,,,,,,,,,,,,,,,,,1.642,2.424,635.676177100002,None,,,,,,,,,,,,,,,,,,,,636.2298190000001,636.7421720999992,0.5042944599990733,1.0044064600006095,636.725540600004,636.8254383000021,636.725540600004,636.8254383000021,636.8254383000021,None,c,1,0.5599983999927645,636.8254383000021,None,,,,,,,ppee2,2022-08-16_11h07.01.910,training+cueing,2022.1.3,59.939497073239394,
Stranger.png,You,Stranger,m,1.3,15,25,95,,,,,1,0,1,0,,,,,0,3,3,6,,,,,,,,,,,,,,,,,,,,,1.42,2.082,637.5105031999992,None,,,,,,,,,,,,,,,,,,,,638.0367085000034,638.5433204000001,0.5112168600026052,1.011526860005688,638.5267339999991,638.6267501000038,638.5267339999991,638.6267501000038,638.6267501000038,None,m,1,0.9345713999937288,638.6267501000038,None,,,,,,,ppee2,2022-08-16_11h07.01.910,training+cueing,2022.1.3,59.939497073239394,
Friend.png,You,Friend,m,1.2,14,24,94,,,,,1,0,1,0,,,,,0,4,4,3,,,,,,,,,,,,,,,,,,,,,1.749,2.278,639.6955195000046,None,,,,,,,,,,,,,,,,,,,,640.220739299999,640.7284470000013,0.5102923599988571,1.0103603600000497,640.7117638999989,640.8118044000003,640.7117638999989,640.8118044000003,640.8118044000003,None,m,1,0.8296649999902002,640.8118044000003,None,,,,,,,ppee2,2022-08-16_11h07.01.910,training+cueing,2022.1.3,59.939497073239394,
Friend.png,Friend,Friend,c,2,12,22,92,,,,,1,0,1,0,,,,,0,5,5,4,,,,,,,,,,,,,,,,,,,,,1.553,2.063,641.7636370000037,None,,,,,,,,,,,,,,,,,,,,642.2927018000046,642.7965177000005,0.5051954600057798,1.00540156000352,642.7798268000042,642.8965515000018,642.7798268000042,642.8965515000018,642.8798305000018,None,c,1,1.193736799999897,642.8798305000018,None,,,,,,,ppee2,2022-08-16_11h07.01.910,training+cueing,2022.1.3,59.939497073239394,
Friend.png,Stranger,Friend,m,3.2,19,29,99,,,,,1,0,1,0,,,,,0,6,6,5,,,,,,,,,,,,,,,,,,,,,1.509,1.742,644.1986928000042,None,,,,,,,,,,,,,,,,,,,,644.7304112999991,645.231615800003,0.4996446599980118,1.0000196600012714,645.2148775000023,645.3315698000006,645.2148775000023,645.3315698000006,645.3315698000006,None,m,1,0.7421796999988146,645.3315698000006,None,,,,,,,ppee2,2022-08-16_11h07.01.910,training+cueing,2022.1.3,59.939497073239394,
Stranger.png,Stranger,Stranger,c,3,13,23,93,,,,,1,0,1,0,,,,,0,7,7,8,,,,,,,,,,,,,,,,,,,,,1.768,2.129,646.2004780999996,None,,,,,,,,,,,,,,,,,,,,646.7422217999992,647.2496799,0.5101387600007001,1.0104780600013328,647.2329411000028,647.349753500006,647.2329411000028,647.349753500006,647.3329913000052,None,c,1,0.8201393999988795,647.3329913000052,None,,,,,,,ppee2,2022-08-16_11h07.01.910,training+cueing,2022.1.3,59.939497073239394,
Self.png,You,Self ,c,1,11,21,91,,,,,1,0,1,0,,,,,0,8,8,0,,,,,,,,,,,,,,,,,,,,,1.7,1.974,648.2852385000006,None,,,,,,,,,,,,,,,,,,,,648.8302993000034,649.3345664000008,0.5057471600011922,1.0060026599967387,649.3178961000012,649.4179182000007,649.3178961000012,649.4179182000007,649.4179182000007,None,c,1,0.5270669999954407,649.4179182000007,None,,,,,,,ppee2,2022-08-16_11h07.01.910,training+cueing,2022.1.3,59.939497073239394,
Self.png,Stranger,Self ,m,3.1,18,28,98,,,,,1,0,1,0,,,,,0,9,9,2,,,,,,,,,,,,,,,,,,,,,1.488,1.529,650.0701191000044,None,,,,,,,,,,,,,,,,,,,,650.6156648000033,651.1191793000035,0.5043408599958639,1.004647460002161,651.1024871000045,651.2192098000014,651.1024871000045,651.2192098000014,651.2024872000038,None,None,0,,651.2024872000038,None,,,,,,,ppee2,2022-08-16_11h07.01.910,training+cueing,2022.1.3,59.939497073239394,
Stranger.png,Stranger,Stranger,c,3,13,23,93,,,,,1,0,1,0,,,,,0,10,10,11,,,,,,,,,,,,,,,,,,,,,1.731,2.34,652.8045838000035,None,,,,,,,,,,,,,,,,,,,,653.3302885000012,653.8378230000017,0.5103073599966592,1.0105395599966869,653.8211557000031,653.9378784,653.8211557000031,653.9378784,653.9211304000055,None,c,1,0.6159011999916402,653.9211304000055,None,,,,,,,ppee2,2022-08-16_11h07.01.910,training+cueing,2022.1.3,59.939497073239394,
Self.png,Friend,Self ,m,2.1,16,26,96,,,,,1,0,1,0,,,,,0,11,11,1,,,,,,,,,,,,,,,,,,,,,1.445,2.449,654.656347300006,None,,,,,,,,,,,,,,,,,,,,655.1856642999992,655.689171900005,0.5042912599965348,1.004550259996904,655.672507700001,655.7892064000043,655.672507700001,655.7892064000043,655.7724782000005,None,m,1,1.3730605999953696,655.7724782000005,None,,,,,,,ppee2,2022-08-16_11h07.01.910,training+cueing,2022.1.3,59.939497073239394,
Self.png,You,Self ,c,1,11,21,91,,,,,1,0,1,0,,,,,1,0,12,0,,,,,,,,,,,,,,,,,,,,,1.75,1.32,657.275112700001,None,,,,,,,,,,,,,,,,,,,,657.8209200999991,658.324414900002,0.5022239600002649,1.0025543599986122,658.3077641999989,658.4077755000035,658.3077641999989,658.4077755000035,658.4077755000035,None,c,1,0.769260299995949,658.4077755000035,None,,,,,,,ppee2,2022-08-16_11h07.01.910,training+cueing,2022.1.3,59.939497073239394,
Self.png,You,Self ,c,1,11,21,91,,,,,1,0,1,0,,,,,1,1,13,9,,,,,,,,,,,,,,,,,,,,,1.459,1.393,659.3098868000016,None,,,,,,,,,,,,,,,,,,,,659.8436046999996,660.3591837999993,0.5126859599986346,1.012847360005253,660.342636500005,660.4425967999996,660.342636500005,660.4425967999996,660.4425967999996,None,c,1,0.5427400999979,660.4425967999996,None,,,,,,,ppee2,2022-08-16_11h07.01.910,training+cueing,2022.1.3,59.939497073239394,
Stranger.png,Stranger,Stranger,c,3,13,23,93,,,,,1,0,1,0,,,,,1,2,14,11,,,,,,,,,,,,,,,,,,,,,1.657,1.498,661.1114926000009,None,,,,,,,,,,,,,,,,,,,,661.6570607000031,662.1606484000004,0.5043034599948442,1.0046332599958987,662.1439046000014,662.2607321000032,662.1439046000014,662.2607321000032,662.2440033000021,None,c,1,0.7089723999961279,662.2440033000021,None,,,,,,,ppee2,2022-08-16_11h07.01.910,training+cueing,2022.1.3,59.939497073239394,
Friend.png,Friend,Friend,c,2,12,22,92,,,,,1,0,1,0,,,,,1,3,15,10,,,,,,,,,,,,,,,,,,,,,1.456,2.455,663.0803369999994,None,,,,,,,,,,,,,,,,,,,,663.6236375000008,664.1286326000045,0.5052110600081505,1.0055233600069187,664.1119472999999,664.2286778000052,664.1119472999999,664.2286778000052,664.2119538000043,None,c,1,1.109530800000357,664.2119538000043,None,,,,,,,ppee2,2022-08-16_11h07.01.910,training+cueing,2022.1.3,59.939497073239394,
Self.png,Stranger,Self ,m,3.1,18,28,98,,,,,1,0,1,0,,,,,1,4,16,2,,,,,,,,,,,,,,,,,,,,,1.715,1.209,665.4474554000044,None,,,,,,,,,,,,,,,,,,,,665.9785995999991,666.4803603000037,0.5017540600019856,1.0021388600071077,666.4636595000047,666.5804169000039,666.4636595000047,666.5804169000039,666.5637111000033,None,c,0,0.9983653999952367,666.5637111000033,None,,,,,,,ppee2,2022-08-16_11h07.01.910,training+cueing,2022.1.3,59.939497073239394,
Self.png,Friend,Self ,m,2.1,16,26,96,,,,,1,0,1,0,,,,,1,5,17,1,,,,,,,,,,,,,,,,,,,,,1.616,1.635,667.6823756000013,None,,,,,,,,,,,,,,,,,,,,668.2189618000048,668.7320180000024,0.5068691600026796,1.007073560002027,668.7153126000048,668.8319959,668.7153126000048,668.8319959,668.8153009000016,None,m,1,0.9060098999980255,668.8153009000016,None,,,,,,,ppee2,2022-08-16_11h07.01.910,training+cueing,2022.1.3,59.939497073239394,
Stranger.png,Stranger,Stranger,c,3,13,23,93,,,,,1,0,1,0,,,,,1,6,18,8,,,,,,,,,,,,,,,,,,,,,1.795,1.236,669.8506918000057,None,,,,,,,,,,,,,,,,,,,,670.3797697000045,670.883557000001,0.503535660005582,1.0038828600008856,670.8668280999991,670.9837359000012,670.8668280999991,670.9837359000012,670.9668988000049,None,c,1,0.8816582999934326,670.9668988000049,None,,,,,,,ppee2,2022-08-16_11h07.01.910,training+cueing,2022.1.3,59.939497073239394,
Friend.png,You,Friend,m,1.2,14,24,94,,,,,1,0,1,0,,,,,1,7,19,3,,,,,,,,,,,,,,,,,,,,,1.62,2.178,671.9691731999992,None,,,,,,,,,,,,,,,,,,,,672.5167906999995,673.0184534,0.5015420600029756,1.0024895599999581,673.0017425000042,673.101759600002,673.0017425000042,673.101759600002,673.101759600002,None,m,1,1.0191369999956805,673.101759600002,None,,,,,,,ppee2,2022-08-16_11h07.01.910,training+cueing,2022.1.3,59.939497073239394,
Friend.png,Friend,Friend,c,2,12,22,92,,,,,1,0,1,0,,,,,1,8,20,4,,,,,,,,,,,,,,,,,,,,,1.575,1.549,674.2540011000019,None,,,,,,,,,,,,,,,,,,,,674.7824895000012,675.2868312999999,0.5034522600035416,1.003735960002814,675.2700604999991,675.386835199999,675.2700604999991,675.386835199999,675.370070200006,None,c,1,1.4227399999945192,675.370070200006,None,,,,,,,ppee2,2022-08-16_11h07.01.910,training+cueing,2022.1.3,59.939497073239394,
Friend.png,Stranger,Friend,m,3.2,19,29,99,,,,,1,0,1,0,,,,,1,9,21,5,,,,,,,,,,,,,,,,,,,,,1.488,2.468,676.9226387000017,None,,,,,,,,,,,,,,,,,,,,677.4682899000036,677.9719896000024,0.5048356600018451,1.0050605600044946,677.9553994000016,678.072092500006,677.9553994000016,678.072092500006,678.0554164000059,None,m,1,0.881791499996325,678.0554164000059,None,,,,,,,ppee2,2022-08-16_11h07.01.910,training+cueing,2022.1.3,59.939497073239394,
Stranger.png,You,Stranger,m,1.3,15,25,95,,,,,1,0,1,0,,,,,1,10,22,6,,,,,,,,,,,,,,,,,,,,,1.697,2.324,679.0579581999991,None,,,,,,,,,,,,,,,,,,,,679.6025864000039,680.1069169000039,0.5060598599957302,1.0061989599998924,680.0903327000051,680.1903187999997,680.0903327000051,680.1903187999997,680.1903187999997,None,m,1,0.9065794999914942,680.1903187999997,None,,,,,,,ppee2,2022-08-16_11h07.01.910,training+cueing,2022.1.3,59.939497073239394,
Stranger.png,Friend,Stranger,m,2.3,17,27,97,,,,,1,0,1,0,,,,,1,11,23,7,,,,,,,,,,,,,,,,,,,,,1.643,1.485,681.2257469000033,None,,,,,,,,,,,,,,,,,,,,681.7706959999996,682.2751683000024,0.5041488599963486,1.004513660001976,682.2584926999989,682.3751532000024,682.2584926999989,682.3751532000024,682.358501900002,None,None,0,,682.358501900002,None,,,,,,,ppee2,2022-08-16_11h07.01.910,training+cueing,2022.1.3,59.939497073239394,
Self.png,Stranger,Self ,m,3.1,18,28,98,,,,,1,0,1,0,,,,,2,0,24,2,,,,,,,,,,,,,,,,,,,,,1.706,1.451,684.1110531000013,None,,,,,,,,,,,,,,,,,,,,684.6408056,685.1439157000059,0.5038258599961409,1.0041499599974486,685.1271997000003,685.2439118000038,685.1271997000003,685.2439118000038,685.2272340999989,None,m,1,0.79857649999758,685.2272340999989,None,,,,,,,ppee2,2022-08-16_11h07.01.910,training+cueing,2022.1.3,59.939497073239394,
Friend.png,Friend,Friend,c,2,12,22,92,,,,,1,0,1,0,,,,,2,1,25,10,,,,,,,,,,,,,,,,,,,,,1.762,1.684,686.1461112000034,None,,,,,,,,,,,,,,,,,,,,686.6916972000035,687.1954518000057,0.5052960600005463,1.0056617599984747,687.1787369000012,687.2962550000011,687.1787369000012,687.2962550000011,687.2792840000038,None,c,1,1.2095897999970475,687.2792840000038,None,,,,,,,ppee2,2022-08-16_11h07.01.910,training+cueing,2022.1.3,59.939497073239394,
Self.png,You,Self ,c,1,11,21,91,,,,,1,0,1,0,,,,,2,2,26,0,,,,,,,,,,,,,,,,,,,,,1.696,2.296,688.6154859000017,None,,,,,,,,,,,,,,,,,,,,689.1584281000032,689.6638172000021,0.5069812600049772,1.0072418600029778,689.6471842000028,689.7472469999993,689.6471842000028,689.7472469999993,689.7472469999993,None,c,1,0.48590519999561366,689.7472469999993,None,,,,,,,ppee2,2022-08-16_11h07.01.910,training+cueing,2022.1.3,59.939497073239394,
Stranger.png,You,Stranger,m,1.3,15,25,95,,,,,1,0,1,0,,,,,2,3,27,6,,,,,,,,,,,,,,,,,,,,,1.561,2.333,690.3656190000038,None,,,,,,,,,,,,,,,,,,,,690.894970100002,691.3984236000033,0.5099966599955224,1.010348759999033,691.3817533000038,691.4817929000055,691.3817533000038,691.4817929000055,691.4817929000055,None,m,1,1.039950599995791,691.4817929000055,None,,,,,,,ppee2,2022-08-16_11h07.01.910,training+cueing,2022.1.3,59.939497073239394,
Stranger.png,Friend,Stranger,m,2.3,17,27,97,,,,,1,0,1,0,,,,,2,4,28,7,,,,,,,,,,,,,,,,,,,,,1.65,2.066,692.6511501999994,None,,,,,,,,,,,,,,,,,,,,693.1948312000022,693.7001042000047,0.5055314599958365,1.0059025599985034,693.6834136000034,693.8001206000044,693.6834136000034,693.8001206000044,693.7834358000036,None,c,0,1.313924499998393,693.7834358000036,None,,,,,,,ppee2,2022-08-16_11h07.01.910,training+cueing,2022.1.3,59.939497073239394,
Stranger.png,Stranger,Stranger,c,3,13,23,93,,,,,1,0,1,0,,,,,2,5,29,8,,,,,,,,,,,,,,,,,,,,,1.634,1.973,695.2232848000058,None,,,,,,,,,,,,,,,,,,,,695.7657273000004,696.268636700006,0.5035886600016966,1.003824760002317,696.2519647000008,696.3688169000015,696.2519647000008,696.3688169000015,696.3521767999991,None,c,1,0.8085727999932715,696.3521767999991,None,,,,,,,ppee2,2022-08-16_11h07.01.910,training+cueing,2022.1.3,59.939497073239394,
Friend.png,Friend,Friend,c,2,12,22,92,,,,,1,0,1,0,,,,,2,6,30,4,,,,,,,,,,,,,,,,,,,,,1.425,1.775,697.2873035000011,None,,,,,,,,,,,,,,,,,,,,697.8166087999998,698.3200958000016,0.5045525600071414,1.0047962600074243,698.3035266000006,698.4201203000048,698.3035266000006,698.4201203000048,698.4034805000047,None,c,1,0.7573987999930978,698.4034805000047,None,,,,,,,ppee2,2022-08-16_11h07.01.910,training+cueing,2022.1.3,59.939497073239394,
Stranger.png,Stranger,Stranger,c,3,13,23,93,,,,,1,0,1,0,,,,,2,7,31,11,,,,,,,,,,,,,,,,,,,,,1.55,2.142,699.2889578000031,None,,,,,,,,,,,,,,,,,,,,699.833650200002,700.3382685000033,0.5042934600060107,1.0045646600046894,700.3215775999997,700.4383135000026,700.3215775999997,700.4383135000026,700.4215470999989,None,m,0,0.7558319999952801,700.4215470999989,None,,,,,,,ppee2,2022-08-16_11h07.01.910,training+cueing,2022.1.3,59.939497073239394,
Self.png,Friend,Self ,m,2.1,16,26,96,,,,,1,0,1,0,,,,,2,8,32,1,,,,,,,,,,,,,,,,,,,,,1.627,1.983,701.306852200003,None,,,,,,,,,,,,,,,,,,,,701.837961600002,702.3397052,0.5018803600032697,1.0021797600056743,702.3230569000007,702.4397377999994,702.3230569000007,702.4397377999994,702.4231178000045,None,m,1,1.0098213000019314,702.4231178000045,None,,,,,,,ppee2,2022-08-16_11h07.01.910,training+cueing,2022.1.3,59.939497073239394,
Self.png,You,Self ,c,1,11,21,91,,,,,1,0,1,0,,,,,2,9,33,9,,,,,,,,,,,,,,,,,,,,,1.623,2.258,703.5587014000048,None,,,,,,,,,,,,,,,,,,,,704.0870667000054,704.5913115000003,0.5060355599998729,1.0063202599994838,704.5747128000003,704.674737100002,704.5747128000003,704.674737100002,704.674737100002,None,c,1,0.5661960999932489,704.674737100002,None,,,,,,,ppee2,2022-08-16_11h07.01.910,training+cueing,2022.1.3,59.939497073239394,
Friend.png,Stranger,Friend,m,3.2,19,29,99,,,,,1,0,1,0,,,,,2,10,34,5,,,,,,,,,,,,,,,,,,,,,1.799,2.239,705.3600030000016,None,,,,,,,,,,,,,,,,,,,,705.9049279000028,706.4096671000007,0.5041490600051475,1.0045282600040082,706.3926885000037,706.5095471000022,706.3926885000037,706.5095471000022,706.4928050000017,None,c,0,1.3562305999948876,706.4928050000017,None,,,,,,,ppee2,2022-08-16_11h07.01.910,training+cueing,2022.1.3,59.939497073239394,
Friend.png,You,Friend,m,1.2,14,24,94,,,,,1,0,1,0,,,,,2,11,35,3,,,,,,,,,,,,,,,,,,,,,1.506,1.407,707.9794143000036,None,,,,,,,,,,,,,,,,,,,,708.5234927999991,709.027943000001,0.506457160001446,1.006828260004113,709.0112426000051,709.1113314000031,709.0112426000051,709.1113314000031,709.1113314000031,None,c,0,1.377627499998198,709.1113314000031,None,,,,,,,ppee2,2022-08-16_11h07.01.910,training+cueing,2022.1.3,59.939497073239394,
Friend.png,Friend,Friend,c,2,12,22,92,,,,,1,0,1,0,,,,,3,0,36,4,,,,,,,,,,,,,,,,,,,,,1.534,1.646,710.6136373000045,None,,,,,,,,,,,,,,,,,,,,711.1413584000038,711.6465112000005,0.5053668600012315,1.0056132600002456,711.6298605000047,711.7464830000026,711.6298605000047,711.7464830000026,711.7298626000047,None,c,1,0.9832597999920836,711.7298626000047,None,,,,,,,ppee2,2022-08-16_11h07.01.910,training+cueing,2022.1.3,59.939497073239394,
Stranger.png,Friend,Stranger,m,2.3,17,27,97,,,,,1,0,1,0,,,,,3,1,37,7,,,,,,,,,,,,,,,,,,,,,1.484,2.04,712.832176200005,None,,,,,,,,,,,,,,,,,,,,713.3745631999991,713.8815104000023,0.5113337599977967,1.0115878599972348,713.8647859000048,713.9816905000043,713.8647859000048,713.9816905000043,713.9647891000059,None,m,1,1.0365503999928478,713.9647891000059,None,,,,,,,ppee2,2022-08-16_11h07.01.910,training+cueing,2022.1.3,59.939497073239394,
Self.png,You,Self ,c,1,11,21,91,,,,,1,0,1,0,,,,,3,2,38,9,,,,,,,,,,,,,,,,,,,,,1.777,1.452,715.1360987000007,None,,,,,,,,,,,,,,,,,,,,715.6786636000033,716.1830199000033,0.5062445600051433,1.0066003600004478,716.1664107000033,716.2664681000024,716.1664107000033,716.2664681000024,716.2664681000024,None,c,1,0.5902965999994194,716.2664681000024,None,,,,,,,ppee2,2022-08-16_11h07.01.910,training+cueing,2022.1.3,59.939497073239394,
Self.png,Friend,Self ,m,2.1,16,26,96,,,,,1,0,1,0,,,,,3,3,39,1,,,,,,,,,,,,,,,,,,,,,1.769,2.36,716.9854326000059,None,,,,,,,,,,,,,,,,,,,,717.5345092999996,718.0345087000023,0.512670159994741,1.0129938599930028,718.0345087000023,718.1345867999989,718.0345087000023,718.1345867999989,718.1345867999989,None,m,1,0.8503297999923234,718.1345867999989,None,,,,,,,ppee2,2022-08-16_11h07.01.910,training+cueing,2022.1.3,59.939497073239394,
Friend.png,Friend,Friend,c,2,12,22,92,,,,,1,0,1,0,,,,,3,4,40,10,,,,,,,,,,,,,,,,,,,,,1.694,2.391,719.1041906000028,None,,,,,,,,,,,,,,,,,,,,719.6455889999997,720.1527481000012,0.5116966600035084,1.0119133600019268,720.1360662000006,720.2527492000008,720.1360662000006,720.2527492000008,720.2360294000027,None,c,1,1.468574599995918,720.2360294000027,None,,,,,,,ppee2,2022-08-16_11h07.01.910,training+cueing,2022.1.3,59.939497073239394,
Stranger.png,You,Stranger,m,1.3,15,25,95,,,,,1,0,1,0,,,,,3,5,41,6,,,,,,,,,,,,,,,,,,,,,1.739,1.28,721.8385382000051,None,,,,,,,,,,,,,,,,,,,,722.367147900004,722.8713462000014,0.505835459996888,1.0060914599962416,722.8546543000048,722.9554845000021,722.8546543000048,722.9554845000021,722.9554845000021,None,m,1,0.9417705999949249,722.9554845000021,None,,,,,,,ppee2,2022-08-16_11h07.01.910,training+cueing,2022.1.3,59.939497073239394,
Stranger.png,Stranger,Stranger,c,3,13,23,93,,,,,1,0,1,0,,,,,3,6,42,11,,,,,,,,,,,,,,,,,,,,,1.782,1.473,724.0239157000033,None,,,,,,,,,,,,,,,,,,,,724.5687886000014,725.0729131000044,0.5044828599930042,1.00475675999769,725.0562652000008,725.1729580000028,725.0562652000008,725.1729580000028,725.1562659000047,None,c,1,0.6448383999959333,725.1562659000047,None,,,,,,,ppee2,2022-08-16_11h07.01.910,training+cueing,2022.1.3,59.939497073239394,
Friend.png,You,Friend,m,1.2,14,24,94,,,,,1,0,1,0,,,,,3,7,43,3,,,,,,,,,,,,,,,,,,,,,1.637,2.164,725.9245894000051,None,,,,,,,,,,,,,,,,,,,,726.4557918999999,726.9577499000006,0.5021233599982224,1.0022692600032315,726.941063600003,727.0410100000008,726.941063600003,727.0410100000008,727.0410100000008,None,m,1,1.1599419999911333,727.0410100000008,None,,,,,,,ppee2,2022-08-16_11h07.01.910,training+cueing,2022.1.3,59.939497073239394,
Self.png,You,Self ,c,1,11,21,91,,,,,1,0,1,0,,,,,3,8,44,0,,,,,,,,,,,,,,,,,,,,,1.777,2.103,728.3266120000044,None,,,,,,,,,,,,,,,,,,,,728.8519274999999,729.3594231000025,0.510068859999592,1.0103675599966664,729.3427264999991,729.4428005000009,729.3427264999991,729.4428005000009,729.4428005000009,None,c,1,0.5340371999991476,729.4428005000009,None,,,,,,,ppee2,2022-08-16_11h07.01.910,training+cueing,2022.1.3,59.939497073239394,
Friend.png,Stranger,Friend,m,3.2,19,29,99,,,,,1,0,1,0,,,,,3,9,45,5,,,,,,,,,,,,,,,,,,,,,1.406,1.903,730.0957828000028,None,,,,,,,,,,,,,,,,,,,,730.6403460000001,731.1440493000046,0.5046728599991184,1.0049154599983012,731.1273598000043,731.2440497999996,731.1273598000043,731.2440497999996,731.2273296999992,None,c,0,1.3736211999930674,731.2273296999992,None,,,,,,,ppee2,2022-08-16_11h07.01.910,training+cueing,2022.1.3,59.939497073239394,
Self.png,Stranger,Self ,m,3.1,18,28,98,,,,,1,0,1,0,,,,,3,10,46,2,,,,,,,,,,,,,,,,,,,,,1.694,2.293,732.7299114000052,None,,,,,,,,,,,,,,,,,,,,733.2719806000023,733.7793177000058,0.5118824599994696,1.0121176600005128,733.7626865000057,733.8792549999998,733.7626865000057,733.8792549999998,733.8625535000028,None,m,1,0.7063160999969114,733.8625535000028,None,,,,,,,ppee2,2022-08-16_11h07.01.910,training+cueing,2022.1.3,59.939497073239394,
Stranger.png,Stranger,Stranger,c,3,13,23,93,,,,,1,0,1,0,,,,,3,11,47,8,,,,,,,,,,,,,,,,,,,,,1.538,2.265,734.697989799999,None,,,,,,,,,,,,,,,,,,,,735.2395916000023,735.7473217000006,0.5110829599943827,1.0113980599999195,735.7306613000037,735.8474631999998,735.7306613000037,735.8474631999998,735.8307185000012,None,m,0,0.7223085000005085,735.8307185000012,None,,,,,,,ppee2,2022-08-16_11h07.01.910,training+cueing,2022.1.3,59.939497073239394,
Friend.png,Friend,Friend,c,2,12,22,92,,,,,1,0,1,0,,,,,4,0,48,4,,,,,,,,,,,,,,,,,,,,,1.513,2.487,736.6829719000016,None,,,,,,,,,,,,,,,,,,,,737.228130800002,737.7320930999995,0.5053844600042794,1.0057600600048318,737.7154224000042,737.8322283000016,737.7154224000042,737.8322283000016,737.8154878999994,None,c,1,0.7377566999930423,737.8154878999994,None,,,,,,,ppee2,2022-08-16_11h07.01.910,training+cueing,2022.1.3,59.939497073239394,
Stranger.png,You,Stranger,m,1.3,15,25,95,,,,,1,0,1,0,,,,,4,1,49,6,,,,,,,,,,,,,,,,,,,,,1.488,2.15,738.6842691000056,None,,,,,,,,,,,,,,,,,,,,739.229130300002,739.7335787000047,0.5061310599921853,1.006440159995691,739.7168698000023,739.8169498999996,739.7168698000023,739.8169498999996,739.8169498999996,None,m,1,0.6080205999969621,739.8169498999996,None,,,,,,,ppee2,2022-08-16_11h07.01.910,training+cueing,2022.1.3,59.939497073239394,
Friend.png,Friend,Friend,c,2,12,22,92,,,,,1,0,1,0,,,,,4,2,50,10,,,,,,,,,,,,,,,,,,,,,1.464,2.395,740.5521933999989,None,,,,,,,,,,,,,,,,,,,,741.0832917000007,741.5850678000061,0.5003202599982615,1.0004385599968373,741.5684153000038,741.6851317000037,741.5684153000038,741.6851317000037,741.6851317000037,None,c,1,1.315722299994377,741.6851317000037,None,,,,,,,ppee2,2022-08-16_11h07.01.910,training+cueing,2022.1.3,59.939497073239394,
Self.png,Friend,Self ,m,2.1,16,26,96,,,,,1,0,1,0,,,,,4,3,51,1,,,,,,,,,,,,,,,,,,,,,1.417,1.995,743.1207983000058,None,,,,,,,,,,,,,,,,,,,,743.663292199999,744.1701612000033,0.5113220600032946,1.0114989599969704,744.1535263000042,744.2702026000043,744.1535263000042,744.2702026000043,744.2535487999994,None,None,0,,744.2535487999994,None,,,,,,,ppee2,2022-08-16_11h07.01.910,training+cueing,2022.1.3,59.939497073239394,
Stranger.png,Friend,Stranger,m,2.3,17,27,97,,,,,1,0,1,0,,,,,4,4,52,7,,,,,,,,,,,,,,,,,,,,,1.791,2.279,745.7719715000057,None,,,,,,,,,,,,,,,,,,,,746.2983020000029,746.8053891000018,0.5107739600061905,1.0110525600102847,746.7887149000017,746.9054397,746.7887149000017,746.9054397,746.8887029000034,None,m,1,1.360246799995366,746.8887029000034,None,,,,,,,ppee2,2022-08-16_11h07.01.910,training+cueing,2022.1.3,59.939497073239394,
Self.png,You,Self ,c,1,11,21,91,,,,,1,0,1,0,,,,,4,5,53,0,,,,,,,,,,,,,,,,,,,,,1.421,1.83,748.3746535000028,None,,,,,,,,,,,,,,,,,,,,748.9201985000036,749.4239683000051,0.5051966600003652,1.0054129600030137,749.407295200006,749.5073650000049,749.407295200006,749.5073650000049,749.5073650000049,None,c,1,1.0135653999968781,749.5073650000049,None,,,,,,,ppee2,2022-08-16_11h07.01.910,training+cueing,2022.1.3,59.939497073239394,
Stranger.png,Stranger,Stranger,c,3,13,23,93,,,,,1,0,1,0,,,,,4,6,54,8,,,,,,,,,,,,,,,,,,,,,1.533,1.983,750.6428390000001,None,,,,,,,,,,,,,,,,,,,,751.1727339999998,751.6765549000047,0.5026497600047151,1.004174959998636,751.6578788000043,751.7757293000031,751.6578788000043,751.7757293000031,751.759040900004,None,c,1,0.9697608999922522,751.759040900004,None,,,,,,,ppee2,2022-08-16_11h07.01.910,training+cueing,2022.1.3,59.939497073239394,
Self.png,Stranger,Self ,m,3.1,18,28,98,,,,,1,0,1,0,,,,,4,7,55,2,,,,,,,,,,,,,,,,,,,,,1.536,1.38,752.8622450000039,None,,,,,,,,,,,,,,,,,,,,753.4028786000054,753.9106124000027,0.510582559996692,1.0108881599953747,753.8938982000036,754.0106300000043,753.8938982000036,754.0106300000043,753.994048600005,None,c,0,1.2634019999968586,753.994048600005,None,,,,,,,ppee2,2022-08-16_11h07.01.910,training+cueing,2022.1.3,59.939497073239394,
Friend.png,You,Friend,m,1.2,14,24,94,,,,,1,0,1,0,,,,,4,8,56,3,,,,,,,,,,,,,,,,,,,,,1.737,1.719,755.3794739000004,None,,,,,,,,,,,,,,,,,,,,755.9088131000026,756.4122100000022,0.5044344599955366,1.0048452599949087,756.3955573000057,756.4956584000029,756.3955573000057,756.4956584000029,756.4956584000029,None,m,1,1.3856099999902654,756.4956584000029,None,,,,,,,ppee2,2022-08-16_11h07.01.910,training+cueing,2022.1.3,59.939497073239394,
Self.png,You,Self ,c,1,11,21,91,,,,,1,0,1,0,,,,,4,9,57,9,,,,,,,,,,,,,,,,,,,,,1.733,1.412,758.0152933999998,None,,,,,,,,,,,,,,,,,,,,758.5572751,759.0643456000034,0.5116149599998607,1.0118790600026841,759.0476694000026,759.1477025000058,759.0476694000026,759.1477025000058,759.1477025000058,None,c,1,0.6375059999991208,759.1477025000058,None,,,,,,,ppee2,2022-08-16_11h07.01.910,training+cueing,2022.1.3,59.939497073239394,
Friend.png,Stranger,Friend,m,3.2,19,29,99,,,,,1,0,1,0,,,,,4,10,58,5,,,,,,,,,,,,,,,,,,,,,1.564,1.614,759.916655699999,None,,,,,,,,,,,,,,,,,,,,760.4619047000015,760.9656659000029,0.5038303600013023,1.0041605600054027,760.948983000002,761.0657231000005,760.948983000002,761.0657231000005,761.0490557000012,None,None,0,,761.0490557000012,None,,,,,,,ppee2,2022-08-16_11h07.01.910,training+cueing,2022.1.3,59.939497073239394,
Stranger.png,Stranger,Stranger,c,3,13,23,93,,,,,1,0,1,0,,,,,4,11,59,11,,,,,,,,,,,,,,,,,,,,,1.783,1.751,762.7176703000005,None,,,,,,,,,,,,,,,,,,,,763.2447538000051,763.7511320000049,0.5103168600035133,1.0105475600066711,763.7344193000026,763.8511062000034,763.7344193000026,763.8511062000034,763.8343693000061,None,c,1,0.959105100002489,763.8343693000061,None,,,,,,,ppee2,2022-08-16_11h07.01.910,training+cueing,2022.1.3,59.939497073239394,
Stranger.png,Stranger,Stranger,c,3,13,23,93,,,,,1,0,1,0,,,,,5,0,60,8,,,,,,,,,,,,,,,,,,,,,1.774,2.496,764.919933600002,None,,,,,,,,,,,,,,,,,,,,765.4454794000048,765.9526814000055,0.5096502600063104,1.0099553600084619,765.9359600000025,766.052727000002,765.9359600000025,766.052727000002,766.0360256999993,None,c,1,0.6129430999935721,766.0360256999993,None,,,,,,,ppee2,2022-08-16_11h07.01.910,training+cueing,2022.1.3,59.939497073239394,
Self.png,Stranger,Self ,m,3.1,18,28,98,,,,,1,0,1,0,,,,,5,1,61,2,,,,,,,,,,,,,,,,,,,,,1.725,1.289,766.7724785000028,None,,,,,,,,,,,,,,,,,,,,767.3138196,767.8207796000061,0.5115859599973192,1.0117845600034343,767.8041806000037,767.920723700001,767.8041806000037,767.920723700001,767.9040376000048,None,m,1,0.7930257999978494,767.9040376000048,None,,,,,,,ppee2,2022-08-16_11h07.01.910,training+cueing,2022.1.3,59.939497073239394,
Stranger.png,You,Stranger,m,1.3,15,25,95,,,,,1,0,1,0,,,,,5,2,62,6,,,,,,,,,,,,,,,,,,,,,1.598,1.273,768.823310300002,None,,,,,,,,,,,,,,,,,,,,769.3673137000005,769.8721525000001,0.5065514600064489,1.0068306600078358,769.8555037000042,769.9555327000053,769.8555037000042,769.9555327000053,769.9555327000053,None,m,1,0.7572938999946928,769.9555327000053,None,,,,,,,ppee2,2022-08-16_11h07.01.910,training+cueing,2022.1.3,59.939497073239394,
Friend.png,Friend,Friend,c,2,12,22,92,,,,,1,0,1,0,,,,,5,3,63,4,,,,,,,,,,,,,,,,,,,,,1.609,2.216,770.8409179000009,None,,,,,,,,,,,,,,,,,,,,771.3691064000013,771.8737180000026,0.504429259999597,1.0046475600029225,771.857042399999,771.9736663000003,771.857042399999,771.9736663000003,771.9570413000038,None,None,0,,771.9570413000038,None,,,,,,,ppee2,2022-08-16_11h07.01.910,training+cueing,2022.1.3,59.939497073239394,
Self.png,Friend,Self ,m,2.1,16,26,96,,,,,1,0,1,0,,,,,5,4,64,1,,,,,,,,,,,,,,,,,,,,,1.624,2.304,773.6758951000011,None,,,,,,,,,,,,,,,,,,,,774.2025338000021,774.7090258000026,0.5104342599952361,1.0107052599923918,774.6923450000031,774.8091430000059,774.6923450000031,774.8091430000059,774.792360200001,None,m,1,0.7366300999929081,774.792360200001,None,,,,,,,ppee2,2022-08-16_11h07.01.910,training+cueing,2022.1.3,59.939497073239394,
Friend.png,Stranger,Friend,m,3.2,19,29,99,,,,,1,0,1,0,,,,,5,5,65,5,,,,,,,,,,,,,,,,,,,,,1.416,1.439,775.6614465000021,None,,,,,,,,,,,,,,,,,,,,776.2146739000018,776.7271848000019,0.5054983599984553,1.0058051599989994,776.7104832000041,776.8272045000049,776.7104832000041,776.8272045000049,776.8104991,None,None,0,,776.8104991,None,,,,,,,ppee2,2022-08-16_11h07.01.910,training+cueing,2022.1.3,59.939497073239394,
Stranger.png,Stranger,Stranger,c,3,13,23,93,,,,,1,0,1,0,,,,,5,6,66,11,,,,,,,,,,,,,,,,,,,,,1.729,2.472,778.3288945000022,None,,,,,,,,,,,,,,,,,,,,778.8550141000014,779.3624173999997,0.5100569600035669,1.0103526599996258,779.345705700005,779.462500900001,779.345705700005,779.462500900001,779.445761300005,None,m,0,1.4270345999975689,779.445761300005,None,,,,,,,ppee2,2022-08-16_11h07.01.910,training+cueing,2022.1.3,59.939497073239394,
Stranger.png,Friend,Stranger,m,2.3,17,27,97,,,,,1,0,1,0,,,,,5,7,67,7,,,,,,,,,,,,,,,,,,,,,1.795,2.13,781.0025874999992,None,,,,,,,,,,,,,,,,,,,,781.5436258000045,782.0476179000034,0.505749759999162,1.0062785600021016,782.030991700005,782.1477976000024,782.030991700005,782.1477976000024,782.1311734000046,None,m,1,1.014540299998771,782.1311734000046,None,,,,,,,ppee2,2022-08-16_11h07.01.910,training+cueing,2022.1.3,59.939497073239394,
Self.png,You,Self ,c,1,11,21,91,,,,,1,0,1,0,,,,,5,8,68,9,,,,,,,,,,,,,,,,,,,,,1.515,1.675,783.2685892000009,None,,,,,,,,,,,,,,,,,,,,783.8143440999993,784.3159670000023,0.499420160005684,0.9996839600062231,784.299379600001,784.3993795999995,784.299379600001,784.3993795999995,784.3993795999995,None,c,1,0.6011528000017279,784.3993795999995,None,,,,,,,ppee2,2022-08-16_11h07.01.910,training+cueing,2022.1.3,59.939497073239394,
Friend.png,You,Friend,m,1.2,14,24,94,,,,,1,0,1,0,,,,,5,9,69,3,,,,,,,,,,,,,,,,,,,,,1.724,1.762,785.1351117000013,None,,,,,,,,,,,,,,,,,,,,785.677024800003,786.1840190000003,0.5113486600021133,1.0116917600025772,786.1673011000021,786.2674183999989,786.1673011000021,786.2674183999989,786.2674183999989,None,m,1,1.037832999994862,786.2674183999989,None,,,,,,,ppee2,2022-08-16_11h07.01.910,training+cueing,2022.1.3,59.939497073239394,
Friend.png,Friend,Friend,c,2,12,22,92,,,,,1,0,1,0,,,,,5,10,70,10,,,,,,,,,,,,,,,,,,,,,1.482,1.949,787.4361025000035,None,,,,,,,,,,,,,,,,,,,,787.966131000001,788.4690549000006,0.5036517600019579,1.003964060000726,788.4523556000058,788.5690707000031,788.4523556000058,788.5690707000031,788.5523536000037,None,m,0,1.1203893999991124,788.5523536000037,None,,,,,,,ppee2,2022-08-16_11h07.01.910,training+cueing,2022.1.3,59.939497073239394,
Self.png,You,Self ,c,1,11,21,91,,,,,1,0,1,0,,,,,5,11,71,0,,,,,,,,,,,,,,,,,,,,,1.746,1.553,789.8047412000014,None,,,,,,,,,,,,,,,,,,,,790.3483892000004,790.8540884000031,0.5065005600117729,1.0071115600076155,790.8374305000034,790.9374618000002,790.8374305000034,790.9374618000002,790.9374618000002,None,c,1,0.943764600000577,790.9374618000002,None,,,,,,,ppee2,2022-08-16_11h07.01.910,training+cueing,2022.1.3,59.939497073239394,
Stranger.png,You,Stranger,m,1.3,15,25,95,,,,,1,0,1,0,,,,,6,0,72,6,,,,,,,,,,,,,,,,,,,,,1.589,1.562,792.0080703000058,None,,,,,,,,,,,,,,,,,,,,792.5485628000024,793.0556901000018,0.5115575600066222,1.011819960003777,793.0390313000025,793.1390624000051,793.0390313000025,793.1390624000051,793.1390624000051,None,m,1,0.8703688999958104,793.1390624000051,None,,,,,,,ppee2,2022-08-16_11h07.01.910,training+cueing,2022.1.3,59.939497073239394,
Friend.png,Friend,Friend,c,2,12,22,92,,,,,1,0,1,0,,,,,6,1,73,10,,,,,,,,,,,,,,,,,,,,,1.476,1.607,794.1411561000059,None,,,,,,,,,,,,,,,,,,,,794.6703673000011,795.173904400006,0.5045021600017208,1.004868460004218,795.1572188999999,795.2739427000051,795.1572188999999,795.2739427000051,795.2572620999999,None,c,1,0.6718179999952554,795.2572620999999,None,,,,,,,ppee2,2022-08-16_11h07.01.910,training+cueing,2022.1.3,59.939497073239394,
Friend.png,Stranger,Friend,m,3.2,19,29,99,,,,,1,0,1,0,,,,,6,2,74,5,,,,,,,,,,,,,,,,,,,,,1.612,2.214,796.0596809999988,None,,,,,,,,,,,,,,,,,,,,796.6044213999994,797.1086796000018,0.504654260003008,1.0050583600022946,797.0920024000006,797.2086479999998,797.0920024000006,797.2086479999998,797.1920132000014,None,m,1,0.8654133000018192,797.1920132000014,None,,,,,,,ppee2,2022-08-16_11h07.01.910,training+cueing,2022.1.3,59.939497073239394,
Self.png,Friend,Self ,m,2.1,16,26,96,,,,,1,0,1,0,,,,,6,3,75,1,,,,,,,,,,,,,,,,,,,,,1.554,2.21,798.177446200003,None,,,,,,,,,,,,,,,,,,,,798.7067587000056,799.2108580999993,0.5042865600044024,1.0046046600036789,799.1935438,799.3103603999989,799.1935438,799.3103603999989,799.2936845000004,None,c,0,1.1323482000007061,799.2936845000004,None,,,,,,,ppee2,2022-08-16_11h07.01.910,training+cueing,2022.1.3,59.939497073239394,
Stranger.png,Friend,Stranger,m,2.3,17,27,97,,,,,1,0,1,0,,,,,6,4,76,7,,,,,,,,,,,,,,,,,,,,,1.55,1.335,800.5460007000001,None,,,,,,,,,,,,,,,,,,,,801.0868394999998,801.5952210000032,0.5120137599951704,1.0124225600011414,801.5785763000022,801.695309499999,801.5785763000022,801.695309499999,801.6785267000014,None,m,1,0.9238342999960878,801.6785267000014,None,,,,,,,ppee2,2022-08-16_11h07.01.910,training+cueing,2022.1.3,59.939497073239394,
Self.png,You,Self ,c,1,11,21,91,,,,,1,0,1,0,,,,,6,5,77,0,,,,,,,,,,,,,,,,,,,,,1.576,1.647,802.7306408000004,None,,,,,,,,,,,,,,,,,,,,803.259203200003,803.7635312000057,0.5058393600047566,1.006179060001159,803.7468487000006,803.8468604000009,803.7468487000006,803.8468604000009,803.8468604000009,None,c,1,0.6748398999989149,803.8468604000009,None,,,,,,,ppee2,2022-08-16_11h07.01.910,training+cueing,2022.1.3,59.939497073239394,
Friend.png,You,Friend,m,1.2,14,24,94,,,,,1,0,1,0,,,,,6,6,78,3,,,,,,,,,,,,,,,,,,,,,1.488,1.819,804.6487254000021,None,,,,,,,,,,,,,,,,,,,,805.1959466000044,805.6984266,0.5039085800017347,1.0041331800020998,805.6816764000032,805.7816017000005,805.6816764000032,805.7816017000005,805.7816017000005,None,None,0,,805.7816017000005,None,,,,,,,ppee2,2022-08-16_11h07.01.910,training+cueing,2022.1.3,59.939497073239394,
Self.png,Stranger,Self ,m,3.1,18,28,98,,,,,1,0,1,0,,,,,6,7,79,2,,,,,,,,,,,,,,,,,,,,,1.537,1.831,807.3836222000027,None,,,,,,,,,,,,,,,,,,,,807.9134451999998,808.4169617000007,0.5021917600097368,1.0024605600119685,808.4002058000042,808.516947300006,808.4002058000042,808.516947300006,808.500237799999,None,m,1,0.7407325999956811,808.500237799999,None,,,,,,,ppee2,2022-08-16_11h07.01.910,training+cueing,2022.1.3,59.939497073239394,
Friend.png,Friend,Friend,c,2,12,22,92,,,,,1,0,1,0,,,,,6,8,80,4,,,,,,,,,,,,,,,,,,,,,1.665,2.487,809.368796499999,None,,,,,,,,,,,,,,,,,,,,809.9056430000055,810.4184915000005,0.5063639599975431,1.006498160000774,810.4018270000015,810.5184378000049,810.4018270000015,810.5184378000049,810.5016624999989,None,c,1,0.8199915999939549,810.5016624999989,None,,,,,,,ppee2,2022-08-16_11h07.01.910,training+cueing,2022.1.3,59.939497073239394,
