Image,Name,Face,CorrAns,Match,Face_onset,CResponse_onset,IResponse_onset,Match.thisRepN,Match.thisTrialN,Match.thisN,Match.thisIndex,Blocks.thisRepN,Blocks.thisTrialN,Blocks.thisN,Blocks.thisIndex,trials.thisRepN,trials.thisTrialN,trials.thisN,trials.thisIndex,trials_2.thisRepN,trials_2.thisTrialN,trials_2.thisN,trials_2.thisIndex,text.started,text.stopped,p1.started,p1.stopped,MatchInstructions.started,MatchInstructions.stopped,Name1.started,Name1.stopped,Face_Relevance.started,Face_Relevance.stopped,MismatchInstructions.started,MismatchInstructions.stopped,Rest_trainingInstruct.started,Rest_trainingInstruct.stopped,next8.keys,next8.rt,next8.started,next8.stopped,Ready.started,Ready.stopped,delay_one_picked,delay_two_picked,blank0.started,blank0.stopped,FixationCross1.started,FixationCross1.stopped,Name3.started,Name3.stopped,Face_Relevance3.started,Face_Relevance3.stopped,responseTime.started,responseTime.stopped,resp.keys,resp.corr,resp.rt,resp.started,resp.stopped,Accuracy.started,Accuracy.stopped,questions.started,questions.stopped,p2.started,p2.stopped,FixationCross3.started,FixationCross3.stopped,port_Face_onset.started,port_Face_onset.stopped,Name4.started,Name4.stopped,Face_Relevance4.started,Face_Relevance4.stopped,responseTime2.started,responseTime2.stopped,Response.keys,Response.corr,Response.rt,Response.started,Response.stopped,p3.started,p3.stopped,Finish.started,Finish.stopped,gender,age,participant,date,expName,psychopyVersion,frameRate,
Self.png,You,,,,,,,0,0,0,0,,,,,,,,,,,,,20.29090870008804,None,0.014501900412142277,0.5067818004172295,22.29102720017545,None,24.422839800128713,None,24.422839800128713,None,,,,,,,,,,,,,,,,,,,,,,,,,,,,,,,,,,,,,,,,,,,,,,,,,,,,,,,pphh2,2022-09-07_14h30.51.460,training+cueing,2022.1.3,60.23200160934402,
Stranger.png,Stranger,,,,,,,0,1,1,2,,,,,,,,,,,,,,,,,,,44.3276322002057,None,44.3276322002057,None,,,,,,,,,,,,,,,,,,,,,,,,,,,,,,,,,,,,,,,,,,,,,,,,,,,,,,,pphh2,2022-09-07_14h30.51.460,training+cueing,2022.1.3,60.23200160934402,
Friend.png,Friend,,,,,,,0,2,2,1,,,,,,,,,,,,,,,,,,,64.32805070001632,None,64.32805070001632,None,,,,,,,,,,,,,,,,,,,,,,,,,,,,,,,,,,,,,,,,,,,,,,,,,,,,,,,pphh2,2022-09-07_14h30.51.460,training+cueing,2022.1.3,60.23200160934402,
Stranger.png,Friend,Stranger,m,2.3,17,27,97,,,,,0,0,0,0,0,0,0,7,,,,,,,,,,,,,,,84.28851770004258,None,86.77357870014384,None,space,-1.3115547001361847,2.000604880042374,None,88.75861300015822,None,1.681,1.54,91.76362740015611,None,92.38376510003582,92.89492430002429,92.87820320017636,92.9949908000417,92.87820320017636,92.9949908000417,92.9949908000417,None,c,0,0.4828258999623358,92.9949908000417,None,93.49418690009043,None,,,,,,,,,,,,,,,,,,,,,,,,,,pphh2,2022-09-07_14h30.51.460,training+cueing,2022.1.3,60.23200160934402,
Stranger.png,You,Stranger,m,1.3,15,25,95,,,,,0,0,0,0,0,1,1,6,,,,,,,,,,,,,,,,,,,,,,,,,1.78,2.026,93.89558350015432,None,94.42757160007022,94.92963420017622,94.91302240011282,95.01311870012432,94.91302240011282,95.01311870012432,95.01311870012432,None,m,1,1.0888070999644697,95.01311870012432,None,96.13046810007654,None,,,,,,,,,,,,,,,,,,,,,,,,,,pphh2,2022-09-07_14h30.51.460,training+cueing,2022.1.3,60.23200160934402,
Friend.png,Friend,Friend,c,2,12,22,92,,,,,0,0,0,0,0,2,2,4,,,,,,,,,,,,,,,,,,,,,,,,,1.709,1.213,96.53081690007821,None,97.06241170014255,97.56492360006087,97.5482926000841,97.66498200013302,97.5482926000841,97.66498200013302,97.64835620019585,None,c,1,1.1105338998604566,97.64835620019585,None,98.78245070017874,None,,,,,,,,,,,,,,,,,,,,,,,,,,pphh2,2022-09-07_14h30.51.460,training+cueing,2022.1.3,60.23200160934402,
Stranger.png,Stranger,Stranger,c,3,13,23,93,,,,,0,0,0,0,0,3,3,8,,,,,,,,,,,,,,,,,,,,,,,,,1.696,2.167,99.18275150004774,None,99.71368200005963,100.21693960018456,100.2002741000615,100.3169426000677,100.2002741000615,100.3169426000677,100.30026040016674,None,c,1,1.5302671999670565,100.30026040016674,None,101.85124010010622,None,,,,,,,,,,,,,,,,,,,,,,,,,,pphh2,2022-09-07_14h30.51.460,training+cueing,2022.1.3,60.23200160934402,
Stranger.png,Stranger,Stranger,c,3,13,23,93,,,,,0,0,0,0,0,4,4,11,,,,,,,,,,,,,,,,,,,,,,,,,1.559,1.34,102.25147900008596,None,102.78072750009596,103.28573100012727,103.26901190006174,103.38582160021178,103.26901190006174,103.38582160021178,103.36901780008338,None,m,0,1.0046380998101085,103.36901780008338,None,104.4022569002118,None,,,,,,,,,,,,,,,,,,,,,,,,,,pphh2,2022-09-07_14h30.51.460,training+cueing,2022.1.3,60.23200160934402,
Self.png,Stranger,Self ,m,3.1,18,28,98,,,,,0,0,0,0,0,5,5,2,,,,,,,,,,,,,,,,,,,,,,,,,1.485,1.642,104.8034671000205,None,105.33188170008361,105.83764160005376,105.82087180018425,105.93760310020298,105.82087180018425,105.93760310020298,105.92094500013627,None,m,1,0.9493919000960886,105.92094500013627,None,106.8882828000933,None,,,,,,,,,,,,,,,,,,,,,,,,,,pphh2,2022-09-07_14h30.51.460,training+cueing,2022.1.3,60.23200160934402,
Self.png,You,Self ,c,1,11,21,91,,,,,0,0,0,0,0,6,6,0,,,,,,,,,,,,,,,,,,,,,,,,,1.467,1.698,107.28941040020436,None,107.8243135001976,108.33938120002858,108.32284740009345,108.4227803000249,108.32284740009345,108.4227803000249,108.4227803000249,None,c,1,1.0229392999317497,108.4227803000249,None,109.47357650008053,None,,,,,,,,,,,,,,,,,,,,,,,,,,pphh2,2022-09-07_14h30.51.460,training+cueing,2022.1.3,60.23200160934402,
Friend.png,Friend,Friend,c,2,12,22,92,,,,,0,0,0,0,0,7,7,10,,,,,,,,,,,,,,,,,,,,,,,,,1.521,2.198,109.87386960000731,None,110.4054511000868,110.90795600018464,110.89126550010405,111.00803760020062,110.89126550010405,111.00803760020062,110.99128680001013,None,m,0,1.2704833000898361,110.99128680001013,None,112.29215830005705,None,,,,,,,,,,,,,,,,,,,,,,,,,,pphh2,2022-09-07_14h30.51.460,training+cueing,2022.1.3,60.23200160934402,
Self.png,Friend,Self ,m,2.1,16,26,96,,,,,0,0,0,0,0,8,8,1,,,,,,,,,,,,,,,,,,,,,,,,,1.412,2.358,112.6925346001517,None,113.22376960003749,113.72676039999351,113.70989840012044,113.82664910005406,113.70989840012044,113.82664910005406,113.80994010018185,None,c,0,0.787710800068453,113.80994010018185,None,114.62724640010856,None,,,,,,,,,,,,,,,,,,,,,,,,,,pphh2,2022-09-07_14h30.51.460,training+cueing,2022.1.3,60.23200160934402,
Self.png,You,Self ,c,1,11,21,91,,,,,0,0,0,0,0,9,9,9,,,,,,,,,,,,,,,,,,,,,,,,,1.775,2.395,115.02752510015853,None,115.56103540002368,116.06162860011682,116.04495600005612,116.14504710002802,116.04495600005612,116.14504710002802,116.14504710002802,None,c,1,1.1246201999019831,116.14504710002802,None,117.29572970001027,None,,,,,,,,,,,,,,,,,,,,,,,,,,pphh2,2022-09-07_14h30.51.460,training+cueing,2022.1.3,60.23200160934402,
Friend.png,Stranger,Friend,m,3.2,19,29,99,,,,,0,0,0,0,0,10,10,5,,,,,,,,,,,,,,,,,,,,,,,,,1.552,1.226,117.69614430004731,None,118.22710390016437,118.7304227000568,118.71232940000482,118.83040129998699,118.71232940000482,118.83040129998699,118.81374540016986,None,m,1,0.9994202998932451,118.81374540016986,None,119.83112420001999,None,,,,,,,,,,,,,,,,,,,,,,,,,,pphh2,2022-09-07_14h30.51.460,training+cueing,2022.1.3,60.23200160934402,
Friend.png,You,Friend,m,1.2,14,24,94,,,,,0,0,0,0,0,11,11,3,,,,,,,,,,,,,,,,,,,,,,,,,1.556,2.45,120.23130360012874,None,120.76100190007128,121.26539270021021,121.24874220020138,121.34878040011972,121.24874220020138,121.34878040011972,121.34878040011972,None,m,1,1.0083685000427067,121.34878040011972,None,122.38308760011569,None,,,,,,,,,,,,,,,,,,,,,,,,,,pphh2,2022-09-07_14h30.51.460,training+cueing,2022.1.3,60.23200160934402,
Friend.png,Stranger,Friend,m,3.2,19,29,99,,,,,0,0,0,0,,,,,0,0,0,5,,,,,,,,,,,,,,,,,,,184.86161230015568,None,1.705,2.215,188.38262460008264,None,,,,,,,,,,,,,,,,122.78316440014169,None,0.015886580105870962,None,188.98678130004555,189.49819330009632,0.5014302399940789,1.0015878397971392,189.4815831000451,189.59825200005434,189.4815831000451,189.59825200005434,189.59825200005434,None,m,1,0.8710454001557082,189.59825200005434,None,,,,,,,pphh2,2022-09-07_14h30.51.460,training+cueing,2022.1.3,60.23200160934402,
Friend.png,Friend,Friend,c,2,12,22,92,,,,,0,0,0,0,,,,,0,1,1,10,,,,,,,,,,,,,,,,,,,,,1.556,1.726,190.60477970005013,None,,,,,,,,,,,,,,,,,,,,191.1471558001358,191.64998400001787,0.503159340005368,1.0034707400482148,191.6330845002085,191.7498539001681,191.6330845002085,191.7498539001681,191.73309370013885,None,None,0,,191.73309370013885,None,,,,,,,pphh2,2022-09-07_14h30.51.460,training+cueing,2022.1.3,60.23200160934402,
Stranger.png,Stranger,Stranger,c,3,13,23,93,,,,,0,0,0,0,,,,,0,2,2,8,,,,,,,,,,,,,,,,,,,,,1.433,2.378,193.40189450001344,None,,,,,,,,,,,,,,,,,,,,193.93193680001423,194.43512010015547,0.5038483398966491,1.004378239857033,194.41846230020747,194.53519750013947,194.41846230020747,194.53519750013947,194.51847300003283,None,None,0,,194.51847300003283,None,,,,,,,pphh2,2022-09-07_14h30.51.460,training+cueing,2022.1.3,60.23200160934402,
Stranger.png,Stranger,Stranger,c,3,13,23,93,,,,,0,0,0,0,,,,,0,3,3,11,,,,,,,,,,,,,,,,,,,,,1.418,1.81,196.05396200018004,None,,,,,,,,,,,,,,,,,,,,196.58550940011628,197.08704240014777,0.499299039831385,0.999543439829722,197.07039050012827,197.18710430013016,197.07039050012827,197.18710430013016,197.18710430013016,None,None,0,,197.18710430013016,None,,,,,,,pphh2,2022-09-07_14h30.51.460,training+cueing,2022.1.3,60.23200160934402,
Stranger.png,Friend,Stranger,m,2.3,17,27,97,,,,,0,0,0,0,,,,,0,4,4,7,,,,,,,,,,,,,,,,,,,,,1.667,1.478,198.70633850013837,None,,,,,,,,,,,,,,,,,,,,199.25174680002965,199.75563280005008,0.5051169397775084,1.0054329398553818,199.73892680020072,199.85570800001733,199.73892680020072,199.85570800001733,199.83897010004148,None,c,0,1.0479932001326233,199.83897010004148,None,,,,,,,pphh2,2022-09-07_14h30.51.460,training+cueing,2022.1.3,60.23200160934402,
Friend.png,Friend,Friend,c,2,12,22,92,,,,,0,0,0,0,,,,,0,5,5,4,,,,,,,,,,,,,,,,,,,,,1.794,1.32,201.00779360020533,None,,,,,,,,,,,,,,,,,,,,201.53421600000001,202.04061860009097,0.5102348399814218,1.0104100399184972,202.02403850015253,202.14070410002023,202.02403850015253,202.14070410002023,202.1239585999865,None,c,1,0.6504827998578548,202.1239585999865,None,,,,,,,pphh2,2022-09-07_14h30.51.460,training+cueing,2022.1.3,60.23200160934402,
Friend.png,You,Friend,m,1.2,14,24,94,,,,,0,0,0,0,,,,,0,6,6,3,,,,,,,,,,,,,,,,,,,,,1.635,1.786,202.89317789999768,None,,,,,,,,,,,,,,,,,,,,203.4374677001033,203.94204190000892,0.504876839928329,1.005230839829892,203.92530070012435,204.02532480005175,203.92530070012435,204.02532480005175,204.02532480005175,None,None,0,,204.02532480005175,None,,,,,,,pphh2,2022-09-07_14h30.51.460,training+cueing,2022.1.3,60.23200160934402,
Stranger.png,You,Stranger,m,1.3,15,25,95,,,,,0,0,0,0,,,,,0,7,7,6,,,,,,,,,,,,,,,,,,,,,1.648,2.179,205.76131520001218,None,,,,,,,,,,,,,,,,,,,,206.28808590001427,206.79403280001134,0.5095020399894565,1.0097773398738354,206.77739920001477,206.87749280012213,206.77739920001477,206.87749280012213,206.87749280012213,None,c,0,0.7764445999637246,206.87749280012213,None,,,,,,,pphh2,2022-09-07_14h30.51.460,training+cueing,2022.1.3,60.23200160934402,
Self.png,Friend,Self ,m,2.1,16,26,96,,,,,0,0,0,0,,,,,0,8,8,1,,,,,,,,,,,,,,,,,,,,,1.539,1.922,207.78433270007372,None,,,,,,,,,,,,,,,,,,,,208.32444740016945,208.82890369999222,0.504456140100956,1.0047474401071668,208.8122126001399,208.92896859999746,208.8122126001399,208.92896859999746,208.91223860019818,None,m,1,0.9987299998756498,208.91223860019818,None,,,,,,,pphh2,2022-09-07_14h30.51.460,training+cueing,2022.1.3,60.23200160934402,
Self.png,You,Self ,c,1,11,21,91,,,,,0,0,0,0,,,,,0,9,9,0,,,,,,,,,,,,,,,,,,,,,1.528,2.087,210.03262850013562,None,,,,,,,,,,,,,,,,,,,,210.57639350020327,211.08050879999064,0.5057669396046549,1.0059453395660967,211.06390070007183,211.16389810014516,211.06390070007183,211.16389810014516,211.16389810014516,None,c,1,0.7464509999845177,211.16389810014516,None,,,,,,,pphh2,2022-09-07_14h30.51.460,training+cueing,2022.1.3,60.23200160934402,
Self.png,You,Self ,c,1,11,21,91,,,,,0,0,0,0,,,,,0,10,10,9,,,,,,,,,,,,,,,,,,,,,1.732,1.451,212.032826700015,None,,,,,,,,,,,,,,,,,,,,212.57533190003596,213.08222560002469,0.5087602399289608,1.0110862399451435,213.0633140001446,213.1653026000131,213.0633140001446,213.1653026000131,213.1653026000131,None,m,0,0.6808310998603702,213.1653026000131,None,,,,,,,pphh2,2022-09-07_14h30.51.460,training+cueing,2022.1.3,60.23200160934402,
Self.png,Stranger,Self ,m,3.1,18,28,98,,,,,0,0,0,0,,,,,0,11,11,2,,,,,,,,,,,,,,,,,,,,,1.549,1.496,213.9675214001909,None,,,,,,,,,,,,,,,,,,,,214.51315380004235,215.0167373002041,0.5029528397135437,1.0033639397006482,215.00005580019206,215.11685140011832,215.00005580019206,215.11685140011832,215.1001315000467,None,m,1,0.8258638998959213,215.1001315000467,None,,,,,,,pphh2,2022-09-07_14h30.51.460,training+cueing,2022.1.3,60.23200160934402,
Friend.png,You,Friend,m,1.2,14,24,94,,,,,0,0,0,0,,,,,1,0,12,3,,,,,,,,,,,,,,,,,,,,,1.494,2.069,216.05231739999726,None,,,,,,,,,,,,,,,,,,,,216.5974801001139,217.10155750019476,0.5056897399481386,1.0060902398545295,217.08488640002906,217.1849958000239,217.08488640002906,217.1849958000239,217.1849958000239,None,m,1,1.0771202999167144,217.1849958000239,None,,,,,,,pphh2,2022-09-07_14h30.51.460,training+cueing,2022.1.3,60.23200160934402,
Stranger.png,You,Stranger,m,1.3,15,25,95,,,,,0,0,0,0,,,,,1,1,13,6,,,,,,,,,,,,,,,,,,,,,1.712,1.743,218.3871981999837,None,,,,,,,,,,,,,,,,,,,,218.93010630016215,219.43664239998907,0.510390639770776,1.010598439956084,219.41998750017956,219.52002560021356,219.41998750017956,219.52002560021356,219.52002560021356,None,m,1,1.0462798001244664,219.52002560021356,None,,,,,,,pphh2,2022-09-07_14h30.51.460,training+cueing,2022.1.3,60.23200160934402,
Self.png,Stranger,Self ,m,3.1,18,28,98,,,,,0,0,0,0,,,,,1,2,14,2,,,,,,,,,,,,,,,,,,,,,1.472,1.68,220.68966360017657,None,,,,,,,,,,,,,,,,,,,,221.23821670003235,221.73828040016815,0.5130604396108538,1.0133110396564007,221.73828040016815,221.83828900009394,221.73828040016815,221.83828900009394,221.83828900009394,None,m,1,0.8400919998530298,221.83828900009394,None,,,,,,,pphh2,2022-09-07_14h30.51.460,training+cueing,2022.1.3,60.23200160934402,
Stranger.png,Friend,Stranger,m,2.3,17,27,97,,,,,0,0,0,0,,,,,1,3,15,7,,,,,,,,,,,,,,,,,,,,,1.753,1.445,222.80824540019967,None,,,,,,,,,,,,,,,,,,,,223.36152440006845,223.8731292001903,0.5040869398508221,1.0043396400287747,223.85645940015092,223.97318600001745,223.85645940015092,223.97318600001745,223.95646670018323,None,m,1,1.5696165000554174,223.95646670018323,None,,,,,,,pphh2,2022-09-07_14h30.51.460,training+cueing,2022.1.3,60.23200160934402,
Stranger.png,Stranger,Stranger,c,3,13,23,93,,,,,0,0,0,0,,,,,1,4,16,8,,,,,,,,,,,,,,,,,,,,,1.571,1.859,225.65952480002306,None,,,,,,,,,,,,,,,,,,,,226.20458620018326,226.7085667999927,0.5034593399614096,1.00369293987751,226.69183200015686,226.80855930014513,226.69183200015686,226.80855930014513,226.79186080000363,None,c,1,1.1336556000169367,226.79186080000363,None,,,,,,,pphh2,2022-09-07_14h30.51.460,training+cueing,2022.1.3,60.23200160934402,
Friend.png,Friend,Friend,c,2,12,22,92,,,,,0,0,0,0,,,,,1,5,17,4,,,,,,,,,,,,,,,,,,,,,1.525,1.537,228.04460610006936,None,,,,,,,,,,,,,,,,,,,,228.58972769998945,229.09358980017714,0.5050109401345253,1.0052688401192427,229.07691580010578,229.19362110015936,229.07691580010578,229.19362110015936,229.17693349998444,None,c,1,1.4372549999970943,229.17693349998444,None,,,,,,,pphh2,2022-09-07_14h30.51.460,training+cueing,2022.1.3,60.23200160934402,
Friend.png,Friend,Friend,c,2,12,22,92,,,,,0,0,0,0,,,,,1,6,18,10,,,,,,,,,,,,,,,,,,,,,1.688,1.559,230.74688130011782,None,,,,,,,,,,,,,,,,,,,,231.28880420001224,231.79554429999553,0.5108451398555189,1.0112956399098039,231.77886080020107,231.89558900007978,231.77886080020107,231.89558900007978,231.87886530021206,None,c,1,0.7666259999386966,231.87886530021206,None,,,,,,,pphh2,2022-09-07_14h30.51.460,training+cueing,2022.1.3,60.23200160934402,
Friend.png,Stranger,Friend,m,3.2,19,29,99,,,,,0,0,0,0,,,,,1,7,19,5,,,,,,,,,,,,,,,,,,,,,1.718,2.397,232.76519960002042,None,,,,,,,,,,,,,,,,,,,,233.31310200016014,233.81370600010268,0.5141234397888184,1.0143455397337675,233.81370600010268,233.91366309998557,233.81370600010268,233.91366309998557,233.91366309998557,None,m,1,0.7478660999331623,233.91366309998557,None,,,,,,,pphh2,2022-09-07_14h30.51.460,training+cueing,2022.1.3,60.23200160934402,
Self.png,Friend,Self ,m,2.1,16,26,96,,,,,0,0,0,0,,,,,1,8,20,1,,,,,,,,,,,,,,,,,,,,,1.462,1.823,234.7831451999955,None,,,,,,,,,,,,,,,,,,,,235.33865709998645,235.84855030011386,0.5007886399980634,1.001075039850548,235.8318818002008,235.94864070019685,235.8318818002008,235.94864070019685,235.94864070019685,None,c,0,0.8568935000803322,235.94864070019685,None,,,,,,,pphh2,2022-09-07_14h30.51.460,training+cueing,2022.1.3,60.23200160934402,
Self.png,You,Self ,c,1,11,21,91,,,,,0,0,0,0,,,,,1,9,21,0,,,,,,,,,,,,,,,,,,,,,1.593,1.277,236.9343120001722,None,,,,,,,,,,,,,,,,,,,,237.47976240003482,237.9833541000262,0.5046619398053735,1.0049287399742752,237.9667007001117,238.06672150013037,237.9667007001117,238.06672150013037,238.06672150013037,None,c,1,0.563306099968031,238.06672150013037,None,,,,,,,pphh2,2022-09-07_14h30.51.460,training+cueing,2022.1.3,60.23200160934402,
Stranger.png,Stranger,Stranger,c,3,13,23,93,,,,,0,0,0,0,,,,,1,10,22,11,,,,,,,,,,,,,,,,,,,,,1.754,1.313,238.75272050010972,None,,,,,,,,,,,,,,,,,,,,239.2973428000696,239.80137620004825,0.503951639868319,1.0044179398100823,239.78470010007732,239.90140309999697,239.78470010007732,239.90140309999697,239.8847028000746,None,c,1,1.4005086000543088,239.8847028000746,None,,,,,,,pphh2,2022-09-07_14h30.51.460,training+cueing,2022.1.3,60.23200160934402,
Self.png,You,Self ,c,1,11,21,91,,,,,0,0,0,0,,,,,1,11,23,9,,,,,,,,,,,,,,,,,,,,,1.641,2.401,241.40394000010565,None,,,,,,,,,,,,,,,,,,,,241.94921560003422,242.4533362002112,0.5055169397965074,1.005801839986816,242.43663520016707,242.53663159999996,242.43663520016707,242.53663159999996,242.53663159999996,None,c,1,0.6851975000463426,242.53663159999996,None,,,,,,,pphh2,2022-09-07_14h30.51.460,training+cueing,2022.1.3,60.23200160934402,
Friend.png,You,Friend,m,1.2,14,24,94,,,,,0,0,0,0,,,,,2,0,24,3,,,,,,,,,,,,,,,,,,,,,1.482,1.612,243.3554108000826,None,,,,,,,,,,,,,,,,,,,,243.90124889998697,244.40470040007494,0.5099228399340063,1.0101985400542617,244.3879929999821,244.4881033001002,244.3879929999821,244.4881033001002,244.4881033001002,None,m,1,0.846584300044924,244.4881033001002,None,,,,,,,pphh2,2022-09-07_14h30.51.460,training+cueing,2022.1.3,60.23200160934402,
Self.png,Friend,Self ,m,2.1,16,26,96,,,,,0,0,0,0,,,,,2,1,25,1,,,,,,,,,,,,,,,,,,,,,1.661,1.436,245.45706739998423,None,,,,,,,,,,,,,,,,,,,,246.00246800016612,246.50620400020853,0.5048865396529436,1.0051746398676187,246.48961930000223,246.60625730012543,246.48961930000223,246.60625730012543,246.5895564001985,None,None,0,,246.5895564001985,None,,,,,,,pphh2,2022-09-07_14h30.51.460,training+cueing,2022.1.3,60.23200160934402,
Self.png,Stranger,Self ,m,3.1,18,28,98,,,,,0,0,0,0,,,,,2,2,26,2,,,,,,,,,,,,,,,,,,,,,1.591,2.086,248.35831860010512,None,,,,,,,,,,,,,,,,,,,,248.88957890006714,249.391756700119,0.502867539646104,1.0038047397974879,249.3750712000765,249.4917914001271,249.3750712000765,249.4917914001271,249.47508120001294,None,c,0,1.3630508000496775,249.47508120001294,None,,,,,,,pphh2,2022-09-07_14h30.51.460,training+cueing,2022.1.3,60.23200160934402,
Stranger.png,Stranger,Stranger,c,3,13,23,93,,,,,0,0,0,0,,,,,2,3,27,11,,,,,,,,,,,,,,,,,,,,,1.664,2.085,250.9604128000792,None,,,,,,,,,,,,,,,,,,,,251.48645100020804,251.99354960001074,0.5092091399710625,1.0095775399822742,251.97685680002905,252.09345460007899,251.97685680002905,252.09345460007899,252.07671659998596,None,c,1,0.9844676998909563,252.07671659998596,None,,,,,,,pphh2,2022-09-07_14h30.51.460,training+cueing,2022.1.3,60.23200160934402,
Stranger.png,Stranger,Stranger,c,3,13,23,93,,,,,0,0,0,0,,,,,2,4,28,8,,,,,,,,,,,,,,,,,,,,,1.752,2.256,253.17953660013154,None,,,,,,,,,,,,,,,,,,,,253.72224940010346,254.22848240006715,0.5101599399931729,1.0106544399168342,254.21177510009147,254.32855730014853,254.21177510009147,254.32855730014853,254.31187810003757,None,c,1,0.6544780998956412,254.31187810003757,None,,,,,,,pphh2,2022-09-07_14h30.51.460,training+cueing,2022.1.3,60.23200160934402,
Friend.png,Friend,Friend,c,2,12,22,92,,,,,0,0,0,0,,,,,2,5,29,4,,,,,,,,,,,,,,,,,,,,,1.778,2.29,255.09719870006666,None,,,,,,,,,,,,,,,,,,,,255.64275160012767,256.1465603001416,0.5049323397688568,1.005307339830324,256.129874400096,256.2466377001256,256.129874400096,256.2466377001256,256.22989790001884,None,m,0,0.5920964002143592,256.22989790001884,None,,,,,,,pphh2,2022-09-07_14h30.51.460,training+cueing,2022.1.3,60.23200160934402,
Friend.png,Stranger,Friend,m,3.2,19,29,99,,,,,0,0,0,0,,,,,2,6,30,5,,,,,,,,,,,,,,,,,,,,,1.493,2.231,256.9489774000831,None,,,,,,,,,,,,,,,,,,,,257.5001276000403,258.01458170008846,0.5083762397989631,1.008638739818707,257.9979181000963,258.1146441001911,257.9979181000963,258.1146441001911,258.0978863001801,None,None,0,,258.0978863001801,None,,,,,,,pphh2,2022-09-07_14h30.51.460,training+cueing,2022.1.3,60.23200160934402,
Friend.png,Friend,Friend,c,2,12,22,92,,,,,0,0,0,0,,,,,2,7,31,10,,,,,,,,,,,,,,,,,,,,,1.65,2.491,259.70045950007625,None,,,,,,,,,,,,,,,,,,,,260.2299107001163,260.7332382001914,0.5042522398289293,1.0045191398821771,260.71657400019467,260.83324280008674,260.71657400019467,260.83324280008674,260.8165535000153,None,c,1,0.6294147002045065,260.8165535000153,None,,,,,,,pphh2,2022-09-07_14h30.51.460,training+cueing,2022.1.3,60.23200160934402,
Stranger.png,Friend,Stranger,m,2.3,17,27,97,,,,,0,0,0,0,,,,,2,8,32,7,,,,,,,,,,,,,,,,,,,,,1.705,2.092,261.56876190006733,None,,,,,,,,,,,,,,,,,,,,262.11046390002593,262.6179265000392,0.5104850397910923,1.0107396398670971,262.60126770008355,262.718111500144,262.60126770008355,262.718111500144,262.70149130001664,None,m,1,0.7926543999928981,262.70149130001664,None,,,,,,,pphh2,2022-09-07_14h30.51.460,training+cueing,2022.1.3,60.23200160934402,
Stranger.png,You,Stranger,m,1.3,15,25,95,,,,,0,0,0,0,,,,,2,9,33,6,,,,,,,,,,,,,,,,,,,,,1.615,2.372,263.62021730002016,None,,,,,,,,,,,,,,,,,,,,264.16582140000537,264.6694128999952,0.5045323399826884,1.0048681399784982,264.65268980013207,264.75275380001403,264.65268980013207,264.75275380001403,264.75275380001403,None,m,1,0.6769834000151604,264.75275380001403,None,,,,,,,pphh2,2022-09-07_14h30.51.460,training+cueing,2022.1.3,60.23200160934402,
Self.png,You,Self ,c,1,11,21,91,,,,,0,0,0,0,,,,,2,10,34,9,,,,,,,,,,,,,,,,,,,,,1.419,1.781,265.5548963001929,None,,,,,,,,,,,,,,,,,,,,266.0972816001158,266.6041425000876,0.5110577398445457,1.011323939776048,266.5874672001228,266.68750770017505,266.5874672001228,266.68750770017505,266.68750770017505,None,c,1,0.5339199998416007,266.68750770017505,None,,,,,,,pphh2,2022-09-07_14h30.51.460,training+cueing,2022.1.3,60.23200160934402,
Self.png,You,Self ,c,1,11,21,91,,,,,0,0,0,0,,,,,2,11,35,0,,,,,,,,,,,,,,,,,,,,,1.62,1.307,267.33966700010933,None,,,,,,,,,,,,,,,,,,,,267.88124690018594,268.3887857000809,0.510750439716503,1.0109771396964788,268.37219590018503,268.47216460015625,268.37219590018503,268.47216460015625,268.47216460015625,None,c,1,0.5261775001417845,268.47216460015625,None,,,,,,,pphh2,2022-09-07_14h30.51.460,training+cueing,2022.1.3,60.23200160934402,
Friend.png,Friend,Friend,c,2,12,22,92,,,,,0,0,0,0,,,,,3,0,36,4,,,,,,,,,,,,,,,,,,,,,1.752,1.566,269.12891600001603,None,,,,,,,,,,,,,,,,,,,,269.66914640017785,270.17342730006203,0.5056451398413628,1.0059850397519767,270.1566999000497,270.27345159999095,270.1566999000497,270.27345159999095,270.256720200181,None,m,0,0.6451902999542654,270.256720200181,None,,,,,,,pphh2,2022-09-07_14h30.51.460,training+cueing,2022.1.3,60.23200160934402,
Self.png,Friend,Self ,m,2.1,16,26,96,,,,,0,0,0,0,,,,,3,1,37,1,,,,,,,,,,,,,,,,,,,,,1.537,1.756,271.0252266000025,None,,,,,,,,,,,,,,,,,,,,271.5521153002046,272.05814530001953,0.509537440026179,1.0098170400597155,272.04144430020824,272.1581093000714,272.04144430020824,272.1581093000714,272.1414755000733,None,m,1,0.840572299901396,272.1414755000733,None,,,,,,,pphh2,2022-09-07_14h30.51.460,training+cueing,2022.1.3,60.23200160934402,
Stranger.png,Stranger,Stranger,c,3,13,23,93,,,,,0,0,0,0,,,,,3,2,38,11,,,,,,,,,,,,,,,,,,,,,1.57,1.245,273.1102893000934,None,,,,,,,,,,,,,,,,,,,,273.6607050001621,274.17634650017135,0.510221139760688,1.0106538399122655,274.15958570013754,274.2763214001898,274.15958570013754,274.2763214001898,274.25958360009827,None,c,1,0.7067168999928981,274.25958360009827,None,,,,,,,pphh2,2022-09-07_14h30.51.460,training+cueing,2022.1.3,60.23200160934402,
Stranger.png,Friend,Stranger,m,2.3,17,27,97,,,,,0,0,0,0,,,,,3,3,39,7,,,,,,,,,,,,,,,,,,,,,1.487,1.993,275.0950075001456,None,,,,,,,,,,,,,,,,,,,,275.64090670016594,276.14447320019826,0.504470240091905,1.0046741398982704,276.12780320015736,276.2444300001953,276.12780320015736,276.2444300001953,276.22770000016317,None,c,0,0.8335563000291586,276.22770000016317,None,,,,,,,pphh2,2022-09-07_14h30.51.460,training+cueing,2022.1.3,60.23200160934402,
Friend.png,Friend,Friend,c,2,12,22,92,,,,,0,0,0,0,,,,,3,4,40,10,,,,,,,,,,,,,,,,,,,,,1.406,1.838,277.1846380000934,None,,,,,,,,,,,,,,,,,,,,277.7305441000499,278.2459235000424,0.5099613398779184,1.0101831397041678,278.229308700189,278.34597860020585,278.229308700189,278.34597860020585,278.3292774001602,None,c,1,0.7650440998841077,278.3292774001602,None,,,,,,,pphh2,2022-09-07_14h30.51.460,training+cueing,2022.1.3,60.23200160934402,
Friend.png,Stranger,Friend,m,3.2,19,29,99,,,,,0,0,0,0,,,,,3,5,41,5,,,,,,,,,,,,,,,,,,,,,1.476,1.527,279.21461410005577,None,,,,,,,,,,,,,,,,,,,,279.7455293000676,280.2474221000448,0.5022733400110155,1.0025628400035203,280.2307565000374,280.34761830000207,280.2307565000374,280.34761830000207,280.3308243001811,None,m,1,0.763111799955368,280.3308243001811,None,,,,,,,pphh2,2022-09-07_14h30.51.460,training+cueing,2022.1.3,60.23200160934402,
Self.png,You,Self ,c,1,11,21,91,,,,,0,0,0,0,,,,,3,6,42,9,,,,,,,,,,,,,,,,,,,,,1.763,1.472,281.21633290010504,None,,,,,,,,,,,,,,,,,,,,281.76137840002775,282.26555300015025,0.5056186399888247,1.006016339873895,282.2488051999826,282.34887730004266,282.2488051999826,282.34887730004266,282.34887730004266,None,c,1,0.5528323999606073,282.34887730004266,None,,,,,,,pphh2,2022-09-07_14h30.51.460,training+cueing,2022.1.3,60.23200160934402,
Stranger.png,Stranger,Stranger,c,3,13,23,93,,,,,0,0,0,0,,,,,3,7,43,8,,,,,,,,,,,,,,,,,,,,,1.44,2.004,283.03419730020687,None,,,,,,,,,,,,,,,,,,,,283.58298100018874,284.08345260005444,0.5138368397019804,1.0141226395498961,284.08345260005444,284.18351130001247,284.08345260005444,284.18351130001247,284.18351130001247,None,c,1,0.7656701998785138,284.18351130001247,None,,,,,,,pphh2,2022-09-07_14h30.51.460,training+cueing,2022.1.3,60.23200160934402,
Self.png,You,Self ,c,1,11,21,91,,,,,0,0,0,0,,,,,3,8,44,0,,,,,,,,,,,,,,,,,,,,,1.746,1.805,285.06887540011667,None,,,,,,,,,,,,,,,,,,,,285.6138880001381,286.1183216001373,0.5061483399476856,1.0064638399053365,286.101584300166,286.2016273001209,286.101584300166,286.2016273001209,286.2016273001209,None,c,1,0.5247120999265462,286.2016273001209,None,,,,,,,pphh2,2022-09-07_14h30.51.460,training+cueing,2022.1.3,60.23200160934402,
Stranger.png,You,Stranger,m,1.3,15,25,95,,,,,0,0,0,0,,,,,3,9,45,6,,,,,,,,,,,,,,,,,,,,,1.792,1.387,286.85360680008307,None,,,,,,,,,,,,,,,,,,,,287.39622430014424,287.9029976001475,0.5109016397036612,1.0111309397034347,287.88629870000295,287.9862780000549,287.88629870000295,287.9862780000549,287.9862780000549,None,c,0,0.4355759001336992,287.9862780000549,None,,,,,,,pphh2,2022-09-07_14h30.51.460,training+cueing,2022.1.3,60.23200160934402,
Self.png,Stranger,Self ,m,3.1,18,28,98,,,,,0,0,0,0,,,,,3,10,46,2,,,,,,,,,,,,,,,,,,,,,1.512,1.517,288.55476810014807,None,,,,,,,,,,,,,,,,,,,,289.08694390021265,289.5875468000304,0.514269339852035,1.01455853972584,289.5875468000304,289.687565700151,289.5875468000304,289.687565700151,289.687565700151,None,m,1,1.2948253999929875,289.687565700151,None,,,,,,,pphh2,2022-09-07_14h30.51.460,training+cueing,2022.1.3,60.23200160934402,
Friend.png,You,Friend,m,1.2,14,24,94,,,,,0,0,0,0,,,,,3,11,47,3,,,,,,,,,,,,,,,,,,,,,1.432,2.312,291.10778970015235,None,,,,,,,,,,,,,,,,,,,,291.65182900009677,292.15603539999574,0.5058395399246365,1.0061196400783956,292.1393356001936,292.23941899999045,292.1393356001936,292.23941899999045,292.23941899999045,None,m,1,0.88582480000332,292.23941899999045,None,,,,,,,pphh2,2022-09-07_14h30.51.460,training+cueing,2022.1.3,60.23200160934402,
Self.png,Friend,Self ,m,2.1,16,26,96,,,,,0,0,0,0,,,,,4,0,48,1,,,,,,,,,,,,,,,,,,,,,1.498,1.744,293.25910060014576,None,,,,,,,,,,,,,,,,,,,,293.80305019998923,294.3075967000332,0.5047839400358498,1.00498573994264,294.2910656000022,294.40767940017395,294.2910656000022,294.40767940017395,294.39096980006434,None,m,1,0.7669998998753726,294.39096980006434,None,,,,,,,pphh2,2022-09-07_14h30.51.460,training+cueing,2022.1.3,60.23200160934402,
Self.png,You,Self ,c,1,11,21,91,,,,,0,0,0,0,,,,,4,1,49,0,,,,,,,,,,,,,,,,,,,,,1.434,1.689,295.28038860019296,None,,,,,,,,,,,,,,,,,,,,295.8215438001789,296.3257256001234,0.5057293400168419,1.0060085400473326,296.30907820002176,296.4090800001286,296.30907820002176,296.4090800001286,296.4090800001286,None,c,1,0.5255843000486493,296.4090800001286,None,,,,,,,pphh2,2022-09-07_14h30.51.460,training+cueing,2022.1.3,60.23200160934402,
Stranger.png,You,Stranger,m,1.3,15,25,95,,,,,0,0,0,0,,,,,4,2,50,6,,,,,,,,,,,,,,,,,,,,,1.549,1.377,297.0610247000586,None,,,,,,,,,,,,,,,,,,,,297.6034851002041,298.1103553001303,0.5112420399673283,1.0115128399338573,298.09369870019145,298.19375960016623,298.09369870019145,298.19375960016623,298.19375960016623,None,m,1,0.6605510998051614,298.19375960016623,None,,,,,,,pphh2,2022-09-07_14h30.51.460,training+cueing,2022.1.3,60.23200160934402,
Friend.png,Friend,Friend,c,2,12,22,92,,,,,0,0,0,0,,,,,4,3,51,4,,,,,,,,,,,,,,,,,,,,,1.6,1.865,298.97914220020175,None,,,,,,,,,,,,,,,,,,,,299.5237591001205,300.028426800156,0.5049105398356915,1.0051894397474825,300.0117399999872,300.1284545001108,300.0117399999872,300.1284545001108,300.11175000015646,None,c,1,0.615112200146541,300.11175000015646,None,,,,,,,pphh2,2022-09-07_14h30.51.460,training+cueing,2022.1.3,60.23200160934402,
Friend.png,Friend,Friend,c,2,12,22,92,,,,,0,0,0,0,,,,,4,4,52,10,,,,,,,,,,,,,,,,,,,,,1.462,2.193,300.84732500021346,None,,,,,,,,,,,,,,,,,,,,301.3897886001505,301.8964591000695,0.5110019398853183,1.0112312398850918,301.87978740013205,301.9965584001038,301.87978740013205,301.9965584001038,301.9797674000729,None,c,1,0.5543933999724686,301.9797674000729,None,,,,,,,pphh2,2022-09-07_14h30.51.460,training+cueing,2022.1.3,60.23200160934402,
Self.png,Stranger,Self ,m,3.1,18,28,98,,,,,0,0,0,0,,,,,4,5,53,2,,,,,,,,,,,,,,,,,,,,,1.425,2.153,302.6653593000956,None,,,,,,,,,,,,,,,,,,,,303.2109556000214,303.7144065001048,0.5045506400056183,1.0048561398871243,303.69790280004963,303.8152891001664,303.69790280004963,303.8152891001664,303.7977599001024,None,m,1,0.5281152999959886,303.7977599001024,None,,,,,,,pphh2,2022-09-07_14h30.51.460,training+cueing,2022.1.3,60.23200160934402,
Stranger.png,Stranger,Stranger,c,3,13,23,93,,,,,0,0,0,0,,,,,4,6,54,8,,,,,,,,,,,,,,,,,,,,,1.681,2.247,304.45116610010155,None,,,,,,,,,,,,,,,,,,,,304.9909389000386,305.4988991001155,0.5110514396801591,1.0113388397730887,305.48221840010956,305.59893970005214,305.48221840010956,305.59893970005214,305.5822482001968,None,c,1,0.5202758999075741,305.5822482001968,None,,,,,,,pphh2,2022-09-07_14h30.51.460,training+cueing,2022.1.3,60.23200160934402,
Stranger.png,Stranger,Stranger,c,3,13,23,93,,,,,0,0,0,0,,,,,4,7,55,11,,,,,,,,,,,,,,,,,,,,,1.791,1.85,306.23405900015496,None,,,,,,,,,,,,,,,,,,,,306.7616882000584,307.26702180015855,0.508236939786002,1.0085792399477214,307.25034770020284,307.3671423001215,307.25034770020284,307.3671423001215,307.35040900018066,None,c,1,0.6552591999061406,307.35040900018066,None,,,,,,,pphh2,2022-09-07_14h30.51.460,training+cueing,2022.1.3,60.23200160934402,
Self.png,You,Self ,c,1,11,21,91,,,,,0,0,0,0,,,,,4,8,56,9,,,,,,,,,,,,,,,,,,,,,1.504,1.672,308.1355483001098,None,,,,,,,,,,,,,,,,,,,,308.6682943000924,309.16843180009164,0.5130545399151742,1.0133148399181664,309.15152790001594,309.2517130000051,309.15152790001594,309.2517130000051,309.2684102000203,None,m,0,0.6579255000688136,309.2684102000203,None,,,,,,,pphh2,2022-09-07_14h30.51.460,training+cueing,2022.1.3,60.23200160934402,
Friend.png,Stranger,Friend,m,3.2,19,29,99,,,,,0,0,0,0,,,,,4,9,57,5,,,,,,,,,,,,,,,,,,,,,1.544,1.827,310.0536992000416,None,,,,,,,,,,,,,,,,,,,,310.58399980003014,311.0864319000393,0.5032509400043637,1.0035740400198847,311.0697658001445,311.18647900014184,311.0697658001445,311.18647900014184,311.1697684000246,None,m,1,0.7243254999630153,311.1697684000246,None,,,,,,,pphh2,2022-09-07_14h30.51.460,training+cueing,2022.1.3,60.23200160934402,
Friend.png,You,Friend,m,1.2,14,24,94,,,,,0,0,0,0,,,,,4,10,58,3,,,,,,,,,,,,,,,,,,,,,1.567,2.279,312.02225300017744,None,,,,,,,,,,,,,,,,,,,,312.55483150016516,313.0545315002091,0.5148844397626817,1.0150490398518741,313.0545315002091,313.15469440002926,313.0545315002091,313.15469440002926,313.15469440002926,None,m,1,0.595091599971056,313.15469440002926,None,,,,,,,pphh2,2022-09-07_14h30.51.460,training+cueing,2022.1.3,60.23200160934402,
Stranger.png,Friend,Stranger,m,2.3,17,27,97,,,,,0,0,0,0,,,,,4,11,59,7,,,,,,,,,,,,,,,,,,,,,1.798,2.417,313.8739323001355,None,,,,,,,,,,,,,,,,,,,,314.41807370004244,314.922581900144,0.5047284397296607,1.0048962398432195,314.9059403000865,315.02263030014,314.9059403000865,315.02263030014,315.00588360009715,None,m,1,0.696598099777475,315.00588360009715,None,,,,,,,pphh2,2022-09-07_14h30.51.460,training+cueing,2022.1.3,60.23200160934402,
Stranger.png,Stranger,Stranger,c,3,13,23,93,,,,,0,0,0,0,,,,,5,0,60,11,,,,,,,,,,,,,,,,,,,,,1.747,2.343,315.82516560005024,None,,,,,,,,,,,,,,,,,,,,316.3705362000037,316.87395770009607,0.5043475399725139,1.0048450399190187,316.8573098999914,316.97402280010283,316.8573098999914,316.97402280010283,316.95730440015905,None,m,0,0.5528682000003755,316.95730440015905,None,,,,,,,pphh2,2022-09-07_14h30.51.460,training+cueing,2022.1.3,60.23200160934402,
Friend.png,Stranger,Friend,m,3.2,19,29,99,,,,,0,0,0,0,,,,,5,1,61,5,,,,,,,,,,,,,,,,,,,,,1.665,1.414,317.64389980002306,None,,,,,,,,,,,,,,,,,,,,318.1858506000135,318.6919882001821,0.5098087398800999,1.0101835399400443,318.675303200027,318.7920417001005,318.675303200027,318.7920417001005,318.775308100041,None,m,1,0.6062143000308424,318.775308100041,None,,,,,,,pphh2,2022-09-07_14h30.51.460,training+cueing,2022.1.3,60.23200160934402,
Self.png,You,Self ,c,1,11,21,91,,,,,0,0,0,0,,,,,5,2,62,0,,,,,,,,,,,,,,,,,,,,,1.424,1.622,319.5107048000209,None,,,,,,,,,,,,,,,,,,,,320.0552846000064,320.5599797000177,0.5051846399437636,1.0055584399960935,320.5433132001199,320.64382220013067,320.5433132001199,320.64382220013067,320.64382220013067,None,c,1,0.4864413000177592,320.64382220013067,None,,,,,,,pphh2,2022-09-07_14h30.51.460,training+cueing,2022.1.3,60.23200160934402,
Stranger.png,You,Stranger,m,1.3,15,25,95,,,,,0,0,0,0,,,,,5,3,63,6,,,,,,,,,,,,,,,,,,,,,1.69,1.369,321.24851549998857,None,,,,,,,,,,,,,,,,,,,,321.78786760009825,322.29456780012697,0.5097883399575949,1.0110433399677277,322.276851200033,322.3780638000462,322.276851200033,322.3780638000462,322.3780638000462,None,m,1,0.5562513000331819,322.3780638000462,None,,,,,,,pphh2,2022-09-07_14h30.51.460,training+cueing,2022.1.3,60.23200160934402,
Friend.png,Friend,Friend,c,2,12,22,92,,,,,0,0,0,0,,,,,5,4,64,10,,,,,,,,,,,,,,,,,,,,,1.42,2.185,323.06326470011845,None,,,,,,,,,,,,,,,,,,,,323.603075500112,324.1127718000207,0.5152929199393839,1.0157869199756533,324.0958784001414,324.21264170017093,324.0958784001414,324.21264170017093,324.1959353000857,None,m,0,0.8011692001018673,324.1959353000857,None,,,,,,,pphh2,2022-09-07_14h30.51.460,training+cueing,2022.1.3,60.23200160934402,
Self.png,Friend,Self ,m,2.1,16,26,96,,,,,0,0,0,0,,,,,5,5,65,1,,,,,,,,,,,,,,,,,,,,,1.785,1.47,325.13128329999745,None,,,,,,,,,,,,,,,,,,,,325.6737722000107,326.1811618001666,0.5116031400393695,1.0114356400445104,326.1644441001117,326.2806601000484,326.1644441001117,326.2806601000484,326.2640044,None,c,0,0.6541436999104917,326.2640044,None,,,,,,,pphh2,2022-09-07_14h30.51.460,training+cueing,2022.1.3,60.23200160934402,
Self.png,You,Self ,c,1,11,21,91,,,,,0,0,0,0,,,,,5,6,66,9,,,,,,,,,,,,,,,,,,,,,1.742,1.225,327.049488699995,None,,,,,,,,,,,,,,,,,,,,327.5944585001562,328.09877120004967,0.5062671399209648,1.0065887400414795,328.08214270020835,328.18227880005725,328.08214270020835,328.18227880005725,328.18227880005725,None,m,0,0.6549078000243753,328.18227880005725,None,,,,,,,pphh2,2022-09-07_14h30.51.460,training+cueing,2022.1.3,60.23200160934402,
Friend.png,Friend,Friend,c,2,12,22,92,,,,,0,0,0,0,,,,,5,7,67,4,,,,,,,,,,,,,,,,,,,,,1.553,2.017,328.96785310003906,None,,,,,,,,,,,,,,,,,,,,329.5127336999867,330.01696790009737,0.5038942398969084,1.004166339756921,330.000283600064,330.1170088001527,330.000283600064,330.1170088001527,330.10030010016635,None,c,1,0.6258229000959545,330.10030010016635,None,,,,,,,pphh2,2022-09-07_14h30.51.460,training+cueing,2022.1.3,60.23200160934402,
Stranger.png,Friend,Stranger,m,2.3,17,27,97,,,,,0,0,0,0,,,,,5,8,68,7,,,,,,,,,,,,,,,,,,,,,1.551,1.679,330.85347360000014,None,,,,,,,,,,,,,,,,,,,,331.3948276001029,331.9015836000908,0.5108414399437606,1.0111937397159636,331.8849147001747,332.0015881001018,331.8849147001747,332.0015881001018,331.9849600000307,None,m,1,0.5167002000380307,331.9849600000307,None,,,,,,,pphh2,2022-09-07_14h30.51.460,training+cueing,2022.1.3,60.23200160934402,
Self.png,Stranger,Self ,m,3.1,18,28,98,,,,,0,0,0,0,,,,,5,9,69,2,,,,,,,,,,,,,,,,,,,,,1.789,1.457,332.6205235000234,None,,,,,,,,,,,,,,,,,,,,333.1714820000343,333.68646320002154,0.5107187398243695,1.0108035397715867,333.6696828000713,333.7861938001588,333.6696828000713,333.7861938001588,333.769515800057,None,c,0,0.4922330998815596,333.769515800057,None,,,,,,,pphh2,2022-09-07_14h30.51.460,training+cueing,2022.1.3,60.23200160934402,
Friend.png,You,Friend,m,1.2,14,24,94,,,,,0,0,0,0,,,,,5,10,70,3,,,,,,,,,,,,,,,,,,,,,1.665,1.377,334.3880137000233,None,,,,,,,,,,,,,,,,,,,,334.9332359000109,335.4373578000814,0.5036504399031401,1.0039627400692552,335.42065090010874,335.5206838999875,335.42065090010874,335.5206838999875,335.5206838999875,None,m,1,1.093731400091201,335.5206838999875,None,,,,,,,pphh2,2022-09-07_14h30.51.460,training+cueing,2022.1.3,60.23200160934402,
Stranger.png,Stranger,Stranger,c,3,13,23,93,,,,,0,0,0,0,,,,,5,11,71,8,,,,,,,,,,,,,,,,,,,,,1.42,1.496,336.74041720014066,None,,,,,,,,,,,,,,,,,,,,337.2861630001571,337.78901870013215,0.5039423399139196,1.004345339955762,337.77255230001174,337.8891992000863,337.77255230001174,337.8891992000863,337.87257960019633,None,c,1,0.5493745000567287,337.87257960019633,None,,,,,,,pphh2,2022-09-07_14h30.51.460,training+cueing,2022.1.3,60.23200160934402,
Stranger.png,You,Stranger,m,1.3,15,25,95,,,,,0,0,0,0,,,,,6,0,72,6,,,,,,,,,,,,,,,,,,,,,1.624,1.654,338.54242449998856,None,,,,,,,,,,,,,,,,,,,,339.0852605002001,339.5905522000976,0.5061041398439556,1.0063570397906005,339.5738261002116,339.67384900012985,339.5738261002116,339.67384900012985,339.67384900012985,None,m,1,0.6358754001557827,339.67384900012985,None,,,,,,,pphh2,2022-09-07_14h30.51.460,training+cueing,2022.1.3,60.23200160934402,
Friend.png,Friend,Friend,c,2,12,22,92,,,,,0,0,0,0,,,,,6,1,73,10,,,,,,,,,,,,,,,,,,,,,1.519,2.34,340.44287230004556,None,,,,,,,,,,,,,,,,,,,,340.98808010015637,341.49191209999844,0.5051331399008632,1.0053039398044348,341.4752152999863,341.5920373001136,341.4752152999863,341.5920373001136,341.5752219001297,None,c,1,0.5588991001714021,341.5752219001297,None,,,,,,,pphh2,2022-09-07_14h30.51.460,training+cueing,2022.1.3,60.23200160934402,
Friend.png,You,Friend,m,1.2,14,24,94,,,,,0,0,0,0,,,,,6,2,74,3,,,,,,,,,,,,,,,,,,,,,1.761,1.74,342.2642377000302,None,,,,,,,,,,,,,,,,,,,,342.8058633999899,343.3099591000937,0.5056915399618447,1.0059292397927493,343.2932301000692,343.39327370002866,343.2932301000692,343.39327370002866,343.39327370002866,None,m,1,0.5654696000274271,343.39327370002866,None,,,,,,,pphh2,2022-09-07_14h30.51.460,training+cueing,2022.1.3,60.23200160934402,
Stranger.png,Friend,Stranger,m,2.3,17,27,97,,,,,0,0,0,0,,,,,6,3,75,7,,,,,,,,,,,,,,,,,,,,,1.793,2.076,344.083070800174,None,,,,,,,,,,,,,,,,,,,,344.6300915000029,345.14441990014166,0.5079877402167767,1.0082611402031034,345.1278342001606,345.24452619999647,345.1278342001606,345.24452619999647,345.227883100044,None,m,1,0.5704205001238734,345.227883100044,None,,,,,,,pphh2,2022-09-07_14h30.51.460,training+cueing,2022.1.3,60.23200160934402,
Friend.png,Friend,Friend,c,2,12,22,92,,,,,0,0,0,0,,,,,6,4,76,4,,,,,,,,,,,,,,,,,,,,,1.792,1.22,345.93028940004297,None,,,,,,,,,,,,,,,,,,,,346.47257050010376,346.9791679000482,0.5106854399200529,1.0113869400229305,346.9624904000666,347.07926740008406,346.9624904000666,347.07926740008406,347.0625370000489,None,c,1,0.8492048000916839,347.0625370000489,None,,,,,,,pphh2,2022-09-07_14h30.51.460,training+cueing,2022.1.3,60.23200160934402,
Self.png,You,Self ,c,1,11,21,91,,,,,0,0,0,0,,,,,6,5,77,9,,,,,,,,,,,,,,,,,,,,,1.489,2.312,348.03559540002607,None,,,,,,,,,,,,,,,,,,,,348.5767171999905,349.08067310019396,0.5055369399487972,1.0057137398980558,349.0640904000029,349.16407300019637,349.0640904000029,349.16407300019637,349.16407300019637,None,c,1,0.713103299960494,349.16407300019637,None,,,,,,,pphh2,2022-09-07_14h30.51.460,training+cueing,2022.1.3,60.23200160934402,
Self.png,Friend,Self ,m,2.1,16,26,96,,,,,0,0,0,0,,,,,6,6,78,1,,,,,,,,,,,,,,,,,,,,,1.723,2.41,349.9994670001324,None,,,,,,,,,,,,,,,,,,,,350.544352900004,351.048783400096,0.5047090400476009,1.0050131399184465,351.03211020003073,351.14881440019235,351.03211020003073,351.14881440019235,351.1321279001422,None,m,1,0.553638800047338,351.1321279001422,None,,,,,,,pphh2,2022-09-07_14h30.51.460,training+cueing,2022.1.3,60.23200160934402,
Self.png,Stranger,Self ,m,3.1,18,28,98,,,,,0,0,0,0,,,,,6,7,79,2,,,,,,,,,,,,,,,,,,,,,1.692,2.409,351.81786640011705,None,,,,,,,,,,,,,,,,,,,,352.36686840001494,352.8667519001756,0.5140715399757028,1.0144524399656802,352.8667519001756,352.96681250003166,352.8667519001756,352.96681250003166,352.96681250003166,None,m,1,0.6075885000173002,352.96681250003166,None,,,,,,,pphh2,2022-09-07_14h30.51.460,training+cueing,2022.1.3,60.23200160934402,
Stranger.png,Stranger,Stranger,c,3,13,23,93,,,,,0,0,0,0,,,,,6,8,80,8,,,,,,,,,,,,,,,,,,,,,1.422,1.725,353.7022937000729,None,,,,,,,,,,,,,,,,,,,,354.2438322000671,354.7515230001882,0.5108873401768506,1.011862140148878,354.73479820019566,354.85152540006675,354.73479820019566,354.85152540006675,354.8349107000977,None,m,0,0.5319664000999182,354.8349107000977,None,,,,,,,pphh2,2022-09-07_14h30.51.460,training+cueing,2022.1.3,60.23200160934402,
Stranger.png,Stranger,Stranger,c,3,13,23,93,,,,,0,0,0,0,,,,,6,9,81,11,,,,,,,,,,,,,,,,,,,,,1.505,1.405,355.4880399000831,None,,,,,,,,,,,,,,,,,,,,356.0293417000212,356.5361690002028,0.5110549400560558,1.011406339937821,356.51948510017246,356.6361731002107,356.51948510017246,356.6361731002107,356.6194702000357,None,c,1,0.4263414000160992,356.6194702000357,None,,,,,,,pphh2,2022-09-07_14h30.51.460,training+cueing,2022.1.3,60.23200160934402,
Self.png,You,Self ,c,1,11,21,91,,,,,0,0,0,0,,,,,6,10,82,0,,,,,,,,,,,,,,,,,,,,,1.505,1.938,357.17193519999273,None,,,,,,,,,,,,,,,,,,,,357.71705320011824,358.22068230016157,0.5049860400613397,1.0052881399169564,358.20397460018285,358.3040462001227,358.20397460018285,358.3040462001227,358.3040462001227,None,c,1,0.6614733999595046,358.3040462001227,None,,,,,,,pphh2,2022-09-07_14h30.51.460,training+cueing,2022.1.3,60.23200160934402,
Friend.png,Stranger,Friend,m,3.2,19,29,99,,,,,0,0,0,0,,,,,6,11,83,5,,,,,,,,,,,,,,,,,,,,,1.669,1.344,359.08971870015375,None,,,,,,,,,,,,,,,,,,,,359.6345719001256,360.13869200018235,0.5039225397631526,1.004230639897287,360.1220549000427,360.23879470000975,360.1220549000427,360.23879470000975,360.2220597001724,None,m,1,0.5193250000011176,360.2220597001724,None,,,,,,,pphh2,2022-09-07_14h30.51.460,training+cueing,2022.1.3,60.23200160934402,
Self.png,Stranger,Self ,m,3.1,18,28,98,,,,,0,0,0,0,,,,,7,0,84,2,,,,,,,,,,,,,,,,,,,,,1.711,1.335,360.874182500178,None,,,,,,,,,,,,,,,,,,,,361.41666330001317,361.923441800056,0.510830539977178,1.0113252399023622,361.90669260011055,362.02343380008824,361.90669260011055,362.02343380008824,362.00669310009107,None,m,1,0.7347260999958962,362.00669310009107,None,,,,,,,pphh2,2022-09-07_14h30.51.460,training+cueing,2022.1.3,60.23200160934402,
Self.png,You,Self ,c,1,11,21,91,,,,,0,0,0,0,,,,,7,1,85,9,,,,,,,,,,,,,,,,,,,,,1.612,1.48,362.8756013000384,None,,,,,,,,,,,,,,,,,,,,363.4205984000582,363.9248078002129,0.5057804398238659,1.006143040023744,363.90815570019186,364.0082291001454,363.90815570019186,364.0082291001454,364.0082291001454,None,c,1,0.4464376999530941,364.0082291001454,None,,,,,,,pphh2,2022-09-07_14h30.51.460,training+cueing,2022.1.3,60.23200160934402,
Friend.png,Stranger,Friend,m,3.2,19,29,99,,,,,0,0,0,0,,,,,7,2,86,5,,,,,,,,,,,,,,,,,,,,,1.68,1.607,364.576512100175,None,,,,,,,,,,,,,,,,,,,,365.11067890003324,365.62609270005487,0.5101009400095791,1.0103587401099503,365.60939120012335,365.72629620018415,365.60939120012335,365.72629620018415,365.70940240006894,None,m,1,0.5367510998621583,365.70940240006894,None,,,,,,,pphh2,2022-09-07_14h30.51.460,training+cueing,2022.1.3,60.23200160934402,
Stranger.png,You,Stranger,m,1.3,15,25,95,,,,,0,0,0,0,,,,,7,3,87,6,,,,,,,,,,,,,,,,,,,,,1.594,1.321,366.3778385000769,None,,,,,,,,,,,,,,,,,,,,366.90685200016014,367.41082810005173,0.5051038400270045,1.0053496400360018,367.39411820005625,367.49415710009634,367.39411820005625,367.49415710009634,367.49415710009634,None,m,1,0.7350695000495762,367.49415710009634,None,,,,,,,pphh2,2022-09-07_14h30.51.460,training+cueing,2022.1.3,60.23200160934402,
Friend.png,Friend,Friend,c,2,12,22,92,,,,,0,0,0,0,,,,,7,4,88,10,,,,,,,,,,,,,,,,,,,,,1.72,1.329,368.363303600112,None,,,,,,,,,,,,,,,,,,,,368.9079921999946,369.4121563001536,0.503829840105027,1.004183640005067,369.39548090007156,369.51219580019824,369.39548090007156,369.51219580019824,369.49552490003407,None,c,1,0.6381711000576615,369.49552490003407,None,,,,,,,pphh2,2022-09-07_14h30.51.460,training+cueing,2022.1.3,60.23200160934402,
Friend.png,You,Friend,m,1.2,14,24,94,,,,,0,0,0,0,,,,,7,5,89,3,,,,,,,,,,,,,,,,,,,,,1.632,1.436,370.26401560008526,None,,,,,,,,,,,,,,,,,,,,370.7933649001643,371.29699960001744,0.5045326398685575,1.0046495399437845,371.280307700159,371.38045689999126,371.280307700159,371.38045689999126,371.38045689999126,None,m,1,0.5455263000912964,371.38045689999126,None,,,,,,,pphh2,2022-09-07_14h30.51.460,training+cueing,2022.1.3,60.23200160934402,
Stranger.png,Stranger,Stranger,c,3,13,23,93,,,,,0,0,0,0,,,,,7,6,90,8,,,,,,,,,,,,,,,,,,,,,1.469,2.247,372.04887560009956,None,,,,,,,,,,,,,,,,,,,,372.59252120018937,373.0981442001648,0.5093049197457731,1.009620219701901,373.08145830011927,373.19822960020974,373.08145830011927,373.19822960020974,373.181533300085,None,m,0,0.6160142999142408,373.181533300085,None,,,,,,,pphh2,2022-09-07_14h30.51.460,training+cueing,2022.1.3,60.23200160934402,
Stranger.png,Friend,Stranger,m,2.3,17,27,97,,,,,0,0,0,0,,,,,7,7,91,7,,,,,,,,,,,,,,,,,,,,,1.527,2.434,373.91687730001286,None,,,,,,,,,,,,,,,,,,,,374.4650008000899,374.96619580010884,0.5149091398343444,1.01511613978073,374.96619580010884,375.0662247000728,374.96619580010884,375.0662247000728,375.0662247000728,None,m,1,0.8124007999431342,375.0662247000728,None,,,,,,,pphh2,2022-09-07_14h30.51.460,training+cueing,2022.1.3,60.23200160934402,
Self.png,Friend,Self ,m,2.1,16,26,96,,,,,0,0,0,0,,,,,7,8,92,1,,,,,,,,,,,,,,,,,,,,,1.729,1.933,376.00180270010605,None,,,,,,,,,,,,,,,,,,,,376.5444412000943,377.051083000144,0.5105504400562495,1.010803840123117,377.03436240018345,377.15107330004685,377.03436240018345,377.15107330004685,377.13437880016863,None,m,1,0.775563299888745,377.13437880016863,None,,,,,,,pphh2,2022-09-07_14h30.51.460,training+cueing,2022.1.3,60.23200160934402,
Stranger.png,Stranger,Stranger,c,3,13,23,93,,,,,0,0,0,0,,,,,7,9,93,11,,,,,,,,,,,,,,,,,,,,,1.787,1.827,378.0364683000371,None,,,,,,,,,,,,,,,,,,,,378.58272150019184,379.0859130001627,0.5040873398538679,1.0042638399172574,379.0692764001433,379.18595250020735,379.0692764001433,379.18595250020735,379.1692305000033,None,c,1,0.6605608998797834,379.1692305000033,None,,,,,,,pphh2,2022-09-07_14h30.51.460,training+cueing,2022.1.3,60.23200160934402,
Self.png,You,Self ,c,1,11,21,91,,,,,0,0,0,0,,,,,7,10,94,0,,,,,,,,,,,,,,,,,,,,,1.427,2.299,379.9551055000629,None,,,,,,,,,,,,,,,,,,,,380.4994515001308,381.0039505001623,0.5048971401993185,1.0051800401415676,380.98723950004205,381.08723960001953,380.98723950004205,381.08723960001953,381.08723960001953,None,c,1,0.6156567998696119,381.08723960001953,None,,,,,,,pphh2,2022-09-07_14h30.51.460,training+cueing,2022.1.3,60.23200160934402,
Friend.png,Friend,Friend,c,2,12,22,92,,,,,0,0,0,0,,,,,7,11,95,4,,,,,,,,,,,,,,,,,,,,,1.64,2.315,381.8231505001895,None,,,,,,,,,,,,,,,,,,,,382.36880440008827,382.8719668001868,0.5042813397012651,1.004453039728105,382.8553091001231,382.97194830002263,382.8553091001231,382.97194830002263,382.9552767002024,None,c,1,1.1956625999882817,382.9552767002024,None,,,,,,,pphh2,2022-09-07_14h30.51.460,training+cueing,2022.1.3,60.23200160934402,
Stranger.png,You,Stranger,m,1.3,15,25,95,,,,,0,0,0,0,,,,,8,0,96,6,,,,,,,,,,,,,,,,,,,,,1.666,1.385,384.27454680018127,None,,,,,,,,,,,,,,,,,,,,384.8189191999845,385.32373540010303,0.5051854397170246,1.0054869398009032,385.30701980018057,385.4070639000274,385.30701980018057,385.4070639000274,385.4070639000274,None,m,1,0.9821431001182646,385.4070639000274,None,,,,,,,pphh2,2022-09-07_14h30.51.460,training+cueing,2022.1.3,60.23200160934402,
Self.png,Stranger,Self ,m,3.1,18,28,98,,,,,0,0,0,0,,,,,8,1,97,2,,,,,,,,,,,,,,,,,,,,,1.663,1.41,386.5130370000843,None,,,,,,,,,,,,,,,,,,,,387.05557220010087,387.55876730009913,0.503892440116033,1.0041790399700403,387.54196790000424,387.658712600125,387.54196790000424,387.658712600125,387.64200730016455,None,c,0,0.7151859998703003,387.64200730016455,None,,,,,,,pphh2,2022-09-07_14h30.51.460,training+cueing,2022.1.3,60.23200160934402,
Self.png,You,Self ,c,1,11,21,91,,,,,0,0,0,0,,,,,8,2,98,0,,,,,,,,,,,,,,,,,,,,,1.703,1.78,388.4774424000643,None,,,,,,,,,,,,,,,,,,,,389.0226810001768,389.52675399999134,0.5054673401173204,1.0057581400033087,389.5100800001528,389.61015520012006,389.5100800001528,389.61015520012006,389.61015520012006,None,c,1,0.5396557000931352,389.61015520012006,None,,,,,,,pphh2,2022-09-07_14h30.51.460,training+cueing,2022.1.3,60.23200160934402,
Self.png,You,Self ,c,1,11,21,91,,,,,0,0,0,0,,,,,8,3,99,9,,,,,,,,,,,,,,,,,,,,,1.74,1.358,390.27879330003634,None,,,,,,,,,,,,,,,,,,,,390.82059060013853,391.3280992000364,0.5106764398515224,1.0108519396744668,391.3114855000749,391.4114438001998,391.3114855000749,391.4114438001998,391.4114438001998,None,c,1,0.515017599798739,391.4114438001998,None,,,,,,,pphh2,2022-09-07_14h30.51.460,training+cueing,2022.1.3,60.23200160934402,
Stranger.png,Stranger,Stranger,c,3,13,23,93,,,,,0,0,0,0,,,,,8,4,100,8,,,,,,,,,,,,,,,,,,,,,1.539,2.194,392.04686790006235,None,,,,,,,,,,,,,,,,,,,,392.59238490019925,393.0960087000858,0.5045120401773602,1.0047863400541246,393.0793533001561,393.1960964000318,393.0793533001561,393.1960964000318,393.17938470002264,None,m,0,0.5380162999499589,393.17938470002264,None,,,,,,,pphh2,2022-09-07_14h30.51.460,training+cueing,2022.1.3,60.23200160934402,
Stranger.png,Friend,Stranger,m,2.3,17,27,97,,,,,0,0,0,0,,,,,8,5,101,7,,,,,,,,,,,,,,,,,,,,,1.472,1.664,393.84822430019267,None,,,,,,,,,,,,,,,,,,,,394.4002092999872,394.91399969998747,0.508386239875108,1.008778439834714,394.89736400009133,395.0148333001416,394.89736400009133,395.0148333001416,394.9979803999886,None,c,0,0.5437616999261081,394.9979803999886,None,,,,,,,pphh2,2022-09-07_14h30.51.460,training+cueing,2022.1.3,60.23200160934402,
Friend.png,You,Friend,m,1.2,14,24,94,,,,,0,0,0,0,,,,,8,6,102,3,,,,,,,,,,,,,,,,,,,,,1.528,2.049,395.666970100021,None,,,,,,,,,,,,,,,,,,,,396.213935600128,396.715451200027,0.5156854400411248,1.0159697399940342,396.715451200027,396.81536320014857,396.715451200027,396.81536320014857,396.81536320014857,None,c,0,0.5502983999904245,396.81536320014857,None,,,,,,,pphh2,2022-09-07_14h30.51.460,training+cueing,2022.1.3,60.23200160934402,
Self.png,Friend,Self ,m,2.1,16,26,96,,,,,0,0,0,0,,,,,8,7,103,1,,,,,,,,,,,,,,,,,,,,,1.402,2.367,397.48519919998944,None,,,,,,,,,,,,,,,,,,,,398.0296113002114,398.53328320011497,0.5048495400696993,1.005004539852962,398.51666359999217,398.6333180000074,398.51666359999217,398.6333180000074,398.61665370012634,None,m,1,0.7172295001801103,398.61665370012634,None,,,,,,,pphh2,2022-09-07_14h30.51.460,training+cueing,2022.1.3,60.23200160934402,
Friend.png,Friend,Friend,c,2,12,22,92,,,,,0,0,0,0,,,,,8,8,104,10,,,,,,,,,,,,,,,,,,,,,1.5,1.232,399.4531421000138,None,,,,,,,,,,,,,,,,,,,,399.99388210009784,400.5014116000384,0.5106549398042262,1.0111614395864308,400.4847158000339,400.6015422001947,400.4847158000339,400.6015422001947,400.58488050010055,None,c,1,0.9096458998974413,400.58488050010055,None,,,,,,,pphh2,2022-09-07_14h30.51.460,training+cueing,2022.1.3,60.23200160934402,
Friend.png,Stranger,Friend,m,3.2,19,29,99,,,,,0,0,0,0,,,,,8,9,105,5,,,,,,,,,,,,,,,,,,,,,1.406,1.375,401.6200666001532,None,,,,,,,,,,,,,,,,,,,,402.15026450017467,402.65301430015825,0.5034716399386525,1.0038940398953855,402.6363129001111,402.753037000075,402.6363129001111,402.753037000075,402.73643440008163,None,m,1,0.7571810001973063,402.73643440008163,None,,,,,,,pphh2,2022-09-07_14h30.51.460,training+cueing,2022.1.3,60.23200160934402,
Friend.png,Friend,Friend,c,2,12,22,92,,,,,0,0,0,0,,,,,8,10,106,4,,,,,,,,,,,,,,,,,,,,,1.634,1.434,403.622697400162,None,,,,,,,,,,,,,,,,,,,,404.16727760015056,404.67109970003366,0.5045894398353994,1.0048130399081856,404.6544465001207,404.7711533000693,404.6544465001207,404.7711533000693,404.75438410020433,None,c,1,0.6755499998107553,404.75438410020433,None,,,,,,,pphh2,2022-09-07_14h30.51.460,training+cueing,2022.1.3,60.23200160934402,
Stranger.png,Stranger,Stranger,c,3,13,23,93,,,,,0,0,0,0,,,,,8,11,107,11,,,,,,,,,,,,,,,,,,,,,1.725,2.245,405.5564040001482,None,,,,,,,,,,,,,,,,,,,,406.1053541000001,406.60591260017827,0.5140177397988737,1.0141907397191972,406.60591260017827,406.7059045000933,406.60591260017827,406.7059045000933,406.7059045000933,None,m,0,0.660074400017038,406.7059045000933,None,,,,,,,pphh2,2022-09-07_14h30.51.460,training+cueing,2022.1.3,60.23200160934402,
Self.png,You,Self ,c,1,11,21,91,,,,,0,0,0,0,,,,,9,0,108,9,,,,,,,,,,,,,,,,,,,,,1.47,2.215,407.4948941001203,None,,,,,,,,,,,,,,,,,,,,408.0367487000767,408.54073500004597,0.5053408399689943,1.0054527400061488,408.5240434000734,408.62394480011426,408.5240434000734,408.62394480011426,408.62394480011426,None,c,1,0.5035290999803692,408.62394480011426,None,,,,,,,pphh2,2022-09-07_14h30.51.460,training+cueing,2022.1.3,60.23200160934402,
Friend.png,Stranger,Friend,m,3.2,19,29,99,,,,,0,0,0,0,,,,,9,1,109,5,,,,,,,,,,,,,,,,,,,,,1.562,1.49,409.24568540020846,None,,,,,,,,,,,,,,,,,,,,409.7945542000234,410.30851940019056,0.5088162398897111,1.0090846398379654,410.2918496001512,410.4085320001468,410.2918496001512,410.4085320001468,410.39190120017156,None,m,1,0.8297908999957144,410.39190120017156,None,,,,,,,pphh2,2022-09-07_14h30.51.460,training+cueing,2022.1.3,60.23200160934402,
Friend.png,You,Friend,m,1.2,14,24,94,,,,,0,0,0,0,,,,,9,2,110,3,,,,,,,,,,,,,,,,,,,,,1.559,1.405,411.34402880002744,None,,,,,,,,,,,,,,,,,,,,411.88873230013996,412.3933717000764,0.5051983399316669,1.0054377398919314,412.37674450012855,412.4767553000711,412.37674450012855,412.4767553000711,412.4767553000711,None,m,1,0.681340399896726,412.4767553000711,None,,,,,,,pphh2,2022-09-07_14h30.51.460,training+cueing,2022.1.3,60.23200160934402,
Friend.png,Friend,Friend,c,2,12,22,92,,,,,0,0,0,0,,,,,9,3,111,10,,,,,,,,,,,,,,,,,,,,,1.496,2.312,413.2787277000025,None,,,,,,,,,,,,,,,,,,,,413.808631000109,414.3114724000916,0.5035810400731862,1.003915339941159,414.2947424000595,414.41150230006315,414.2947424000595,414.41150230006315,414.39477930008434,None,c,1,0.5240359001327306,414.39477930008434,None,,,,,,,pphh2,2022-09-07_14h30.51.460,training+cueing,2022.1.3,60.23200160934402,
Stranger.png,Stranger,Stranger,c,3,13,23,93,,,,,0,0,0,0,,,,,9,4,112,8,,,,,,,,,,,,,,,,,,,,,1.761,1.871,415.0466835000552,None,,,,,,,,,,,,,,,,,,,,415.5957045000978,416.0960662001744,0.5137904400471598,1.0140573401004076,416.0960662001744,416.196087700082,416.0960662001744,416.196087700082,416.196087700082,None,m,0,0.7058168998919427,416.196087700082,None,,,,,,,pphh2,2022-09-07_14h30.51.460,training+cueing,2022.1.3,60.23200160934402,
Stranger.png,Stranger,Stranger,c,3,13,23,93,,,,,0,0,0,0,,,,,9,5,113,11,,,,,,,,,,,,,,,,,,,,,1.405,1.747,417.03202690021135,None,,,,,,,,,,,,,,,,,,,,417.5771189001389,418.08084900001995,0.5050290399231017,1.0054142398294061,418.0641417000443,418.18092410010286,418.0641417000443,418.18092410010286,418.1641627000645,None,c,1,0.6097862999886274,418.1641627000645,None,,,,,,,pphh2,2022-09-07_14h30.51.460,training+cueing,2022.1.3,60.23200160934402,
Self.png,You,Self ,c,1,11,21,91,,,,,0,0,0,0,,,,,9,6,114,0,,,,,,,,,,,,,,,,,,,,,1.686,1.458,418.89949380001053,None,,,,,,,,,,,,,,,,,,,,419.4448989001103,419.9488901000004,0.5054677401203662,1.0057618401478976,419.9321995000355,420.03224240010604,419.9321995000355,420.03224240010604,420.03224240010604,None,c,1,0.5174646000377834,420.03224240010604,None,,,,,,,pphh2,2022-09-07_14h30.51.460,training+cueing,2022.1.3,60.23200160934402,
Self.png,Friend,Self ,m,2.1,16,26,96,,,,,0,0,0,0,,,,,9,7,115,1,,,,,,,,,,,,,,,,,,,,,1.723,1.899,420.684094700031,None,,,,,,,,,,,,,,,,,,,,421.21353710000403,421.71681000012904,0.5023388399276882,1.002681439742446,421.70011670002714,421.8168588001281,421.70011670002714,421.8168588001281,421.8001632001251,None,m,1,0.68548130011186,421.8001632001251,None,,,,,,,pphh2,2022-09-07_14h30.51.460,training+cueing,2022.1.3,60.23200160934402,
Self.png,Stranger,Self ,m,3.1,18,28,98,,,,,0,0,0,0,,,,,9,8,116,2,,,,,,,,,,,,,,,,,,,,,1.63,1.28,422.6189611000009,None,,,,,,,,,,,,,,,,,,,,423.1658933002036,423.66828020010144,0.5031913397833705,1.0035999398678541,423.651550500188,423.76825379999354,423.651550500188,423.76825379999354,423.75161720020697,None,m,1,0.7663120999932289,423.75161720020697,None,,,,,,,pphh2,2022-09-07_14h30.51.460,training+cueing,2022.1.3,60.23200160934402,
Stranger.png,You,Stranger,m,1.3,15,25,95,,,,,0,0,0,0,,,,,9,9,117,6,,,,,,,,,,,,,,,,,,,,,1.597,1.285,424.6377931002062,None,,,,,,,,,,,,,,,,,,,,425.18586990004405,425.6864375001751,0.51569963991642,1.015851239906624,425.6864375001751,425.78640710003674,425.6864375001751,425.78640710003674,425.78640710003674,None,m,1,0.7321314001455903,425.78640710003674,None,,,,,,,pphh2,2022-09-07_14h30.51.460,training+cueing,2022.1.3,60.23200160934402,
Friend.png,Friend,Friend,c,2,12,22,92,,,,,0,0,0,0,,,,,9,10,118,4,,,,,,,,,,,,,,,,,,,,,1.488,2.359,426.6384797000792,None,,,,,,,,,,,,,,,,,,,,427.18400320014916,427.6878423001617,0.5039787397254258,1.0041622398421168,427.6712462999858,427.78783170017414,427.6712462999858,427.78783170017414,427.77119110012427,None,c,1,0.5550921999383718,427.77119110012427,None,,,,,,,pphh2,2022-09-07_14h30.51.460,training+cueing,2022.1.3,60.23200160934402,
Stranger.png,Friend,Stranger,m,2.3,17,27,97,,,,,0,0,0,0,,,,,9,11,119,7,,,,,,,,,,,,,,,,,,,,,1.713,1.654,428.4563289000653,None,,,,,,,,,,,,,,,,,,,,428.9987282000948,429.50583490007557,0.5110041399020702,1.0112016398925334,429.48922190000303,429.6059200000018,429.48922190000303,429.6059200000018,429.58921580016613,None,m,1,0.5930360001511872,429.58921580016613,None,,,,,,,pphh2,2022-09-07_14h30.51.460,training+cueing,2022.1.3,60.23200160934402,
,,,,,,,,,,,,0,0,0,0,,,,,,,,,,,,,,,,,,,,,,,,,,,,,,,,,,,,,,,,,,,,,,,,,,,,,,,,,,,,,,,,,,,0.004063159925863147,0.4917693599127233,,,,,pphh2,2022-09-07_14h30.51.460,training+cueing,2022.1.3,60.23200160934402,
Stranger.png,Stranger,Stranger,c,3,13,23,93,,,,,1,0,1,0,0,0,0,11,,,,,,,,,,,,,,,,,430.80684390012175,None,space,2.7968536999542266,2.016765180043876,None,435.61095080012456,None,1.571,1.527,438.61584870005026,None,439.1421569001395,439.64662140002474,439.6299872000236,439.746708500199,439.6299872000236,439.746708500199,439.73005230003037,None,m,0,0.7241919999942183,439.73005230003037,None,440.4781899000518,None,,,,,,,,,,,,,,,,,,,,,,,,,,pphh2,2022-09-07_14h30.51.460,training+cueing,2022.1.3,60.23200160934402,
Stranger.png,You,Stranger,m,1.3,15,25,95,,,,,1,0,1,0,0,1,1,6,,,,,,,,,,,,,,,,,,,,,,,,,1.741,1.75,440.8806913001463,None,441.4111019000411,441.914856800111,441.89823330007493,441.99822680000216,441.89823330007493,441.99822680000216,441.99822680000216,None,m,1,0.8085957001894712,441.99822680000216,None,442.8320708000101,None,,,,,,,,,,,,,,,,,,,,,,,,,,pphh2,2022-09-07_14h30.51.460,training+cueing,2022.1.3,60.23200160934402,
Self.png,You,Self ,c,1,11,21,91,,,,,1,0,1,0,0,2,2,9,,,,,,,,,,,,,,,,,,,,,,,,,1.659,1.599,443.232392200036,None,443.7607003999874,444.2665070001967,444.2498629000038,444.34991870005615,444.2498629000038,444.34991870005615,444.34991870005615,None,c,1,0.776449500117451,444.34991870005615,None,445.1505634000059,None,,,,,,,,,,,,,,,,,,,,,,,,,,pphh2,2022-09-07_14h30.51.460,training+cueing,2022.1.3,60.23200160934402,
Self.png,Stranger,Self ,m,3.1,18,28,98,,,,,1,0,1,0,0,3,3,2,,,,,,,,,,,,,,,,,,,,,,,,,1.736,2.265,445.550795200048,None,446.0846247000154,446.58485880005173,446.58485880005173,446.68500220007263,446.58485880005173,446.68500220007263,446.68500220007263,None,m,1,0.7765613000374287,446.68500220007263,None,447.4855863000266,None,,,,,,,,,,,,,,,,,,,,,,,,,,pphh2,2022-09-07_14h30.51.460,training+cueing,2022.1.3,60.23200160934402,
Friend.png,Friend,Friend,c,2,12,22,92,,,,,1,0,1,0,0,4,4,4,,,,,,,,,,,,,,,,,,,,,,,,,1.409,2.233,447.88581940019503,None,448.4166483001318,448.91995030012913,448.9032502002083,449.01996280020103,448.9032502002083,449.01996280020103,449.00325420009904,None,c,1,0.6666582999750972,449.00325420009904,None,449.6874255000148,None,,,,,,,,,,,,,,,,,,,,,,,,,,pphh2,2022-09-07_14h30.51.460,training+cueing,2022.1.3,60.23200160934402,
Stranger.png,Stranger,Stranger,c,3,13,23,93,,,,,1,0,1,0,0,5,5,8,,,,,,,,,,,,,,,,,,,,,,,,,1.466,2.349,450.08768040011637,None,450.62667950009927,451.1380567001179,451.1213735002093,451.23814150015824,451.1213735002093,451.23814150015824,451.22138500004075,None,m,0,1.0094336001202464,451.22138500004075,None,452.2555209000129,None,,,,,,,,,,,,,,,,,,,,,,,,,,pphh2,2022-09-07_14h30.51.460,training+cueing,2022.1.3,60.23200160934402,
Stranger.png,Friend,Stranger,m,2.3,17,27,97,,,,,1,0,1,0,0,6,6,7,,,,,,,,,,,,,,,,,,,,,,,,,1.656,2.3,452.65594219998457,None,453.18624950014055,453.6901101002004,453.6735283001326,453.7901231001597,453.6735283001326,453.7901231001597,453.7734964999836,None,m,1,0.8405104998964816,453.7734964999836,None,454.64002520008944,None,,,,,,,,,,,,,,,,,,,,,,,,,,pphh2,2022-09-07_14h30.51.460,training+cueing,2022.1.3,60.23200160934402,
Friend.png,You,Friend,m,1.2,14,24,94,,,,,1,0,1,0,0,7,7,3,,,,,,,,,,,,,,,,,,,,,,,,,1.725,1.672,455.0410025001038,None,455.57136050006375,456.0751585001126,456.0584579000715,456.15847750008106,456.0584579000715,456.15847750008106,456.15847750008106,None,c,0,0.7271404000930488,456.15847750008106,None,456.90893650008366,None,,,,,,,,,,,,,,,,,,,,,,,,,,pphh2,2022-09-07_14h30.51.460,training+cueing,2022.1.3,60.23200160934402,
Self.png,You,Self ,c,1,11,21,91,,,,,1,0,1,0,0,8,8,0,,,,,,,,,,,,,,,,,,,,,,,,,1.494,1.87,457.30931990011595,None,457.836210800102,458.3434509001672,458.3268190000672,458.42681580013596,458.3268190000672,458.42681580013596,458.42681580013596,None,c,1,0.6352729999925941,458.42681580013596,None,459.0938879000023,None,,,,,,,,,,,,,,,,,,,,,,,,,,pphh2,2022-09-07_14h30.51.460,training+cueing,2022.1.3,60.23200160934402,
Friend.png,Friend,Friend,c,2,12,22,92,,,,,1,0,1,0,0,9,9,10,,,,,,,,,,,,,,,,,,,,,,,,,1.644,1.729,459.49438729998656,None,460.0264824000187,460.52834720001556,460.5117201001849,460.6284289001487,460.5117201001849,460.6284289001487,460.6117184001487,None,m,0,0.7539681999478489,460.6117184001487,None,461.3942705001682,None,,,,,,,,,,,,,,,,,,,,,,,,,,pphh2,2022-09-07_14h30.51.460,training+cueing,2022.1.3,60.23200160934402,
Friend.png,Stranger,Friend,m,3.2,19,29,99,,,,,1,0,1,0,0,10,10,5,,,,,,,,,,,,,,,,,,,,,,,,,1.779,2.096,461.7959201000631,None,462.34319440019317,462.84670530003496,462.83006250020117,462.9467859000433,462.83006250020117,462.9467859000433,462.9300987001043,None,m,1,0.7405209999997169,462.9300987001043,None,463.6971978000365,None,,,,,,,,,,,,,,,,,,,,,,,,,,pphh2,2022-09-07_14h30.51.460,training+cueing,2022.1.3,60.23200160934402,
Self.png,Friend,Self ,m,2.1,16,26,96,,,,,1,0,1,0,0,11,11,1,,,,,,,,,,,,,,,,,,,,,,,,,1.578,1.618,464.09758580010384,None,464.62779540009797,465.1317234002054,465.115039100172,465.23175430018455,465.115039100172,465.23175430018455,465.21502870018594,None,m,1,0.8069891999475658,465.21502870018594,None,466.0489891001489,None,,,,,,,,,,,,,,,,,,,,,,,,,,pphh2,2022-09-07_14h30.51.460,training+cueing,2022.1.3,60.23200160934402,
Stranger.png,Friend,Stranger,m,2.3,17,27,97,,,,,1,0,1,0,,,,,0,0,0,7,,,,,,,,,,,,,,,,,,,469.451504800003,None,1.799,1.71,472.9575930000283,None,,,,,,,,,,,,,,,,466.4493381001521,None,0.016314380103722215,None,473.4820333002135,473.9881297000684,0.5095123397186399,1.0097674396820366,473.97146400017664,474.0882187001407,473.97146400017664,474.0882187001407,474.0714745000005,None,c,0,0.7824228000827134,474.0714745000005,None,,,,,,,pphh2,2022-09-07_14h30.51.460,training+cueing,2022.1.3,60.23200160934402,
Self.png,Stranger,Self ,m,3.1,18,28,98,,,,,1,0,1,0,,,,,0,1,1,2,,,,,,,,,,,,,,,,,,,,,1.679,2.228,474.9749194001779,None,,,,,,,,,,,,,,,,,,,,475.52050400013104,476.0230044000782,0.5032639396376908,1.0035710397642106,476.0062697001267,476.1230127001181,476.0062697001267,476.1230127001181,476.1063255001791,None,m,1,0.7150534999091178,476.1063255001791,None,,,,,,,pphh2,2022-09-07_14h30.51.460,training+cueing,2022.1.3,60.23200160934402,
Stranger.png,You,Stranger,m,1.3,15,25,95,,,,,1,0,1,0,,,,,0,2,2,6,,,,,,,,,,,,,,,,,,,,,1.458,1.436,476.94204730005004,None,,,,,,,,,,,,,,,,,,,,477.48790670000017,477.99112270004116,0.5025327398907393,1.0029538399539888,477.97436190000735,478.0744306000415,477.97436190000735,478.0744306000415,478.0744306000415,None,m,1,0.6994757999200374,478.0744306000415,None,,,,,,,pphh2,2022-09-07_14h30.51.460,training+cueing,2022.1.3,60.23200160934402,
Friend.png,You,Friend,m,1.2,14,24,94,,,,,1,0,1,0,,,,,0,3,3,3,,,,,,,,,,,,,,,,,,,,,1.612,1.968,478.8933016001247,None,,,,,,,,,,,,,,,,,,,,479.4336238000542,479.9425268000923,0.49903932004235685,0.9993394198827446,479.90911200013943,480.0093108001165,479.90911200013943,480.0093108001165,480.0093108001165,None,m,1,0.7482793000526726,480.0093108001165,None,,,,,,,pphh2,2022-09-07_14h30.51.460,training+cueing,2022.1.3,60.23200160934402,
Friend.png,Friend,Friend,c,2,12,22,92,,,,,1,0,1,0,,,,,0,4,4,4,,,,,,,,,,,,,,,,,,,,,1.579,2.029,480.878197300015,None,,,,,,,,,,,,,,,,,,,,481.42931969999336,481.9439892000519,0.5082405398134142,1.0086664399132133,481.9271305000875,482.043941100128,481.9271305000875,482.043941100128,482.02727399999276,None,c,1,0.666543300030753,482.02727399999276,None,,,,,,,pphh2,2022-09-07_14h30.51.460,training+cueing,2022.1.3,60.23200160934402,
Stranger.png,Stranger,Stranger,c,3,13,23,93,,,,,1,0,1,0,,,,,0,5,5,8,,,,,,,,,,,,,,,,,,,,,1.433,1.273,482.813179400051,None,,,,,,,,,,,,,,,,,,,,483.3584669001866,483.86203770013526,0.5043141399510205,1.0046610399149358,483.8453377999831,483.96203100006096,483.8453377999831,483.96203100006096,483.9452804001048,None,m,0,0.8769606999121606,483.9452804001048,None,,,,,,,pphh2,2022-09-07_14h30.51.460,training+cueing,2022.1.3,60.23200160934402,
Friend.png,Friend,Friend,c,2,12,22,92,,,,,1,0,1,0,,,,,0,6,6,10,,,,,,,,,,,,,,,,,,,,,1.448,1.962,484.94754880014807,None,,,,,,,,,,,,,,,,,,,,485.49308160017245,485.99692290020175,0.5052435398101807,1.0055280399974436,485.98022310016677,486.0969114000909,485.98022310016677,486.0969114000909,486.0801996001974,None,c,1,0.8858547999989241,486.0801996001974,None,,,,,,,pphh2,2022-09-07_14h30.51.460,training+cueing,2022.1.3,60.23200160934402,
Stranger.png,Stranger,Stranger,c,3,13,23,93,,,,,1,0,1,0,,,,,0,7,7,11,,,,,,,,,,,,,,,,,,,,,1.784,2.484,487.09921340015717,None,,,,,,,,,,,,,,,,,,,,487.64780170004815,488.14846070017666,0.514190339948982,1.0147346400190145,488.14846070017666,488.2491181001533,488.14846070017666,488.2491181001533,488.2491181001533,None,m,0,0.653302000137046,488.2491181001533,None,,,,,,,pphh2,2022-09-07_14h30.51.460,training+cueing,2022.1.3,60.23200160934402,
Self.png,Friend,Self ,m,2.1,16,26,96,,,,,1,0,1,0,,,,,0,8,8,1,,,,,,,,,,,,,,,,,,,,,1.687,1.515,489.0336712000426,None,,,,,,,,,,,,,,,,,,,,489.5639461001847,490.0664871002082,0.5031948396936059,1.0038079398218542,490.04981039999984,490.16682180017233,490.04981039999984,490.16682180017233,490.1500822000671,None,m,1,0.9923830002080649,490.1500822000671,None,,,,,,,pphh2,2022-09-07_14h30.51.460,training+cueing,2022.1.3,60.23200160934402,
Self.png,You,Self ,c,1,11,21,91,,,,,1,0,1,0,,,,,0,9,9,0,,,,,,,,,,,,,,,,,,,,,1.473,1.902,491.26855450007133,None,,,,,,,,,,,,,,,,,,,,491.79820970003493,492.30162880010903,0.5042269399855286,1.004355939803645,492.28490149998106,492.3849312001839,492.28490149998106,492.3849312001839,492.3849312001839,None,c,1,0.5647936998866498,492.3849312001839,None,,,,,,,pphh2,2022-09-07_14h30.51.460,training+cueing,2022.1.3,60.23200160934402,
Self.png,You,Self ,c,1,11,21,91,,,,,1,0,1,0,,,,,0,10,10,9,,,,,,,,,,,,,,,,,,,,,1.565,2.002,493.07015480007976,None,,,,,,,,,,,,,,,,,,,,493.6121142001357,494.1194592001848,0.5105024396907538,1.010887739714235,494.1027721001301,494.202828100184,494.1027721001301,494.202828100184,494.202828100184,None,c,1,0.5712101999670267,494.202828100184,None,,,,,,,pphh2,2022-09-07_14h30.51.460,training+cueing,2022.1.3,60.23200160934402,
Friend.png,Stranger,Friend,m,3.2,19,29,99,,,,,1,0,1,0,,,,,0,11,11,5,,,,,,,,,,,,,,,,,,,,,1.748,1.389,494.9049108000472,None,,,,,,,,,,,,,,,,,,,,495.45059200003743,495.9540785001591,0.5043192398734391,1.004650639835745,495.9374481001869,496.0541893001646,495.9374481001869,496.0541893001646,496.0374911001418,None,m,1,0.9280030999798328,496.0374911001418,None,,,,,,,pphh2,2022-09-07_14h30.51.460,training+cueing,2022.1.3,60.23200160934402,
Friend.png,Friend,Friend,c,2,12,22,92,,,,,1,0,1,0,,,,,1,0,12,10,,,,,,,,,,,,,,,,,,,,,1.501,2.387,497.09006300009787,None,,,,,,,,,,,,,,,,,,,,497.63416610006243,498.13905050000176,0.505203939974308,1.0056778399739414,498.1223488000687,498.23910050000995,498.1223488000687,498.23910050000995,498.222379000159,None,c,1,0.5828215000219643,498.222379000159,None,,,,,,,pphh2,2022-09-07_14h30.51.460,training+cueing,2022.1.3,60.23200160934402,
Stranger.png,You,Stranger,m,1.3,15,25,95,,,,,1,0,1,0,,,,,1,1,13,6,,,,,,,,,,,,,,,,,,,,,1.422,1.856,498.924858200131,None,,,,,,,,,,,,,,,,,,,,499.4694719000254,499.97376950015314,0.50585293979384,1.0061130397953093,499.9570191001985,500.05707160010934,499.9570191001985,500.05707160010934,500.05707160010934,None,m,1,0.9411935000680387,500.05707160010934,None,,,,,,,pphh2,2022-09-07_14h30.51.460,training+cueing,2022.1.3,60.23200160934402,
Self.png,Friend,Self ,m,2.1,16,26,96,,,,,1,0,1,0,,,,,1,2,14,1,,,,,,,,,,,,,,,,,,,,,1.706,2.312,501.12582470010966,None,,,,,,,,,,,,,,,,,,,,501.65546100004576,502.15863150008954,0.5041141400579363,1.0042828400619328,502.1420359001495,502.25878700008616,502.1420359001495,502.25878700008616,502.24200209998526,None,c,0,0.5967971000354737,502.24200209998526,None,,,,,,,pphh2,2022-09-07_14h30.51.460,training+cueing,2022.1.3,60.23200160934402,
Friend.png,Friend,Friend,c,2,12,22,92,,,,,1,0,1,0,,,,,1,3,15,4,,,,,,,,,,,,,,,,,,,,,1.537,1.272,502.96076410007663,None,,,,,,,,,,,,,,,,,,,,503.50243009999394,504.0099499002099,0.510730039793998,1.0110669396817684,503.99331630021334,504.11024370021187,503.99331630021334,504.11024370021187,504.0933364999946,None,c,1,0.4894673000089824,504.0933364999946,None,,,,,,,pphh2,2022-09-07_14h30.51.460,training+cueing,2022.1.3,60.23200160934402,
Friend.png,You,Friend,m,1.2,14,24,94,,,,,1,0,1,0,,,,,1,4,16,3,,,,,,,,,,,,,,,,,,,,,1.694,1.31,504.71192600019276,None,,,,,,,,,,,,,,,,,,,,505.25719900010154,505.76139320014045,0.5057947400491685,1.0059661401901394,505.7446545001585,505.8446162000764,505.7446545001585,505.8446162000764,505.8446162000764,None,c,0,0.9134385001379997,505.8446162000764,None,,,,,,,pphh2,2022-09-07_14h30.51.460,training+cueing,2022.1.3,60.23200160934402,
Stranger.png,Friend,Stranger,m,2.3,17,27,97,,,,,1,0,1,0,,,,,1,5,17,7,,,,,,,,,,,,,,,,,,,,,1.57,1.852,506.88053200021386,None,,,,,,,,,,,,,,,,,,,,507.4257034000475,507.92947160010226,0.5050567402504385,1.005338940070942,507.9128455000464,508.02950100018643,507.9128455000464,508.02950100018643,508.0128592001274,None,m,1,1.065762700047344,508.0128592001274,None,,,,,,,pphh2,2022-09-07_14h30.51.460,training+cueing,2022.1.3,60.23200160934402,
Stranger.png,Stranger,Stranger,c,3,13,23,93,,,,,1,0,1,0,,,,,1,6,18,8,,,,,,,,,,,,,,,,,,,,,1.751,2.264,509.19850850012153,None,,,,,,,,,,,,,,,,,,,,509.74751380016096,510.2478730001021,0.5139437399338931,1.0144501400645822,510.2478730001021,510.3478990001604,510.2478730001021,510.3478990001604,510.3478990001604,None,c,1,1.561877700034529,510.3478990001604,None,,,,,,,pphh2,2022-09-07_14h30.51.460,training+cueing,2022.1.3,60.23200160934402,
Stranger.png,Stranger,Stranger,c,3,13,23,93,,,,,1,0,1,0,,,,,1,7,19,11,,,,,,,,,,,,,,,,,,,,,1.555,1.372,512.0337950000539,None,,,,,,,,,,,,,,,,,,,,512.5604042999912,513.0665520001203,0.5099534397013485,1.0101320398971438,513.0499882001895,513.1666198000312,513.0499882001895,513.1666198000312,513.1499415000435,None,c,1,0.7121863998472691,513.1499415000435,None,,,,,,,pphh2,2022-09-07_14h30.51.460,training+cueing,2022.1.3,60.23200160934402,
Self.png,You,Self ,c,1,11,21,91,,,,,1,0,1,0,,,,,1,8,20,0,,,,,,,,,,,,,,,,,,,,,1.727,1.229,513.9855917000677,None,,,,,,,,,,,,,,,,,,,,514.5297247001436,515.034658400109,0.5054279398173094,1.0057351398281753,515.0179640999995,515.1180770001374,515.0179640999995,515.1180770001374,515.1180770001374,None,c,1,0.7130126999691129,515.1180770001374,None,,,,,,,pphh2,2022-09-07_14h30.51.460,training+cueing,2022.1.3,60.23200160934402,
Self.png,Stranger,Self ,m,3.1,18,28,98,,,,,1,0,1,0,,,,,1,9,21,2,,,,,,,,,,,,,,,,,,,,,1.77,1.854,515.9539960999973,None,,,,,,,,,,,,,,,,,,,,516.4992763001937,517.0027801999822,0.5044350400567055,1.0047223400324583,516.9861061000265,517.1033993000165,516.9861061000265,517.1033993000165,517.0866773000453,None,c,0,0.9349903999827802,517.0866773000453,None,,,,,,,pphh2,2022-09-07_14h30.51.460,training+cueing,2022.1.3,60.23200160934402,
Friend.png,Stranger,Friend,m,3.2,19,29,99,,,,,1,0,1,0,,,,,1,10,22,5,,,,,,,,,,,,,,,,,,,,,1.508,2.358,518.1550011001527,None,,,,,,,,,,,,,,,,,,,,518.6973765001167,519.2043752002064,0.5113136398140341,1.0116105396300554,519.1877451001201,519.3044241000898,519.1877451001201,519.3044241000898,519.2876636001747,None,m,1,0.7987254001200199,519.2876636001747,None,,,,,,,pphh2,2022-09-07_14h30.51.460,training+cueing,2022.1.3,60.23200160934402,
Self.png,You,Self ,c,1,11,21,91,,,,,1,0,1,0,,,,,1,11,23,9,,,,,,,,,,,,,,,,,,,,,1.776,2.1,520.206495200051,None,,,,,,,,,,,,,,,,,,,,520.7392548001371,521.2392320001964,0.5125642400234938,1.012729340000078,521.2392320001964,521.3392372000962,521.2392320001964,521.3392372000962,521.3392372000962,None,c,1,0.5230849001090974,521.3392372000962,None,,,,,,,pphh2,2022-09-07_14h30.51.460,training+cueing,2022.1.3,60.23200160934402,
Friend.png,You,Friend,m,1.2,14,24,94,,,,,1,0,1,0,,,,,2,0,24,3,,,,,,,,,,,,,,,,,,,,,1.774,1.605,521.9910978002008,None,,,,,,,,,,,,,,,,,,,,522.5175251001492,523.0239035000559,0.5099307398777455,1.010206839768216,523.0071672000922,523.1071254000999,523.0071672000922,523.1071254000999,523.1071254000999,None,m,1,1.2180556000676006,523.1071254000999,None,,,,,,,pphh2,2022-09-07_14h30.51.460,training+cueing,2022.1.3,60.23200160934402,
Stranger.png,Friend,Stranger,m,2.3,17,27,97,,,,,1,0,1,0,,,,,2,1,25,7,,,,,,,,,,,,,,,,,,,,,1.687,1.633,524.4593917001039,None,,,,,,,,,,,,,,,,,,,,524.9929947000928,525.492273400072,0.5123706399463117,1.0126383400056511,525.492273400072,525.5923780000303,525.492273400072,525.5923780000303,525.5923780000303,None,m,1,0.8772980999201536,525.5923780000303,None,,,,,,,pphh2,2022-09-07_14h30.51.460,training+cueing,2022.1.3,60.23200160934402,
Friend.png,Stranger,Friend,m,3.2,19,29,99,,,,,1,0,1,0,,,,,2,2,26,5,,,,,,,,,,,,,,,,,,,,,1.755,2.35,526.5942985999864,None,,,,,,,,,,,,,,,,,,,,527.1235824001487,527.6271484000608,0.503036739770323,1.0032469399739057,527.6105286001693,527.7271663001738,527.6105286001693,527.7271663001738,527.7104991001543,None,c,0,0.5671093999408185,527.7104991001543,None,,,,,,,pphh2,2022-09-07_14h30.51.460,training+cueing,2022.1.3,60.23200160934402,
Stranger.png,You,Stranger,m,1.3,15,25,95,,,,,1,0,1,0,,,,,2,3,27,6,,,,,,,,,,,,,,,,,,,,,1.774,1.484,528.3961856001988,None,,,,,,,,,,,,,,,,,,,,528.9410201001447,529.445127800107,0.5056789398659021,1.005957240005955,529.4284749000799,529.528495100094,529.4284749000799,529.528495100094,529.528495100094,None,m,1,0.6533703000750393,529.528495100094,None,,,,,,,pphh2,2022-09-07_14h30.51.460,training+cueing,2022.1.3,60.23200160934402,
Self.png,You,Self ,c,1,11,21,91,,,,,1,0,1,0,,,,,2,4,28,0,,,,,,,,,,,,,,,,,,,,,1.508,1.458,530.313637000043,None,,,,,,,,,,,,,,,,,,,,530.8395395001862,531.3465311001055,0.5097618398722261,1.009911339962855,531.3299642000347,531.4299104001839,531.3299642000347,531.4299104001839,531.4299104001839,None,c,1,1.0083926001098007,531.4299104001839,None,,,,,,,pphh2,2022-09-07_14h30.51.460,training+cueing,2022.1.3,60.23200160934402,
Friend.png,Friend,Friend,c,2,12,22,92,,,,,1,0,1,0,,,,,2,5,29,10,,,,,,,,,,,,,,,,,,,,,1.625,2.087,532.5661161001772,None,,,,,,,,,,,,,,,,,,,,533.1110716001131,533.6148936001118,0.5051864399574697,1.0055414398666471,533.5981753000524,533.714915300021,533.5981753000524,533.714915300021,533.6981962001882,None,m,0,0.6115623000077903,533.6981962001882,None,,,,,,,pphh2,2022-09-07_14h30.51.460,training+cueing,2022.1.3,60.23200160934402,
Self.png,Stranger,Self ,m,3.1,18,28,98,,,,,1,0,1,0,,,,,2,6,30,2,,,,,,,,,,,,,,,,,,,,,1.546,1.568,534.433617600007,None,,,,,,,,,,,,,,,,,,,,534.9833116000518,535.4829750000499,0.5132811397779733,1.0135054397396743,535.4829750000499,535.5830208000261,535.4829750000499,535.5830208000261,535.5830208000261,None,m,1,0.8868087001610547,535.5830208000261,None,,,,,,,pphh2,2022-09-07_14h30.51.460,training+cueing,2022.1.3,60.23200160934402,
Friend.png,Friend,Friend,c,2,12,22,92,,,,,1,0,1,0,,,,,2,7,31,4,,,,,,,,,,,,,,,,,,,,,1.789,2.22,536.6018390001263,None,,,,,,,,,,,,,,,,,,,,537.1527611000929,537.6677899002098,0.5089254400227219,1.009199740132317,537.6510895001702,537.7679094001651,537.6510895001702,537.7679094001651,537.7511262001935,None,c,1,0.6870126000139862,537.7511262001935,None,,,,,,,pphh2,2022-09-07_14h30.51.460,training+cueing,2022.1.3,60.23200160934402,
Stranger.png,Stranger,Stranger,c,3,13,23,93,,,,,1,0,1,0,,,,,2,8,32,8,,,,,,,,,,,,,,,,,,,,,1.606,2.07,538.5701127999928,None,,,,,,,,,,,,,,,,,,,,539.1158081002068,539.6191742999945,0.5041515398770571,1.0045381397940218,539.6025100001134,539.7192622001749,539.6025100001134,539.7192622001749,539.7025921000168,None,c,1,0.9913355000317097,539.7025921000168,None,,,,,,,pphh2,2022-09-07_14h30.51.460,training+cueing,2022.1.3,60.23200160934402,
Self.png,You,Self ,c,1,11,21,91,,,,,1,0,1,0,,,,,2,9,33,9,,,,,,,,,,,,,,,,,,,,,1.518,1.39,540.8218375002034,None,,,,,,,,,,,,,,,,,,,,541.3667342001572,541.8708491001744,0.5058289398439229,1.0061064399778843,541.854176599998,541.9542215000838,541.854176599998,541.9542215000838,541.9542215000838,None,c,1,0.7244411997962743,541.9542215000838,None,,,,,,,pphh2,2022-09-07_14h30.51.460,training+cueing,2022.1.3,60.23200160934402,
Self.png,Friend,Self ,m,2.1,16,26,96,,,,,1,0,1,0,,,,,2,10,34,1,,,,,,,,,,,,,,,,,,,,,1.782,1.579,542.8068807001691,None,,,,,,,,,,,,,,,,,,,,543.3592129000463,543.8723522000946,0.5055390398483723,1.0058261398226023,543.8556408002041,543.9723276000004,543.8556408002041,543.9723276000004,543.9556339001283,None,m,1,0.6747095000464469,543.9556339001283,None,,,,,,,pphh2,2022-09-07_14h30.51.460,training+cueing,2022.1.3,60.23200160934402,
Stranger.png,Stranger,Stranger,c,3,13,23,93,,,,,1,0,1,0,,,,,2,11,35,11,,,,,,,,,,,,,,,,,,,,,1.627,2.431,544.7576111000963,None,,,,,,,,,,,,,,,,,,,,545.2906544001307,545.7903241000604,0.5134512400254607,1.0137133398093283,545.7903241000604,545.8903543001506,545.7903241000604,545.8903543001506,545.8903543001506,None,None,0,,545.8903543001506,None,,,,,,,pphh2,2022-09-07_14h30.51.460,training+cueing,2022.1.3,60.23200160934402,
Self.png,You,Self ,c,1,11,21,91,,,,,1,0,1,0,,,,,3,0,36,9,,,,,,,,,,,,,,,,,,,,,1.446,1.371,547.6263001000043,None,,,,,,,,,,,,,,,,,,,,548.1555161001161,548.659122500103,0.5028588399291039,1.003203839994967,548.6424583999906,548.7425371001009,548.6424583999906,548.7425371001009,548.7425371001009,None,c,1,0.7353620999492705,548.7425371001009,None,,,,,,,pphh2,2022-09-07_14h30.51.460,training+cueing,2022.1.3,60.23200160934402,
Self.png,Stranger,Self ,m,3.1,18,28,98,,,,,1,0,1,0,,,,,3,1,37,2,,,,,,,,,,,,,,,,,,,,,1.549,2.449,549.6111592000816,None,,,,,,,,,,,,,,,,,,,,550.1414210000075,550.6439093002118,0.5033978400751948,1.003763739950955,550.627208400052,550.7439239001833,550.627208400052,550.7439239001833,550.7272696001455,None,m,1,0.799131200183183,550.7272696001455,None,,,,,,,pphh2,2022-09-07_14h30.51.460,training+cueing,2022.1.3,60.23200160934402,
Stranger.png,Stranger,Stranger,c,3,13,23,93,,,,,1,0,1,0,,,,,3,2,38,8,,,,,,,,,,,,,,,,,,,,,1.487,1.631,551.6460832001176,None,,,,,,,,,,,,,,,,,,,,552.1885552001186,552.6954346001148,0.5111511398572475,1.011285639833659,552.6788045000285,552.7955160001293,552.6788045000285,552.7955160001293,552.7789247999899,None,c,1,0.8750352000351995,552.7789247999899,None,,,,,,,pphh2,2022-09-07_14h30.51.460,training+cueing,2022.1.3,60.23200160934402,
Self.png,Friend,Self ,m,2.1,16,26,96,,,,,1,0,1,0,,,,,3,3,39,1,,,,,,,,,,,,,,,,,,,,,1.454,1.736,553.7817830999848,None,,,,,,,,,,,,,,,,,,,,554.3261223000009,554.8302877000533,0.5039916399400681,1.0042474400252104,554.8135995001066,554.9302727000322,554.8135995001066,554.9302727000322,554.9135494001675,None,m,1,0.8356230000499636,554.9135494001675,None,,,,,,,pphh2,2022-09-07_14h30.51.460,training+cueing,2022.1.3,60.23200160934402,
Friend.png,Friend,Friend,c,2,12,22,92,,,,,1,0,1,0,,,,,3,4,40,4,,,,,,,,,,,,,,,,,,,,,1.697,1.66,555.8828165000305,None,,,,,,,,,,,,,,,,,,,,556.4248194000684,556.9318729001097,0.5114303401205689,1.0117136400658637,556.91528690001,557.0318746999837,556.91528690001,557.0318746999837,557.0151465001982,None,c,1,1.3591114000882953,557.0151465001982,None,,,,,,,pphh2,2022-09-07_14h30.51.460,training+cueing,2022.1.3,60.23200160934402,
Stranger.png,Stranger,Stranger,c,3,13,23,93,,,,,1,0,1,0,,,,,3,5,41,11,,,,,,,,,,,,,,,,,,,,,1.482,1.216,558.5009204000235,None,,,,,,,,,,,,,,,,,,,,559.0349160002079,559.5503473000135,0.5118038400541991,1.0120959400665015,559.5336846001446,559.6504208000842,559.5336846001446,559.6504208000842,559.6336680999957,None,c,1,0.7877962999045849,559.6336680999957,None,,,,,,,pphh2,2022-09-07_14h30.51.460,training+cueing,2022.1.3,60.23200160934402,
Friend.png,Stranger,Friend,m,3.2,19,29,99,,,,,1,0,1,0,,,,,3,6,42,5,,,,,,,,,,,,,,,,,,,,,1.709,2.119,560.552437200211,None,,,,,,,,,,,,,,,,,,,,561.0789652999956,561.5851895001251,0.5081265401095152,1.008355539990589,561.5684956000187,561.6852234001271,561.5684956000187,561.6852234001271,561.6684983000159,None,m,1,0.945833700010553,561.6684983000159,None,,,,,,,pphh2,2022-09-07_14h30.51.460,training+cueing,2022.1.3,60.23200160934402,
Friend.png,You,Friend,m,1.2,14,24,94,,,,,1,0,1,0,,,,,3,7,43,3,,,,,,,,,,,,,,,,,,,,,1.772,1.852,562.737466200022,None,,,,,,,,,,,,,,,,,,,,563.2825106000528,563.7868273002096,0.5059178399387747,1.0061333400662988,563.7701851001475,563.8701412000228,563.7701851001475,563.8701412000228,563.8701412000228,None,c,0,0.9033740998711437,563.8701412000228,None,,,,,,,pphh2,2022-09-07_14h30.51.460,training+cueing,2022.1.3,60.23200160934402,
Stranger.png,You,Stranger,m,1.3,15,25,95,,,,,1,0,1,0,,,,,3,8,44,6,,,,,,,,,,,,,,,,,,,,,1.749,1.504,564.9060938002076,None,,,,,,,,,,,,,,,,,,,,565.4571128999814,565.9717296001036,0.5082127400673926,1.0085423400159925,565.9550656001084,566.0551267000847,565.9550656001084,566.0551267000847,566.0551267000847,None,m,1,0.8312351000495255,566.0551267000847,None,,,,,,,pphh2,2022-09-07_14h30.51.460,training+cueing,2022.1.3,60.23200160934402,
Friend.png,Friend,Friend,c,2,12,22,92,,,,,1,0,1,0,,,,,3,9,45,10,,,,,,,,,,,,,,,,,,,,,1.504,1.852,567.0074991001748,None,,,,,,,,,,,,,,,,,,,,567.5531231001951,568.0565377001185,0.5043930397368968,1.0046599397901446,568.0398711001035,568.1565708001144,568.0398711001035,568.1565708001144,568.139877300011,None,c,1,0.7303106000181288,568.139877300011,None,,,,,,,pphh2,2022-09-07_14h30.51.460,training+cueing,2022.1.3,60.23200160934402,
Stranger.png,Friend,Stranger,m,2.3,17,27,97,,,,,1,0,1,0,,,,,3,10,46,7,,,,,,,,,,,,,,,,,,,,,1.564,1.912,568.991927199997,None,,,,,,,,,,,,,,,,,,,,569.5344759,570.0413460000418,0.5112795399036258,1.0114265398588032,570.0247487002052,570.1413732999936,570.0247487002052,570.1413732999936,570.1246588001959,None,m,1,0.6172044000122696,570.1246588001959,None,,,,,,,pphh2,2022-09-07_14h30.51.460,training+cueing,2022.1.3,60.23200160934402,
Self.png,You,Self ,c,1,11,21,91,,,,,1,0,1,0,,,,,3,11,47,0,,,,,,,,,,,,,,,,,,,,,1.433,1.716,570.8606649001595,None,,,,,,,,,,,,,,,,,,,,571.4042179000098,571.9093327000737,0.5058469399809837,1.0062355401460081,571.8926648001652,571.9934187000617,571.8926648001652,571.9934187000617,571.9934187000617,None,c,1,0.7650778999086469,571.9934187000617,None,,,,,,,pphh2,2022-09-07_14h30.51.460,training+cueing,2022.1.3,60.23200160934402,
Stranger.png,Stranger,Stranger,c,3,13,23,93,,,,,1,0,1,0,,,,,4,0,48,8,,,,,,,,,,,,,,,,,,,,,1.472,1.36,572.8784737000242,None,,,,,,,,,,,,,,,,,,,,573.4280019002035,573.9274891000241,0.512977940030396,1.0132295400835574,573.9274891000241,574.0275307002012,573.9274891000241,574.0275307002012,574.0275307002012,None,c,1,1.2108153000008315,574.0275307002012,None,,,,,,,pphh2,2022-09-07_14h30.51.460,training+cueing,2022.1.3,60.23200160934402,
Self.png,Friend,Self ,m,2.1,16,26,96,,,,,1,0,1,0,,,,,4,1,49,1,,,,,,,,,,,,,,,,,,,,,1.738,1.958,575.36318450002,None,,,,,,,,,,,,,,,,,,,,575.8925430001691,576.3959506000392,0.5041558397933841,1.004432339919731,576.3792818000074,576.4959639001172,576.3792818000074,576.4959639001172,576.4792799002025,None,m,1,0.7427908999379724,576.4792799002025,None,,,,,,,pphh2,2022-09-07_14h30.51.460,training+cueing,2022.1.3,60.23200160934402,
Self.png,You,Self ,c,1,11,21,91,,,,,1,0,1,0,,,,,4,2,50,0,,,,,,,,,,,,,,,,,,,,,1.74,1.296,577.3481584000401,None,,,,,,,,,,,,,,,,,,,,577.8925590000581,578.3974656001665,0.5053342399187386,1.0057245397474617,578.3805991001427,578.4807713001501,578.3805991001427,578.4807713001501,578.4807713001501,None,c,1,0.6452874999959022,578.4807713001501,None,,,,,,,pphh2,2022-09-07_14h30.51.460,training+cueing,2022.1.3,60.23200160934402,
Friend.png,Friend,Friend,c,2,12,22,92,,,,,1,0,1,0,,,,,4,3,51,4,,,,,,,,,,,,,,,,,,,,,1.499,1.44,579.2493759000208,None,,,,,,,,,,,,,,,,,,,,579.796223500045,580.2987934001721,0.5036126398481429,1.0041398399043828,580.2821331000887,580.3987653001677,580.2821331000887,580.3987653001677,580.3821384001058,None,c,1,0.6967615999747068,580.3821384001058,None,,,,,,,pphh2,2022-09-07_14h30.51.460,training+cueing,2022.1.3,60.23200160934402,
Stranger.png,Friend,Stranger,m,2.3,17,27,97,,,,,1,0,1,0,,,,,4,4,52,7,,,,,,,,,,,,,,,,,,,,,1.441,1.38,581.2008034000173,None,,,,,,,,,,,,,,,,,,,,581.7263305000961,582.2335097000469,0.5099237398244441,1.0109183399472386,582.2168425000273,582.3335945000872,582.2168425000273,582.3335945000872,582.3168752000201,None,c,0,1.2734162001870573,582.3168752000201,None,,,,,,,pphh2,2022-09-07_14h30.51.460,training+cueing,2022.1.3,60.23200160934402,
Friend.png,Friend,Friend,c,2,12,22,92,,,,,1,0,1,0,,,,,4,5,53,10,,,,,,,,,,,,,,,,,,,,,1.741,1.575,583.7193392000627,None,,,,,,,,,,,,,,,,,,,,584.2619956000708,584.7687480000313,0.5109307398088276,1.0111506399698555,584.7520530000329,584.8687170001213,584.7520530000329,584.8687170001213,584.8520456000697,None,c,1,1.6180800998117775,584.8520456000697,None,,,,,,,pphh2,2022-09-07_14h30.51.460,training+cueing,2022.1.3,60.23200160934402,
Friend.png,You,Friend,m,1.2,14,24,94,,,,,1,0,1,0,,,,,4,6,54,3,,,,,,,,,,,,,,,,,,,,,1.656,1.812,586.588332900079,None,,,,,,,,,,,,,,,,,,,,587.1372035001405,587.6375120000448,0.5151116398628801,1.0152784399688244,587.6375120000448,587.73753150017,587.6375120000448,587.73753150017,587.73753150017,None,m,1,0.8127705999650061,587.73753150017,None,,,,,,,pphh2,2022-09-07_14h30.51.460,training+cueing,2022.1.3,60.23200160934402,
Stranger.png,Stranger,Stranger,c,3,13,23,93,,,,,1,0,1,0,,,,,4,7,55,11,,,,,,,,,,,,,,,,,,,,,1.437,1.609,588.6730455001816,None,,,,,,,,,,,,,,,,,,,,589.2183994001243,589.7222706000321,0.50359583995305,1.0038574398495257,589.7056313999929,589.8223521001637,589.7056313999929,589.8223521001637,589.8057241002098,None,None,0,,589.8057241002098,None,,,,,,,pphh2,2022-09-07_14h30.51.460,training+cueing,2022.1.3,60.23200160934402,
Self.png,You,Self ,c,1,11,21,91,,,,,1,0,1,0,,,,,4,8,56,9,,,,,,,,,,,,,,,,,,,,,1.65,2.017,591.3582764000166,None,,,,,,,,,,,,,,,,,,,,591.9034458000679,592.4076065002009,0.505584439728409,1.0058691396843642,592.3909352000337,592.4910130000208,592.3909352000337,592.4910130000208,592.4910130000208,None,c,1,0.5711778998374939,592.4910130000208,None,,,,,,,pphh2,2022-09-07_14h30.51.460,training+cueing,2022.1.3,60.23200160934402,
Friend.png,Stranger,Friend,m,3.2,19,29,99,,,,,1,0,1,0,,,,,4,9,57,5,,,,,,,,,,,,,,,,,,,,,1.767,1.793,593.1927560002077,None,,,,,,,,,,,,,,,,,,,,593.7228691000491,594.2255341000855,0.5034295397344977,1.00453143985942,594.2088999000844,594.3256497001275,594.2088999000844,594.3256497001275,594.3089052999858,None,m,1,0.7848040999379009,594.3089052999858,None,,,,,,,pphh2,2022-09-07_14h30.51.460,training+cueing,2022.1.3,60.23200160934402,
Self.png,Stranger,Self ,m,3.1,18,28,98,,,,,1,0,1,0,,,,,4,10,58,2,,,,,,,,,,,,,,,,,,,,,1.431,2.317,595.2287940999959,None,,,,,,,,,,,,,,,,,,,,595.7824180000462,596.2937366000842,0.502123239915818,1.0024215399753302,596.2770574002061,596.393820400117,596.2770574002061,596.393820400117,596.3770682001486,None,None,0,,596.3770682001486,None,,,,,,,pphh2,2022-09-07_14h30.51.460,training+cueing,2022.1.3,60.23200160934402,
Stranger.png,You,Stranger,m,1.3,15,25,95,,,,,1,0,1,0,,,,,4,11,59,6,,,,,,,,,,,,,,,,,,,,,1.73,1.348,597.9127527000383,None,,,,,,,,,,,,,,,,,,,,598.4492736000102,598.962403499987,0.5071528397966176,1.0074522397480905,598.945736200083,599.0457518000621,598.945736200083,599.0457518000621,599.0457518000621,None,m,1,0.7834379998967052,599.0457518000621,None,,,,,,,pphh2,2022-09-07_14h30.51.460,training+cueing,2022.1.3,60.23200160934402,
Self.png,Stranger,Self ,m,3.1,18,28,98,,,,,1,0,1,0,,,,,5,0,60,2,,,,,,,,,,,,,,,,,,,,,1.437,1.408,599.9477385000791,None,,,,,,,,,,,,,,,,,,,,600.4765141000971,600.980507100001,0.5035034399479628,1.0037610398139805,600.9638247999828,601.0805325000547,600.9638247999828,601.0805325000547,601.0637917001732,None,c,0,0.7825152999721467,601.0637917001732,None,,,,,,,pphh2,2022-09-07_14h30.51.460,training+cueing,2022.1.3,60.23200160934402,
Friend.png,You,Friend,m,1.2,14,24,94,,,,,1,0,1,0,,,,,5,1,61,3,,,,,,,,,,,,,,,,,,,,,1.426,2.199,601.966177900089,None,,,,,,,,,,,,,,,,,,,,602.5110798000824,603.0154075000901,0.5057965398300439,1.0059819398447871,602.9986712001264,603.0986889000051,602.9986712001264,603.0986889000051,603.0986889000051,None,m,1,0.8595581999979913,603.0986889000051,None,,,,,,,pphh2,2022-09-07_14h30.51.460,training+cueing,2022.1.3,60.23200160934402,
Stranger.png,Stranger,Stranger,c,3,13,23,93,,,,,1,0,1,0,,,,,5,2,62,11,,,,,,,,,,,,,,,,,,,,,1.534,1.915,604.0839228001423,None,,,,,,,,,,,,,,,,,,,,604.6151003001723,605.1167979000602,0.5023860400542617,1.0025725399609655,605.1002325001173,605.2168608000502,605.1002325001173,605.2168608000502,605.2001835000701,None,c,1,1.0780607000924647,605.2001835000701,None,,,,,,,pphh2,2022-09-07_14h30.51.460,training+cueing,2022.1.3,60.23200160934402,
Stranger.png,Stranger,Stranger,c,3,13,23,93,,,,,1,0,1,0,,,,,5,3,63,8,,,,,,,,,,,,,,,,,,,,,1.688,2.15,606.4022741001099,None,,,,,,,,,,,,,,,,,,,,606.9281965000555,607.4352169001941,0.5095476398710161,1.0098358397372067,607.4185143001378,607.5352209000848,607.4185143001378,607.5352209000848,607.5185564002022,None,c,1,0.9031996000558138,607.5185564002022,None,,,,,,,pphh2,2022-09-07_14h30.51.460,training+cueing,2022.1.3,60.23200160934402,
Friend.png,Friend,Friend,c,2,12,22,92,,,,,1,0,1,0,,,,,5,4,64,4,,,,,,,,,,,,,,,,,,,,,1.625,1.576,608.5543544001412,None,,,,,,,,,,,,,,,,,,,,609.1029971002135,609.6034262001049,0.5153231397271156,1.0155821398366243,609.6034262001049,609.7035070001148,609.6034262001049,609.7035070001148,609.7035070001148,None,c,1,0.718178299954161,609.7035070001148,None,,,,,,,pphh2,2022-09-07_14h30.51.460,training+cueing,2022.1.3,60.23200160934402,
Friend.png,Stranger,Friend,m,3.2,19,29,99,,,,,1,0,1,0,,,,,5,5,65,5,,,,,,,,,,,,,,,,,,,,,1.549,2.175,610.5554619000759,None,,,,,,,,,,,,,,,,,,,,611.0861119001638,611.5882317000069,0.502759639872238,1.0029971399344504,611.5715532000177,611.6882666000165,611.5715532000177,611.6882666000165,611.6715910001658,None,m,1,0.7814761998597533,611.6715910001658,None,,,,,,,pphh2,2022-09-07_14h30.51.460,training+cueing,2022.1.3,60.23200160934402,
Friend.png,Friend,Friend,c,2,12,22,92,,,,,1,0,1,0,,,,,5,6,66,10,,,,,,,,,,,,,,,,,,,,,1.478,1.402,612.573798000114,None,,,,,,,,,,,,,,,,,,,,613.1185698001646,613.6230285000056,0.5046336399391294,1.0049438399728388,613.6063095000573,613.7230837000534,613.6063095000573,613.7230837000534,613.706355900038,None,c,1,0.8754074000753462,613.706355900038,None,,,,,,,pphh2,2022-09-07_14h30.51.460,training+cueing,2022.1.3,60.23200160934402,
Self.png,Friend,Self ,m,2.1,16,26,96,,,,,1,0,1,0,,,,,5,7,67,1,,,,,,,,,,,,,,,,,,,,,1.463,1.355,614.7083892000373,None,,,,,,,,,,,,,,,,,,,,615.2353664999828,615.7412354000844,0.5093334398698062,1.0095823400188237,615.7245493000373,615.8412795001641,615.7245493000373,615.8412795001641,615.8245620999951,None,m,1,0.9821617000270635,615.8245620999951,None,,,,,,,pphh2,2022-09-07_14h30.51.460,training+cueing,2022.1.3,60.23200160934402,
Self.png,You,Self ,c,1,11,21,91,,,,,1,0,1,0,,,,,5,8,68,9,,,,,,,,,,,,,,,,,,,,,1.647,1.778,616.9270808000583,None,,,,,,,,,,,,,,,,,,,,617.4714293000288,617.9761946999934,0.5053089400753379,1.0054949400946498,617.9596075001173,618.0595675001387,617.9596075001173,618.0595675001387,618.0595675001387,None,c,1,0.6656477998476475,618.0595675001387,None,,,,,,,pphh2,2022-09-07_14h30.51.460,training+cueing,2022.1.3,60.23200160934402,
Self.png,You,Self ,c,1,11,21,91,,,,,1,0,1,0,,,,,5,9,69,0,,,,,,,,,,,,,,,,,,,,,1.646,2.157,618.8452950001229,None,,,,,,,,,,,,,,,,,,,,619.3876114999875,619.8943291001488,0.5107213400769979,1.01110743987374,619.8775991001166,619.9782981001772,619.8775991001166,619.9782981001772,619.9782981001772,None,c,1,1.2443564999848604,619.9782981001772,None,,,,,,,pphh2,2022-09-07_14h30.51.460,training+cueing,2022.1.3,60.23200160934402,
Stranger.png,You,Stranger,m,1.3,15,25,95,,,,,1,0,1,0,,,,,5,10,70,6,,,,,,,,,,,,,,,,,,,,,1.636,2.005,621.3467217001598,None,,,,,,,,,,,,,,,,,,,,621.8893343000673,622.3962516000029,0.51095233974047,1.011051339795813,622.3795448001474,622.479591100011,622.3795448001474,622.479591100011,622.479591100011,None,m,1,0.6625979000236839,622.479591100011,None,,,,,,,pphh2,2022-09-07_14h30.51.460,training+cueing,2022.1.3,60.23200160934402,
Stranger.png,Friend,Stranger,m,2.3,17,27,97,,,,,1,0,1,0,,,,,5,11,71,7,,,,,,,,,,,,,,,,,,,,,1.593,1.609,623.2646283002105,None,,,,,,,,,,,,,,,,,,,,623.7994368001819,624.3141463000793,0.50837013986893,1.008946139831096,624.2973053001333,624.4142148999963,624.2973053001333,624.4142148999963,624.3974665000569,None,m,1,1.368499199859798,624.3974665000569,None,,,,,,,pphh2,2022-09-07_14h30.51.460,training+cueing,2022.1.3,60.23200160934402,
Self.png,You,Self ,c,1,11,21,91,,,,,1,0,1,0,,,,,6,0,72,9,,,,,,,,,,,,,,,,,,,,,1.672,2.147,625.901089400053,None,,,,,,,,,,,,,,,,,,,,626.4453638000414,626.9494128001388,0.5054115399252623,1.005648739868775,626.9327430999838,627.0327706001699,626.9327430999838,627.0327706001699,627.0327706001699,None,c,1,0.5898249999154359,627.0327706001699,None,,,,,,,pphh2,2022-09-07_14h30.51.460,training+cueing,2022.1.3,60.23200160934402,
Stranger.png,Stranger,Stranger,c,3,13,23,93,,,,,1,0,1,0,,,,,6,1,73,8,,,,,,,,,,,,,,,,,,,,,1.716,1.506,627.7514496000949,None,,,,,,,,,,,,,,,,,,,,628.2974302000366,628.8006613000762,0.5039680397603661,1.0042880398686975,628.7840017999988,628.9007600999903,628.7840017999988,628.9007600999903,628.884063300211,None,m,0,0.5943152001127601,628.884063300211,None,,,,,,,pphh2,2022-09-07_14h30.51.460,training+cueing,2022.1.3,60.23200160934402,
Stranger.png,You,Stranger,m,1.3,15,25,95,,,,,1,0,1,0,,,,,6,2,74,6,,,,,,,,,,,,,,,,,,,,,1.773,2.267,629.6027004001662,None,,,,,,,,,,,,,,,,,,,,630.1318860000465,630.6353820001241,0.5030185398645699,1.0032842396758497,630.6187477000058,630.718748100102,630.6187477000058,630.718748100102,630.718748100102,None,m,1,0.6948627999518067,630.718748100102,None,,,,,,,pphh2,2022-09-07_14h30.51.460,training+cueing,2022.1.3,60.23200160934402,
Friend.png,Friend,Friend,c,2,12,22,92,,,,,1,0,1,0,,,,,6,3,75,4,,,,,,,,,,,,,,,,,,,,,1.455,1.263,631.5374302000273,None,,,,,,,,,,,,,,,,,,,,632.066786600044,632.5703126001172,0.5039246396627277,1.0040531395934522,632.553587900009,632.6704618001822,632.553587900009,632.6704618001822,632.653668400133,None,None,0,,632.653668400133,None,,,,,,,pphh2,2022-09-07_14h30.51.460,training+cueing,2022.1.3,60.23200160934402,
Friend.png,Friend,Friend,c,2,12,22,92,,,,,1,0,1,0,,,,,6,4,76,10,,,,,,,,,,,,,,,,,,,,,1.619,1.312,634.2221143001225,None,,,,,,,,,,,,,,,,,,,,634.7478380000684,635.2552381001879,0.5098520398605615,1.0102131399326026,635.2386320000514,635.3554628000129,635.2386320000514,635.3554628000129,635.338770700153,None,c,1,0.8274417999200523,635.338770700153,None,,,,,,,pphh2,2022-09-07_14h30.51.460,training+cueing,2022.1.3,60.23200160934402,
Self.png,You,Self ,c,1,11,21,91,,,,,1,0,1,0,,,,,6,5,77,0,,,,,,,,,,,,,,,,,,,,,1.77,2.178,636.2908265001606,None,,,,,,,,,,,,,,,,,,,,636.8201457001269,637.3236176001374,0.5044104398693889,1.0047497400082648,637.3069522001315,637.406986300135,637.3069522001315,637.406986300135,637.406986300135,None,m,0,0.7427594000473619,637.406986300135,None,,,,,,,pphh2,2022-09-07_14h30.51.460,training+cueing,2022.1.3,60.23200160934402,
Friend.png,You,Friend,m,1.2,14,24,94,,,,,1,0,1,0,,,,,6,6,78,3,,,,,,,,,,,,,,,,,,,,,1.407,1.886,638.2756281001493,None,,,,,,,,,,,,,,,,,,,,638.8024391999934,639.3084001999814,0.5091934399679303,1.0094764400273561,639.2917061001062,639.391738000093,639.2917061001062,639.391738000093,639.391738000093,None,m,1,0.9980928001459688,639.391738000093,None,,,,,,,pphh2,2022-09-07_14h30.51.460,training+cueing,2022.1.3,60.23200160934402,
Stranger.png,Stranger,Stranger,c,3,13,23,93,,,,,1,0,1,0,,,,,6,7,79,11,,,,,,,,,,,,,,,,,,,,,1.788,1.953,640.5112322000787,None,,,,,,,,,,,,,,,,,,,,641.0559261001181,641.5600023001898,0.5038294398691505,1.004119539866224,641.5433353001717,641.6600471001584,641.5433353001717,641.6600471001584,641.6433655000292,None,c,1,1.1794344000518322,641.6433655000292,None,,,,,,,pphh2,2022-09-07_14h30.51.460,training+cueing,2022.1.3,60.23200160934402,
