Image,Name,Face,CorrAns,Match,Face_onset,CResponse_onset,IResponse_onset,Match.thisRepN,Match.thisTrialN,Match.thisN,Match.thisIndex,Blocks.thisRepN,Blocks.thisTrialN,Blocks.thisN,Blocks.thisIndex,trials.thisRepN,trials.thisTrialN,trials.thisN,trials.thisIndex,trials_2.thisRepN,trials_2.thisTrialN,trials_2.thisN,trials_2.thisIndex,text.started,text.stopped,p1.started,p1.stopped,MatchInstructions.started,MatchInstructions.stopped,Name1.started,Name1.stopped,Face_Relevance.started,Face_Relevance.stopped,MismatchInstructions.started,MismatchInstructions.stopped,Rest_trainingInstruct.started,Rest_trainingInstruct.stopped,next8.keys,next8.rt,next8.started,next8.stopped,Ready.started,Ready.stopped,delay_one_picked,delay_two_picked,blank0.started,blank0.stopped,FixationCross1.started,FixationCross1.stopped,Name3.started,Name3.stopped,Face_Relevance3.started,Face_Relevance3.stopped,responseTime.started,responseTime.stopped,resp.keys,resp.corr,resp.rt,resp.started,resp.stopped,Accuracy.started,Accuracy.stopped,questions.started,questions.stopped,p2.started,p2.stopped,FixationCross3.started,FixationCross3.stopped,port_Face_onset.started,port_Face_onset.stopped,Name4.started,Name4.stopped,Face_Relevance4.started,Face_Relevance4.stopped,responseTime2.started,responseTime2.stopped,Response.keys,Response.corr,Response.rt,Response.started,Response.stopped,p3.started,p3.stopped,Finish.started,Finish.stopped,gender,age,participant,date,expName,psychopyVersion,frameRate,
Friend.png,Friend,,,,,,,0,0,0,1,,,,,,,,,,,,,21.541832600021735,None,0.010630019707605243,0.5370515196118504,23.520674400031567,None,25.672655700007454,None,25.672655700007454,None,,,,,,,,,,,,,,,,,,,,,,,,,,,,,,,,,,,,,,,,,,,,,,,,,,,,,,,ppxx2,2022_Apr_27_1312,training+cueing,2021.1.4,59.726417162366324,
Stranger.png,Stranger,,,,,,,0,1,1,2,,,,,,,,,,,,,,,,,,,45.57608469994739,None,45.57608469994739,None,,,,,,,,,,,,,,,,,,,,,,,,,,,,,,,,,,,,,,,,,,,,,,,,,,,,,,,ppxx2,2022_Apr_27_1312,training+cueing,2021.1.4,59.726417162366324,
Self.png,You,,,,,,,0,2,2,0,,,,,,,,,,,,,,,,,,,65.58291770005599,None,65.58291770005599,None,,,,,,,,,,,,,,,,,,,,,,,,,,,,,,,,,,,,,,,,,,,,,,,,,,,,,,,ppxx2,2022_Apr_27_1312,training+cueing,2021.1.4,59.726417162366324,
Friend.png,Stranger,Friend,m,3.2,19,29,99,,,,,0,0,0,0,0,0,0,5,,,,,,,,,,,,,,,85.53189400001429,None,90.86880910000764,None,space,-0.023500500014051795,2.008744759950787,None,92.87068179994822,None,1.727,1.942,95.88065470010042,None,96.51325240009464,97.02356719993986,97.00683329999447,97.12360540009104,97.00683329999447,97.12360540009104,97.12360540009104,None,c,0,0.2320113000459969,97.12360540009104,None,97.37447030004114,None,,,,,,,,,,,,,,,,,,,,,,,,,,ppxx2,2022_Apr_27_1312,training+cueing,2021.1.4,59.726417162366324,
Stranger.png,You,Stranger,m,1.3,15,25,95,,,,,0,0,0,0,0,1,1,6,,,,,,,,,,,,,,,,,,,,,,,,,1.614,2.277,97.77405539993197,None,98.30706169991754,98.80813900008798,98.7914754000958,98.89156830008142,98.7914754000958,98.89156830008142,98.89156830008142,None,m,1,0.5440217000432312,98.89156830008142,None,99.4571239000652,None,,,,,,,,,,,,,,,,,,,,,,,,,,ppxx2,2022_Apr_27_1312,training+cueing,2021.1.4,59.726417162366324,
Stranger.png,Stranger,Stranger,c,3,13,23,93,,,,,0,0,0,0,0,2,2,8,,,,,,,,,,,,,,,,,,,,,,,,,1.492,2.043,99.85907420003787,None,100.40192419989035,100.90986320003867,100.89299299987033,101.00976669997908,100.89299299987033,101.00976669997908,100.99304069997743,None,c,1,0.5065498999319971,100.99304069997743,None,101.52676660008729,None,,,,,,,,,,,,,,,,,,,,,,,,,,ppxx2,2022_Apr_27_1312,training+cueing,2021.1.4,59.726417162366324,
Friend.png,You,Friend,m,1.2,14,24,94,,,,,0,0,0,0,0,3,3,3,,,,,,,,,,,,,,,,,,,,,,,,,1.705,2.153,101.92704369989224,None,102.47290779999457,102.97780460002832,102.96114160004072,103.06122520007193,102.96114160004072,103.06122520007193,103.06122520007193,None,m,1,0.3422781000845134,103.06122520007193,None,103.42820769990794,None,,,,,,,,,,,,,,,,,,,,,,,,,,ppxx2,2022_Apr_27_1312,training+cueing,2021.1.4,59.726417162366324,
Stranger.png,Friend,Stranger,m,2.3,17,27,97,,,,,0,0,0,0,0,4,4,7,,,,,,,,,,,,,,,,,,,,,,,,,1.79,1.822,103.82840220001526,None,104.37499490007758,104.87920259987004,104.86253879987635,104.97924560005777,104.86253879987635,104.97924560005777,104.96256510005333,None,c,0,0.42495170002803206,104.96256510005333,None,105.41293690004386,None,,,,,,,,,,,,,,,,,,,,,,,,,,ppxx2,2022_Apr_27_1312,training+cueing,2021.1.4,59.726417162366324,
Friend.png,Friend,Friend,c,2,12,22,92,,,,,0,0,0,0,0,5,5,10,,,,,,,,,,,,,,,,,,,,,,,,,1.503,1.873,105.81318300007842,None,106.3421459000092,106.84730820008554,106.83059519995004,106.94735549995676,106.83059519995004,106.94735549995676,106.93097959994338,None,m,0,0.21677790000103414,106.93097959994338,None,107.16425819997676,None,,,,,,,,,,,,,,,,,,,,,,,,,,ppxx2,2022_Apr_27_1312,training+cueing,2021.1.4,59.726417162366324,
Self.png,Stranger,Self ,m,3.1,18,28,98,,,,,0,0,0,0,0,6,6,2,,,,,,,,,,,,,,,,,,,,,,,,,1.611,2.265,107.56503179995343,None,108.10420250007883,108.6152512000408,108.59850209997967,108.71530140005052,108.59850209997967,108.71530140005052,108.69859799998812,None,c,0,0.2249994999729097,108.69859799998812,None,108.94886610005051,None,,,,,,,,,,,,,,,,,,,,,,,,,,ppxx2,2022_Apr_27_1312,training+cueing,2021.1.4,59.726417162366324,
Friend.png,Friend,Friend,c,2,12,22,92,,,,,0,0,0,0,0,7,7,4,,,,,,,,,,,,,,,,,,,,,,,,,1.521,2.264,109.34919229988009,None,109.88749110000208,110.39984950004146,110.38315630005673,110.49989539990202,110.38315630005673,110.49989539990202,110.4831793999765,None,c,1,0.3443756999913603,110.4831793999765,None,110.84906630008481,None,,,,,,,,,,,,,,,,,,,,,,,,,,ppxx2,2022_Apr_27_1312,training+cueing,2021.1.4,59.726417162366324,
Self.png,You,Self ,c,1,11,21,91,,,,,0,0,0,0,0,8,8,0,,,,,,,,,,,,,,,,,,,,,,,,,1.605,1.598,111.25042539997958,None,111.78527639992535,112.2846283998806,112.2846283998806,112.3846138000954,112.2846283998806,112.3846138000954,112.3846138000954,None,c,1,0.3629807000979781,112.3846138000954,None,112.768248999957,None,,,,,,,,,,,,,,,,,,,,,,,,,,ppxx2,2022_Apr_27_1312,training+cueing,2021.1.4,59.726417162366324,
Self.png,You,Self ,c,1,11,21,91,,,,,0,0,0,0,0,9,9,9,,,,,,,,,,,,,,,,,,,,,,,,,1.425,1.251,113.16848649992608,None,113.72689020005055,114.23597449995577,114.21933849994093,114.3193397000432,114.21933849994093,114.3193397000432,114.3193397000432,None,c,1,0.33217199984937906,114.3193397000432,None,114.66960559994914,None,,,,,,,,,,,,,,,,,,,,,,,,,,ppxx2,2022_Apr_27_1312,training+cueing,2021.1.4,59.726417162366324,
Stranger.png,Stranger,Stranger,c,3,13,23,93,,,,,0,0,0,0,0,10,10,11,,,,,,,,,,,,,,,,,,,,,,,,,1.773,1.625,115.07041579997167,None,115.61281169997528,116.12066200003028,116.10397309996188,116.22088170005009,116.10397309996188,116.22088170005009,116.20398520003073,None,c,1,0.3037963998503983,116.20398520003073,None,116.53944969992153,None,,,,,,,,,,,,,,,,,,,,,,,,,,ppxx2,2022_Apr_27_1312,training+cueing,2021.1.4,59.726417162366324,
Self.png,Friend,Self ,m,2.1,16,26,96,,,,,0,0,0,0,0,11,11,1,,,,,,,,,,,,,,,,,,,,,,,,,1.69,1.735,116.95463679987006,None,117.48737440002151,117.98867670004256,117.97199540003203,118.08874649996869,117.97199540003203,118.08874649996869,118.08874649996869,None,c,0,0.27478979993611574,118.08874649996869,None,118.38950049993582,None,,,,,,,,,,,,,,,,,,,,,,,,,,ppxx2,2022_Apr_27_1312,training+cueing,2021.1.4,59.726417162366324,
Friend.png,You,Friend,m,1.2,14,24,94,,,,,0,0,0,0,,,,,0,0,0,3,,,,,,,,,,,,,,,,,,,165.38971509994008,None,1.497,2.257,168.91283759986982,None,,,,,,,,,,,,,,,,118.78931670007296,None,0.014038759749382734,0.512128759874031,169.5349318999797,170.04311010008678,0.5138619397766888,None,170.02638749987818,170.12641089991666,170.02638749987818,170.12641089991666,170.12641089991666,None,c,0,0.2530690999701619,170.12641089991666,None,,,,,,,ppxx2,2022_Apr_27_1312,training+cueing,2021.1.4,59.726417162366324,
Friend.png,Friend,Friend,c,2,12,22,92,,,,,0,0,0,0,,,,,0,1,1,4,,,,,,,,,,,,,,,,,,,,,1.418,1.933,170.51713789999485,None,,,,,,,,,,,,,,,,,,,,171.05900219990872,171.5607171000447,0.5031856801360846,1.003455979982391,171.54402519995347,171.66075809998438,171.54402519995347,171.66075809998438,171.64406169997528,None,None,0,,171.64406169997528,None,,,,,,,ppxx2,2022_Apr_27_1312,training+cueing,2021.1.4,59.726417162366324,
Stranger.png,You,Stranger,m,1.3,15,25,95,,,,,0,0,0,0,,,,,0,2,2,6,,,,,,,,,,,,,,,,,,,,,1.783,1.368,173.16591139999218,None,,,,,,,,,,,,,,,,,,,,173.70893059996888,174.21253370004706,0.5071763799060136,None,174.1958504000213,174.29593909997493,174.1958504000213,174.29593909997493,174.29593909997493,None,c,0,0.19554780004546046,174.29593909997493,None,,,,,,,ppxx2,2022_Apr_27_1312,training+cueing,2021.1.4,59.726417162366324,
Stranger.png,Friend,Stranger,m,2.3,17,27,97,,,,,0,0,0,0,,,,,0,3,3,7,,,,,,,,,,,,,,,,,,,,,1.542,1.605,174.61862229998223,None,,,,,,,,,,,,,,,,,,,,175.1597466999665,175.66364139993675,0.5053903800435364,None,175.646939399885,175.7637058000546,175.646939399885,175.7637058000546,175.74696630006656,None,c,0,0.28056200011633337,175.74696630006656,None,,,,,,,ppxx2,2022_Apr_27_1312,training+cueing,2021.1.4,59.726417162366324,
Self.png,Friend,Self ,m,2.1,16,26,96,,,,,0,0,0,0,,,,,0,4,4,1,,,,,,,,,,,,,,,,,,,,,1.672,1.943,176.1534881000407,None,,,,,,,,,,,,,,,,,,,,176.69916320010088,177.19826059998013,0.49971077986992896,None,177.19826059998013,177.29814970004372,177.19826059998013,177.29814970004372,177.29814970004372,None,c,0,0.16927449987269938,177.29814970004372,None,,,,,,,ppxx2,2022_Apr_27_1312,training+cueing,2021.1.4,59.726417162366324,
Self.png,You,Self ,c,1,11,21,91,,,,,0,0,0,0,,,,,0,5,5,9,,,,,,,,,,,,,,,,,,,,,1.532,2.117,177.6046319999732,None,,,,,,,,,,,,,,,,,,,,178.1450688999612,178.64925149991177,0.5077823800966144,1.0080651799216866,178.63259140006267,178.73263509990647,178.63259140006267,178.73263509990647,178.73263509990647,None,m,0,0.4469165999908,178.73263509990647,None,,,,,,,ppxx2,2022_Apr_27_1312,training+cueing,2021.1.4,59.726417162366324,
Self.png,Stranger,Self ,m,3.1,18,28,98,,,,,0,0,0,0,,,,,0,6,6,2,,,,,,,,,,,,,,,,,,,,,1.583,1.297,179.30583809991367,None,,,,,,,,,,,,,,,,,,,,179.84661430004053,180.3503384999931,0.5049667798448354,None,180.33364590001293,180.4503754999023,180.33364590001293,180.4503754999023,180.43368449993432,None,c,0,0.169790199957788,180.43368449993432,None,,,,,,,ppxx2,2022_Apr_27_1312,training+cueing,2021.1.4,59.726417162366324,
Self.png,You,Self ,c,1,11,21,91,,,,,0,0,0,0,,,,,0,7,7,0,,,,,,,,,,,,,,,,,,,,,1.615,1.36,180.7402204000391,None,,,,,,,,,,,,,,,,,,,,181.2814320998732,181.78471040003933,0.507273179711774,None,181.76805309997872,181.86806929996237,181.76805309997872,181.86806929996237,181.86806929996237,None,m,0,0.31932609993964434,181.86806929996237,None,,,,,,,ppxx2,2022_Apr_27_1312,training+cueing,2021.1.4,59.726417162366324,
Stranger.png,Stranger,Stranger,c,3,13,23,93,,,,,0,0,0,0,,,,,0,8,8,11,,,,,,,,,,,,,,,,,,,,,1.645,1.252,182.32468979991972,None,,,,,,,,,,,,,,,,,,,,182.8713551000692,183.38586009992287,0.5100056799128652,None,183.36915319995023,183.48590359999798,183.36915319995023,183.48590359999798,183.46920849988237,None,c,1,0.2703166001010686,183.46920849988237,None,,,,,,,ppxx2,2022_Apr_27_1312,training+cueing,2021.1.4,59.726417162366324,
Stranger.png,Stranger,Stranger,c,3,13,23,93,,,,,0,0,0,0,,,,,0,9,9,8,,,,,,,,,,,,,,,,,,,,,1.554,2.497,183.87575230002403,None,,,,,,,,,,,,,,,,,,,,184.41439629998058,184.92044229991734,0.51181087968871,None,184.90363819990307,185.02043629996479,184.90363819990307,185.02043629996479,185.0037813000381,None,c,1,0.3036564998328686,185.0037813000381,None,,,,,,,ppxx2,2022_Apr_27_1312,training+cueing,2021.1.4,59.726417162366324,
Friend.png,Friend,Friend,c,2,12,22,92,,,,,0,0,0,0,,,,,0,10,10,10,,,,,,,,,,,,,,,,,,,,,1.498,1.562,185.44510470004752,None,,,,,,,,,,,,,,,,,,,,185.98670709994622,186.48807489988394,0.502475880086422,None,186.4714307000395,186.58814430003986,186.4714307000395,186.58814430003986,186.57167709991336,None,c,1,0.30375590012408793,186.57167709991336,None,,,,,,,ppxx2,2022_Apr_27_1312,training+cueing,2021.1.4,59.726417162366324,
Friend.png,Stranger,Friend,m,3.2,19,29,99,,,,,0,0,0,0,,,,,0,11,11,5,,,,,,,,,,,,,,,,,,,,,1.622,1.712,187.0115010999143,None,,,,,,,,,,,,,,,,,,,,187.55263229995035,188.05590029992163,0.5051216799765825,None,188.0392577999737,188.1559935999103,188.0392577999737,188.1559935999103,188.1392737000715,None,c,0,0.2881589001044631,188.1392737000715,None,,,,,,,ppxx2,2022_Apr_27_1312,training+cueing,2021.1.4,59.726417162366324,
Self.png,You,Self ,c,1,11,21,91,,,,,0,0,0,0,,,,,1,0,12,0,,,,,,,,,,,,,,,,,,,,,1.667,1.659,188.5628682000097,None,,,,,,,,,,,,,,,,,,,,189.11514239991084,189.62368479999714,0.5007114799227566,None,189.60702249989845,189.70708630001172,189.60702249989845,189.70708630001172,189.70708630001172,None,c,1,0.3046699999831617,189.70708630001172,None,,,,,,,ppxx2,2022_Apr_27_1312,training+cueing,2021.1.4,59.726417162366324,
Friend.png,Friend,Friend,c,2,12,22,92,,,,,0,0,0,0,,,,,1,1,13,4,,,,,,,,,,,,,,,,,,,,,1.58,1.854,190.150767599931,None,,,,,,,,,,,,,,,,,,,,190.68809320009314,191.19147319998592,0.5068328802008182,None,191.17485349997878,191.2915870998986,191.17485349997878,191.2915870998986,191.27489709993824,None,m,0,0.2725093001499772,191.27489709993824,None,,,,,,,ppxx2,2022_Apr_27_1312,training+cueing,2021.1.4,59.726417162366324,
Self.png,You,Self ,c,1,11,21,91,,,,,0,0,0,0,,,,,1,2,14,9,,,,,,,,,,,,,,,,,,,,,1.607,1.909,191.6814071999397,None,,,,,,,,,,,,,,,,,,,,192.220991600072,192.72595539991744,0.5074430797249079,None,192.7092871000059,192.80931570008397,192.7092871000059,192.80931570008397,192.80931570008397,None,c,1,0.25815089978277683,192.80931570008397,None,,,,,,,ppxx2,2022_Apr_27_1312,training+cueing,2021.1.4,59.726417162366324,
Stranger.png,Stranger,Stranger,c,3,13,23,93,,,,,0,0,0,0,,,,,1,3,15,8,,,,,,,,,,,,,,,,,,,,,1.515,1.262,193.1992510999553,None,,,,,,,,,,,,,,,,,,,,193.7534799000714,194.26039709988981,0.513799239648506,None,194.24374049995095,194.36046559992246,194.24374049995095,194.36046559992246,194.3437125000637,None,c,1,0.22773139993660152,194.3437125000637,None,,,,,,,ppxx2,2022_Apr_27_1312,training+cueing,2021.1.4,59.726417162366324,
Self.png,Stranger,Self ,m,3.1,18,28,98,,,,,0,0,0,0,,,,,1,4,16,2,,,,,,,,,,,,,,,,,,,,,1.565,1.237,194.69990959996358,None,,,,,,,,,,,,,,,,,,,,195.23839489999227,195.7448158999905,0.5104299797676504,None,195.72809150000103,195.8448385000229,195.72809150000103,195.8448385000229,195.82811010000296,None,c,0,0.2794151999987662,195.82811010000296,None,,,,,,,ppxx2,2022_Apr_27_1312,training+cueing,2021.1.4,59.726417162366324,
Stranger.png,Friend,Stranger,m,2.3,17,27,97,,,,,0,0,0,0,,,,,1,5,17,7,,,,,,,,,,,,,,,,,,,,,1.449,1.677,196.2344809998758,None,,,,,,,,,,,,,,,,,,,,196.77446969994344,197.27923460002057,0.5100221801549196,1.0103407800197601,197.26252770004794,197.3792687000241,197.26252770004794,197.3792687000241,197.3625628000591,None,m,1,0.45686379983089864,197.3625628000591,None,,,,,,,ppxx2,2022_Apr_27_1312,training+cueing,2021.1.4,59.726417162366324,
Friend.png,Stranger,Friend,m,3.2,19,29,99,,,,,0,0,0,0,,,,,1,6,18,5,,,,,,,,,,,,,,,,,,,,,1.771,2.425,197.95333799999207,None,,,,,,,,,,,,,,,,,,,,198.49480329989456,198.99714630004019,0.5053398800082505,None,198.98042810009792,199.0971772999037,198.98042810009792,199.0971772999037,199.08046369999647,None,c,0,0.2748996999580413,199.08046369999647,None,,,,,,,ppxx2,2022_Apr_27_1312,training+cueing,2021.1.4,59.726417162366324,
Friend.png,Friend,Friend,c,2,12,22,92,,,,,0,0,0,0,,,,,1,7,19,10,,,,,,,,,,,,,,,,,,,,,1.505,1.242,199.486920400057,None,,,,,,,,,,,,,,,,,,,,200.02752929995768,200.53154770005494,0.5057014799676836,None,200.51491290004924,200.63161959988065,200.51491290004924,200.63161959988065,200.6149538999889,None,m,0,0.2765158999245614,200.6149538999889,None,,,,,,,ppxx2,2022_Apr_27_1312,training+cueing,2021.1.4,59.726417162366324,
Stranger.png,Stranger,Stranger,c,3,13,23,93,,,,,0,0,0,0,,,,,1,8,20,11,,,,,,,,,,,,,,,,,,,,,1.635,1.877,201.02146439999342,None,,,,,,,,,,,,,,,,,,,,201.56344170006923,202.06602989998646,0.5049039798323065,1.0051749798003584,202.04937270004302,202.16610569995828,202.04937270004302,202.16610569995828,202.1493569999002,None,m,0,0.3900627000257373,202.1493569999002,None,,,,,,,ppxx2,2022_Apr_27_1312,training+cueing,2021.1.4,59.726417162366324,
Self.png,Friend,Self ,m,2.1,16,26,96,,,,,0,0,0,0,,,,,1,9,21,1,,,,,,,,,,,,,,,,,,,,,1.491,1.991,202.67251960001886,None,,,,,,,,,,,,,,,,,,,,203.21827830001712,203.73391030007042,0.5149299798067659,None,203.71721319993958,203.8339327001013,203.71721319993958,203.8339327001013,203.8172247998882,None,c,0,0.3382022001314908,203.8172247998882,None,,,,,,,ppxx2,2022_Apr_27_1312,training+cueing,2021.1.4,59.726417162366324,
Friend.png,You,Friend,m,1.2,14,24,94,,,,,0,0,0,0,,,,,1,10,22,3,,,,,,,,,,,,,,,,,,,,,1.582,1.842,204.29038190003484,None,,,,,,,,,,,,,,,,,,,,204.83032660000026,205.33505739993416,0.5068695798981935,None,205.3183401999995,205.4183932999149,205.3183401999995,205.4183932999149,205.4183932999149,None,m,1,0.3052593001630157,205.4183932999149,None,,,,,,,ppxx2,2022_Apr_27_1312,training+cueing,2021.1.4,59.726417162366324,
Stranger.png,You,Stranger,m,1.3,15,25,95,,,,,0,0,0,0,,,,,1,11,23,6,,,,,,,,,,,,,,,,,,,,,1.671,2.349,205.858237599954,None,,,,,,,,,,,,,,,,,,,,206.3968612998724,206.90286680008285,0.5113059801515192,1.011876380071044,206.8861823999323,206.98618980008177,206.8861823999323,206.98618980008177,206.98618980008177,None,c,0,0.40110829984769225,206.98618980008177,None,,,,,,,ppxx2,2022_Apr_27_1312,training+cueing,2021.1.4,59.726417162366324,
Friend.png,Stranger,Friend,m,3.2,19,29,99,,,,,0,0,0,0,,,,,2,0,24,5,,,,,,,,,,,,,,,,,,,,,1.592,2.432,207.51019560010172,None,,,,,,,,,,,,,,,,,,,,208.05064120003954,208.55404289998114,0.5051541798748076,1.0053870799019933,208.53738330001943,208.65406550001353,208.53738330001943,208.65406550001353,208.637378500076,None,m,1,0.4781098000239581,208.637378500076,None,,,,,,,ppxx2,2022_Apr_27_1312,training+cueing,2021.1.4,59.726417162366324,
Stranger.png,You,Stranger,m,1.3,15,25,95,,,,,0,0,0,0,,,,,2,1,25,6,,,,,,,,,,,,,,,,,,,,,1.541,1.747,209.24364860006608,None,,,,,,,,,,,,,,,,,,,,209.78493279987015,210.2886359000113,0.5066227801144123,None,210.27193129993975,210.3719923000317,210.27193129993975,210.3719923000317,210.3719923000317,None,c,0,0.34362289984710515,210.3719923000317,None,,,,,,,ppxx2,2022_Apr_27_1312,training+cueing,2021.1.4,59.726417162366324,
Friend.png,Friend,Friend,c,2,12,22,92,,,,,0,0,0,0,,,,,2,2,26,4,,,,,,,,,,,,,,,,,,,,,1.429,1.258,210.8461162999738,None,,,,,,,,,,,,,,,,,,,,211.38828890002333,211.88980029989034,0.503712380072102,None,211.87305140006356,211.9903672998771,211.87305140006356,211.9903672998771,211.97311850008555,None,m,0,0.3264524000696838,211.97311850008555,None,,,,,,,ppxx2,2022_Apr_27_1312,training+cueing,2021.1.4,59.726417162366324,
Friend.png,You,Friend,m,1.2,14,24,94,,,,,0,0,0,0,,,,,2,3,27,3,,,,,,,,,,,,,,,,,,,,,1.646,1.305,212.43302879994735,None,,,,,,,,,,,,,,,,,,,,212.97131470008753,213.47426049993373,0.503423280082643,None,213.45755550009198,213.55763330007903,213.45755550009198,213.55763330007903,213.55763330007903,None,c,0,0.2937815999612212,213.55763330007903,None,,,,,,,ppxx2,2022_Apr_27_1312,training+cueing,2021.1.4,59.726417162366324,
Stranger.png,Stranger,Stranger,c,3,13,23,93,,,,,0,0,0,0,,,,,2,4,28,8,,,,,,,,,,,,,,,,,,,,,1.498,1.303,213.98029390000738,None,,,,,,,,,,,,,,,,,,,,214.523712299997,215.0253882999532,0.5054693799465895,1.0057292799465358,215.00871449988335,215.12544060009532,215.00871449988335,215.12544060009532,215.10870369989425,None,m,0,0.4386887000873685,215.10870369989425,None,,,,,,,ppxx2,2022_Apr_27_1312,training+cueing,2021.1.4,59.726417162366324,
Self.png,You,Self ,c,1,11,21,91,,,,,0,0,0,0,,,,,2,5,29,9,,,,,,,,,,,,,,,,,,,,,1.642,1.682,215.68153479998,None,,,,,,,,,,,,,,,,,,,,216.2227415998932,216.72663499996997,0.5071016799192876,None,216.70990159991197,216.8099583000876,216.70990159991197,216.8099583000876,216.8099583000876,None,m,0,0.32138180010952055,216.8099583000876,None,,,,,,,ppxx2,2022_Apr_27_1312,training+cueing,2021.1.4,59.726417162366324,
Self.png,You,Self ,c,1,11,21,91,,,,,0,0,0,0,,,,,2,6,30,0,,,,,,,,,,,,,,,,,,,,,1.717,1.489,217.26677149999887,None,,,,,,,,,,,,,,,,,,,,217.8040831000544,218.311058399966,0.513043079758063,None,218.29442989989184,218.39446590002626,218.29442989989184,218.39446590002626,218.39446590002626,None,c,1,0.3048715000040829,218.39446590002626,None,,,,,,,ppxx2,2022_Apr_27_1312,training+cueing,2021.1.4,59.726417162366324,
Stranger.png,Stranger,Stranger,c,3,13,23,93,,,,,0,0,0,0,,,,,2,7,31,11,,,,,,,,,,,,,,,,,,,,,1.678,1.945,218.83458129991777,None,,,,,,,,,,,,,,,,,,,,219.37716619996354,219.87886899989098,0.5056111798621714,1.0059173798654228,219.86221470008604,219.97896340000443,219.86221470008604,219.97896340000443,219.96223969990388,None,c,1,0.4331629001535475,219.96223969990388,None,,,,,,,ppxx2,2022_Apr_27_1312,training+cueing,2021.1.4,59.726417162366324,
Stranger.png,Friend,Stranger,m,2.3,17,27,97,,,,,0,0,0,0,,,,,2,8,32,7,,,,,,,,,,,,,,,,,,,,,1.589,1.871,220.51885299989954,None,,,,,,,,,,,,,,,,,,,,221.05874500004575,221.56347250007093,0.5061108800582588,None,221.5467741000466,221.66352110006846,221.5467741000466,221.66352110006846,221.64678309997544,None,c,0,0.3006711998023093,221.64678309997544,None,,,,,,,ppxx2,2022_Apr_27_1312,training+cueing,2021.1.4,59.726417162366324,
Friend.png,Friend,Friend,c,2,12,22,92,,,,,0,0,0,0,,,,,2,9,33,10,,,,,,,,,,,,,,,,,,,,,1.584,2.416,222.06948850001208,None,,,,,,,,,,,,,,,,,,,,222.60970939998515,223.11457920004614,0.510818179929629,1.0111847799271345,223.09789519989863,223.21461799996905,223.09789519989863,223.21461799996905,223.1978955999948,None,m,0,0.7175991998519748,223.1978955999948,None,,,,,,,ppxx2,2022_Apr_27_1312,training+cueing,2021.1.4,59.726417162366324,
Self.png,Stranger,Self ,m,3.1,18,28,98,,,,,0,0,0,0,,,,,2,10,34,2,,,,,,,,,,,,,,,,,,,,,1.734,2.374,224.03778010001406,None,,,,,,,,,,,,,,,,,,,,224.57992920000106,225.08266529999673,0.5059565799310803,None,225.06592600001022,225.18269679998048,225.06592600001022,225.18269679998048,225.16599270002916,None,c,0,0.30145959998480976,225.16599270002916,None,,,,,,,ppxx2,2022_Apr_27_1312,training+cueing,2021.1.4,59.726417162366324,
Self.png,Friend,Self ,m,2.1,16,26,96,,,,,0,0,0,0,,,,,2,11,35,1,,,,,,,,,,,,,,,,,,,,,1.626,1.604,225.58908589999191,None,,,,,,,,,,,,,,,,,,,,226.12983760004863,226.63384109991603,0.506135479779914,None,226.61706129997037,226.7338507999666,226.61706129997037,226.7338507999666,226.71711389999837,None,m,1,0.3182961998973042,226.71711389999837,None,,,,,,,ppxx2,2022_Apr_27_1312,training+cueing,2021.1.4,59.726417162366324,
Friend.png,You,Friend,m,1.2,14,24,94,,,,,0,0,0,0,,,,,3,0,36,3,,,,,,,,,,,,,,,,,,,,,1.772,2.473,227.1734342998825,None,,,,,,,,,,,,,,,,,,,,227.71510910009965,228.2182328000199,0.5068924797233194,None,228.20161959994584,228.3016083999537,228.20161959994584,228.3016083999537,228.3016083999537,None,c,0,0.2698047999292612,228.3016083999537,None,,,,,,,ppxx2,2022_Apr_27_1312,training+cueing,2021.1.4,59.726417162366324,
Friend.png,Friend,Friend,c,2,12,22,92,,,,,0,0,0,0,,,,,3,1,37,10,,,,,,,,,,,,,,,,,,,,,1.594,1.563,228.707990600029,None,,,,,,,,,,,,,,,,,,,,229.25583490007557,229.769367699977,0.5109152800869197,None,229.75269129988737,229.8693903000094,229.75269129988737,229.8693903000094,229.85270370007493,None,m,0,0.3826903000008315,229.85270370007493,None,,,,,,,ppxx2,2022_Apr_27_1312,training+cueing,2021.1.4,59.726417162366324,
Stranger.png,Stranger,Stranger,c,3,13,23,93,,,,,0,0,0,0,,,,,3,2,38,11,,,,,,,,,,,,,,,,,,,,,1.521,1.327,230.3626554000657,None,,,,,,,,,,,,,,,,,,,,230.91834159987047,231.4205118000973,0.5030545401386917,None,231.40388250001706,231.52058200002648,231.40388250001706,231.52058200002648,231.5039107000921,None,c,1,0.33139439998194575,231.5039107000921,None,,,,,,,ppxx2,2022_Apr_27_1312,training+cueing,2021.1.4,59.726417162366324,
Self.png,You,Self ,c,1,11,21,91,,,,,0,0,0,0,,,,,3,3,39,0,,,,,,,,,,,,,,,,,,,,,1.469,1.45,231.9607609999366,None,,,,,,,,,,,,,,,,,,,,232.50248809996992,233.0049954999704,0.5065803800243884,None,232.98834579996765,233.08837929996662,232.98834579996765,233.08837929996662,233.08837929996662,None,c,1,0.28291509998962283,233.08837929996662,None,,,,,,,ppxx2,2022_Apr_27_1312,training+cueing,2021.1.4,59.726417162366324,
Stranger.png,You,Stranger,m,1.3,15,25,95,,,,,0,0,0,0,,,,,3,4,40,6,,,,,,,,,,,,,,,,,,,,,1.703,1.562,233.4947247998789,None,,,,,,,,,,,,,,,,,,,,234.0329412999563,234.53944389987737,0.5105407799128443,None,234.52281169989146,234.62285070004873,234.52281169989146,234.62285070004873,234.62285070004873,None,c,0,0.3006198999937624,234.62285070004873,None,,,,,,,ppxx2,2022_Apr_27_1312,training+cueing,2021.1.4,59.726417162366324,
Stranger.png,Stranger,Stranger,c,3,13,23,93,,,,,0,0,0,0,,,,,3,5,41,8,,,,,,,,,,,,,,,,,,,,,1.617,2.468,235.0455626999028,None,,,,,,,,,,,,,,,,,,,,235.58884109999053,236.09060540003702,0.505375679815188,None,236.07391429995187,236.19065529992804,236.07391429995187,236.19065529992804,236.17395469988696,None,c,1,0.25340740010142326,236.17395469988696,None,,,,,,,ppxx2,2022_Apr_27_1312,training+cueing,2021.1.4,59.726417162366324,
Stranger.png,Friend,Stranger,m,2.3,17,27,97,,,,,0,0,0,0,,,,,3,6,42,7,,,,,,,,,,,,,,,,,,,,,1.518,2.381,236.56406469992362,None,,,,,,,,,,,,,,,,,,,,237.10443970002234,237.60851869988255,0.5089061798062176,None,237.59170409990475,237.70839000004344,237.59170409990475,237.70839000004344,237.69176970003173,None,c,0,0.3035945000592619,237.69176970003173,None,,,,,,,ppxx2,2022_Apr_27_1312,training+cueing,2021.1.4,59.726417162366324,
Self.png,Stranger,Self ,m,3.1,18,28,98,,,,,0,0,0,0,,,,,3,7,43,2,,,,,,,,,,,,,,,,,,,,,1.762,1.773,238.13139019999653,None,,,,,,,,,,,,,,,,,,,,238.68549759988673,239.19280069996603,0.5125487400218844,1.01282693981193,239.17614710005,239.2928557000123,239.17614710005,239.2928557000123,239.27622510003857,None,m,1,0.6072445001918823,239.27622510003857,None,,,,,,,ppxx2,2022_Apr_27_1312,training+cueing,2021.1.4,59.726417162366324,
Friend.png,Friend,Friend,c,2,12,22,92,,,,,0,0,0,0,,,,,3,8,44,4,,,,,,,,,,,,,,,,,,,,,1.677,2.062,240.01656530005857,None,,,,,,,,,,,,,,,,,,,,240.57999129989184,241.09419219987467,0.5117548399139196,None,241.07755060005002,241.19428450008854,241.07755060005002,241.19428450008854,241.1775418999605,None,c,1,0.25780719984322786,241.1775418999605,None,,,,,,,ppxx2,2022_Apr_27_1312,training+cueing,2021.1.4,59.726417162366324,
Self.png,Friend,Self ,m,2.1,16,26,96,,,,,0,0,0,0,,,,,3,9,45,1,,,,,,,,,,,,,,,,,,,,,1.706,1.793,241.567588099977,None,,,,,,,,,,,,,,,,,,,,242.10611140006222,242.61197319999337,0.5109387801494449,1.0112388799898326,242.59528249991126,242.71201570006087,242.59528249991126,242.71201570006087,242.6953543999698,None,m,1,0.4841227999422699,242.6953543999698,None,,,,,,,ppxx2,2022_Apr_27_1312,training+cueing,2021.1.4,59.726417162366324,
Friend.png,Stranger,Friend,m,3.2,19,29,99,,,,,0,0,0,0,,,,,3,10,46,5,,,,,,,,,,,,,,,,,,,,,1.424,1.911,243.30191319994628,None,,,,,,,,,,,,,,,,,,,,243.86312009999529,244.36342440010048,0.5010513397864997,None,244.34676039987244,244.46350569999777,244.34676039987244,244.46350569999777,244.46350569999777,None,c,0,0.2680348998401314,244.46350569999777,None,,,,,,,ppxx2,2022_Apr_27_1312,training+cueing,2021.1.4,59.726417162366324,
Self.png,You,Self ,c,1,11,21,91,,,,,0,0,0,0,,,,,3,11,47,9,,,,,,,,,,,,,,,,,,,,,1.61,1.589,244.85391420009546,None,,,,,,,,,,,,,,,,,,,,245.41254439996555,245.91432660003193,0.5056839399039745,1.005975839914754,245.89766100002453,245.997700399952,245.89766100002453,245.997700399952,245.997700399952,None,c,1,0.46174239995889366,245.997700399952,None,,,,,,,ppxx2,2022_Apr_27_1312,training+cueing,2021.1.4,59.726417162366324,
Friend.png,You,Friend,m,1.2,14,24,94,,,,,0,0,0,0,,,,,4,0,48,3,,,,,,,,,,,,,,,,,,,,,1.602,1.232,246.58805119991302,None,,,,,,,,,,,,,,,,,,,,247.12522109993733,247.63229129998945,0.5109632797539234,1.0112528796307743,247.61561050009914,247.7156497000251,247.61561050009914,247.7156497000251,247.7156497000251,None,m,1,0.5836895001120865,247.7156497000251,None,,,,,,,ppxx2,2022_Apr_27_1312,training+cueing,2021.1.4,59.726417162366324,
Stranger.png,You,Stranger,m,1.3,15,25,95,,,,,0,0,0,0,,,,,4,1,49,6,,,,,,,,,,,,,,,,,,,,,1.777,2.351,248.4224930999335,None,,,,,,,,,,,,,,,,,,,,248.95936609990895,249.46693410002626,0.5138074799906462,None,249.45025529991835,249.5502659000922,249.45025529991835,249.5502659000922,249.5502659000922,None,c,0,0.23707359982654452,249.5502659000922,None,,,,,,,ppxx2,2022_Apr_27_1312,training+cueing,2021.1.4,59.726417162366324,
Friend.png,Friend,Friend,c,2,12,22,92,,,,,0,0,0,0,,,,,4,2,50,4,,,,,,,,,,,,,,,,,,,,,1.564,1.906,249.92342590005137,None,,,,,,,,,,,,,,,,,,,,250.4704144001007,250.9846741000656,0.5114299801643938,1.011686080135405,250.9680353999138,251.0847312998958,250.9680353999138,251.0847312998958,251.06802279991098,None,c,1,0.39931690017692745,251.06802279991098,None,,,,,,,ppxx2,2022_Apr_27_1312,training+cueing,2021.1.4,59.726417162366324,
Self.png,Friend,Self ,m,2.1,16,26,96,,,,,0,0,0,0,,,,,4,3,51,1,,,,,,,,,,,,,,,,,,,,,1.496,1.975,251.59086170000955,None,,,,,,,,,,,,,,,,,,,,252.1408448999282,252.65260230004787,0.504130779998377,1.0043518799357116,252.6359282999765,252.75262719998136,252.6359282999765,252.75262719998136,252.73591509996913,None,m,1,0.4114977999124676,252.73591509996913,None,,,,,,,ppxx2,2022_Apr_27_1312,training+cueing,2021.1.4,59.726417162366324,
Self.png,You,Self ,c,1,11,21,91,,,,,0,0,0,0,,,,,4,4,52,0,,,,,,,,,,,,,,,,,,,,,1.407,2.215,253.27610850008205,None,,,,,,,,,,,,,,,,,,,,253.81618559989147,254.3205548999831,0.5073869796469808,1.0076603796333075,254.3039192999713,254.40397169999778,254.3039192999713,254.40397169999778,254.40397169999778,None,c,1,0.5352936999406666,254.40397169999778,None,,,,,,,ppxx2,2022_Apr_27_1312,training+cueing,2021.1.4,59.726417162366324,
Friend.png,Stranger,Friend,m,3.2,19,29,99,,,,,0,0,0,0,,,,,4,5,53,5,,,,,,,,,,,,,,,,,,,,,1.422,1.537,255.07739309989847,None,,,,,,,,,,,,,,,,,,,,255.61917029996403,256.12175799999386,0.5054645799100399,1.0058695799671113,256.10506940004416,256.2218752000481,256.10506940004416,256.2218752000481,256.2051850000862,None,m,1,0.5422640999313444,256.2051850000862,None,,,,,,,ppxx2,2022_Apr_27_1312,training+cueing,2021.1.4,59.726417162366324,
Self.png,You,Self ,c,1,11,21,91,,,,,0,0,0,0,,,,,4,6,54,9,,,,,,,,,,,,,,,,,,,,,1.756,2.09,256.87854470009916,None,,,,,,,,,,,,,,,,,,,,257.4263690998778,257.93971380009316,0.5088458801619709,1.0093308801297098,257.92302539991215,258.02306429995224,257.92302539991215,258.02306429995224,258.02306429995224,None,c,1,0.4524068001192063,258.02306429995224,None,,,,,,,ppxx2,2022_Apr_27_1312,training+cueing,2021.1.4,59.726417162366324,
Stranger.png,Stranger,Stranger,c,3,13,23,93,,,,,0,0,0,0,,,,,4,7,55,11,,,,,,,,,,,,,,,,,,,,,1.753,2.443,258.59785609995015,None,,,,,,,,,,,,,,,,,,,,259.1392977000214,259.640937600052,0.5045071798376739,1.005410379730165,259.62424979987554,259.74112270004116,259.62424979987554,259.74112270004116,259.7242813000921,None,m,0,0.47925159987062216,259.7242813000921,None,,,,,,,ppxx2,2022_Apr_27_1312,training+cueing,2021.1.4,59.726417162366324,
Self.png,Stranger,Self ,m,3.1,18,28,98,,,,,0,0,0,0,,,,,4,8,56,2,,,,,,,,,,,,,,,,,,,,,1.756,1.58,260.3345180999022,None,,,,,,,,,,,,,,,,,,,,260.8707202000078,261.37551259994507,0.507229879964143,1.0075302799232304,261.3588302000426,261.4755802000873,261.3588302000426,261.4755802000873,261.45886759995483,None,c,0,0.4085719999857247,261.45886759995483,None,,,,,,,ppxx2,2022_Apr_27_1312,training+cueing,2021.1.4,59.726417162366324,
Stranger.png,Friend,Stranger,m,2.3,17,27,97,,,,,0,0,0,0,,,,,4,9,57,7,,,,,,,,,,,,,,,,,,,,,1.669,1.292,261.9986036999617,None,,,,,,,,,,,,,,,,,,,,262.5604266000446,263.0600785999559,0.49975123978219926,1.0000276397913694,263.043359400006,263.16013099998236,263.043359400006,263.16013099998236,263.16013099998236,None,m,1,0.4670900001656264,263.16013099998236,None,,,,,,,ppxx2,2022_Apr_27_1312,training+cueing,2021.1.4,59.726417162366324,
Friend.png,Friend,Friend,c,2,12,22,92,,,,,0,0,0,0,,,,,4,10,58,10,,,,,,,,,,,,,,,,,,,,,1.755,2.472,263.75010489998385,None,,,,,,,,,,,,,,,,,,,,264.2891351999715,264.79465809999965,0.5115623800083995,1.011866379994899,264.7779407999478,264.89470500010066,264.7779407999478,264.89470500010066,264.8779873000458,None,c,1,0.4774284001905471,264.8779873000458,None,,,,,,,ppxx2,2022_Apr_27_1312,training+cueing,2021.1.4,59.726417162366324,
Stranger.png,Stranger,Stranger,c,3,13,23,93,,,,,0,0,0,0,,,,,4,11,59,8,,,,,,,,,,,,,,,,,,,,,1.566,1.813,265.48417360009626,None,,,,,,,,,,,,,,,,,,,,266.03384879999794,266.5459284998942,0.5052238800562918,None,266.52926960005425,266.64598069991916,266.52926960005425,266.64598069991916,266.62930639996193,None,m,0,0.3580390999559313,266.62930639996193,None,,,,,,,ppxx2,2022_Apr_27_1312,training+cueing,2021.1.4,59.726417162366324,
Self.png,Stranger,Self ,m,3.1,18,28,98,,,,,0,0,0,0,,,,,5,0,60,2,,,,,,,,,,,,,,,,,,,,,1.511,2.263,267.11903339996934,None,,,,,,,,,,,,,,,,,,,,267.671195599949,268.18042779993266,0.5022428801748902,None,268.1637073000893,268.28046829998493,268.1637073000893,268.28046829998493,268.263767400058,None,c,0,0.32363189989700913,268.263767400058,None,,,,,,,ppxx2,2022_Apr_27_1312,training+cueing,2021.1.4,59.726417162366324,
Stranger.png,Stranger,Stranger,c,3,13,23,93,,,,,0,0,0,0,,,,,5,1,61,11,,,,,,,,,,,,,,,,,,,,,1.727,2.467,268.7203075001016,None,,,,,,,,,,,,,,,,,,,,269.2591379999649,269.7648881999776,0.5109361798968166,1.0112131799105555,269.7482541000936,269.8649367999751,269.7482541000936,269.8649367999751,269.8482709999662,None,m,0,0.4031008000019938,269.8482709999662,None,,,,,,,ppxx2,2022_Apr_27_1312,training+cueing,2021.1.4,59.726417162366324,
Self.png,You,Self ,c,1,11,21,91,,,,,0,0,0,0,,,,,5,2,62,9,,,,,,,,,,,,,,,,,,,,,1.704,2.147,270.38761579990387,None,,,,,,,,,,,,,,,,,,,,270.933025599923,271.4327489999123,0.5145012796856463,None,271.4327489999123,271.5328192000743,271.4327489999123,271.5328192000743,271.5328192000743,None,c,1,0.3345379999373108,271.5328192000743,None,,,,,,,ppxx2,2022_Apr_27_1312,training+cueing,2021.1.4,59.726417162366324,
Friend.png,You,Friend,m,1.2,14,24,94,,,,,0,0,0,0,,,,,5,3,63,3,,,,,,,,,,,,,,,,,,,,,1.7,1.836,271.9899281000253,None,,,,,,,,,,,,,,,,,,,,272.52823389996774,273.0340692999307,0.5111499798949808,1.0113993799313903,273.01743100001477,273.11746939993463,273.01743100001477,273.11746939993463,273.11746939993463,None,c,0,0.4779937001876533,273.11746939993463,None,,,,,,,ppxx2,2022_Apr_27_1312,training+cueing,2021.1.4,59.726417162366324,
Self.png,Friend,Self ,m,2.1,16,26,96,,,,,0,0,0,0,,,,,5,4,64,1,,,,,,,,,,,,,,,,,,,,,1.453,1.823,273.72751679993235,None,,,,,,,,,,,,,,,,,,,,274.2676667999476,274.76849370007403,0.4999781798105687,1.0002934799995273,274.7518056000117,274.86856530001387,274.7518056000117,274.86856530001387,274.86856530001387,None,c,0,0.5348322000354528,274.86856530001387,None,,,,,,,ppxx2,2022_Apr_27_1312,training+cueing,2021.1.4,59.726417162366324,
Friend.png,Stranger,Friend,m,3.2,19,29,99,,,,,0,0,0,0,,,,,5,5,65,5,,,,,,,,,,,,,,,,,,,,,1.647,1.776,275.525488199899,None,,,,,,,,,,,,,,,,,,,,276.06834040000103,276.56982799991965,0.5043347799219191,None,276.5531669999473,276.6698668000754,276.5531669999473,276.6698668000754,276.6531728999689,None,c,0,0.3021766000892967,276.6531728999689,None,,,,,,,ppxx2,2022_Apr_27_1312,training+cueing,2021.1.4,59.726417162366324,
Friend.png,Friend,Friend,c,2,12,22,92,,,,,0,0,0,0,,,,,5,6,66,4,,,,,,,,,,,,,,,,,,,,,1.735,2.397,277.0930856000632,None,,,,,,,,,,,,,,,,,,,,277.6350006000139,278.1376068999525,0.5061712800525129,1.006423180224374,278.1209883999545,278.2376558999531,278.1209883999545,278.2376558999531,278.2209550999105,None,m,0,0.49440800002776086,278.2209550999105,None,,,,,,,ppxx2,2022_Apr_27_1312,training+cueing,2021.1.4,59.726417162366324,
Friend.png,Friend,Friend,c,2,12,22,92,,,,,0,0,0,0,,,,,5,7,67,10,,,,,,,,,,,,,,,,,,,,,1.732,1.825,278.8446132999379,None,,,,,,,,,,,,,,,,,,,,279.3820386000443,279.88885780004784,0.5119370801839978,None,279.8722123999614,279.9889295999892,279.8722123999614,279.9889295999892,279.9722583000548,None,c,1,0.3590595999266952,279.9722583000548,None,,,,,,,ppxx2,2022_Apr_27_1312,training+cueing,2021.1.4,59.726417162366324,
Self.png,You,Self ,c,1,11,21,91,,,,,0,0,0,0,,,,,5,8,68,0,,,,,,,,,,,,,,,,,,,,,1.492,1.449,280.4624354999978,None,,,,,,,,,,,,,,,,,,,,281.00280210003257,281.50670029991306,0.5072161799762398,1.0075181799475104,281.49000649992377,281.59007550007664,281.49000649992377,281.59007550007664,281.59007550007664,None,c,1,0.485215499997139,281.59007550007664,None,,,,,,,ppxx2,2022_Apr_27_1312,training+cueing,2021.1.4,59.726417162366324,
Stranger.png,Stranger,Stranger,c,3,13,23,93,,,,,0,0,0,0,,,,,5,9,69,8,,,,,,,,,,,,,,,,,,,,,1.657,1.413,282.19652240001597,None,,,,,,,,,,,,,,,,,,,,282.73907359992154,283.24137860001065,0.5053152798209339,None,283.2246946999803,283.34148649987765,283.2246946999803,283.34148649987765,283.324787999969,None,c,1,0.3345749999862164,283.324787999969,None,,,,,,,ppxx2,2022_Apr_27_1312,training+cueing,2021.1.4,59.726417162366324,
Stranger.png,You,Stranger,m,1.3,15,25,95,,,,,0,0,0,0,,,,,5,10,70,6,,,,,,,,,,,,,,,,,,,,,1.551,1.287,283.78114410000853,None,,,,,,,,,,,,,,,,,,,,284.32046109996736,284.8258312998805,0.5080471800174564,1.0081669799983501,284.80922619998455,284.9091443999205,284.80922619998455,284.9091443999205,284.9091443999205,None,c,0,0.49418299994431436,284.9091443999205,None,,,,,,,ppxx2,2022_Apr_27_1312,training+cueing,2021.1.4,59.726417162366324,
Stranger.png,Friend,Stranger,m,2.3,17,27,97,,,,,0,0,0,0,,,,,5,11,71,7,,,,,,,,,,,,,,,,,,,,,1.615,2.349,285.5322990999557,None,,,,,,,,,,,,,,,,,,,,286.0745894999709,286.577020799974,0.5058654800523072,1.0061536801513284,286.56038450007327,286.6772215999663,286.56038450007327,286.6772215999663,286.6604387999978,None,None,0,,286.6604387999978,None,,,,,,,ppxx2,2022_Apr_27_1312,training+cueing,2021.1.4,59.726417162366324,
Self.png,You,Self ,c,1,11,21,91,,,,,0,0,0,0,,,,,6,0,72,0,,,,,,,,,,,,,,,,,,,,,1.501,1.651,288.3828525999561,None,,,,,,,,,,,,,,,,,,,,288.9241667999886,289.4291008999571,0.5069664800539613,1.0072411799337715,289.41245519998483,289.512494900031,289.41245519998483,289.512494900031,289.512494900031,None,c,1,0.7387051000259817,289.512494900031,None,,,,,,,ppxx2,2022_Apr_27_1312,training+cueing,2021.1.4,59.726417162366324,
Friend.png,You,Friend,m,1.2,14,24,94,,,,,0,0,0,0,,,,,6,1,73,3,,,,,,,,,,,,,,,,,,,,,1.532,1.703,290.38533030007966,None,,,,,,,,,,,,,,,,,,,,290.92427249997854,291.4306918999646,0.5114308800548315,1.011742680100724,291.4140510999132,291.5141245999839,291.4140510999132,291.5141245999839,291.5141245999839,None,m,1,0.44925529998727143,291.5141245999839,None,,,,,,,ppxx2,2022_Apr_27_1312,training+cueing,2021.1.4,59.726417162366324,
Stranger.png,Friend,Stranger,m,2.3,17,27,97,,,,,0,0,0,0,,,,,6,2,74,7,,,,,,,,,,,,,,,,,,,,,1.458,1.459,292.0879088998772,None,,,,,,,,,,,,,,,,,,,,292.62954049999826,293.1317604999058,0.5060389800928533,None,293.11510049994104,293.2318686998915,293.11510049994104,293.2318686998915,293.215118000051,None,c,0,0.2842004999984056,293.215118000051,None,,,,,,,ppxx2,2022_Apr_27_1312,training+cueing,2021.1.4,59.726417162366324,
Self.png,Friend,Self ,m,2.1,16,26,96,,,,,0,0,0,0,,,,,6,3,75,1,,,,,,,,,,,,,,,,,,,,,1.752,2.135,293.62148840003647,None,,,,,,,,,,,,,,,,,,,,294.16000219993293,294.6662017998751,0.5111163801047951,None,294.6495590999257,294.76627289992757,294.6495590999257,294.76627289992757,294.74956959998235,None,c,0,0.3497019000351429,294.74956959998235,None,,,,,,,ppxx2,2022_Apr_27_1312,training+cueing,2021.1.4,59.726417162366324,
Stranger.png,Stranger,Stranger,c,3,13,23,93,,,,,0,0,0,0,,,,,6,4,76,11,,,,,,,,,,,,,,,,,,,,,1.494,1.8,295.2221540999599,None,,,,,,,,,,,,,,,,,,,,295.7787951999344,296.2840976999141,0.5102448398247361,1.0105040399357677,296.2673967999872,296.3841228999663,296.2673967999872,296.3841228999663,296.3673878000118,None,c,1,0.4437875000294298,296.3673878000118,None,,,,,,,ppxx2,2022_Apr_27_1312,training+cueing,2021.1.4,59.726417162366324,
Self.png,Stranger,Self ,m,3.1,18,28,98,,,,,0,0,0,0,,,,,6,5,77,2,,,,,,,,,,,,,,,,,,,,,1.599,2.016,296.94076679996215,None,,,,,,,,,,,,,,,,,,,,297.47917030006647,297.98527810000814,0.5120500798802823,1.012373779900372,297.96858590003103,298.08535990002565,297.96858590003103,298.08535990002565,298.068623600062,None,m,1,0.5346575998701155,298.068623600062,None,,,,,,,ppxx2,2022_Apr_27_1312,training+cueing,2021.1.4,59.726417162366324,
Stranger.png,Stranger,Stranger,c,3,13,23,93,,,,,0,0,0,0,,,,,6,6,78,8,,,,,,,,,,,,,,,,,,,,,1.776,1.471,298.7253409998957,None,,,,,,,,,,,,,,,,,,,,299.26355869998224,299.7698754000012,0.5106622797902673,None,299.7532343000639,299.8701122999191,299.7532343000639,299.8701122999191,299.8532765998971,None,c,1,0.33453880017623305,299.8532765998971,None,,,,,,,ppxx2,2022_Apr_27_1312,training+cueing,2021.1.4,59.726417162366324,
Stranger.png,You,Stranger,m,1.3,15,25,95,,,,,0,0,0,0,,,,,6,7,79,6,,,,,,,,,,,,,,,,,,,,,1.661,2.015,300.31366129987873,None,,,,,,,,,,,,,,,,,,,,300.85262049990706,301.35438479995355,0.5038732800167054,None,301.3376939999871,301.43774880003184,301.3376939999871,301.43774880003184,301.43774880003184,None,c,0,0.3180006998591125,301.43774880003184,None,,,,,,,ppxx2,2022_Apr_27_1312,training+cueing,2021.1.4,59.726417162366324,
Friend.png,Friend,Friend,c,2,12,22,92,,,,,0,0,0,0,,,,,6,8,80,10,,,,,,,,,,,,,,,,,,,,,1.618,1.632,301.8816607000772,None,,,,,,,,,,,,,,,,,,,,302.420694099972,302.92220059991814,0.5018433800432831,1.0022919799666852,302.90550009999424,303.02234859997407,302.90550009999424,303.02234859997407,303.0056654999498,None,m,0,0.4936253000050783,303.0056654999498,None,,,,,,,ppxx2,2022_Apr_27_1312,training+cueing,2021.1.4,59.726417162366324,
Self.png,You,Self ,c,1,11,21,91,,,,,0,0,0,0,,,,,6,9,81,9,,,,,,,,,,,,,,,,,,,,,1.547,1.249,303.6297118999064,None,,,,,,,,,,,,,,,,,,,,304.18449790007435,304.6901791000273,0.5132931401021779,None,304.67346940003335,304.7736092999112,304.67346940003335,304.7736092999112,304.7736092999112,None,c,1,0.35768870008178055,304.7736092999112,None,,,,,,,ppxx2,2022_Apr_27_1312,training+cueing,2021.1.4,59.726417162366324,
Friend.png,Stranger,Friend,m,3.2,19,29,99,,,,,0,0,0,0,,,,,6,10,82,5,,,,,,,,,,,,,,,,,,,,,1.636,1.928,305.26341639994644,None,,,,,,,,,,,,,,,,,,,,305.82342509995215,306.3247016000096,0.5040539400652051,1.0042848400771618,306.30796179990284,306.42471960000694,306.30796179990284,306.42471960000694,306.40796749992296,None,m,1,0.7073926001321524,306.40796749992296,None,,,,,,,ppxx2,2022_Apr_27_1312,training+cueing,2021.1.4,59.726417162366324,
Friend.png,Friend,Friend,c,2,12,22,92,,,,,0,0,0,0,,,,,6,11,83,4,,,,,,,,,,,,,,,,,,,,,1.798,2.176,307.2480510000605,None,,,,,,,,,,,,,,,,,,,,307.78825929993764,308.2927258000709,0.5069216799456626,None,308.276042799931,308.3927956998814,308.276042799931,308.3927956998814,308.3760601999238,None,c,1,0.3551610999274999,308.3760601999238,None,,,,,,,ppxx2,2022_Apr_27_1312,training+cueing,2021.1.4,59.726417162366324,
Stranger.png,Stranger,Stranger,c,3,13,23,93,,,,,0,0,0,0,,,,,7,0,84,11,,,,,,,,,,,,,,,,,,,,,1.711,1.403,308.86619019997306,None,,,,,,,,,,,,,,,,,,,,309.4089653000701,309.91074419999495,0.5049090799875557,1.0052506800275296,309.89401270006783,310.01083949999884,309.89401270006783,310.01083949999884,309.9941050000489,None,m,0,0.3851847001351416,309.9941050000489,None,,,,,,,ppxx2,2022_Apr_27_1312,training+cueing,2021.1.4,59.726417162366324,
Friend.png,Friend,Friend,c,2,12,22,92,,,,,0,0,0,0,,,,,7,1,85,4,,,,,,,,,,,,,,,,,,,,,1.779,1.428,310.5183047000319,None,,,,,,,,,,,,,,,,,,,,311.0608308000956,311.5617792000994,0.5027999796438962,None,311.5451106999535,311.66179500008,311.5451106999535,311.66179500008,311.6451236999128,None,c,1,0.3500600000843406,311.6451236999128,None,,,,,,,ppxx2,2022_Apr_27_1312,training+cueing,2021.1.4,59.726417162366324,
Self.png,You,Self ,c,1,11,21,91,,,,,0,0,0,0,,,,,7,2,86,9,,,,,,,,,,,,,,,,,,,,,1.627,1.878,312.1211556000635,None,,,,,,,,,,,,,,,,,,,,312.67000479996204,313.1796079000924,0.500641480088234,None,313.1629196999129,313.262950199889,313.1629196999129,313.262950199889,313.262950199889,None,c,1,0.3482172000221908,313.262950199889,None,,,,,,,ppxx2,2022_Apr_27_1312,training+cueing,2021.1.4,59.726417162366324,
Friend.png,Stranger,Friend,m,3.2,19,29,99,,,,,0,0,0,0,,,,,7,3,87,5,,,,,,,,,,,,,,,,,,,,,1.787,1.596,313.73586899996735,None,,,,,,,,,,,,,,,,,,,,314.27905560005456,314.7807080000639,0.5051967799663544,1.0055059797596186,314.7640625999775,314.88078220002353,314.7640625999775,314.88078220002353,314.86417479999363,None,m,1,0.7951299000997096,314.86417479999363,None,,,,,,,ppxx2,2022_Apr_27_1312,training+cueing,2021.1.4,59.726417162366324,
Self.png,You,Self ,c,1,11,21,91,,,,,0,0,0,0,,,,,7,4,88,0,,,,,,,,,,,,,,,,,,,,,1.437,1.43,315.7876554999966,None,,,,,,,,,,,,,,,,,,,,316.3252560000401,316.8322604999412,0.511393979890272,1.0115019800141454,316.81569999991916,316.91568249999546,316.81569999991916,316.91568249999546,316.91568249999546,None,c,1,0.5036454999353737,316.91568249999546,None,,,,,,,ppxx2,2022_Apr_27_1312,training+cueing,2021.1.4,59.726417162366324,
Stranger.png,You,Stranger,m,1.3,15,25,95,,,,,0,0,0,0,,,,,7,5,89,6,,,,,,,,,,,,,,,,,,,,,1.445,2.37,317.5560482998844,None,,,,,,,,,,,,,,,,,,,,318.0943718999624,318.60017189988866,0.5110934798140079,1.0114231798797846,318.58347330009565,318.6835195000749,318.58347330009565,318.6835195000749,318.6835195000749,None,m,1,0.5278058999683708,318.6835195000749,None,,,,,,,ppxx2,2022_Apr_27_1312,training+cueing,2021.1.4,59.726417162366324,
Self.png,Stranger,Self ,m,3.1,18,28,98,,,,,0,0,0,0,,,,,7,6,90,2,,,,,,,,,,,,,,,,,,,,,1.671,1.242,319.3400036999956,None,,,,,,,,,,,,,,,,,,,,319.89573760004714,320.401465700008,0.5107451397925615,None,320.38481980003417,320.50150720006786,320.38481980003417,320.50150720006786,320.4848499998916,None,c,0,0.342422999907285,320.4848499998916,None,,,,,,,ppxx2,2022_Apr_27_1312,training+cueing,2021.1.4,59.726417162366324,
Stranger.png,Stranger,Stranger,c,3,13,23,93,,,,,0,0,0,0,,,,,7,7,91,8,,,,,,,,,,,,,,,,,,,,,1.758,1.801,320.9575398999732,None,,,,,,,,,,,,,,,,,,,,321.502299600048,322.00260029989295,0.5155357797630131,1.015893979696557,322.00260029989295,322.1026989999227,322.00260029989295,322.1026989999227,322.1026989999227,None,c,1,0.8525892000179738,322.1026989999227,None,,,,,,,ppxx2,2022_Apr_27_1312,training+cueing,2021.1.4,59.726417162366324,
Friend.png,You,Friend,m,1.2,14,24,94,,,,,0,0,0,0,,,,,7,8,92,3,,,,,,,,,,,,,,,,,,,,,1.467,1.211,323.09286809992045,None,,,,,,,,,,,,,,,,,,,,323.634470900055,324.1375285999384,0.5068851797841489,1.0071565797552466,324.1208524000831,324.2208702999633,324.1208524000831,324.2208702999633,324.2208702999633,None,m,1,0.7503500999882817,324.2208702999633,None,,,,,,,ppxx2,2022_Apr_27_1312,training+cueing,2021.1.4,59.726417162366324,
Stranger.png,Friend,Stranger,m,2.3,17,27,97,,,,,0,0,0,0,,,,,7,9,93,7,,,,,,,,,,,,,,,,,,,,,1.518,2.169,325.0942643999588,None,,,,,,,,,,,,,,,,,,,,325.6346537999343,326.13906139996834,0.5099277799017727,1.0105870799161494,326.12248499994166,326.2390433999244,326.12248499994166,326.2390433999244,326.22231199988164,None,c,0,0.5249383999034762,326.22231199988164,None,,,,,,,ppxx2,2022_Apr_27_1312,training+cueing,2021.1.4,59.726417162366324,
Self.png,Friend,Self ,m,2.1,16,26,96,,,,,0,0,0,0,,,,,7,10,94,1,,,,,,,,,,,,,,,,,,,,,1.633,1.745,326.880067900056,None,,,,,,,,,,,,,,,,,,,,327.41768059995957,327.92357129999436,0.5102896797470748,1.0107712799217552,327.9068922000006,328.0236416000407,327.9068922000006,328.0236416000407,328.0069341000635,None,c,0,0.4843357999343425,328.0069341000635,None,,,,,,,ppxx2,2022_Apr_27_1312,training+cueing,2021.1.4,59.726417162366324,
Friend.png,Friend,Friend,c,2,12,22,92,,,,,0,0,0,0,,,,,7,11,95,10,,,,,,,,,,,,,,,,,,,,,1.73,2.464,328.6150537999347,None,,,,,,,,,,,,,,,,,,,,329.15428690006956,329.65817170008086,0.5076945801265538,1.0078607799950987,329.64155549998395,329.75821030000225,329.64155549998395,329.75821030000225,329.7414941000752,None,m,0,1.4698759999591857,329.7414941000752,None,,,,,,,ppxx2,2022_Apr_27_1312,training+cueing,2021.1.4,59.726417162366324,
Friend.png,Friend,Friend,c,2,12,22,92,,,,,0,0,0,0,,,,,8,0,96,4,,,,,,,,,,,,,,,,,,,,,1.429,2.359,331.3498577000573,None,,,,,,,,,,,,,,,,,,,,331.8873350999784,332.393621499883,0.5111339800059795,1.0113950800150633,332.37697079987265,332.49368409998715,332.37697079987265,332.49368409998715,332.4770108999219,None,c,1,0.5742442000191659,332.4770108999219,None,,,,,,,ppxx2,2022_Apr_27_1312,training+cueing,2021.1.4,59.726417162366324,
Friend.png,You,Friend,m,1.2,14,24,94,,,,,0,0,0,0,,,,,8,1,97,3,,,,,,,,,,,,,,,,,,,,,1.421,1.378,333.1841694000177,None,,,,,,,,,,,,,,,,,,,,333.7242552000098,334.2281382000074,0.5067936801351607,1.0071062799543142,334.211449699942,334.3114455998875,334.211449699942,334.3114455998875,334.3114455998875,None,c,0,0.6598213000688702,334.3114455998875,None,,,,,,,ppxx2,2022_Apr_27_1312,training+cueing,2021.1.4,59.726417162366324,
Stranger.png,You,Stranger,m,1.3,15,25,95,,,,,0,0,0,0,,,,,8,2,98,6,,,,,,,,,,,,,,,,,,,,,1.547,1.356,335.1016345000826,None,,,,,,,,,,,,,,,,,,,,335.6573902000673,336.1628239999991,0.5118019401561469,1.0121447402052581,336.14617759990506,336.2462510999758,336.14617759990506,336.2462510999758,336.2462510999758,None,c,0,0.6289570999797434,336.2462510999758,None,,,,,,,ppxx2,2022_Apr_27_1312,training+cueing,2021.1.4,59.726417162366324,
Self.png,Friend,Self ,m,2.1,16,26,96,,,,,0,0,0,0,,,,,8,3,99,1,,,,,,,,,,,,,,,,,,,,,1.701,1.37,337.00247199996375,None,,,,,,,,,,,,,,,,,,,,337.5547829999123,338.0642063000705,0.499864739831537,1.000454639783129,338.0308409000281,338.13102720002644,338.0308409000281,338.13102720002644,338.13102720002644,None,c,0,0.712327100103721,338.13102720002644,None,,,,,,,ppxx2,2022_Apr_27_1312,training+cueing,2021.1.4,59.726417162366324,
Self.png,You,Self ,c,1,11,21,91,,,,,0,0,0,0,,,,,8,4,100,9,,,,,,,,,,,,,,,,,,,,,1.741,1.331,338.9719863999635,None,,,,,,,,,,,,,,,,,,,,339.51146900001913,340.0156244998798,0.5083328797481954,1.008642179891467,339.9989334999118,340.0990192000754,339.9989334999118,340.0990192000754,340.0990192000754,None,c,1,0.6961848998907954,340.0990192000754,None,,,,,,,ppxx2,2022_Apr_27_1312,training+cueing,2021.1.4,59.726417162366324,
Self.png,Stranger,Self ,m,3.1,18,28,98,,,,,0,0,0,0,,,,,8,5,101,2,,,,,,,,,,,,,,,,,,,,,1.699,1.33,340.921879200032,None,,,,,,,,,,,,,,,,,,,,341.46530749998055,341.9670267000329,0.5047491798177361,1.0050066797994077,341.95040540001355,342.06706900009885,341.95040540001355,342.06706900009885,342.0504089000169,None,None,0,,342.0504089000169,None,,,,,,,ppxx2,2022_Apr_27_1312,training+cueing,2021.1.4,59.726417162366324,
Self.png,You,Self ,c,1,11,21,91,,,,,0,0,0,0,,,,,8,6,102,0,,,,,,,,,,,,,,,,,,,,,1.496,1.596,343.85588539997116,None,,,,,,,,,,,,,,,,,,,,344.40356689994223,344.91919740010053,0.5121333801653236,1.012536680093035,344.9024944000412,345.00254960008897,344.9024944000412,345.00254960008897,345.00254960008897,None,c,1,0.4166522999294102,345.00254960008897,None,,,,,,,ppxx2,2022_Apr_27_1312,training+cueing,2021.1.4,59.726417162366324,
Stranger.png,Stranger,Stranger,c,3,13,23,93,,,,,0,0,0,0,,,,,8,7,103,8,,,,,,,,,,,,,,,,,,,,,1.634,1.593,345.5425414000638,None,,,,,,,,,,,,,,,,,,,,346.08216880005784,346.5869893000927,0.5094157801941037,1.0097156800329685,346.57038610009477,346.68711739988066,346.57038610009477,346.68711739988066,346.6704619000666,None,c,1,0.5247686000075191,346.6704619000666,None,,,,,,,ppxx2,2022_Apr_27_1312,training+cueing,2021.1.4,59.726417162366324,
Stranger.png,Stranger,Stranger,c,3,13,23,93,,,,,0,0,0,0,,,,,8,8,104,11,,,,,,,,,,,,,,,,,,,,,1.615,2.069,347.32735410006717,None,,,,,,,,,,,,,,,,,,,,347.8645331999287,348.3716772000771,0.5111199801322073,1.0114207800943404,348.3549929000437,348.4717415999621,348.3549929000437,348.4717415999621,348.45503300009295,None,c,1,0.4361961998511106,348.45503300009295,None,,,,,,,ppxx2,2022_Apr_27_1312,training+cueing,2021.1.4,59.726417162366324,
Stranger.png,Friend,Stranger,m,2.3,17,27,97,,,,,0,0,0,0,,,,,8,9,105,7,,,,,,,,,,,,,,,,,,,,,1.615,2.027,349.0289082999807,None,,,,,,,,,,,,,,,,,,,,349.5812399000861,350.0895914998837,0.49983937991783023,1.000094179995358,350.0729080000892,350.1896299000364,350.0729080000892,350.1896299000364,350.1896299000364,None,c,0,0.445547099923715,350.1896299000364,None,,,,,,,ppxx2,2022_Apr_27_1312,training+cueing,2021.1.4,59.726417162366324,
Friend.png,Friend,Friend,c,2,12,22,92,,,,,0,0,0,0,,,,,8,10,106,10,,,,,,,,,,,,,,,,,,,,,1.728,1.315,350.76321609993465,None,,,,,,,,,,,,,,,,,,,,351.3028933000751,351.80748290009797,0.5103269799146801,1.0105989798903465,351.7908481999766,351.9074911000207,351.7908481999766,351.9074911000207,351.8908494999632,None,c,1,0.5523469999898225,351.8908494999632,None,,,,,,,ppxx2,2022_Apr_27_1312,training+cueing,2021.1.4,59.726417162366324,
Friend.png,Stranger,Friend,m,3.2,19,29,99,,,,,0,0,0,0,,,,,8,11,107,5,,,,,,,,,,,,,,,,,,,,,1.495,2.06,352.58079409995116,None,,,,,,,,,,,,,,,,,,,,353.122160699917,353.6254286998883,0.5052965800277889,1.005704479990527,353.6087899999693,353.72553090006113,353.6087899999693,353.72553090006113,353.70889779995196,None,c,0,0.5103519998956472,353.70889779995196,None,,,,,,,ppxx2,2022_Apr_27_1312,training+cueing,2021.1.4,59.726417162366324,
Self.png,You,Self ,c,1,11,21,91,,,,,0,0,0,0,,,,,9,0,108,9,,,,,,,,,,,,,,,,,,,,,1.783,2.066,354.35126590006985,None,,,,,,,,,,,,,,,,,,,,354.89117769990116,355.3934013999533,0.5046517800074071,1.0049223799724132,355.3767617000267,355.4767922000028,355.3767617000267,355.4767922000028,355.4767922000028,None,None,0,,355.4767922000028,None,,,,,,,ppxx2,2022_Apr_27_1312,training+cueing,2021.1.4,59.726417162366324,
Friend.png,Friend,Friend,c,2,12,22,92,,,,,0,0,0,0,,,,,9,1,109,10,,,,,,,,,,,,,,,,,,,,,1.799,1.607,357.3660526999738,None,,,,,,,,,,,,,,,,,,,,357.9084844000172,358.41223319992423,0.5065770798828453,1.0068591800518334,358.39558000001125,358.51228779996745,358.39558000001125,358.51228779996745,358.4956191999372,None,c,1,1.6435565000865608,358.4956191999372,None,,,,,,,ppxx2,2022_Apr_27_1312,training+cueing,2021.1.4,59.726417162366324,
Self.png,Friend,Self ,m,2.1,16,26,96,,,,,0,0,0,0,,,,,9,2,110,1,,,,,,,,,,,,,,,,,,,,,1.537,1.49,360.27015280001797,None,,,,,,,,,,,,,,,,,,,,360.8072887000162,361.3143406000454,0.5111797801218927,1.011609580134973,361.2976853,361.41511689987965,361.2976853,361.41511689987965,361.3982957000844,None,None,0,,361.3982957000844,None,,,,,,,ppxx2,2022_Apr_27_1312,training+cueing,2021.1.4,59.726417162366324,
Stranger.png,Stranger,Stranger,c,3,13,23,93,,,,,0,0,0,0,,,,,9,3,111,11,,,,,,,,,,,,,,,,,,,,,1.495,2.015,363.0530369998887,None,,,,,,,,,,,,,,,,,,,,363.59745009988546,364.0998339999933,0.5043060798197985,1.0045768797863275,364.0830055999104,364.1997479000129,364.0830055999104,364.1997479000129,364.183035899885,None,c,1,0.6282287000212818,364.183035899885,None,,,,,,,ppxx2,2022_Apr_27_1312,training+cueing,2021.1.4,59.726417162366324,
Stranger.png,Friend,Stranger,m,2.3,17,27,97,,,,,0,0,0,0,,,,,9,4,112,7,,,,,,,,,,,,,,,,,,,,,1.789,2.025,364.9401106000878,None,,,,,,,,,,,,,,,,,,,,365.48550809989683,366.00116589991376,0.5117963799275458,1.012027780059725,365.98456140002236,366.10122029995546,365.98456140002236,366.10122029995546,366.0845540999435,None,c,0,0.43866340001113713,366.0845540999435,None,,,,,,,ppxx2,2022_Apr_27_1312,training+cueing,2021.1.4,59.726417162366324,
Stranger.png,Stranger,Stranger,c,3,13,23,93,,,,,0,0,0,0,,,,,9,5,113,8,,,,,,,,,,,,,,,,,,,,,1.668,2.03,366.65862619993277,None,,,,,,,,,,,,,,,,,,,,367.1996388998814,367.7023402999621,0.5051086798775941,1.005393479950726,367.68561429996043,367.80241549992934,367.68561429996043,367.80241549992934,367.7856487000827,None,c,1,0.5615001998376101,367.7856487000827,None,,,,,,,ppxx2,2022_Apr_27_1312,training+cueing,2021.1.4,59.726417162366324,
Self.png,Stranger,Self ,m,3.1,18,28,98,,,,,0,0,0,0,,,,,9,6,114,2,,,,,,,,,,,,,,,,,,,,,1.682,1.68,368.47516710008495,None,,,,,,,,,,,,,,,,,,,,369.01490559987724,369.5202633999288,0.5111101798247546,1.011424879776314,369.50359299988486,369.6203055998776,369.50359299988486,369.6203055998776,369.6036590000149,None,c,0,0.5034870998933911,369.6036590000149,None,,,,,,,ppxx2,2022_Apr_27_1312,training+cueing,2021.1.4,59.726417162366324,
Friend.png,You,Friend,m,1.2,14,24,94,,,,,0,0,0,0,,,,,9,7,115,3,,,,,,,,,,,,,,,,,,,,,1.704,1.322,370.24308570008725,None,,,,,,,,,,,,,,,,,,,,370.78223089990206,371.2882065998856,0.5092113800346851,1.0094827800057828,371.2715382000897,371.37156690005213,371.2715382000897,371.37156690005213,371.37156690005213,None,m,1,0.6555928001180291,371.37156690005213,None,,,,,,,ppxx2,2022_Apr_27_1312,training+cueing,2021.1.4,59.726417162366324,
Stranger.png,You,Stranger,m,1.3,15,25,95,,,,,0,0,0,0,,,,,9,8,116,6,,,,,,,,,,,,,,,,,,,,,1.783,2.34,372.1615617000498,None,,,,,,,,,,,,,,,,,,,,372.700221600011,373.2064410999883,0.5112034797202796,1.011331379879266,373.1897475000005,373.2896437998861,373.1897475000005,373.2896437998861,373.2896437998861,None,m,1,0.5295188000891358,373.2896437998861,None,,,,,,,ppxx2,2022_Apr_27_1312,training+cueing,2021.1.4,59.726417162366324,
Friend.png,Stranger,Friend,m,3.2,19,29,99,,,,,0,0,0,0,,,,,9,9,117,5,,,,,,,,,,,,,,,,,,,,,1.424,2.399,373.946285400074,None,,,,,,,,,,,,,,,,,,,,374.4865353999194,374.9908962000627,0.5078829799313098,1.0081285799387842,374.9742431000341,375.09094500006177,374.9742431000341,375.09094500006177,375.07422529999167,None,c,0,0.6008500999305397,375.07422529999167,None,,,,,,,ppxx2,2022_Apr_27_1312,training+cueing,2021.1.4,59.726417162366324,
Friend.png,Friend,Friend,c,2,12,22,92,,,,,0,0,0,0,,,,,9,10,118,4,,,,,,,,,,,,,,,,,,,,,1.638,2.184,375.7978167999536,None,,,,,,,,,,,,,,,,,,,,376.3387831998989,376.8422741999384,0.5046597798354924,1.0051725797820836,376.82557069999166,376.94229889987037,376.82557069999166,376.94229889987037,376.9256150999572,None,m,0,0.4454836000222713,376.9256150999572,None,,,,,,,ppxx2,2022_Apr_27_1312,training+cueing,2021.1.4,59.726417162366324,
Self.png,You,Self ,c,1,11,21,91,,,,,0,0,0,0,,,,,9,11,119,0,,,,,,,,,,,,,,,,,,,,,1.699,1.752,377.4990232998971,None,,,,,,,,,,,,,,,,,,,,378.06174309994094,378.5770097998902,0.514285639859736,1.0144368398468941,378.5603958000429,378.66034760000184,378.5603958000429,378.66034760000184,378.66034760000184,None,m,0,0.48683000006712973,378.66034760000184,None,,,,,,,ppxx2,2022_Apr_27_1312,training+cueing,2021.1.4,59.726417162366324,
,,,,,,,,,,,,0,0,0,0,,,,,,,,,,,,,,,,,,,,,,,,,,,,,,,,,,,,,,,,,,,,,,,,,,,,,,,,,,,,,,,,,,,0.00098002003505826,None,,,,,ppxx2,2022_Apr_27_1312,training+cueing,2021.1.4,59.726417162366324,
Self.png,Friend,Self ,m,2.1,16,26,96,,,,,1,0,1,0,0,0,0,1,,,,,,,,,,,,,,,,,379.7944270998705,None,space,24.551917599979788,2.0161600599531084,None,406.3637451999821,None,1.596,1.382,409.38147579994984,None,409.91130260005593,410.4164422999602,410.3998261000961,410.5165138000157,410.3998261000961,410.5165138000157,410.499844300095,None,c,0,0.679259599884972,410.499844300095,None,411.2004527999088,None,,,,,,,,,,,,,,,,,,,,,,,,,,ppxx2,2022_Apr_27_1312,training+cueing,2021.1.4,59.726417162366324,
Stranger.png,Stranger,Stranger,c,3,13,23,93,,,,,1,0,1,0,0,1,1,11,,,,,,,,,,,,,,,,,,,,,,,,,1.483,2.272,411.6012299999129,None,412.1402110999916,412.65145489992574,412.63479729997925,412.75150980008766,412.63479729997925,412.75150980008766,412.734795599943,None,c,1,0.396373099880293,412.734795599943,None,413.15084709995426,None,,,,,,,,,,,,,,,,,,,,,,,,,,ppxx2,2022_Apr_27_1312,training+cueing,2021.1.4,59.726417162366324,
Self.png,You,Self ,c,1,11,21,91,,,,,1,0,1,0,0,2,2,9,,,,,,,,,,,,,,,,,,,,,,,,,1.483,1.751,413.5520567998756,None,414.08440990000963,414.5861289999448,414.5694963999558,414.66955929994583,414.5694963999558,414.66955929994583,414.66955929994583,None,c,1,0.34953329991549253,414.66955929994583,None,415.03649870003574,None,,,,,,,,,,,,,,,,,,,,,,,,,,ppxx2,2022_Apr_27_1312,training+cueing,2021.1.4,59.726417162366324,
Self.png,You,Self ,c,1,11,21,91,,,,,1,0,1,0,0,3,3,0,,,,,,,,,,,,,,,,,,,,,,,,,1.487,1.817,415.4367092999164,None,415.9658063000534,416.4708443998825,416.45428579999134,416.55424329987727,416.45428579999134,416.55424329987727,416.55424329987727,None,c,1,0.41686880006454885,416.55424329987727,None,416.9879622000735,None,,,,,,,,,,,,,,,,,,,,,,,,,,ppxx2,2022_Apr_27_1312,training+cueing,2021.1.4,59.726417162366324,
Stranger.png,Friend,Stranger,m,2.3,17,27,97,,,,,1,0,1,0,0,4,4,7,,,,,,,,,,,,,,,,,,,,,,,,,1.455,2.126,417.388189899968,None,417.9210637998767,418.4222321000416,418.40563459997065,418.52231870009564,418.40563459997065,418.52231870009564,418.5056453999132,None,c,0,0.4813602000940591,418.5056453999132,None,419.0067137000151,None,,,,,,,,,,,,,,,,,,,,,,,,,,ppxx2,2022_Apr_27_1312,training+cueing,2021.1.4,59.726417162366324,
Stranger.png,Stranger,Stranger,c,3,13,23,93,,,,,1,0,1,0,0,5,5,8,,,,,,,,,,,,,,,,,,,,,,,,,1.737,1.681,419.406292000087,None,419.9522740000393,420.4570667000953,420.44036370003596,420.5571306999773,420.44036370003596,420.5571306999773,420.5403944000136,None,c,1,0.4467462000902742,420.5403944000136,None,421.0063426999841,None,,,,,,,,,,,,,,,,,,,,,,,,,,ppxx2,2022_Apr_27_1312,training+cueing,2021.1.4,59.726417162366324,
Friend.png,Stranger,Friend,m,3.2,19,29,99,,,,,1,0,1,0,0,6,6,5,,,,,,,,,,,,,,,,,,,,,,,,,1.514,1.94,421.40771969989873,None,421.93683340004645,422.44189559994265,422.42520849988796,422.5418960999232,422.42520849988796,422.5418960999232,422.5252032999415,None,c,0,0.38189740013331175,422.5252032999415,None,422.92583570000716,None,,,,,,,,,,,,,,,,,,,,,,,,,,ppxx2,2022_Apr_27_1312,training+cueing,2021.1.4,59.726417162366324,
Friend.png,Friend,Friend,c,2,12,22,92,,,,,1,0,1,0,0,7,7,4,,,,,,,,,,,,,,,,,,,,,,,,,1.489,1.379,423.32577069988474,None,423.85663260007277,424.35983349988237,424.343206099933,424.4598878000397,424.343206099933,424.4598878000397,424.4432568999473,None,m,0,0.5758894998580217,424.4432568999473,None,425.043745999923,None,,,,,,,,,,,,,,,,,,,,,,,,,,ppxx2,2022_Apr_27_1312,training+cueing,2021.1.4,59.726417162366324,
Self.png,Stranger,Self ,m,3.1,18,28,98,,,,,1,0,1,0,0,8,8,2,,,,,,,,,,,,,,,,,,,,,,,,,1.7,2.048,425.4440174999181,None,425.9763307000976,426.4780856000725,426.46139449998736,426.57814090000466,426.46139449998736,426.57814090000466,426.57814090000466,None,c,0,0.2649105000309646,426.57814090000466,None,426.8616967999842,None,,,,,,,,,,,,,,,,,,,,,,,,,,ppxx2,2022_Apr_27_1312,training+cueing,2021.1.4,59.726417162366324,
Stranger.png,You,Stranger,m,1.3,15,25,95,,,,,1,0,1,0,0,9,9,6,,,,,,,,,,,,,,,,,,,,,,,,,1.501,2.151,427.26205549994484,None,427.7989415000193,428.31289470009506,428.2963698999956,428.3962340001017,428.2963698999956,428.3962340001017,428.3962340001017,None,m,1,0.4788907999172807,428.3962340001017,None,428.8967389999889,None,,,,,,,,,,,,,,,,,,,,,,,,,,ppxx2,2022_Apr_27_1312,training+cueing,2021.1.4,59.726417162366324,
Friend.png,You,Friend,m,1.2,14,24,94,,,,,1,0,1,0,0,10,10,3,,,,,,,,,,,,,,,,,,,,,,,,,1.552,1.564,429.2968854000792,None,429.83233479992487,430.3475353999529,430.3313752000686,430.43090240005404,430.3313752000686,430.43090240005404,430.43090240005404,None,m,1,0.892123700119555,430.43090240005404,None,431.34828040003777,None,,,,,,,,,,,,,,,,,,,,,,,,,,ppxx2,2022_Apr_27_1312,training+cueing,2021.1.4,59.726417162366324,
Friend.png,Friend,Friend,c,2,12,22,92,,,,,1,0,1,0,0,11,11,10,,,,,,,,,,,,,,,,,,,,,,,,,1.629,1.652,431.7485384000465,None,432.2812335998751,432.7826280000154,432.76599900005385,432.8826520999428,432.76599900005385,432.8826520999428,432.8660132000223,None,c,1,0.7130854001734406,432.8660132000223,None,433.59988919994794,None,,,,,,,,,,,,,,,,,,,,,,,,,,ppxx2,2022_Apr_27_1312,training+cueing,2021.1.4,59.726417162366324,
Stranger.png,Stranger,Stranger,c,3,13,23,93,,,,,1,0,1,0,,,,,0,0,0,11,,,,,,,,,,,,,,,,,,,440.1047340000514,None,1.519,1.79,443.62730169994757,None,,,,,,,,,,,,,,,,434.0003013999667,None,0.014531060354784131,0.5130520602688193,444.15408589993604,444.6578925999347,0.5063746799714863,1.0066375799942762,444.6412124999333,444.7579528999049,444.6412124999333,444.7579528999049,444.7412362000905,None,None,0,,444.7412362000905,None,,,,,,,ppxx2,2022_Apr_27_1312,training+cueing,2021.1.4,59.726417162366324,
Friend.png,Friend,Friend,c,2,12,22,92,,,,,1,0,1,0,,,,,0,1,1,10,,,,,,,,,,,,,,,,,,,,,1.58,1.507,446.38079790002666,None,,,,,,,,,,,,,,,,,,,,446.9230977999978,447.4265805000905,0.5060375798493624,None,447.4098519999534,447.52661779988557,447.4098519999534,447.52661779988557,447.5099277999252,None,c,1,0.35725519992411137,447.5099277999252,None,,,,,,,ppxx2,2022_Apr_27_1312,training+cueing,2021.1.4,59.726417162366324,
Self.png,You,Self ,c,1,11,21,91,,,,,1,0,1,0,,,,,0,2,2,9,,,,,,,,,,,,,,,,,,,,,1.417,1.447,447.99940579989925,None,,,,,,,,,,,,,,,,,,,,448.54036869993433,449.0443815998733,0.5069120801053941,1.0071666799485683,449.02776249987073,449.12776639987715,449.02776249987073,449.12776639987715,449.12776639987715,None,m,0,0.46738669998012483,449.12776639987715,None,,,,,,,ppxx2,2022_Apr_27_1312,training+cueing,2021.1.4,59.726417162366324,
Stranger.png,Friend,Stranger,m,2.3,17,27,97,,,,,1,0,1,0,,,,,0,3,3,7,,,,,,,,,,,,,,,,,,,,,1.787,1.3,449.71748179988936,None,,,,,,,,,,,,,,,,,,,,450.2598055000417,450.76227129995823,0.5061884797178209,1.0065109797287732,450.7456356000621,450.86232340009883,450.7456356000621,450.86232340009883,450.8456558000762,None,c,0,0.3973902999423444,450.8456558000762,None,,,,,,,ppxx2,2022_Apr_27_1312,training+cueing,2021.1.4,59.726417162366324,
Friend.png,Friend,Friend,c,2,12,22,92,,,,,1,0,1,0,,,,,0,4,4,4,,,,,,,,,,,,,,,,,,,,,1.688,1.59,451.36910480004735,None,,,,,,,,,,,,,,,,,,,,451.9056585000362,452.4134829000104,0.5124825797975063,1.0127987798769027,452.3968221999239,452.5134785999544,452.3968221999239,452.5134785999544,452.4968542000279,None,c,1,0.41033250000327826,452.4968542000279,None,,,,,,,ppxx2,2022_Apr_27_1312,training+cueing,2021.1.4,59.726417162366324,
Self.png,Stranger,Self ,m,3.1,18,28,98,,,,,1,0,1,0,,,,,0,5,5,2,,,,,,,,,,,,,,,,,,,,,1.691,1.499,453.0367544000037,None,,,,,,,,,,,,,,,,,,,,453.5781465000473,454.0813188999891,0.5056459801271558,1.0058725799899548,454.0647509000264,454.1814377999399,454.0647509000264,454.1814377999399,454.1647173999809,None,c,0,0.4223511000163853,454.1647173999809,None,,,,,,,ppxx2,2022_Apr_27_1312,training+cueing,2021.1.4,59.726417162366324,
Stranger.png,Stranger,Stranger,c,3,13,23,93,,,,,1,0,1,0,,,,,0,6,6,8,,,,,,,,,,,,,,,,,,,,,1.638,1.274,454.72130399988964,None,,,,,,,,,,,,,,,,,,,,455.2600062000565,455.7659364999272,0.5113568801898509,1.011613580165431,455.74925439991057,455.86599819990806,455.74925439991057,455.86599819990806,455.8492594999261,None,m,0,0.40187259996309876,455.8492594999261,None,,,,,,,ppxx2,2022_Apr_27_1312,training+cueing,2021.1.4,59.726417162366324,
Self.png,You,Self ,c,1,11,21,91,,,,,1,0,1,0,,,,,0,7,7,0,,,,,,,,,,,,,,,,,,,,,1.458,2.371,456.3891171000432,None,,,,,,,,,,,,,,,,,,,,456.9292854000814,457.4337702000048,0.506991779897362,None,457.41708839987405,457.51719329995103,457.41708839987405,457.51719329995103,457.51719329995103,None,c,1,0.3178182998672128,457.51719329995103,None,,,,,,,ppxx2,2022_Apr_27_1312,training+cueing,2021.1.4,59.726417162366324,
Self.png,Friend,Self ,m,2.1,16,26,96,,,,,1,0,1,0,,,,,0,8,8,1,,,,,,,,,,,,,,,,,,,,,1.635,2.023,457.95644069998525,None,,,,,,,,,,,,,,,,,,,,458.4976572000887,459.0015900998842,0.5085175798740238,None,458.98488510004245,459.1016164000612,458.98488510004245,459.1016164000612,459.0849341999274,None,c,0,0.36602930002845824,459.0849341999274,None,,,,,,,ppxx2,2022_Apr_27_1312,training+cueing,2021.1.4,59.726417162366324,
Friend.png,You,Friend,m,1.2,14,24,94,,,,,1,0,1,0,,,,,0,9,9,3,,,,,,,,,,,,,,,,,,,,,1.767,1.766,459.57485609990545,None,,,,,,,,,,,,,,,,,,,,460.11598460003734,460.61941400007345,0.5071612801402807,1.0074752802029252,460.60272579989396,460.7027602000162,460.60272579989396,460.7027602000162,460.7027602000162,None,c,0,0.44426489993929863,460.7027602000162,None,,,,,,,ppxx2,2022_Apr_27_1312,training+cueing,2021.1.4,59.726417162366324,
Stranger.png,You,Stranger,m,1.3,15,25,95,,,,,1,0,1,0,,,,,0,10,10,6,,,,,,,,,,,,,,,,,,,,,1.537,1.773,461.2755100999493,None,,,,,,,,,,,,,,,,,,,,461.8151732000988,462.3207221000921,0.5101323798298836,1.01061237975955,462.3039891999215,462.4039904999081,462.3039891999215,462.4039904999081,462.4039904999081,None,m,1,0.5352226998656988,462.4039904999081,None,,,,,,,ppxx2,2022_Apr_27_1312,training+cueing,2021.1.4,59.726417162366324,
Friend.png,Stranger,Friend,m,3.2,19,29,99,,,,,1,0,1,0,,,,,0,11,11,5,,,,,,,,,,,,,,,,,,,,,1.625,1.56,463.06152320001274,None,,,,,,,,,,,,,,,,,,,,463.60297370003536,464.1052896999754,0.5045726797543466,None,464.08855860005133,464.20531859993935,464.08855860005133,464.20531859993935,464.1886475000065,None,c,0,0.2866617999970913,464.1886475000065,None,,,,,,,ppxx2,2022_Apr_27_1312,training+cueing,2021.1.4,59.726417162366324,
Stranger.png,Stranger,Stranger,c,3,13,23,93,,,,,1,0,1,0,,,,,1,0,12,8,,,,,,,,,,,,,,,,,,,,,1.486,1.287,464.6122278000694,None,,,,,,,,,,,,,,,,,,,,465.15474490006454,465.65637800004333,0.5028834801632911,1.0031189799774438,465.6397450999357,465.7564461999573,465.6397450999357,465.7564461999573,465.73973620007746,None,m,0,0.4312167000025511,465.73973620007746,None,,,,,,,ppxx2,2022_Apr_27_1312,training+cueing,2021.1.4,59.726417162366324,
Stranger.png,You,Stranger,m,1.3,15,25,95,,,,,1,0,1,0,,,,,1,1,13,6,,,,,,,,,,,,,,,,,,,,,1.443,1.428,466.2966149998829,None,,,,,,,,,,,,,,,,,,,,466.84793759998865,467.357620799914,0.5032589801121503,1.0035157799720764,467.34099940001033,467.4409960000776,467.34099940001033,467.4409960000776,467.4409960000776,None,c,0,0.538015800062567,467.4409960000776,None,,,,,,,ppxx2,2022_Apr_27_1312,training+cueing,2021.1.4,59.726417162366324,
Self.png,Friend,Self ,m,2.1,16,26,96,,,,,1,0,1,0,,,,,1,2,14,1,,,,,,,,,,,,,,,,,,,,,1.521,2.423,468.1139070999343,None,,,,,,,,,,,,,,,,,,,,468.65557490009815,469.1589269998949,0.5059783798642457,None,469.1421950000804,469.2589807000477,469.1421950000804,469.2589807000477,469.2422625999898,None,c,0,0.28861749987117946,469.2422625999898,None,,,,,,,ppxx2,2022_Apr_27_1312,training+cueing,2021.1.4,59.726417162366324,
Stranger.png,Friend,Stranger,m,2.3,17,27,97,,,,,1,0,1,0,,,,,1,3,15,7,,,,,,,,,,,,,,,,,,,,,1.525,1.274,469.66487480001524,None,,,,,,,,,,,,,,,,,,,,470.20220869989134,470.71005539991893,0.5128373799379915,None,470.6933714998886,470.81010139989667,470.6933714998886,470.81010139989667,470.7934095999226,None,c,0,0.2896674999501556,470.7934095999226,None,,,,,,,ppxx2,2022_Apr_27_1312,training+cueing,2021.1.4,59.726417162366324,
Self.png,Stranger,Self ,m,3.1,18,28,98,,,,,1,0,1,0,,,,,1,4,16,2,,,,,,,,,,,,,,,,,,,,,1.733,1.541,471.2160193999298,None,,,,,,,,,,,,,,,,,,,,471.75857149995863,472.2611706000753,0.5048612798564136,1.0051635797135532,472.2444605999626,472.36114889988676,472.2444605999626,472.36114889988676,472.34448720002547,None,c,0,0.467079000081867,472.34448720002547,None,,,,,,,ppxx2,2022_Apr_27_1312,training+cueing,2021.1.4,59.726417162366324,
Stranger.png,Stranger,Stranger,c,3,13,23,93,,,,,1,0,1,0,,,,,1,5,17,11,,,,,,,,,,,,,,,,,,,,,1.799,1.765,472.93834750005044,None,,,,,,,,,,,,,,,,,,,,473.4746546000242,473.9790813000873,0.5084288800135255,None,473.9624401999172,474.0791086999234,473.9624401999172,474.0791086999234,474.0624064998701,None,c,1,0.34860719996504486,474.0624064998701,None,,,,,,,ppxx2,2022_Apr_27_1312,training+cueing,2021.1.4,59.726417162366324,
Friend.png,Stranger,Friend,m,3.2,19,29,99,,,,,1,0,1,0,,,,,1,6,18,5,,,,,,,,,,,,,,,,,,,,,1.572,2.291,474.53594550001435,None,,,,,,,,,,,,,,,,,,,,475.0740678999573,475.5804014999885,0.5105499802157283,None,475.5637312999461,475.6804549000226,475.5637312999461,475.6804549000226,475.66377860005014,None,c,0,0.3312253998592496,475.66377860005014,None,,,,,,,ppxx2,2022_Apr_27_1312,training+cueing,2021.1.4,59.726417162366324,
Friend.png,Friend,Friend,c,2,12,22,92,,,,,1,0,1,0,,,,,1,7,19,10,,,,,,,,,,,,,,,,,,,,,1.537,1.698,476.12155780009925,None,,,,,,,,,,,,,,,,,,,,476.66416639997624,477.1648098998703,0.501423479989171,1.0022057800088078,477.1481294000987,477.26486029988155,477.1481294000987,477.26486029988155,477.26486029988155,None,c,1,0.8264615999069065,477.26486029988155,None,,,,,,,ppxx2,2022_Apr_27_1312,training+cueing,2021.1.4,59.726417162366324,
Friend.png,You,Friend,m,1.2,14,24,94,,,,,1,0,1,0,,,,,1,8,20,3,,,,,,,,,,,,,,,,,,,,,1.576,2.254,478.2247315000277,None,,,,,,,,,,,,,,,,,,,,478.7628514999524,479.2674676000606,0.5035624799784273,1.0038533799815923,479.2495353000704,479.349605999887,479.2495353000704,479.349605999887,479.349605999887,None,m,1,0.5974573001731187,479.349605999887,None,,,,,,,ppxx2,2022_Apr_27_1312,training+cueing,2021.1.4,59.726417162366324,
Self.png,You,Self ,c,1,11,21,91,,,,,1,0,1,0,,,,,1,9,21,0,,,,,,,,,,,,,,,,,,,,,1.477,1.351,480.0729195999447,None,,,,,,,,,,,,,,,,,,,,480.60977529990487,481.117564199958,0.5150264799594879,1.0153155799489468,481.1008872000966,481.20094050001353,481.1008872000966,481.20094050001353,481.20094050001353,None,c,1,0.4740748000331223,481.20094050001353,None,,,,,,,ppxx2,2022_Apr_27_1312,training+cueing,2021.1.4,59.726417162366324,
Friend.png,Friend,Friend,c,2,12,22,92,,,,,1,0,1,0,,,,,1,10,22,4,,,,,,,,,,,,,,,,,,,,,1.532,2.126,481.8078356999904,None,,,,,,,,,,,,,,,,,,,,482.35479669994675,482.8688159000594,0.5105968799907714,1.010893179802224,482.85214000009,482.9688790999353,482.85214000009,482.9688790999353,482.952156299958,None,m,0,0.46690889983437955,482.952156299958,None,,,,,,,ppxx2,2022_Apr_27_1312,training+cueing,2021.1.4,59.726417162366324,
Self.png,You,Self ,c,1,11,21,91,,,,,1,0,1,0,,,,,1,11,23,9,,,,,,,,,,,,,,,,,,,,,1.413,1.776,483.5415638999548,None,,,,,,,,,,,,,,,,,,,,484.08266040007584,484.58676599990577,0.506143779726699,1.0063879797235131,484.57009189995006,484.6701112999581,484.57009189995006,484.6701112999581,484.6701112999581,None,c,1,0.41290110000409186,484.6701112999581,None,,,,,,,ppxx2,2022_Apr_27_1312,training+cueing,2021.1.4,59.726417162366324,
Stranger.png,You,Stranger,m,1.3,15,25,95,,,,,1,0,1,0,,,,,2,0,24,6,,,,,,,,,,,,,,,,,,,,,1.579,2.381,485.20969699998386,None,,,,,,,,,,,,,,,,,,,,485.7630950999446,486.2714180999901,0.500241480069235,1.000526080140844,486.2547840999905,486.35482880007476,486.2547840999905,486.35482880007476,486.35482880007476,None,m,1,0.3922929000109434,486.35482880007476,None,,,,,,,ppxx2,2022_Apr_27_1312,training+cueing,2021.1.4,59.726417162366324,
Stranger.png,Friend,Stranger,m,2.3,17,27,97,,,,,1,0,1,0,,,,,2,1,25,7,,,,,,,,,,,,,,,,,,,,,1.622,1.219,486.87980720005,None,,,,,,,,,,,,,,,,,,,,487.4211905999109,487.92249200004153,0.5029878800269216,None,487.90579889994115,488.0225390000269,487.90579889994115,488.0225390000269,488.00580019992776,None,c,0,0.35729110008105636,488.00580019992776,None,,,,,,,ppxx2,2022_Apr_27_1312,training+cueing,2021.1.4,59.726417162366324,
Self.png,Stranger,Self ,m,3.1,18,28,98,,,,,1,0,1,0,,,,,2,2,26,2,,,,,,,,,,,,,,,,,,,,,1.634,2.272,488.49581520003267,None,,,,,,,,,,,,,,,,,,,,489.03765309997834,489.5403372000437,0.5046531797852367,1.0049762798007578,489.52363989991136,489.640397900017,489.52363989991136,489.640397900017,489.6236515000928,None,c,0,0.387390999821946,489.6236515000928,None,,,,,,,ppxx2,2022_Apr_27_1312,training+cueing,2021.1.4,59.726417162366324,
Friend.png,Friend,Friend,c,2,12,22,92,,,,,1,0,1,0,,,,,2,3,27,4,,,,,,,,,,,,,,,,,,,,,1.721,2.369,490.1468728000764,None,,,,,,,,,,,,,,,,,,,,490.6871505000163,491.1915569999255,0.5095451800152659,1.0098416800610721,491.1748438999057,491.291590299923,491.1748438999057,491.291590299923,491.2748380000703,None,m,0,0.6401244001463056,491.2748380000703,None,,,,,,,ppxx2,2022_Apr_27_1312,training+cueing,2021.1.4,59.726417162366324,
Friend.png,Friend,Friend,c,2,12,22,92,,,,,1,0,1,0,,,,,2,4,28,10,,,,,,,,,,,,,,,,,,,,,1.48,1.621,492.048050200101,None,,,,,,,,,,,,,,,,,,,,492.59624759992585,493.109572699992,0.5080447799991816,1.0083962799981236,493.09286760003306,493.20963419997133,493.09286760003306,493.20963419997133,493.19289120007306,None,m,0,0.5781521999742836,493.19289120007306,None,,,,,,,ppxx2,2022_Apr_27_1312,training+cueing,2021.1.4,59.726417162366324,
Self.png,You,Self ,c,1,11,21,91,,,,,1,0,1,0,,,,,2,5,29,9,,,,,,,,,,,,,,,,,,,,,1.402,2.433,493.9003961000126,None,,,,,,,,,,,,,,,,,,,,494.4412398999557,494.9442145000212,0.5059870800469071,1.0062724801246077,494.92754839989357,495.02759919990785,494.92754839989357,495.02759919990785,495.02759919990785,None,c,1,0.4873778000473976,495.02759919990785,None,,,,,,,ppxx2,2022_Apr_27_1312,training+cueing,2021.1.4,59.726417162366324,
Friend.png,Stranger,Friend,m,3.2,19,29,99,,,,,1,0,1,0,,,,,2,6,30,5,,,,,,,,,,,,,,,,,,,,,1.768,1.402,495.6507534000557,None,,,,,,,,,,,,,,,,,,,,496.19297969993204,496.6955007999204,0.5052670799195766,1.0055522799957544,496.67880899994634,496.7955692000687,496.67880899994634,496.7955692000687,496.778843899956,None,m,1,0.544139200123027,496.778843899956,None,,,,,,,ppxx2,2022_Apr_27_1312,training+cueing,2021.1.4,59.726417162366324,
Friend.png,You,Friend,m,1.2,14,24,94,,,,,1,0,1,0,,,,,2,7,31,3,,,,,,,,,,,,,,,,,,,,,1.55,1.95,497.45204979996197,None,,,,,,,,,,,,,,,,,,,,497.992780999979,498.49677819991484,0.5055795796215534,1.0061210796702653,498.4800517000258,498.58017740002833,498.4800517000258,498.58017740002833,498.58017740002833,None,m,1,0.5670215000864118,498.58017740002833,None,,,,,,,ppxx2,2022_Apr_27_1312,training+cueing,2021.1.4,59.726417162366324,
Stranger.png,Stranger,Stranger,c,3,13,23,93,,,,,1,0,1,0,,,,,2,8,32,11,,,,,,,,,,,,,,,,,,,,,1.569,2.015,499.2706877000164,None,,,,,,,,,,,,,,,,,,,,499.81311769993044,500.31478310003877,0.504527079872787,1.0047916800249368,500.2980996000115,500.41482020006515,500.2980996000115,500.41482020006515,500.39812969998457,None,c,1,0.4768786998465657,500.39812969998457,None,,,,,,,ppxx2,2022_Apr_27_1312,training+cueing,2021.1.4,59.726417162366324,
Self.png,Friend,Self ,m,2.1,16,26,96,,,,,1,0,1,0,,,,,2,9,33,1,,,,,,,,,,,,,,,,,,,,,1.503,1.754,501.0053797001019,None,,,,,,,,,,,,,,,,,,,,501.54575999989174,502.04940519994125,0.5060773799195886,None,502.0327023998834,502.14944229996763,502.0327023998834,502.14944229996763,502.1327285999432,None,c,0,0.37425710004754364,502.1327285999432,None,,,,,,,ppxx2,2022_Apr_27_1312,training+cueing,2021.1.4,59.726417162366324,
Self.png,You,Self ,c,1,11,21,91,,,,,1,0,1,0,,,,,2,10,34,0,,,,,,,,,,,,,,,,,,,,,1.748,1.4,502.6398662000429,None,,,,,,,,,,,,,,,,,,,,503.17955689993687,503.6838672000449,0.5066677797585726,1.0069143797736615,503.6672153000254,503.7672391999513,503.6672153000254,503.7672391999513,503.7672391999513,None,m,0,0.4197621999774128,503.7672391999513,None,,,,,,,ppxx2,2022_Apr_27_1312,training+cueing,2021.1.4,59.726417162366324,
Stranger.png,Stranger,Stranger,c,3,13,23,93,,,,,1,0,1,0,,,,,2,11,35,8,,,,,,,,,,,,,,,,,,,,,1.559,1.393,504.3233529001009,None,,,,,,,,,,,,,,,,,,,,504.86661090003327,505.3683885000646,0.5050122798420489,None,505.3517239000648,505.4684428998735,505.3517239000648,505.4684428998735,505.451789899962,None,c,1,0.30321140005253255,505.451789899962,None,,,,,,,ppxx2,2022_Apr_27_1312,training+cueing,2021.1.4,59.726417162366324,
Friend.png,Stranger,Friend,m,3.2,19,29,99,,,,,1,0,1,0,,,,,3,0,36,5,,,,,,,,,,,,,,,,,,,,,1.728,1.829,505.89125099987723,None,,,,,,,,,,,,,,,,,,,,506.4281136998907,506.9362168998923,0.513016379904002,1.0132982800714672,506.9195342999883,507.03626760002226,506.9195342999883,507.03626760002226,507.0195684998762,None,m,1,0.57546820002608,507.0195684998762,None,,,,,,,ppxx2,2022_Apr_27_1312,training+cueing,2021.1.4,59.726417162366324,
Self.png,Friend,Self ,m,2.1,16,26,96,,,,,1,0,1,0,,,,,3,1,37,1,,,,,,,,,,,,,,,,,,,,,1.675,1.587,507.72704999987036,None,,,,,,,,,,,,,,,,,,,,508.26837849989533,508.77092080004513,0.5055013799574226,1.0057863797992468,508.7541998999659,508.8710731000174,508.7541998999659,508.8710731000174,508.85422009998,None,c,0,0.48475700011476874,508.85422009998,None,,,,,,,ppxx2,2022_Apr_27_1312,training+cueing,2021.1.4,59.726417162366324,
Self.png,You,Self ,c,1,11,21,91,,,,,1,0,1,0,,,,,3,2,38,0,,,,,,,,,,,,,,,,,,,,,1.79,1.737,509.46099100005813,None,,,,,,,,,,,,,,,,,,,,510.00212449999526,510.50540459994227,0.506631979951635,1.0075034799519926,510.48880450008437,510.58883380005136,510.48880450008437,510.58883380005136,510.58883380005136,None,c,1,0.44636940001510084,510.58883380005136,None,,,,,,,ppxx2,2022_Apr_27_1312,training+cueing,2021.1.4,59.726417162366324,
Stranger.png,Stranger,Stranger,c,3,13,23,93,,,,,1,0,1,0,,,,,3,3,39,8,,,,,,,,,,,,,,,,,,,,,1.46,2.179,511.16510339989327,None,,,,,,,,,,,,,,,,,,,,511.7032580000814,512.2067297000904,0.5056569799780846,None,512.1900100999046,512.3067550000269,512.1900100999046,512.3067550000269,512.290046799928,None,c,1,0.3449202999472618,512.290046799928,None,,,,,,,ppxx2,2022_Apr_27_1312,training+cueing,2021.1.4,59.726417162366324,
Stranger.png,Friend,Stranger,m,2.3,17,27,97,,,,,1,0,1,0,,,,,3,4,40,7,,,,,,,,,,,,,,,,,,,,,1.614,1.816,512.762881899951,None,,,,,,,,,,,,,,,,,,,,513.3052934000734,513.8078344000969,0.506308879936114,1.006716979900375,513.79113649996,513.9078931999393,513.79113649996,513.9078931999393,513.8911882999819,None,c,0,0.4438499000389129,513.8911882999819,None,,,,,,,ppxx2,2022_Apr_27_1312,training+cueing,2021.1.4,59.726417162366324,
Self.png,Stranger,Self ,m,3.1,18,28,98,,,,,1,0,1,0,,,,,3,5,41,2,,,,,,,,,,,,,,,,,,,,,1.466,2.302,514.46455959999,None,,,,,,,,,,,,,,,,,,,,515.0119690999854,515.5257584999781,0.5104489799123257,1.0113345799036324,515.5090143000707,515.6258511999622,515.5090143000707,515.6258511999622,515.6090933999512,None,c,0,0.5301954001188278,515.6090933999512,None,,,,,,,ppxx2,2022_Apr_27_1312,training+cueing,2021.1.4,59.726417162366324,
Friend.png,You,Friend,m,1.2,14,24,94,,,,,1,0,1,0,,,,,3,6,42,3,,,,,,,,,,,,,,,,,,,,,1.402,1.677,516.2698337999173,None,,,,,,,,,,,,,,,,,,,,516.8060488000046,517.3105138000101,0.5066913799382746,1.007995679974556,517.2927957000211,517.3938790999819,517.2927957000211,517.3938790999819,517.3938790999819,None,m,1,0.5211416999809444,517.3938790999819,None,,,,,,,ppxx2,2022_Apr_27_1312,training+cueing,2021.1.4,59.726417162366324,
Self.png,You,Self ,c,1,11,21,91,,,,,1,0,1,0,,,,,3,7,43,9,,,,,,,,,,,,,,,,,,,,,1.409,1.675,518.0503587999847,None,,,,,,,,,,,,,,,,,,,,518.5896467000712,519.0949297999032,0.5108879799954593,None,519.0783134000376,519.1784506000113,519.0783134000376,519.1784506000113,519.1784506000113,None,c,1,0.352522199973464,519.1784506000113,None,,,,,,,ppxx2,2022_Apr_27_1312,training+cueing,2021.1.4,59.726417162366324,
Friend.png,Friend,Friend,c,2,12,22,92,,,,,1,0,1,0,,,,,3,8,44,4,,,,,,,,,,,,,,,,,,,,,1.751,1.554,519.6687050000764,None,,,,,,,,,,,,,,,,,,,,520.2187445000745,520.7295371000655,0.5021124798804522,1.0023749799001962,520.7128574999515,520.8296066999901,520.7128574999515,520.8296066999901,520.8130427000578,None,c,1,0.4299293998628855,520.8130427000578,None,,,,,,,ppxx2,2022_Apr_27_1312,training+cueing,2021.1.4,59.726417162366324,
Stranger.png,Stranger,Stranger,c,3,13,23,93,,,,,1,0,1,0,,,,,3,9,45,11,,,,,,,,,,,,,,,,,,,,,1.574,1.48,521.3689143999945,None,,,,,,,,,,,,,,,,,,,,521.9112970998976,522.4140417000744,0.5052369798067957,1.0055406799074262,522.3974031999242,522.5141088999808,522.3974031999242,522.5141088999808,522.4974318000022,None,m,0,0.5214605999644846,522.4974318000022,None,,,,,,,ppxx2,2022_Apr_27_1312,training+cueing,2021.1.4,59.726417162366324,
Friend.png,Friend,Friend,c,2,12,22,92,,,,,1,0,1,0,,,,,3,10,46,10,,,,,,,,,,,,,,,,,,,,,1.416,1.266,523.1541313000489,None,,,,,,,,,,,,,,,,,,,,523.6954415999353,524.1986911999993,0.5067314801272005,1.0070816799998283,524.1819682999048,524.2987033999525,524.1819682999048,524.2987033999525,524.2820363000501,None,m,0,0.705024000024423,524.2820363000501,None,,,,,,,ppxx2,2022_Apr_27_1312,training+cueing,2021.1.4,59.726417162366324,
Stranger.png,You,Stranger,m,1.3,15,25,95,,,,,1,0,1,0,,,,,3,11,47,6,,,,,,,,,,,,,,,,,,,,,1.478,1.64,525.1236481000669,None,,,,,,,,,,,,,,,,,,,,525.6934032998979,526.2001602998935,0.5118011997547001,1.0120631998870522,526.1834626998752,526.2834999999031,526.1834626998752,526.2834999999031,526.2834999999031,None,c,0,0.41544490004889667,526.2834999999031,None,,,,,,,ppxx2,2022_Apr_27_1312,training+cueing,2021.1.4,59.726417162366324,
Friend.png,Stranger,Friend,m,3.2,19,29,99,,,,,1,0,1,0,,,,,4,0,48,5,,,,,,,,,,,,,,,,,,,,,1.562,2.477,526.8235057999846,None,,,,,,,,,,,,,,,,,,,,527.3742660998832,527.8846766999923,0.5049785801675171,1.005166380200535,527.8682579000015,527.9847150000278,527.8682579000015,527.9847150000278,527.9680590999778,None,m,1,0.5868341999594122,527.9680590999778,None,,,,,,,ppxx2,2022_Apr_27_1312,training+cueing,2021.1.4,59.726417162366324,
Friend.png,Friend,Friend,c,2,12,22,92,,,,,1,0,1,0,,,,,4,1,49,4,,,,,,,,,,,,,,,,,,,,,1.76,1.516,528.6908553999383,None,,,,,,,,,,,,,,,,,,,,529.2334016000386,529.7360350000672,0.5059348798822612,1.0061973799020052,529.7193529999349,529.8360703000799,529.7193529999349,529.8360703000799,529.8193864000496,None,m,0,0.5277540001552552,529.8193864000496,None,,,,,,,ppxx2,2022_Apr_27_1312,training+cueing,2021.1.4,59.726417162366324,
Self.png,Stranger,Self ,m,3.1,18,28,98,,,,,1,0,1,0,,,,,4,2,50,2,,,,,,,,,,,,,,,,,,,,,1.579,2.496,530.4968687999062,None,,,,,,,,,,,,,,,,,,,,531.0350110998843,531.5374626999255,0.5027001798152924,1.0034093798603863,531.5208167000674,531.6375468999613,531.5208167000674,531.6375468999613,531.6208387000952,None,m,1,0.40632429998368025,531.6208387000952,None,,,,,,,ppxx2,2022_Apr_27_1312,training+cueing,2021.1.4,59.726417162366324,
Self.png,You,Self ,c,1,11,21,91,,,,,1,0,1,0,,,,,4,3,51,0,,,,,,,,,,,,,,,,,,,,,1.716,2.057,532.1644808999263,None,,,,,,,,,,,,,,,,,,,,532.7035219999962,533.2051683000755,0.5032766798976809,1.0042250799015164,533.1885233998764,533.2885825999547,533.1885233998764,533.2885825999547,533.2885825999547,None,c,1,0.4186778999865055,533.2885825999547,None,,,,,,,ppxx2,2022_Apr_27_1312,training+cueing,2021.1.4,59.726417162366324,
Stranger.png,You,Stranger,m,1.3,15,25,95,,,,,1,0,1,0,,,,,4,4,52,6,,,,,,,,,,,,,,,,,,,,,1.745,1.89,533.8324170999695,None,,,,,,,,,,,,,,,,,,,,534.3679718999192,534.8730591000058,0.506965679815039,1.0072193800006062,534.856374300085,534.9564487999305,534.856374300085,534.9564487999305,534.9564487999305,None,m,1,0.47847660002298653,534.9564487999305,None,,,,,,,ppxx2,2022_Apr_27_1312,training+cueing,2021.1.4,59.726417162366324,
Self.png,You,Self ,c,1,11,21,91,,,,,1,0,1,0,,,,,4,5,53,9,,,,,,,,,,,,,,,,,,,,,1.48,2.488,535.5629157000221,None,,,,,,,,,,,,,,,,,,,,536.1152488999069,536.6243527999613,0.5036793798208237,1.0039557798299938,536.6076984000392,536.7077408998739,536.6076984000392,536.7077408998739,536.7077408998739,None,m,0,0.8871491001918912,536.7077408998739,None,,,,,,,ppxx2,2022_Apr_27_1312,training+cueing,2021.1.4,59.726417162366324,
Stranger.png,Stranger,Stranger,c,3,13,23,93,,,,,1,0,1,0,,,,,4,6,54,11,,,,,,,,,,,,,,,,,,,,,1.785,1.91,537.7307517000008,None,,,,,,,,,,,,,,,,,,,,538.3360256000888,538.8425668999553,0.5135331198107451,None,538.8259286000393,538.9425947000273,538.8259286000393,538.9425947000273,538.9259476999287,None,c,1,0.33294840017333627,538.9259476999287,None,,,,,,,ppxx2,2022_Apr_27_1312,training+cueing,2021.1.4,59.726417162366324,
Stranger.png,Stranger,Stranger,c,3,13,23,93,,,,,1,0,1,0,,,,,4,7,55,8,,,,,,,,,,,,,,,,,,,,,1.627,2.437,539.3831815999001,None,,,,,,,,,,,,,,,,,,,,539.920688400045,540.4270846000873,0.5105263800360262,1.0108274798840284,540.4103884000797,540.5271544000134,540.4103884000797,540.5271544000134,540.5104306999128,None,c,1,0.4284958001226187,540.5104306999128,None,,,,,,,ppxx2,2022_Apr_27_1312,training+cueing,2021.1.4,59.726417162366324,
Stranger.png,Friend,Stranger,m,2.3,17,27,97,,,,,1,0,1,0,,,,,4,8,56,7,,,,,,,,,,,,,,,,,,,,,1.58,2.288,541.0669706000481,None,,,,,,,,,,,,,,,,,,,,541.6120321000926,542.1116279000416,0.5006069799419492,1.000884379958734,542.0949766999111,542.2116674999706,542.0949766999111,542.2116674999706,542.2116674999706,None,c,0,0.4231731998734176,542.2116674999706,None,,,,,,,ppxx2,2022_Apr_27_1312,training+cueing,2021.1.4,59.726417162366324,
Self.png,Friend,Self ,m,2.1,16,26,96,,,,,1,0,1,0,,,,,4,9,57,1,,,,,,,,,,,,,,,,,,,,,1.713,1.724,542.7684206999838,None,,,,,,,,,,,,,,,,,,,,543.3079496999271,543.8128158999607,0.5105164800770581,None,543.7962279000785,543.9128898999188,543.7962279000785,543.9128898999188,543.8962534000166,None,c,0,0.35457310010679066,543.8962534000166,None,,,,,,,ppxx2,2022_Apr_27_1312,training+cueing,2021.1.4,59.726417162366324,
Friend.png,Friend,Friend,c,2,12,22,92,,,,,1,0,1,0,,,,,4,10,58,10,,,,,,,,,,,,,,,,,,,,,1.406,1.522,544.3859389000572,None,,,,,,,,,,,,,,,,,,,,544.924378799973,545.4306846000254,0.5112585797905922,1.0115635797847062,545.4139892000239,545.5307354000397,545.4139892000239,545.5307354000397,545.5140482001007,None,m,0,0.5767940999940038,545.5140482001007,None,,,,,,,ppxx2,2022_Apr_27_1312,training+cueing,2021.1.4,59.726417162366324,
Friend.png,You,Friend,m,1.2,14,24,94,,,,,1,0,1,0,,,,,4,11,59,3,,,,,,,,,,,,,,,,,,,,,1.773,2.438,546.2206303998828,None,,,,,,,,,,,,,,,,,,,,546.7829382000491,547.2820478000212,0.49928763997741044,0.999498340068385,547.2654130000155,547.3654650999233,547.2654130000155,547.3654650999233,547.3654650999233,None,m,1,0.5974500000011176,547.3654650999233,None,,,,,,,ppxx2,2022_Apr_27_1312,training+cueing,2021.1.4,59.726417162366324,
Stranger.png,You,Stranger,m,1.3,15,25,95,,,,,1,0,1,0,,,,,5,0,60,6,,,,,,,,,,,,,,,,,,,,,1.772,1.495,548.088849300053,None,,,,,,,,,,,,,,,,,,,,548.6264508999884,549.1335444001015,0.5113774798810482,None,549.1173513000831,549.2167348999064,549.1173513000831,549.2167348999064,549.2167348999064,None,c,0,0.2980361001100391,549.2167348999064,None,,,,,,,ppxx2,2022_Apr_27_1312,training+cueing,2021.1.4,59.726417162366324,
Stranger.png,Friend,Stranger,m,2.3,17,27,97,,,,,1,0,1,0,,,,,5,1,61,7,,,,,,,,,,,,,,,,,,,,,1.614,1.656,549.6400546999648,None,,,,,,,,,,,,,,,,,,,,550.1907581000123,550.7011784000788,0.5036261801142246,1.003901680232957,550.6844840000849,550.8012321998831,550.6844840000849,550.8012321998831,550.7845095999073,None,c,0,0.42643440002575517,550.7845095999073,None,,,,,,,ppxx2,2022_Apr_27_1312,training+cueing,2021.1.4,59.726417162366324,
Self.png,Friend,Self ,m,2.1,16,26,96,,,,,1,0,1,0,,,,,5,2,62,1,,,,,,,,,,,,,,,,,,,,,1.736,1.743,551.3412520000711,None,,,,,,,,,,,,,,,,,,,,551.8811574999709,552.3857374000363,0.5096137798391283,1.0099174797069281,552.3690116999205,552.4857469999697,552.3690116999205,552.4857469999697,552.4690376999788,None,m,1,0.4858268001116812,552.4690376999788,None,,,,,,,ppxx2,2022_Apr_27_1312,training+cueing,2021.1.4,59.726417162366324,
Friend.png,You,Friend,m,1.2,14,24,94,,,,,1,0,1,0,,,,,5,3,63,3,,,,,,,,,,,,,,,,,,,,,1.633,1.801,553.0917261000723,None,,,,,,,,,,,,,,,,,,,,553.6313974000514,554.1370119999629,0.5085743798408657,1.0088737797923386,554.1202960000373,554.2203335000668,554.1202960000373,554.2203335000668,554.2203335000668,None,m,1,0.5265822000801563,554.2203335000668,None,,,,,,,ppxx2,2022_Apr_27_1312,training+cueing,2021.1.4,59.726417162366324,
Stranger.png,Stranger,Stranger,c,3,13,23,93,,,,,1,0,1,0,,,,,5,4,64,11,,,,,,,,,,,,,,,,,,,,,1.655,1.645,554.8769376999699,None,,,,,,,,,,,,,,,,,,,,555.4243119999301,555.9382076000329,0.5115196797996759,None,555.9216134999879,556.0383381999563,555.9216134999879,556.0383381999563,556.0216401000507,None,c,1,0.3092847000807524,556.0216401000507,None,,,,,,,ppxx2,2022_Apr_27_1312,training+cueing,2021.1.4,59.726417162366324,
Friend.png,Friend,Friend,c,2,12,22,92,,,,,1,0,1,0,,,,,5,5,65,10,,,,,,,,,,,,,,,,,,,,,1.423,1.939,556.4614760000259,None,,,,,,,,,,,,,,,,,,,,557.0041264998727,557.5060832998715,0.5055587799288332,None,557.4894163000863,557.6061227000318,557.4894163000863,557.6061227000318,557.5894557998981,None,c,1,0.3093695000279695,557.5894557998981,None,,,,,,,ppxx2,2022_Apr_27_1312,training+cueing,2021.1.4,59.726417162366324,
Self.png,Stranger,Self ,m,3.1,18,28,98,,,,,1,0,1,0,,,,,5,6,66,2,,,,,,,,,,,,,,,,,,,,,1.788,2.392,558.0288527999073,None,,,,,,,,,,,,,,,,,,,,558.5703185000457,559.0738478000276,0.5044143798295408,None,559.0572069999762,559.1739316999447,559.0572069999762,559.1739316999447,559.157243900001,None,m,1,0.3257581000216305,559.157243900001,None,,,,,,,ppxx2,2022_Apr_27_1312,training+cueing,2021.1.4,59.726417162366324,
Self.png,You,Self ,c,1,11,21,91,,,,,1,0,1,0,,,,,5,7,67,0,,,,,,,,,,,,,,,,,,,,,1.621,1.227,559.6135380000342,None,,,,,,,,,,,,,,,,,,,,560.1692617998924,560.6750698999967,0.5124702400062233,None,560.6583791999146,560.7584138999227,560.6583791999146,560.7584138999227,560.7584138999227,None,c,1,0.30850599985569715,560.7584138999227,None,,,,,,,ppxx2,2022_Apr_27_1312,training+cueing,2021.1.4,59.726417162366324,
Friend.png,Friend,Friend,c,2,12,22,92,,,,,1,0,1,0,,,,,5,8,68,4,,,,,,,,,,,,,,,,,,,,,1.663,1.895,561.1978197998833,None,,,,,,,,,,,,,,,,,,,,561.7540732999332,562.2595365000889,0.5100890400353819,1.010356139857322,562.242881800048,562.3595576998778,562.242881800048,562.3595576998778,562.3431206000969,None,m,0,0.5476739001460373,562.3431206000969,None,,,,,,,ppxx2,2022_Apr_27_1312,training+cueing,2021.1.4,59.726417162366324,
Friend.png,Stranger,Friend,m,3.2,19,29,99,,,,,1,0,1,0,,,,,5,9,69,5,,,,,,,,,,,,,,,,,,,,,1.51,2.232,563.0160004999489,None,,,,,,,,,,,,,,,,,,,,563.5593409999274,564.0608202000149,0.5041786800138652,1.00447578006424,564.0441441000439,564.160884700017,564.0441441000439,564.160884700017,564.1441667000763,None,m,1,0.5067205999512225,564.1441667000763,None,,,,,,,ppxx2,2022_Apr_27_1312,training+cueing,2021.1.4,59.726417162366324,
Stranger.png,Stranger,Stranger,c,3,13,23,93,,,,,1,0,1,0,,,,,5,10,70,8,,,,,,,,,,,,,,,,,,,,,1.446,1.684,564.7842127000913,None,,,,,,,,,,,,,,,,,,,,565.3222181000747,565.8287442999426,0.5135738800745457,None,565.8120891998988,565.928800499998,565.8120891998988,565.928800499998,565.9121137999464,None,c,1,0.32303930004127324,565.9121137999464,None,,,,,,,ppxx2,2022_Apr_27_1312,training+cueing,2021.1.4,59.726417162366324,
Self.png,You,Self ,c,1,11,21,91,,,,,1,0,1,0,,,,,5,11,71,9,,,,,,,,,,,,,,,,,,,,,1.563,1.218,566.3690847998951,None,,,,,,,,,,,,,,,,,,,,566.9085258000996,567.413231600076,0.5070806799922138,1.0073846799787134,567.3965716999955,567.4966118000448,567.3965716999955,567.4966118000448,567.4966118000448,None,c,1,0.6902795000933111,567.4966118000448,None,,,,,,,ppxx2,2022_Apr_27_1312,training+cueing,2021.1.4,59.726417162366324,
Self.png,You,Self ,c,1,11,21,91,,,,,1,0,1,0,,,,,6,0,72,9,,,,,,,,,,,,,,,,,,,,,1.773,1.773,568.3211846000049,None,,,,,,,,,,,,,,,,,,,,568.8590669000987,569.3646501000039,0.5113096798304468,1.0116311798337847,569.3479341999628,569.44800939993,569.3479341999628,569.44800939993,569.44800939993,None,m,0,0.4988777998369187,569.44800939993,None,,,,,,,ppxx2,2022_Apr_27_1312,training+cueing,2021.1.4,59.726417162366324,
Friend.png,Friend,Friend,c,2,12,22,92,,,,,1,0,1,0,,,,,6,1,73,10,,,,,,,,,,,,,,,,,,,,,1.747,2.5,570.0707258998882,None,,,,,,,,,,,,,,,,,,,,570.6132932999171,571.115895899944,0.5063884798437357,None,571.0992369998712,571.2159553999081,571.0992369998712,571.2159553999081,571.1992788000498,None,c,1,0.3796717000659555,571.1992788000498,None,,,,,,,ppxx2,2022_Apr_27_1312,training+cueing,2021.1.4,59.726417162366324,
Stranger.png,Stranger,Stranger,c,3,13,23,93,,,,,1,0,1,0,,,,,6,2,74,11,,,,,,,,,,,,,,,,,,,,,1.569,2.473,571.7055883998983,None,,,,,,,,,,,,,,,,,,,,572.2478016000241,572.7504326000344,0.5045203799381852,None,572.7337960998993,572.850505999988,572.7337960998993,572.850505999988,572.833776100073,None,m,0,0.3131679000798613,572.833776100073,None,,,,,,,ppxx2,2022_Apr_27_1312,training+cueing,2021.1.4,59.726417162366324,
Self.png,You,Self ,c,1,11,21,91,,,,,1,0,1,0,,,,,6,3,75,0,,,,,,,,,,,,,,,,,,,,,1.47,1.959,573.273877199972,None,,,,,,,,,,,,,,,,,,,,573.8158980999142,574.3182055999059,0.506603579968214,1.0069058800581843,574.3015453999396,574.4016017999966,574.3015453999396,574.4016017999966,574.4016017999966,None,c,1,0.6334125001449138,574.4016017999966,None,,,,,,,ppxx2,2022_Apr_27_1312,training+cueing,2021.1.4,59.726417162366324,
Friend.png,Friend,Friend,c,2,12,22,92,,,,,1,0,1,0,,,,,6,4,76,4,,,,,,,,,,,,,,,,,,,,,1.755,1.426,575.1616841000505,None,,,,,,,,,,,,,,,,,,,,575.7012489000335,576.2029194999486,0.5026083800476044,1.0029007799457759,576.1862572999671,576.3029465998989,576.1862572999671,576.3029465998989,576.2863034999464,None,m,0,0.5565144999418408,576.2863034999464,None,,,,,,,ppxx2,2022_Apr_27_1312,training+cueing,2021.1.4,59.726417162366324,
Stranger.png,Stranger,Stranger,c,3,13,23,93,,,,,1,0,1,0,,,,,6,5,77,8,,,,,,,,,,,,,,,,,,,,,1.485,1.766,576.9758057999425,None,,,,,,,,,,,,,,,,,,,,577.5190377000254,578.0208850000054,0.5054507798049599,1.0060439798980951,578.0042650999967,578.1209827999119,578.0042650999967,578.1209827999119,578.1042736000381,None,c,1,0.38675619987770915,578.1042736000381,None,,,,,,,ppxx2,2022_Apr_27_1312,training+cueing,2021.1.4,59.726417162366324,
Self.png,Stranger,Self ,m,3.1,18,28,98,,,,,1,0,1,0,,,,,6,6,78,2,,,,,,,,,,,,,,,,,,,,,1.739,2.098,578.6290897000581,None,,,,,,,,,,,,,,,,,,,,579.167081899941,579.672030699905,0.5091531798243523,1.009497179882601,579.6553917001002,579.7721144999377,579.6553917001002,579.7721144999377,579.7554617999122,None,None,0,,579.7554617999122,None,,,,,,,ppxx2,2022_Apr_27_1312,training+cueing,2021.1.4,59.726417162366324,
Stranger.png,Friend,Stranger,m,2.3,17,27,97,,,,,1,0,1,0,,,,,6,7,79,7,,,,,,,,,,,,,,,,,,,,,1.745,2.169,581.6122516000178,None,,,,,,,,,,,,,,,,,,,,582.1531565000769,582.657618300058,0.5060697798617184,None,582.6409716999624,582.7576691000722,582.6409716999624,582.7576691000722,582.7409582000691,None,c,0,0.34182029985822737,582.7409582000691,None,,,,,,,ppxx2,2022_Apr_27_1312,training+cueing,2021.1.4,59.726417162366324,
Friend.png,Stranger,Friend,m,3.2,19,29,99,,,,,1,0,1,0,,,,,6,8,80,5,,,,,,,,,,,,,,,,,,,,,1.695,1.49,583.2157980999909,None,,,,,,,,,,,,,,,,,,,,583.7564942999743,584.2587073999457,0.5038686802145094,1.0041841801721603,584.2420329998713,584.358808199875,584.2420329998713,584.358808199875,584.3420515998732,None,m,1,0.4848346000071615,584.3420515998732,None,,,,,,,ppxx2,2022_Apr_27_1312,training+cueing,2021.1.4,59.726417162366324,
Stranger.png,You,Stranger,m,1.3,15,25,95,,,,,1,0,1,0,,,,,6,9,81,6,,,,,,,,,,,,,,,,,,,,,1.631,2.283,584.9484872999601,None,,,,,,,,,,,,,,,,,,,,585.51167050004,586.0267590999138,0.515058440156281,1.0154037401080132,586.0101302999537,586.1102211000398,586.0101302999537,586.1102211000398,586.1102211000398,None,c,0,0.41275679995305836,586.1102211000398,None,,,,,,,ppxx2,2022_Apr_27_1312,training+cueing,2021.1.4,59.726417162366324,
Friend.png,You,Friend,m,1.2,14,24,94,,,,,1,0,1,0,,,,,6,10,82,3,,,,,,,,,,,,,,,,,,,,,1.597,2.396,586.6510429999325,None,,,,,,,,,,,,,,,,,,,,587.1894419998862,587.6945585999638,0.5083288797177374,1.0086248798761517,587.6778432999272,587.7779286999721,587.6778432999272,587.7779286999721,587.7779286999721,None,m,1,0.42501240014098585,587.7779286999721,None,,,,,,,ppxx2,2022_Apr_27_1312,training+cueing,2021.1.4,59.726417162366324,
Self.png,Friend,Self ,m,2.1,16,26,96,,,,,1,0,1,0,,,,,6,11,83,1,,,,,,,,,,,,,,,,,,,,,1.57,1.287,588.3344062999822,None,,,,,,,,,,,,,,,,,,,,588.8993675999809,589.412799499929,0.5109173399396241,None,589.3961799999233,589.5129060999025,589.3961799999233,589.5129060999025,589.4962257998995,None,c,0,0.3230685999151319,589.4962257998995,None,,,,,,,ppxx2,2022_Apr_27_1312,training+cueing,2021.1.4,59.726417162366324,
Self.png,You,Self ,c,1,11,21,91,,,,,1,0,1,0,,,,,7,0,84,9,,,,,,,,,,,,,,,,,,,,,1.452,2.144,589.9536760000046,None,,,,,,,,,,,,,,,,,,,,590.4956296999007,590.996914899908,0.5015676799230278,1.0019126799888909,590.980277299881,591.0803080999758,590.980277299881,591.0803080999758,591.0803080999758,None,m,0,0.4985630000010133,591.0803080999758,None,,,,,,,ppxx2,2022_Apr_27_1312,training+cueing,2021.1.4,59.726417162366324,
