Image,Name,Face,CorrAns,Match,Face_onset,CResponse_onset,IResponse_onset,Match.thisRepN,Match.thisTrialN,Match.thisN,Match.thisIndex,Blocks.thisRepN,Blocks.thisTrialN,Blocks.thisN,Blocks.thisIndex,trials.thisRepN,trials.thisTrialN,trials.thisN,trials.thisIndex,trials_2.thisRepN,trials_2.thisTrialN,trials_2.thisN,trials_2.thisIndex,text.started,text.stopped,p1.started,p1.stopped,MatchInstructions.started,MatchInstructions.stopped,Name1.started,Name1.stopped,Face_Relevance.started,Face_Relevance.stopped,MismatchInstructions.started,MismatchInstructions.stopped,Rest_trainingInstruct.started,Rest_trainingInstruct.stopped,next8.keys,next8.rt,next8.started,next8.stopped,Ready.started,Ready.stopped,delay_one_picked,delay_two_picked,blank0.started,blank0.stopped,FixationCross1.started,FixationCross1.stopped,Name3.started,Name3.stopped,Face_Relevance3.started,Face_Relevance3.stopped,responseTime.started,responseTime.stopped,resp.keys,resp.corr,resp.rt,resp.started,resp.stopped,Accuracy.started,Accuracy.stopped,questions.started,questions.stopped,p2.started,p2.stopped,FixationCross3.started,FixationCross3.stopped,port_Face_onset.started,port_Face_onset.stopped,Name4.started,Name4.stopped,Face_Relevance4.started,Face_Relevance4.stopped,responseTime2.started,responseTime2.stopped,Response.keys,Response.corr,Response.rt,Response.started,Response.stopped,p3.started,p3.stopped,Finish.started,Finish.stopped,gender,age,participant,date,expName,psychopyVersion,frameRate,
Self.png,You,,,,,,,0,0,0,0,,,,,,,,,,,,,11.933054599998286,None,0.009622079989640042,0.5351943799760193,13.910903799987864,None,16.054533599992283,None,16.054533599992283,None,,,,,,,,,,,,,,,,,,,,,,,,,,,,,,,,,,,,,,,,,,,,,,,,,,,,,,,pq3,2022_Apr_15_1411,training+cueing,2021.1.4,59.98375639728381,
Stranger.png,Stranger,,,,,,,0,1,1,2,,,,,,,,,,,,,,,,,,,35.96836739999708,None,35.96836739999708,None,,,,,,,,,,,,,,,,,,,,,,,,,,,,,,,,,,,,,,,,,,,,,,,,,,,,,,,pq3,2022_Apr_15_1411,training+cueing,2021.1.4,59.98375639728381,
Friend.png,Friend,,,,,,,0,2,2,1,,,,,,,,,,,,,,,,,,,55.9600153999927,None,55.9600153999927,None,,,,,,,,,,,,,,,,,,,,,,,,,,,,,,,,,,,,,,,,,,,,,,,,,,,,,,,pq3,2022_Apr_15_1411,training+cueing,2021.1.4,59.98375639728381,
Stranger.png,Stranger,Stranger,c,3,13,23,93,,,,,0,0,0,0,0,0,0,8,,,,,,,,,,,,,,,75.92272319999756,None,83.51125559999491,None,space,0.7673028999997769,2.0083664400153793,None,86.28021029999945,None,1.632,2.072,89.29375069998787,None,89.92370719998144,90.43320249998942,90.41653469999437,90.5332726999768,90.41653469999437,90.5332726999768,90.5332726999768,None,m,0,0.9437947999977041,90.5332726999768,None,91.51602819998516,None,,,,,,,,,,,,,,,,,,,,,,,,,,pq3,2022_Apr_15_1411,training+cueing,2021.1.4,59.98375639728381,
Friend.png,Friend,Friend,c,2,12,22,92,,,,,0,0,0,0,0,1,1,10,,,,,,,,,,,,,,,,,,,,,,,,,1.557,2.307,91.91745269999956,None,92.44847119998303,92.95153479999863,92.93484349999926,93.05158249998931,92.93484349999926,93.05158249998931,93.03485719999298,None,c,1,0.8739828999969177,93.03485719999298,None,93.93465640000068,None,,,,,,,,,,,,,,,,,,,,,,,,,,pq3,2022_Apr_15_1411,training+cueing,2021.1.4,59.98375639728381,
Self.png,You,Self ,c,1,11,21,91,,,,,0,0,0,0,0,2,2,9,,,,,,,,,,,,,,,,,,,,,,,,,1.653,1.657,94.33640019997256,None,94.87788699998055,95.38671779999277,95.35325289997854,95.45329179998953,95.35325289997854,95.45329179998953,95.45329179998953,None,c,1,0.7756079999962822,95.45329179998953,None,96.2524578999728,None,,,,,,,,,,,,,,,,,,,,,,,,,,pq3,2022_Apr_15_1411,training+cueing,2021.1.4,59.98375639728381,
Stranger.png,Friend,Stranger,m,2.3,17,27,97,,,,,0,0,0,0,0,3,3,7,,,,,,,,,,,,,,,,,,,,,,,,,1.778,1.721,96.65436839999165,None,97.19132019998506,97.704985999997,97.68828099998063,97.80500969997956,97.68828099998063,97.80500969997956,97.78830279997783,None,m,1,1.2885718999896199,97.78830279997783,None,99.10467259999132,None,,,,,,,,,,,,,,,,,,,,,,,,,,pq3,2022_Apr_15_1411,training+cueing,2021.1.4,59.98375639728381,
Friend.png,Stranger,Friend,m,3.2,19,29,99,,,,,0,0,0,0,0,4,4,5,,,,,,,,,,,,,,,,,,,,,,,,,1.78,1.29,99.50640109999222,None,100.04393279997748,100.55704559999867,100.54033629997866,100.65707579997252,100.54033629997866,100.65707579997252,100.64035779997357,None,m,1,1.3164434999926016,100.64035779997357,None,101.97474749997491,None,,,,,,,,,,,,,,,,,,,,,,,,,,pq3,2022_Apr_15_1411,training+cueing,2021.1.4,59.98375639728381,
Stranger.png,Stranger,Stranger,c,3,13,23,93,,,,,0,0,0,0,0,5,5,11,,,,,,,,,,,,,,,,,,,,,,,,,1.625,1.562,102.37499809998553,None,102.90523259999463,103.40909799997462,103.39239999998244,103.50911719998112,103.39239999998244,103.50911719998112,103.49240589997498,None,m,0,1.2804219999816269,103.49240589997498,None,104.79427519999444,None,,,,,,,,,,,,,,,,,,,,,,,,,,pq3,2022_Apr_15_1411,training+cueing,2021.1.4,59.98375639728381,
Friend.png,You,Friend,m,1.2,14,24,94,,,,,0,0,0,0,0,6,6,3,,,,,,,,,,,,,,,,,,,,,,,,,1.745,2.402,105.19373259998974,None,105.72683049997431,106.22778009998729,106.21104379999451,106.31114209999214,106.21104379999451,106.31114209999214,106.31114209999214,None,c,0,1.4216753000218887,106.31114209999214,None,107.76252999997814,None,,,,,,,,,,,,,,,,,,,,,,,,,,pq3,2022_Apr_15_1411,training+cueing,2021.1.4,59.98375639728381,
Stranger.png,You,Stranger,m,1.3,15,25,95,,,,,0,0,0,0,0,7,7,6,,,,,,,,,,,,,,,,,,,,,,,,,1.764,1.743,108.16267449999577,None,108.69797729997663,109.21333629998844,109.19656649997341,109.29664609997417,109.19656649997341,109.29664609997417,109.29664609997417,None,None,0,,109.29664609997417,None,111.06459080000059,None,,,,,,,,,,,,,,,,,,,,,,,,,,pq3,2022_Apr_15_1411,training+cueing,2021.1.4,59.98375639728381,
Friend.png,Friend,Friend,c,2,12,22,92,,,,,0,0,0,0,0,8,8,4,,,,,,,,,,,,,,,,,,,,,,,,,1.402,1.343,111.46510889998171,None,112.00663339998573,112.51567609998165,112.49897559999954,112.61572239999077,112.49897559999954,112.61572239999077,112.59900949997245,None,c,1,1.0858093999850098,112.59900949997245,None,113.71657709998544,None,,,,,,,,,,,,,,,,,,,,,,,,,,pq3,2022_Apr_15_1411,training+cueing,2021.1.4,59.98375639728381,
Self.png,Stranger,Self ,m,3.1,18,28,98,,,,,0,0,0,0,0,9,9,2,,,,,,,,,,,,,,,,,,,,,,,,,1.652,2.191,114.11678429998574,None,114.64791529998183,115.15088189998642,115.13423519997741,115.25090849999106,115.13423519997741,115.25090849999106,115.23425979999593,None,c,0,1.394578100007493,115.23425979999593,None,116.6525271999999,None,,,,,,,,,,,,,,,,,,,,,,,,,,pq3,2022_Apr_15_1411,training+cueing,2021.1.4,59.98375639728381,
Self.png,You,Self ,c,1,11,21,91,,,,,0,0,0,0,0,10,10,0,,,,,,,,,,,,,,,,,,,,,,,,,1.511,1.355,117.05283000000054,None,117.58095489998232,118.0863679999893,118.06970609998098,118.16972669999814,118.06970609998098,118.16972669999814,118.16972669999814,None,c,1,1.051166099990951,118.16972669999814,None,119.23609489999944,None,,,,,,,,,,,,,,,,,,,,,,,,,,pq3,2022_Apr_15_1411,training+cueing,2021.1.4,59.98375639728381,
Self.png,Friend,Self ,m,2.1,16,26,96,,,,,0,0,0,0,0,11,11,1,,,,,,,,,,,,,,,,,,,,,,,,,1.439,2.45,119.63763610000024,None,120.17132409999613,120.67153149997466,120.67153149997466,120.77156129997456,120.67153149997466,120.77156129997456,120.77156129997456,None,None,0,,120.77156129997456,None,122.22069369998644,None,,,,,,,,,,,,,,,,,,,,,,,,,,pq3,2022_Apr_15_1411,training+cueing,2021.1.4,59.98375639728381,
Self.png,Friend,Self ,m,2.1,16,26,96,,,,,0,0,0,0,,,,,0,0,0,1,,,,,,,,,,,,,,,,,,,150.37650129999383,None,1.546,1.762,153.892297399987,None,,,,,,,,,,,,,,,,122.6229782999726,None,0.014755339972907677,None,154.5157876999874,155.02982939998037,0.5098375600355212,1.0099528600403573,155.01316669999505,155.12988509997376,155.01316669999505,155.12988509997376,155.11321409998345,None,c,0,1.291485499998089,155.11321409998345,None,,,,,,,pq3,2022_Apr_15_1411,training+cueing,2021.1.4,59.98375639728381,
Self.png,Stranger,Self ,m,3.1,18,28,98,,,,,0,0,0,0,,,,,0,1,1,2,,,,,,,,,,,,,,,,,,,,,1.793,2.284,156.5382425999851,None,,,,,,,,,,,,,,,,,,,,157.08172349998495,157.5815665999835,0.5003397200198378,1.0006181200151332,157.56487049997668,157.68161379999947,157.56487049997668,157.68161379999947,157.68161379999947,None,m,1,1.6672274000011384,157.68161379999947,None,,,,,,,pq3,2022_Apr_15_1411,training+cueing,2021.1.4,59.98375639728381,
Friend.png,Stranger,Friend,m,3.2,19,29,99,,,,,0,0,0,0,,,,,0,2,2,5,,,,,,,,,,,,,,,,,,,,,1.744,2.236,159.47406739997678,None,,,,,,,,,,,,,,,,,,,,160.0160050999839,160.51696189999348,0.5010580200178083,1.0019247200107202,160.5003370999766,160.61702559998957,160.5003370999766,160.61702559998957,160.61702559998957,None,m,1,1.163741199998185,160.61702559998957,None,,,,,,,pq3,2022_Apr_15_1411,training+cueing,2021.1.4,59.98375639728381,
Friend.png,You,Friend,m,1.2,14,24,94,,,,,0,0,0,0,,,,,0,3,3,3,,,,,,,,,,,,,,,,,,,,,1.523,1.849,161.90764900000067,None,,,,,,,,,,,,,,,,,,,,162.45011899998644,162.9520628999744,0.5026524199638516,1.0029572199855465,162.93542309998884,163.0354454999906,162.93542309998884,163.0354454999906,163.0354454999906,None,c,0,1.3853039999958128,163.0354454999906,None,,,,,,,pq3,2022_Apr_15_1411,training+cueing,2021.1.4,59.98375639728381,
Stranger.png,Stranger,Stranger,c,3,13,23,93,,,,,0,0,0,0,,,,,0,4,4,11,,,,,,,,,,,,,,,,,,,,,1.575,1.608,164.5430527999997,None,,,,,,,,,,,,,,,,,,,,165.11367299998528,165.62065889997757,0.4991226000129245,0.9994251000171062,165.587308999995,165.68737199998577,165.587308999995,165.68737199998577,165.68737199998577,None,None,0,,165.68737199998577,None,,,,,,,pq3,2022_Apr_15_1411,training+cueing,2021.1.4,59.98375639728381,
Self.png,You,Self ,c,1,11,21,91,,,,,0,0,0,0,,,,,0,5,5,9,,,,,,,,,,,,,,,,,,,,,1.517,1.233,167.37605439999606,None,,,,,,,,,,,,,,,,,,,,167.91854269997566,168.4227018999809,0.5068538199993782,1.0071225200081244,168.40602219998254,168.50613709999016,168.40602219998254,168.50613709999016,168.50613709999016,None,c,1,1.3226063000038266,168.50613709999016,None,,,,,,,pq3,2022_Apr_15_1411,training+cueing,2021.1.4,59.98375639728381,
Stranger.png,Friend,Stranger,m,2.3,17,27,97,,,,,0,0,0,0,,,,,0,6,6,7,,,,,,,,,,,,,,,,,,,,,1.407,2.238,169.96364370000083,None,,,,,,,,,,,,,,,,,,,,170.5043383000011,171.00792989999172,0.5057782200165093,1.0060183200112078,170.99128719998407,171.10790869998164,170.99128719998407,171.10790869998164,171.0912902999844,None,None,0,,171.0912902999844,None,,,,,,,pq3,2022_Apr_15_1411,training+cueing,2021.1.4,59.98375639728381,
Self.png,You,Self ,c,1,11,21,91,,,,,0,0,0,0,,,,,0,7,7,0,,,,,,,,,,,,,,,,,,,,,1.482,1.242,172.61449719997472,None,,,,,,,,,,,,,,,,,,,,173.15647359998547,173.65981899999315,0.5064413199725095,1.0067242199729662,173.64315669998177,173.74320229998557,173.64315669998177,173.74320229998557,173.74320229998557,None,c,1,1.2694779000012204,173.74320229998557,None,,,,,,,pq3,2022_Apr_15_1411,training+cueing,2021.1.4,59.98375639728381,
Stranger.png,Stranger,Stranger,c,3,13,23,93,,,,,0,0,0,0,,,,,0,8,8,8,,,,,,,,,,,,,,,,,,,,,1.605,2.49,175.13409300000058,None,,,,,,,,,,,,,,,,,,,,175.6743160999904,176.1783066999924,0.5048570199869573,1.0051493200007826,176.16164690000005,176.27834359998815,176.16164690000005,176.27834359998815,176.26166069999454,None,None,0,,176.26166069999454,None,,,,,,,pq3,2022_Apr_15_1411,training+cueing,2021.1.4,59.98375639728381,
Friend.png,Friend,Friend,c,2,12,22,92,,,,,0,0,0,0,,,,,0,9,9,10,,,,,,,,,,,,,,,,,,,,,1.708,2.125,177.98387109997566,None,,,,,,,,,,,,,,,,,,,,178.52725919999648,179.03038109999034,0.5053271199867595,1.0055717199866194,179.0136896999902,179.13040189997992,179.0136896999902,179.13040189997992,179.11373359998106,None,None,0,,179.11373359998106,None,,,,,,,pq3,2022_Apr_15_1411,training+cueing,2021.1.4,59.98375639728381,
Stranger.png,You,Stranger,m,1.3,15,25,95,,,,,0,0,0,0,,,,,0,10,10,6,,,,,,,,,,,,,,,,,,,,,1.737,2.287,180.93591559998458,None,,,,,,,,,,,,,,,,,,,,181.4781929999881,181.98272699999507,0.5090062200033572,1.0093342199979816,181.9660074999847,182.06609909998951,181.9660074999847,182.06609909998951,182.06609909998951,None,None,0,,182.06609909998951,None,,,,,,,pq3,2022_Apr_15_1411,training+cueing,2021.1.4,59.98375639728381,
Friend.png,Friend,Friend,c,2,12,22,92,,,,,0,0,0,0,,,,,0,11,11,4,,,,,,,,,,,,,,,,,,,,,1.744,1.591,183.9222759999975,None,,,,,,,,,,,,,,,,,,,,184.46449329997995,184.96801539999433,0.5053497200133279,1.0056088200071827,184.95135259997915,185.06804489999195,184.95135259997915,185.06804489999195,185.05136589999893,None,None,0,,185.05136589999893,None,,,,,,,pq3,2022_Apr_15_1411,training+cueing,2021.1.4,59.98375639728381,
Stranger.png,Stranger,Stranger,c,3,13,23,93,,,,,0,0,0,0,,,,,1,0,12,8,,,,,,,,,,,,,,,,,,,,,1.463,2.461,186.90709149997565,None,,,,,,,,,,,,,,,,,,,,187.46437509998213,187.97017589997267,0.5112805599637795,1.0121521599648986,187.9534923999745,188.0701957999845,187.9534923999745,188.0701957999845,188.0535389999859,None,c,1,1.1832179000193719,188.0535389999859,None,,,,,,,pq3,2022_Apr_15_1411,training+cueing,2021.1.4,59.98375639728381,
Self.png,Stranger,Self ,m,3.1,18,28,98,,,,,0,0,0,0,,,,,1,1,13,2,,,,,,,,,,,,,,,,,,,,,1.439,1.305,189.36440789999324,None,,,,,,,,,,,,,,,,,,,,189.89716879997286,190.40525899999193,0.5148838199966121,1.0152079200197477,190.38853019999806,190.50527339999098,190.38853019999806,190.50527339999098,190.48857869999483,None,None,0,,190.48857869999483,None,,,,,,,pq3,2022_Apr_15_1411,training+cueing,2021.1.4,59.98375639728381,
Friend.png,Stranger,Friend,m,3.2,19,29,99,,,,,0,0,0,0,,,,,1,2,14,5,,,,,,,,,,,,,,,,,,,,,1.723,2.154,192.04372749998583,None,,,,,,,,,,,,,,,,,,,,192.5984059999755,193.10724579999805,0.49984666000818834,1.0003533600247465,193.0739514999732,193.1740058999858,193.0739514999732,193.1740058999858,193.1740058999858,None,None,0,,193.1740058999858,None,,,,,,,pq3,2022_Apr_15_1411,training+cueing,2021.1.4,59.98375639728381,
Friend.png,You,Friend,m,1.2,14,24,94,,,,,0,0,0,0,,,,,1,3,15,3,,,,,,,,,,,,,,,,,,,,,1.48,1.974,195.0128609999956,None,,,,,,,,,,,,,,,,,,,,195.55586359999143,196.05942719997256,0.5064366200240329,1.0072318200254813,196.0427353999985,196.1427110999939,196.0427353999985,196.1427110999939,196.1427110999939,None,None,0,,196.1427110999939,None,,,,,,,pq3,2022_Apr_15_1411,training+cueing,2021.1.4,59.98375639728381,
Self.png,You,Self ,c,1,11,21,91,,,,,0,0,0,0,,,,,1,4,16,0,,,,,,,,,,,,,,,,,,,,,1.734,1.973,197.73137889997452,None,,,,,,,,,,,,,,,,,,,,198.27185189997545,198.7779392999946,0.5100352199806366,1.0102710200008005,198.76132399999187,198.86136349997832,198.76132399999187,198.86136349997832,198.86136349997832,None,c,1,0.8393256000126712,198.86136349997832,None,,,,,,,pq3,2022_Apr_15_1411,training+cueing,2021.1.4,59.98375639728381,
Stranger.png,Friend,Stranger,m,2.3,17,27,97,,,,,0,0,0,0,,,,,1,5,17,7,,,,,,,,,,,,,,,,,,,,,1.765,1.45,199.83566079998855,None,,,,,,,,,,,,,,,,,,,,200.37672289999318,200.87950329997693,0.5061480199801736,1.010750819958048,200.86282179999398,200.97953649997362,200.86282179999398,200.97953649997362,200.9628597999981,None,m,1,1.4900193999928888,200.9628597999981,None,,,,,,,pq3,2022_Apr_15_1411,training+cueing,2021.1.4,59.98375639728381,
Stranger.png,Stranger,Stranger,c,3,13,23,93,,,,,0,0,0,0,,,,,1,6,18,11,,,,,,,,,,,,,,,,,,,,,1.761,1.589,202.5863657000009,None,,,,,,,,,,,,,,,,,,,,203.13058579998324,203.63149539998267,0.5011711200058926,1.0014688200026285,203.61477709998144,203.73152399997343,203.61477709998144,203.73152399997343,203.73152399997343,None,c,1,1.7291801000246778,203.73152399997343,None,,,,,,,pq3,2022_Apr_15_1411,training+cueing,2021.1.4,59.98375639728381,
Self.png,Friend,Self ,m,2.1,16,26,96,,,,,0,0,0,0,,,,,1,7,19,1,,,,,,,,,,,,,,,,,,,,,1.759,1.397,205.589018699975,None,,,,,,,,,,,,,,,,,,,,206.12807459998294,206.63364649997675,0.5095793200307526,1.0098916200222448,206.616927999974,206.73368009997648,206.616927999974,206.73368009997648,206.7169463999744,None,None,0,,206.7169463999744,None,,,,,,,pq3,2022_Apr_15_1411,training+cueing,2021.1.4,59.98375639728381,
Friend.png,Friend,Friend,c,2,12,22,92,,,,,0,0,0,0,,,,,1,8,20,10,,,,,,,,,,,,,,,,,,,,,1.788,1.414,208.58918409998296,None,,,,,,,,,,,,,,,,,,,,209.12933179998072,209.63596079999115,0.5125624199863523,1.0128922199946828,209.61926489998586,209.7360271999787,209.61926489998586,209.7360271999787,209.7193240999768,None,c,1,1.709503499994753,209.7193240999768,None,,,,,,,pq3,2022_Apr_15_1411,training+cueing,2021.1.4,59.98375639728381,
Self.png,You,Self ,c,1,11,21,91,,,,,0,0,0,0,,,,,1,9,21,9,,,,,,,,,,,,,,,,,,,,,1.603,2.164,211.5609470999916,None,,,,,,,,,,,,,,,,,,,,212.10214189998806,212.6046658999985,0.5059506199904718,1.0062060199852567,212.58796289999736,212.687977900001,212.58796289999736,212.687977900001,212.687977900001,None,None,0,,212.687977900001,None,,,,,,,pq3,2022_Apr_15_1411,training+cueing,2021.1.4,59.98375639728381,
Friend.png,Friend,Friend,c,2,12,22,92,,,,,0,0,0,0,,,,,1,10,22,4,,,,,,,,,,,,,,,,,,,,,1.437,2.348,214.41183489997638,None,,,,,,,,,,,,,,,,,,,,214.95767579998937,215.45681979999063,0.5130897199560422,1.0133787199738435,215.45681979999063,215.5568731999956,215.45681979999063,215.5568731999956,215.5568731999956,None,m,0,1.04010380001273,215.5568731999956,None,,,,,,,pq3,2022_Apr_15_1411,training+cueing,2021.1.4,59.98375639728381,
Stranger.png,You,Stranger,m,1.3,15,25,95,,,,,0,0,0,0,,,,,1,11,23,6,,,,,,,,,,,,,,,,,,,,,1.69,2.368,216.73004479997326,None,,,,,,,,,,,,,,,,,,,,217.27533929998754,217.77498719998403,0.5151026200328488,1.015428820042871,217.77498719998403,217.87506369999028,217.77498719998403,217.87506369999028,217.87506369999028,None,m,1,1.6495919000008143,217.87506369999028,None,,,,,,,pq3,2022_Apr_15_1411,training+cueing,2021.1.4,59.98375639728381,
Stranger.png,Friend,Stranger,m,2.3,17,27,97,,,,,0,0,0,0,,,,,2,0,24,7,,,,,,,,,,,,,,,,,,,,,1.773,1.438,219.6502824999916,None,,,,,,,,,,,,,,,,,,,,220.19010539999,220.6937797999999,0.5056172200129367,1.0059060200292151,220.67715419997694,220.79382579997764,220.67715419997694,220.79382579997764,220.7771760999749,None,m,1,0.8116716999793425,220.7771760999749,None,,,,,,,pq3,2022_Apr_15_1411,training+cueing,2021.1.4,59.98375639728381,
Stranger.png,Stranger,Stranger,c,3,13,23,93,,,,,0,0,0,0,,,,,2,1,25,11,,,,,,,,,,,,,,,,,,,,,1.413,2.333,221.71860480000032,None,,,,,,,,,,,,,,,,,,,,222.26212189998478,222.76194919997943,0.5001824200444389,1.001039220020175,222.74533119998523,222.86199429997941,222.74533119998523,222.86199429997941,222.86199429997941,None,m,0,1.1746573999989778,222.86199429997941,None,,,,,,,pq3,2022_Apr_15_1411,training+cueing,2021.1.4,59.98375639728381,
Stranger.png,You,Stranger,m,1.3,15,25,95,,,,,0,0,0,0,,,,,2,2,26,6,,,,,,,,,,,,,,,,,,,,,1.451,2.326,224.17027849997976,None,,,,,,,,,,,,,,,,,,,,224.7364517999813,225.24708409997402,0.505692659993656,1.006090659997426,225.2304544999788,225.3310185999726,225.2304544999788,225.3310185999726,225.3310185999726,None,None,0,,225.3310185999726,None,,,,,,,pq3,2022_Apr_15_1411,training+cueing,2021.1.4,59.98375639728381,
Friend.png,Friend,Friend,c,2,12,22,92,,,,,0,0,0,0,,,,,2,3,27,4,,,,,,,,,,,,,,,,,,,,,1.449,1.43,226.88691219998873,None,,,,,,,,,,,,,,,,,,,,227.42922239998006,227.93234679999296,0.5049254199839197,1.005199420003919,227.91571409997414,228.03240669998922,227.91571409997414,228.03240669998922,228.01575349998893,None,None,0,,228.01575349998893,None,,,,,,,pq3,2022_Apr_15_1411,training+cueing,2021.1.4,59.98375639728381,
Friend.png,You,Friend,m,1.2,14,24,94,,,,,0,0,0,0,,,,,2,4,28,3,,,,,,,,,,,,,,,,,,,,,1.789,2.043,229.5711499999743,None,,,,,,,,,,,,,,,,,,,,230.1151215999853,230.6176275999751,0.5055314199998975,1.005810319999,230.60094909998588,230.70098669998697,230.60094909998588,230.70098669998697,230.70098669998697,None,c,0,1.1277607999800239,230.70098669998697,None,,,,,,,pq3,2022_Apr_15_1411,training+cueing,2021.1.4,59.98375639728381,
Stranger.png,Stranger,Stranger,c,3,13,23,93,,,,,0,0,0,0,,,,,2,5,29,8,,,,,,,,,,,,,,,,,,,,,1.706,1.254,231.9590986999974,None,,,,,,,,,,,,,,,,,,,,232.50131439999677,233.00285129999975,0.5028593199967872,1.0029931199969724,232.98626589999185,233.10287740000058,232.98626589999185,233.10287740000058,233.08617599998252,None,None,0,,233.08617599998252,None,,,,,,,pq3,2022_Apr_15_1411,training+cueing,2021.1.4,59.98375639728381,
Friend.png,Stranger,Friend,m,3.2,19,29,99,,,,,0,0,0,0,,,,,2,6,30,5,,,,,,,,,,,,,,,,,,,,,1.57,1.587,234.90797909998219,None,,,,,,,,,,,,,,,,,,,,235.44852349997382,235.95483379997313,0.5102666200255044,1.0105427200032864,235.9381687999994,236.05489719999605,235.9381687999994,236.05489719999605,236.03821009999956,None,m,1,1.4703976000018883,236.03821009999956,None,,,,,,,pq3,2022_Apr_15_1411,training+cueing,2021.1.4,59.98375639728381,
Self.png,You,Self ,c,1,11,21,91,,,,,0,0,0,0,,,,,2,7,31,9,,,,,,,,,,,,,,,,,,,,,1.585,2.36,237.64573029999156,None,,,,,,,,,,,,,,,,,,,,238.18520959999296,238.69013659999473,0.5100971200154163,1.0103942200366873,238.67343429999892,238.77348109998275,238.67343429999892,238.77348109998275,238.77348109998275,None,None,0,,238.77348109998275,None,,,,,,,pq3,2022_Apr_15_1411,training+cueing,2021.1.4,59.98375639728381,
Self.png,You,Self ,c,1,11,21,91,,,,,0,0,0,0,,,,,2,8,32,0,,,,,,,,,,,,,,,,,,,,,1.601,1.466,240.46368789998814,None,,,,,,,,,,,,,,,,,,,,241.00071399999433,241.5088512999937,0.5137791199958883,1.01404171998729,241.49217679997673,241.59221799997613,241.49217679997673,241.59221799997613,241.59221799997613,None,c,1,0.7804425000213087,241.59221799997613,None,,,,,,,pq3,2022_Apr_15_1411,training+cueing,2021.1.4,59.98375639728381,
Friend.png,Friend,Friend,c,2,12,22,92,,,,,0,0,0,0,,,,,2,9,33,10,,,,,,,,,,,,,,,,,,,,,1.458,2.046,242.49884329998167,None,,,,,,,,,,,,,,,,,,,,243.04057459998876,243.54361209998024,0.5058000199787784,1.0067029199854005,243.52696540000034,243.64368019998074,243.52696540000034,243.64368019998074,243.62702019998687,None,None,0,,243.62702019998687,None,,,,,,,pq3,2022_Apr_15_1411,training+cueing,2021.1.4,59.98375639728381,
Self.png,Friend,Self ,m,2.1,16,26,96,,,,,0,0,0,0,,,,,2,10,34,1,,,,,,,,,,,,,,,,,,,,,1.545,1.747,245.19949489997816,None,,,,,,,,,,,,,,,,,,,,245.73938299997826,246.24562349999906,0.510882219998166,1.0111856200092006,246.22891749997507,246.34566880000057,246.22891749997507,246.34566880000057,246.3289474999765,None,m,1,1.3077284999890253,246.3289474999765,None,,,,,,,pq3,2022_Apr_15_1411,training+cueing,2021.1.4,59.98375639728381,
Self.png,Stranger,Self ,m,3.1,18,28,98,,,,,0,0,0,0,,,,,2,11,35,2,,,,,,,,,,,,,,,,,,,,,1.783,1.523,247.76956889999565,None,,,,,,,,,,,,,,,,,,,,248.310659699986,248.8141759999853,0.5048533199878875,1.0051017199875787,248.79748259999906,248.91420020000078,248.79748259999906,248.91420020000078,248.89752790000057,None,None,0,,248.89752790000057,None,,,,,,,pq3,2022_Apr_15_1411,training+cueing,2021.1.4,59.98375639728381,
Self.png,Friend,Self ,m,2.1,16,26,96,,,,,0,0,0,0,,,,,3,0,36,1,,,,,,,,,,,,,,,,,,,,,1.782,2.01,250.78745969999,None,,,,,,,,,,,,,,,,,,,,251.32820349998656,251.83293829998001,0.5099143199913669,1.0101947200018913,251.81631070000003,251.93300079999608,251.81631070000003,251.93300079999608,251.91630039998563,None,m,1,1.3842330000188667,251.91630039998563,None,,,,,,,pq3,2022_Apr_15_1411,training+cueing,2021.1.4,59.98375639728381,
Self.png,You,Self ,c,1,11,21,91,,,,,0,0,0,0,,,,,3,1,37,0,,,,,,,,,,,,,,,,,,,,,1.8,2.493,253.42369989998406,None,,,,,,,,,,,,,,,,,,,,253.96236349997343,254.46821019999334,0.5108758200076409,1.0118789200205356,254.4514773999981,254.55159109999659,254.4514773999981,254.55159109999659,254.55159109999659,None,None,0,,254.55159109999659,None,,,,,,,pq3,2022_Apr_15_1411,training+cueing,2021.1.4,59.98375639728381,
Friend.png,You,Friend,m,1.2,14,24,94,,,,,0,0,0,0,,,,,3,2,38,3,,,,,,,,,,,,,,,,,,,,,1.675,2.428,256.4581048999971,None,,,,,,,,,,,,,,,,,,,,256.9972784999991,257.50373820000095,0.5105368199874647,1.0108545199909713,257.4870163999731,257.5870683999965,257.4870163999731,257.5870683999965,257.5870683999965,None,c,0,1.0897261000063736,257.5870683999965,None,,,,,,,pq3,2022_Apr_15_1411,training+cueing,2021.1.4,59.98375639728381,
Friend.png,Stranger,Friend,m,3.2,19,29,99,,,,,0,0,0,0,,,,,3,3,39,5,,,,,,,,,,,,,,,,,,,,,1.445,2.239,258.8110912999837,None,,,,,,,,,,,,,,,,,,,,259.3518920999777,259.8554345999728,0.5064001199789345,1.0066233199613634,259.8387917999935,259.95547069999157,259.8387917999935,259.95547069999157,259.9387904999894,None,None,0,,259.9387904999894,None,,,,,,,pq3,2022_Apr_15_1411,training+cueing,2021.1.4,59.98375639728381,
Stranger.png,Friend,Stranger,m,2.3,17,27,97,,,,,0,0,0,0,,,,,3,4,40,7,,,,,,,,,,,,,,,,,,,,,1.759,1.314,261.49569409998367,None,,,,,,,,,,,,,,,,,,,,262.0365354999958,262.54074309999123,0.5057320199848618,1.006007319985656,262.52404359998764,262.64077979998547,262.52404359998764,262.64077979998547,262.62405529999523,None,m,1,1.1085971999855246,262.62405529999523,None,,,,,,,pq3,2022_Apr_15_1411,training+cueing,2021.1.4,59.98375639728381,
Self.png,Stranger,Self ,m,3.1,18,28,98,,,,,0,0,0,0,,,,,3,5,41,2,,,,,,,,,,,,,,,,,,,,,1.491,2.397,263.86571419998654,None,,,,,,,,,,,,,,,,,,,,264.406196899974,264.909151299973,0.5037009199731983,1.0049952199915424,264.891449799994,265.0091886000009,264.891449799994,265.0091886000009,264.9924718999828,None,None,0,,264.9924718999828,None,,,,,,,pq3,2022_Apr_15_1411,training+cueing,2021.1.4,59.98375639728381,
Friend.png,Friend,Friend,c,2,12,22,92,,,,,0,0,0,0,,,,,3,6,42,4,,,,,,,,,,,,,,,,,,,,,1.487,2.141,266.5972693999938,None,,,,,,,,,,,,,,,,,,,,267.14109569997527,267.6444457999896,0.5071452200063504,1.0073400200053584,267.62776899998426,267.74447939998936,267.62776899998426,267.74447939998936,267.72784769997816,None,None,0,,267.72784769997816,None,,,,,,,pq3,2022_Apr_15_1411,training+cueing,2021.1.4,59.98375639728381,
Stranger.png,You,Stranger,m,1.3,15,25,95,,,,,0,0,0,0,,,,,3,7,43,6,,,,,,,,,,,,,,,,,,,,,1.605,1.563,269.3332767999964,None,,,,,,,,,,,,,,,,,,,,269.8754884999944,270.3796852999949,0.5060515200020745,1.0064663200173527,270.36300169999595,270.4630476999737,270.36300169999595,270.4630476999737,270.4630476999737,None,None,0,,270.4630476999737,None,,,,,,,pq3,2022_Apr_15_1411,training+cueing,2021.1.4,59.98375639728381,
Stranger.png,Stranger,Stranger,c,3,13,23,93,,,,,0,0,0,0,,,,,3,8,44,11,,,,,,,,,,,,,,,,,,,,,1.671,1.335,272.18520809998154,None,,,,,,,,,,,,,,,,,,,,272.72952689998783,273.2317390999815,0.5050280200084671,1.005332319997251,273.21509559999686,273.3318003999884,273.21509559999686,273.3318003999884,273.31510469998466,None,None,0,,273.31510469998466,None,,,,,,,pq3,2022_Apr_15_1411,training+cueing,2021.1.4,59.98375639728381,
Friend.png,Friend,Friend,c,2,12,22,92,,,,,0,0,0,0,,,,,3,9,45,10,,,,,,,,,,,,,,,,,,,,,1.635,2.477,275.10373079997953,None,,,,,,,,,,,,,,,,,,,,275.6580988999922,276.1672266999958,0.5010653199860826,1.0014948199677747,276.1505271999922,276.2672717999958,276.1505271999922,276.2672717999958,276.2672717999958,None,None,0,,276.2672717999958,None,,,,,,,pq3,2022_Apr_15_1411,training+cueing,2021.1.4,59.98375639728381,
Self.png,You,Self ,c,1,11,21,91,,,,,0,0,0,0,,,,,3,10,46,9,,,,,,,,,,,,,,,,,,,,,1.514,2.165,278.0054848,None,,,,,,,,,,,,,,,,,,,,278.5487057999999,279.0526018999808,0.506751719978638,1.0070113200054038,279.0359972999722,279.1360723999969,279.0359972999722,279.1360723999969,279.1360723999969,None,c,1,1.4287584999983665,279.1360723999969,None,,,,,,,pq3,2022_Apr_15_1411,training+cueing,2021.1.4,59.98375639728381,
Stranger.png,Stranger,Stranger,c,3,13,23,93,,,,,0,0,0,0,,,,,3,11,47,8,,,,,,,,,,,,,,,,,,,,,1.794,2.254,280.6970834999811,None,,,,,,,,,,,,,,,,,,,,281.23707339999964,281.7378951999999,0.5021304200345185,1.0024788200389594,281.7211635999847,281.83795699998154,281.7211635999847,281.83795699998154,281.8212361999904,None,None,0,,281.8212361999904,None,,,,,,,pq3,2022_Apr_15_1411,training+cueing,2021.1.4,59.98375639728381,
Self.png,You,Self ,c,1,11,21,91,,,,,0,0,0,0,,,,,4,0,48,9,,,,,,,,,,,,,,,,,,,,,1.733,1.474,283.72775329998694,None,,,,,,,,,,,,,,,,,,,,284.2699878999847,284.77346759999637,0.5056125200062525,1.0058548200177029,284.75677879998693,284.8567868999962,284.75677879998693,284.8567868999962,284.8567868999962,None,None,0,,284.8567868999962,None,,,,,,,pq3,2022_Apr_15_1411,training+cueing,2021.1.4,59.98375639728381,
Self.png,Friend,Self ,m,2.1,16,26,96,,,,,0,0,0,0,,,,,4,1,49,1,,,,,,,,,,,,,,,,,,,,,1.673,1.852,286.6951496999827,None,,,,,,,,,,,,,,,,,,,,287.2390353999799,287.7422694999841,0.5053719200077467,1.0058690200094134,287.72559079999337,287.84249249999993,287.72559079999337,287.84249249999993,287.8256117999845,None,None,0,,287.8256117999845,None,,,,,,,pq3,2022_Apr_15_1411,training+cueing,2021.1.4,59.98375639728381,
Friend.png,Friend,Friend,c,2,12,22,92,,,,,0,0,0,0,,,,,4,2,50,10,,,,,,,,,,,,,,,,,,,,,1.5,1.541,289.6143968999968,None,,,,,,,,,,,,,,,,,,,,290.1553762999829,290.6610247999779,0.5105830199900083,1.0111011200060602,290.6443666999985,290.76165760000004,290.6443666999985,290.76165760000004,290.7443968000007,None,None,0,,290.7443968000007,None,,,,,,,pq3,2022_Apr_15_1411,training+cueing,2021.1.4,59.98375639728381,
Self.png,You,Self ,c,1,11,21,91,,,,,0,0,0,0,,,,,4,3,51,0,,,,,,,,,,,,,,,,,,,,,1.689,1.248,292.35110669999267,None,,,,,,,,,,,,,,,,,,,,292.8913459999894,293.3963345999946,0.5073235199670307,1.0076461199787445,293.3796364000009,293.4796749999805,293.3796364000009,293.4796749999805,293.4796749999805,None,None,0,,293.4796749999805,None,,,,,,,pq3,2022_Apr_15_1411,training+cueing,2021.1.4,59.98375639728381,
Friend.png,Stranger,Friend,m,3.2,19,29,99,,,,,0,0,0,0,,,,,4,4,52,5,,,,,,,,,,,,,,,,,,,,,1.764,1.501,295.2851106999733,None,,,,,,,,,,,,,,,,,,,,295.83012869997765,296.3318231999874,0.5043088199745398,1.0045831199968234,296.3151356999879,296.43186269997386,296.3151356999879,296.43186269997386,296.4151390999905,None,m,1,1.3814560000027996,296.4151390999905,None,,,,,,,pq3,2022_Apr_15_1411,training+cueing,2021.1.4,59.98375639728381,
Friend.png,Friend,Friend,c,2,12,22,92,,,,,0,0,0,0,,,,,4,5,53,4,,,,,,,,,,,,,,,,,,,,,1.652,2.375,297.9224516999966,None,,,,,,,,,,,,,,,,,,,,298.4797519999847,298.9838981999783,0.5066981599666178,1.0069455599877983,298.96719419999863,299.08391029998893,298.96719419999863,299.08391029998893,299.0671802999859,None,None,0,,299.0671802999859,None,,,,,,,pq3,2022_Apr_15_1411,training+cueing,2021.1.4,59.98375639728381,
Stranger.png,Stranger,Stranger,c,3,13,23,93,,,,,0,0,0,0,,,,,4,6,54,11,,,,,,,,,,,,,,,,,,,,,1.41,1.969,300.82246239998494,None,,,,,,,,,,,,,,,,,,,,301.3719263999956,301.8857433999947,0.5030636199808214,1.0033596199937165,301.8524514999881,301.9524973999942,301.8524514999881,301.9524973999942,301.9524973999942,None,None,0,,301.9524973999942,None,,,,,,,pq3,2022_Apr_15_1411,training+cueing,2021.1.4,59.98375639728381,
Stranger.png,You,Stranger,m,1.3,15,25,95,,,,,0,0,0,0,,,,,4,7,55,6,,,,,,,,,,,,,,,,,,,,,1.411,2.223,303.47377979999874,None,,,,,,,,,,,,,,,,,,,,304.0175796999829,304.52102190000005,0.5060476200014818,1.0063829199934844,304.5043499999738,304.60439719998976,304.5043499999738,304.60439719998976,304.60439719998976,None,c,0,1.2721672999905422,304.60439719998976,None,,,,,,,pq3,2022_Apr_15_1411,training+cueing,2021.1.4,59.98375639728381,
Self.png,Stranger,Self ,m,3.1,18,28,98,,,,,0,0,0,0,,,,,4,8,56,2,,,,,,,,,,,,,,,,,,,,,1.654,1.659,306.0156694999896,None,,,,,,,,,,,,,,,,,,,,306.55334639997454,307.0563882999995,0.504061619983986,1.0043423199967947,307.0397128999757,307.139740899991,307.0397128999757,307.139740899991,307.139740899991,None,None,0,,307.139740899991,None,,,,,,,pq3,2022_Apr_15_1411,training+cueing,2021.1.4,59.98375639728381,
Friend.png,You,Friend,m,1.2,14,24,94,,,,,0,0,0,0,,,,,4,9,57,3,,,,,,,,,,,,,,,,,,,,,1.761,1.6,308.9118324999872,None,,,,,,,,,,,,,,,,,,,,309.4526991999883,309.9583325999847,0.5102512200246565,1.0104954200214706,309.9416705999756,310.0417319999833,309.9416705999756,310.0417319999833,310.0417319999833,None,None,0,,310.0417319999833,None,,,,,,,pq3,2022_Apr_15_1411,training+cueing,2021.1.4,59.98375639728381,
Stranger.png,Stranger,Stranger,c,3,13,23,93,,,,,0,0,0,0,,,,,4,10,58,8,,,,,,,,,,,,,,,,,,,,,1.769,1.509,311.91420359999756,None,,,,,,,,,,,,,,,,,,,,312.4553142999939,312.9604658999888,0.5096668200276326,1.0101355200167745,312.9437963999808,313.0610860999732,312.9437963999808,313.0610860999732,313.0443679999735,None,c,1,1.6641657000000123,313.0443679999735,None,,,,,,,pq3,2022_Apr_15_1411,training+cueing,2021.1.4,59.98375639728381,
Stranger.png,Friend,Stranger,m,2.3,17,27,97,,,,,0,0,0,0,,,,,4,11,59,7,,,,,,,,,,,,,,,,,,,,,1.642,2.404,314.83552929997677,None,,,,,,,,,,,,,,,,,,,,315.3753885999904,315.87923029999365,0.5054988200135995,1.005772020027507,315.86259829998016,315.97928339999635,315.86259829998016,315.97928339999635,315.9626118999731,None,None,0,,315.9626118999731,None,,,,,,,pq3,2022_Apr_15_1411,training+cueing,2021.1.4,59.98375639728381,
Self.png,You,Self ,c,1,11,21,91,,,,,0,0,0,0,,,,,5,0,60,0,,,,,,,,,,,,,,,,,,,,,1.617,1.823,317.7191698999959,None,,,,,,,,,,,,,,,,,,,,318.28729759997805,318.79812609998044,0.5103618600114714,1.0106111600180157,318.78145349997794,318.88148199999705,318.78145349997794,318.88148199999705,318.88148199999705,None,c,1,1.5230774999945424,318.88148199999705,None,,,,,,,pq3,2022_Apr_15_1411,training+cueing,2021.1.4,59.98375639728381,
Friend.png,Friend,Friend,c,2,12,22,92,,,,,0,0,0,0,,,,,5,1,61,4,,,,,,,,,,,,,,,,,,,,,1.454,1.893,320.5387212999922,None,,,,,,,,,,,,,,,,,,,,321.07982879999327,321.5833617999742,0.5067050199722871,1.0070175199653022,321.56670749999466,321.6833913999726,321.56670749999466,321.6833913999726,321.6667307999742,None,None,0,,321.6667307999742,None,,,,,,,pq3,2022_Apr_15_1411,training+cueing,2021.1.4,59.98375639728381,
Stranger.png,You,Stranger,m,1.3,15,25,95,,,,,0,0,0,0,,,,,5,2,62,6,,,,,,,,,,,,,,,,,,,,,1.622,1.409,323.23899519999395,None,,,,,,,,,,,,,,,,,,,,323.7803782999981,324.2853530999855,0.5075773200078402,1.0077718200045638,324.2687234999903,324.3686800999858,324.2687234999903,324.3686800999858,324.3686800999858,None,None,0,,324.3686800999858,None,,,,,,,pq3,2022_Apr_15_1411,training+cueing,2021.1.4,59.98375639728381,
Friend.png,Stranger,Friend,m,3.2,19,29,99,,,,,0,0,0,0,,,,,5,3,63,5,,,,,,,,,,,,,,,,,,,,,1.571,1.52,326.107729499985,None,,,,,,,,,,,,,,,,,,,,326.64841019999585,327.15408559999196,0.5107338200032245,1.011054119997425,327.13737059998675,327.25413349998416,327.13737059998675,327.25413349998416,327.23739319999004,None,m,1,1.5031704000139143,327.23739319999004,None,,,,,,,pq3,2022_Apr_15_1411,training+cueing,2021.1.4,59.98375639728381,
Self.png,Friend,Self ,m,2.1,16,26,96,,,,,0,0,0,0,,,,,5,4,64,1,,,,,,,,,,,,,,,,,,,,,1.632,2.009,328.87854929998866,None,,,,,,,,,,,,,,,,,,,,329.4171120999963,329.9227615999989,0.508921119995648,1.0094739199848846,329.90605249998043,330.0228138999955,329.90605249998043,330.0228138999955,330.0060916999937,None,m,1,1.3585755999956746,330.0060916999937,None,,,,,,,pq3,2022_Apr_15_1411,training+cueing,2021.1.4,59.98375639728381,
Stranger.png,Friend,Stranger,m,2.3,17,27,97,,,,,0,0,0,0,,,,,5,5,65,7,,,,,,,,,,,,,,,,,,,,,1.622,1.759,331.49874789998285,None,,,,,,,,,,,,,,,,,,,,332.03515899999184,332.54124679998495,0.511910019966308,1.0122024199808948,332.52463219998754,332.6413255999796,332.52463219998754,332.6413255999796,332.62465059998794,None,None,0,,332.62465059998794,None,,,,,,,pq3,2022_Apr_15_1411,training+cueing,2021.1.4,59.98375639728381,
Stranger.png,Stranger,Stranger,c,3,13,23,93,,,,,0,0,0,0,,,,,5,6,66,11,,,,,,,,,,,,,,,,,,,,,1.723,1.999,334.3631965999957,None,,,,,,,,,,,,,,,,,,,,334.9058522999985,335.41024379999726,0.5077976199972909,1.007860020006774,335.3935881999787,335.51008169999113,335.3935881999787,335.51008169999113,335.4933951999992,None,c,1,1.3111311999964528,335.4933951999992,None,,,,,,,pq3,2022_Apr_15_1411,training+cueing,2021.1.4,59.98375639728381,
Friend.png,You,Friend,m,1.2,14,24,94,,,,,0,0,0,0,,,,,5,7,67,3,,,,,,,,,,,,,,,,,,,,,1.521,2.273,336.93415529999766,None,,,,,,,,,,,,,,,,,,,,337.4735568999895,337.97857059998205,0.5082390199822839,1.0084904200048186,337.96189279999817,338.06191459999536,337.96189279999817,338.06191459999536,338.06191459999536,None,None,0,,338.06191459999536,None,,,,,,,pq3,2022_Apr_15_1411,training+cueing,2021.1.4,59.98375639728381,
Self.png,Stranger,Self ,m,3.1,18,28,98,,,,,0,0,0,0,,,,,5,8,68,2,,,,,,,,,,,,,,,,,,,,,1.737,2.24,339.7011736999848,None,,,,,,,,,,,,,,,,,,,,340.24409549997654,340.7472375999787,0.5061569200188387,1.0064358200179413,340.73053589998744,340.8474000999995,340.73053589998744,340.8474000999995,340.83077209998737,None,m,1,1.1577879000105895,340.83077209998737,None,,,,,,,pq3,2022_Apr_15_1411,training+cueing,2021.1.4,59.98375639728381,
Friend.png,Friend,Friend,c,2,12,22,92,,,,,0,0,0,0,,,,,5,9,69,10,,,,,,,,,,,,,,,,,,,,,1.792,2.013,342.1212962999998,None,,,,,,,,,,,,,,,,,,,,342.6812116999936,343.1823393999948,0.502329259965336,1.0027901599532925,343.165634999983,343.2825141999929,343.165634999983,343.2825141999929,343.26570249997894,None,None,0,,343.26570249997894,None,,,,,,,pq3,2022_Apr_15_1411,training+cueing,2021.1.4,59.98375639728381,
Self.png,You,Self ,c,1,11,21,91,,,,,0,0,0,0,,,,,5,10,70,9,,,,,,,,,,,,,,,,,,,,,1.522,2.083,345.17129319999367,None,,,,,,,,,,,,,,,,,,,,345.7112220999843,346.21781719999854,0.5115563200088218,1.0118540200055577,346.20119429999613,346.3012275999936,346.20119429999613,346.3012275999936,346.3012275999936,None,c,1,1.1752648999972735,346.3012275999936,None,,,,,,,pq3,2022_Apr_15_1411,training+cueing,2021.1.4,59.98375639728381,
Stranger.png,Stranger,Stranger,c,3,13,23,93,,,,,0,0,0,0,,,,,5,11,71,8,,,,,,,,,,,,,,,,,,,,,1.575,1.458,347.6081524999754,None,,,,,,,,,,,,,,,,,,,,348.1481451999862,348.6529666999995,0.5092937200097367,1.0095936200232245,348.63626379999914,348.75299619999714,348.63626379999914,348.75299619999714,348.7362897999992,None,None,0,,348.7362897999992,None,,,,,,,pq3,2022_Apr_15_1411,training+cueing,2021.1.4,59.98375639728381,
Self.png,You,Self ,c,1,11,21,91,,,,,0,0,0,0,,,,,6,0,72,9,,,,,,,,,,,,,,,,,,,,,1.718,1.64,350.4255503999884,None,,,,,,,,,,,,,,,,,,,,350.98477849998744,351.48844619997544,0.5046916599967517,1.0049728599842638,351.4717477999802,351.5718117999786,351.4717477999802,351.5718117999786,351.5718117999786,None,c,1,1.2967184000008274,351.5718117999786,None,,,,,,,pq3,2022_Apr_15_1411,training+cueing,2021.1.4,59.98375639728381,
Stranger.png,Stranger,Stranger,c,3,13,23,93,,,,,0,0,0,0,,,,,6,1,73,11,,,,,,,,,,,,,,,,,,,,,1.653,2.454,352.99660849999054,None,,,,,,,,,,,,,,,,,,,,353.535979999986,354.0402862999763,0.5083034200360999,1.008629820018541,354.0234804999782,354.14022279999335,354.0234804999782,354.14022279999335,354.123549299984,None,None,0,,354.123549299984,None,,,,,,,pq3,2022_Apr_15_1411,training+cueing,2021.1.4,59.98375639728381,
Stranger.png,Friend,Stranger,m,2.3,17,27,97,,,,,0,0,0,0,,,,,6,2,74,7,,,,,,,,,,,,,,,,,,,,,1.588,2.428,355.8962160999945,None,,,,,,,,,,,,,,,,,,,,356.43708719999995,356.9422723999887,0.508853720035404,1.0093772200343665,356.92558989999816,357.04233909997856,356.92558989999816,357.04233909997856,357.0256177999836,None,m,1,1.4268532000132836,357.0256177999836,None,,,,,,,pq3,2022_Apr_15_1411,training+cueing,2021.1.4,59.98375639728381,
Self.png,Friend,Self ,m,2.1,16,26,96,,,,,0,0,0,0,,,,,6,3,75,1,,,,,,,,,,,,,,,,,,,,,1.575,2.405,358.5829825999972,None,,,,,,,,,,,,,,,,,,,,359.11956349998945,359.62753429997247,0.5126704199647065,1.0129987199616153,359.6108149999927,359.72772709999117,359.6108149999927,359.72772709999117,359.7110971999937,None,None,0,,359.7110971999937,None,,,,,,,pq3,2022_Apr_15_1411,training+cueing,2021.1.4,59.98375639728381,
Stranger.png,Stranger,Stranger,c,3,13,23,93,,,,,0,0,0,0,,,,,6,4,76,8,,,,,,,,,,,,,,,,,,,,,1.469,2.14,361.400591099984,None,,,,,,,,,,,,,,,,,,,,361.94343869999284,362.4462537999789,0.5059402200276963,1.006212520034751,362.42956889999914,362.54629479997675,362.42956889999914,362.54629479997675,362.5295738999848,None,m,0,1.4109068000107072,362.5295738999848,None,,,,,,,pq3,2022_Apr_15_1411,training+cueing,2021.1.4,59.98375639728381,
Friend.png,You,Friend,m,1.2,14,24,94,,,,,0,0,0,0,,,,,6,5,77,3,,,,,,,,,,,,,,,,,,,,,1.731,1.599,364.0696374999825,None,,,,,,,,,,,,,,,,,,,,364.61105529998895,365.11503190000076,0.5054776199976914,1.0074398200085852,365.09648409998044,365.1983415999857,365.09648409998044,365.1983415999857,365.1983415999857,None,None,0,,365.1983415999857,None,,,,,,,pq3,2022_Apr_15_1411,training+cueing,2021.1.4,59.98375639728381,
Stranger.png,You,Stranger,m,1.3,15,25,95,,,,,0,0,0,0,,,,,6,6,78,6,,,,,,,,,,,,,,,,,,,,,1.484,1.631,367.03697009998723,None,,,,,,,,,,,,,,,,,,,,367.5746044999978,368.0836477999983,0.5155353200389072,1.0158123200235423,368.0669583999843,368.1669777999923,368.0669583999843,368.1669777999923,368.1669777999923,None,m,1,1.437499799998477,368.1669777999923,None,,,,,,,pq3,2022_Apr_15_1411,training+cueing,2021.1.4,59.98375639728381,
Friend.png,Friend,Friend,c,2,12,22,92,,,,,0,0,0,0,,,,,6,7,79,10,,,,,,,,,,,,,,,,,,,,,1.536,1.37,369.74106679999386,None,,,,,,,,,,,,,,,,,,,,370.2789659999835,370.78560319999815,0.5118842199735809,1.0122227199899498,370.76888819999294,370.8861990000005,370.76888819999294,370.8861990000005,370.8689499999746,None,None,0,,370.8689499999746,None,,,,,,,pq3,2022_Apr_15_1411,training+cueing,2021.1.4,59.98375639728381,
Self.png,You,Self ,c,1,11,21,91,,,,,0,0,0,0,,,,,6,8,80,0,,,,,,,,,,,,,,,,,,,,,1.696,2.343,372.52384409998194,None,,,,,,,,,,,,,,,,,,,,373.0638621999824,373.57091129999026,0.5110937199788168,1.0114083199878223,373.5542840999842,373.6543258999882,373.5542840999842,373.6543258999882,373.6543258999882,None,None,0,,373.6543258999882,None,,,,,,,pq3,2022_Apr_15_1411,training+cueing,2021.1.4,59.98375639728381,
Friend.png,Stranger,Friend,m,3.2,19,29,99,,,,,0,0,0,0,,,,,6,9,81,5,,,,,,,,,,,,,,,,,,,,,1.781,2.309,375.45973709999816,None,,,,,,,,,,,,,,,,,,,,376.002852399979,376.50644349999493,0.5058409200282767,1.0060883200203534,376.48972949999734,376.60645689998637,376.48972949999734,376.60645689998637,376.5896992999769,None,m,1,0.7267781999835279,376.5896992999769,None,,,,,,,pq3,2022_Apr_15_1411,training+cueing,2021.1.4,59.98375639728381,
Self.png,Stranger,Self ,m,3.1,18,28,98,,,,,0,0,0,0,,,,,6,10,82,2,,,,,,,,,,,,,,,,,,,,,1.437,1.684,377.4458857999998,None,,,,,,,,,,,,,,,,,,,,377.9850019000005,378.49113179999404,0.5109947199816816,1.0113070199731737,378.47449929997674,378.59139469999354,378.47449929997674,378.59139469999354,378.5745310999919,None,None,0,,378.5745310999919,None,,,,,,,pq3,2022_Apr_15_1411,training+cueing,2021.1.4,59.98375639728381,
Friend.png,Friend,Friend,c,2,12,22,92,,,,,0,0,0,0,,,,,6,11,83,4,,,,,,,,,,,,,,,,,,,,,1.413,1.598,380.1319814999879,None,,,,,,,,,,,,,,,,,,,,380.6695459999901,381.17644939999445,0.5109600200084969,1.0118311200058088,381.15976729997783,381.27651719999267,381.15976729997783,381.27651719999267,381.25979939999525,None,m,0,1.1927713000040967,381.25979939999525,None,,,,,,,pq3,2022_Apr_15_1411,training+cueing,2021.1.4,59.98375639728381,
Stranger.png,Stranger,Stranger,c,3,13,23,93,,,,,0,0,0,0,,,,,7,0,84,11,,,,,,,,,,,,,,,,,,,,,1.411,2.297,382.584409699979,None,,,,,,,,,,,,,,,,,,,,383.12205789997824,383.6282290999952,0.5112022199900821,1.0114693199866451,383.61150389999966,383.72827929997584,383.61150389999966,383.72827929997584,383.7115495999751,None,None,0,,383.7115495999751,None,,,,,,,pq3,2022_Apr_15_1411,training+cueing,2021.1.4,59.98375639728381,
Friend.png,Friend,Friend,c,2,12,22,92,,,,,0,0,0,0,,,,,7,1,85,10,,,,,,,,,,,,,,,,,,,,,1.536,2.148,385.23383279997506,None,,,,,,,,,,,,,,,,,,,,385.7742915999843,386.280133399996,0.5115311200206634,1.011800320004113,386.2634426000004,386.3801491999766,386.2634426000004,386.3801491999766,386.3634794999962,None,c,1,1.1609582999954,386.3634794999962,None,,,,,,,pq3,2022_Apr_15_1411,training+cueing,2021.1.4,59.98375639728381,
Self.png,You,Self ,c,1,11,21,91,,,,,0,0,0,0,,,,,7,2,86,0,,,,,,,,,,,,,,,,,,,,,1.654,2.172,387.65422789999866,None,,,,,,,,,,,,,,,,,,,,388.19464039997547,388.6985589999822,0.5064132199913729,1.006755919981515,388.6818421999924,388.7819174999895,388.6818421999924,388.7819174999895,388.7819174999895,None,c,1,1.3024136999738403,388.7819174999895,None,,,,,,,pq3,2022_Apr_15_1411,training+cueing,2021.1.4,59.98375639728381,
Friend.png,You,Friend,m,1.2,14,24,94,,,,,0,0,0,0,,,,,7,3,87,3,,,,,,,,,,,,,,,,,,,,,1.499,1.92,390.2222880999907,None,,,,,,,,,,,,,,,,,,,,390.7616441999853,391.2670622000005,0.5113367199955974,1.0116280199727044,391.2504193999921,391.35045399999944,391.2504193999921,391.35045399999944,391.35045399999944,None,None,0,,391.35045399999944,None,,,,,,,pq3,2022_Apr_15_1411,training+cueing,2021.1.4,59.98375639728381,
Self.png,Stranger,Self ,m,3.1,18,28,98,,,,,0,0,0,0,,,,,7,4,88,2,,,,,,,,,,,,,,,,,,,,,1.561,2.49,392.9558108999918,None,,,,,,,,,,,,,,,,,,,,393.51117299997713,394.01906880000024,0.5127419600030407,1.0130423600203358,394.0023561999842,394.11909549997654,394.0023561999842,394.11909549997654,394.1023986999935,None,None,0,,394.1023986999935,None,,,,,,,pq3,2022_Apr_15_1411,training+cueing,2021.1.4,59.98375639728381,
Self.png,You,Self ,c,1,11,21,91,,,,,0,0,0,0,,,,,7,5,89,9,,,,,,,,,,,,,,,,,,,,,1.441,2.288,395.7747259999742,None,,,,,,,,,,,,,,,,,,,,396.3148142999853,396.8210469999758,0.5126177199708764,1.0128872199566104,396.80438829999184,396.90443309998955,396.80438829999184,396.90443309998955,396.90443309998955,None,None,0,,396.90443309998955,None,,,,,,,pq3,2022_Apr_15_1411,training+cueing,2021.1.4,59.98375639728381,
Friend.png,Stranger,Friend,m,3.2,19,29,99,,,,,0,0,0,0,,,,,7,6,90,5,,,,,,,,,,,,,,,,,,,,,1.743,1.755,398.4613925999729,None,,,,,,,,,,,,,,,,,,,,399.01106479999726,399.52300369998557,0.5073849199688993,1.0082773199828807,399.5063790999993,399.62306949999765,399.5063790999993,399.62306949999765,399.6063972999982,None,None,0,,399.6063972999982,None,,,,,,,pq3,2022_Apr_15_1411,training+cueing,2021.1.4,59.98375639728381,
Friend.png,Friend,Friend,c,2,12,22,92,,,,,0,0,0,0,,,,,7,7,91,4,,,,,,,,,,,,,,,,,,,,,1.685,1.244,401.4619475999789,None,,,,,,,,,,,,,,,,,,,,402.0046562999778,402.50853939997614,0.5062711199861951,1.0065717199759092,402.4918862999766,402.60915729997214,402.4918862999766,402.60915729997214,402.59204409999074,None,c,1,1.076442899997346,402.59204409999074,None,,,,,,,pq3,2022_Apr_15_1411,training+cueing,2021.1.4,59.98375639728381,
Stranger.png,You,Stranger,m,1.3,15,25,95,,,,,0,0,0,0,,,,,7,8,92,6,,,,,,,,,,,,,,,,,,,,,1.708,1.481,403.7993152999843,None,,,,,,,,,,,,,,,,,,,,404.33841309999116,404.84356929999194,0.5105405200156383,1.0108484200027306,404.82685479999054,404.9268976999738,404.82685479999054,404.9268976999738,404.9268976999738,None,m,1,1.2855239000055008,404.9268976999738,None,,,,,,,pq3,2022_Apr_15_1411,training+cueing,2021.1.4,59.98375639728381,
Self.png,Friend,Self ,m,2.1,16,26,96,,,,,0,0,0,0,,,,,7,9,93,1,,,,,,,,,,,,,,,,,,,,,1.566,1.6,406.33425999997417,None,,,,,,,,,,,,,,,,,,,,406.8736128999735,407.3786903999862,0.5098961199983023,1.0102150199818425,407.36205319999135,407.4787333999993,407.36205319999135,407.4787333999993,407.4620898999856,None,None,0,,407.4620898999856,None,,,,,,,pq3,2022_Apr_15_1411,training+cueing,2021.1.4,59.98375639728381,
Stranger.png,Stranger,Stranger,c,3,13,23,93,,,,,0,0,0,0,,,,,7,10,94,8,,,,,,,,,,,,,,,,,,,,,1.771,2.284,409.13543169997865,None,,,,,,,,,,,,,,,,,,,,409.6755346999853,410.18076469999505,0.5083341200079303,1.0086662200046703,410.1640505999967,410.28072619999875,410.1640505999967,410.28072619999875,410.26410869997926,None,None,0,,410.26410869997926,None,,,,,,,pq3,2022_Apr_15_1411,training+cueing,2021.1.4,59.98375639728381,
Stranger.png,Friend,Stranger,m,2.3,17,27,97,,,,,0,0,0,0,,,,,7,11,95,7,,,,,,,,,,,,,,,,,,,,,1.575,2.013,412.15326309998636,None,,,,,,,,,,,,,,,,,,,,412.71129339997424,413.21630000000005,0.5098152599821333,1.0098388599872123,413.1998143999954,413.3163252999948,413.1998143999954,413.3163252999948,413.29959589999635,None,None,0,,413.29959589999635,None,,,,,,,pq3,2022_Apr_15_1411,training+cueing,2021.1.4,59.98375639728381,
Stranger.png,You,Stranger,m,1.3,15,25,95,,,,,0,0,0,0,,,,,8,0,96,6,,,,,,,,,,,,,,,,,,,,,1.54,1.325,414.98876929999096,None,,,,,,,,,,,,,,,,,,,,415.52733119999175,416.0350302000006,0.5128935200045817,1.0133798200113233,416.0183051999775,416.1183547999826,416.0183051999775,416.1183547999826,416.1183547999826,None,c,0,0.49408730000141077,416.1183547999826,None,,,,,,,pq3,2022_Apr_15_1411,training+cueing,2021.1.4,59.98375639728381,
Friend.png,Stranger,Friend,m,3.2,19,29,99,,,,,0,0,0,0,,,,,8,1,97,5,,,,,,,,,,,,,,,,,,,,,1.478,2.202,416.7430003999907,None,,,,,,,,,,,,,,,,,,,,417.29033379998873,417.80293349997373,0.5080534200242255,1.0083816200203728,417.7862562999944,417.9029829999781,417.7862562999944,417.9029829999781,417.8862762999779,None,None,0,,417.8862762999779,None,,,,,,,pq3,2022_Apr_15_1411,training+cueing,2021.1.4,59.98375639728381,
Self.png,You,Self ,c,1,11,21,91,,,,,0,0,0,0,,,,,8,2,98,9,,,,,,,,,,,,,,,,,,,,,1.446,2.427,419.47612869998557,None,,,,,,,,,,,,,,,,,,,,420.0168652999855,420.5215220999962,0.5097783200035337,1.0101725200074725,420.50489289997495,420.60494909997215,420.50489289997495,420.60494909997215,420.60494909997215,None,m,0,0.807452100008959,420.60494909997215,None,,,,,,,pq3,2022_Apr_15_1411,training+cueing,2021.1.4,59.98375639728381,
Friend.png,Friend,Friend,c,2,12,22,92,,,,,0,0,0,0,,,,,8,3,99,4,,,,,,,,,,,,,,,,,,,,,1.789,1.847,421.54476569997496,None,,,,,,,,,,,,,,,,,,,,422.0826130999776,422.589696799987,0.5114277200191282,1.0117442200426012,422.57300649999524,422.6897464999929,422.57300649999524,422.6897464999929,422.6730506999884,None,c,1,1.4914212000148837,422.6730506999884,None,,,,,,,pq3,2022_Apr_15_1411,training+cueing,2021.1.4,59.98375639728381,
Self.png,Stranger,Self ,m,3.1,18,28,98,,,,,0,0,0,0,,,,,8,4,100,2,,,,,,,,,,,,,,,,,,,,,1.581,1.432,424.2971735999745,None,,,,,,,,,,,,,,,,,,,,424.836553799978,425.3417050999997,0.5106238199805375,1.0109335199813358,425.3249878999777,425.44176029998926,425.3249878999777,425.44176029998926,425.42502869997406,None,None,0,,425.42502869997406,None,,,,,,,pq3,2022_Apr_15_1411,training+cueing,2021.1.4,59.98375639728381,
Stranger.png,Stranger,Stranger,c,3,13,23,93,,,,,0,0,0,0,,,,,8,5,101,11,,,,,,,,,,,,,,,,,,,,,1.792,1.445,427.1133365999849,None,,,,,,,,,,,,,,,,,,,,427.6524280999729,428.1604180999857,0.5150092199910432,1.0152693199925125,428.1437200999935,428.2604687999992,428.1437200999935,428.2604687999992,428.24377029997413,None,c,1,1.1206212999823038,428.24377029997413,None,,,,,,,pq3,2022_Apr_15_1411,training+cueing,2021.1.4,59.98375639728381,
Self.png,Friend,Self ,m,2.1,16,26,96,,,,,0,0,0,0,,,,,8,6,102,1,,,,,,,,,,,,,,,,,,,,,1.522,1.938,429.5008540999843,None,,,,,,,,,,,,,,,,,,,,430.0380264999985,430.54546479997225,0.5129129199776798,1.0132306199811865,430.5287524999876,430.645509999973,430.5287524999876,430.645509999973,430.6287913999986,None,m,1,1.3597340999986045,430.6287913999986,None,,,,,,,pq3,2022_Apr_15_1411,training+cueing,2021.1.4,59.98375639728381,
Stranger.png,Stranger,Stranger,c,3,13,23,93,,,,,0,0,0,0,,,,,8,7,103,8,,,,,,,,,,,,,,,,,,,,,1.418,2.466,432.1204321999976,None,,,,,,,,,,,,,,,,,,,,432.65991059999214,433.16404139998485,0.5083500200125854,1.0086487200169358,433.14735459999065,433.2640867999871,433.14735459999065,433.2640867999871,433.24736389998,None,None,0,,433.24736389998,None,,,,,,,pq3,2022_Apr_15_1411,training+cueing,2021.1.4,59.98375639728381,
Self.png,You,Self ,c,1,11,21,91,,,,,0,0,0,0,,,,,8,8,104,0,,,,,,,,,,,,,,,,,,,,,1.541,2.018,434.76889339997433,None,,,,,,,,,,,,,,,,,,,,435.30846659999224,435.8159575999889,0.5126792200026102,1.0129669199814089,435.7992650999804,435.8993271999934,435.7992650999804,435.8993271999934,435.8993271999934,None,None,0,,435.8993271999934,None,,,,,,,pq3,2022_Apr_15_1411,training+cueing,2021.1.4,59.98375639728381,
Friend.png,You,Friend,m,1.2,14,24,94,,,,,0,0,0,0,,,,,8,9,105,3,,,,,,,,,,,,,,,,,,,,,1.672,1.917,437.55496709997533,None,,,,,,,,,,,,,,,,,,,,438.0930526999873,438.60130749997916,0.5154751200170722,1.0158511199988425,438.5845674999873,438.6846254999982,438.5845674999873,438.6846254999982,438.6846254999982,None,m,1,0.9837047000182793,438.6846254999982,None,,,,,,,pq3,2022_Apr_15_1411,training+cueing,2021.1.4,59.98375639728381,
Stranger.png,Friend,Stranger,m,2.3,17,27,97,,,,,0,0,0,0,,,,,8,10,106,7,,,,,,,,,,,,,,,,,,,,,1.505,2.193,439.79177459998755,None,,,,,,,,,,,,,,,,,,,,440.330011699989,440.8362093999749,0.5112127200118266,1.0115434199979063,440.8195848999894,440.91986349999206,440.8195848999894,440.91986349999206,440.91986349999206,None,c,0,0.556498299993109,440.91986349999206,None,,,,,,,pq3,2022_Apr_15_1411,training+cueing,2021.1.4,59.98375639728381,
Friend.png,Friend,Friend,c,2,12,22,92,,,,,0,0,0,0,,,,,8,11,107,10,,,,,,,,,,,,,,,,,,,,,1.703,2.038,441.609435499995,None,,,,,,,,,,,,,,,,,,,,442.1462743000011,442.65416999999434,0.5140856200305279,1.0145683200098574,442.6375434999936,442.7547982999822,442.6375434999936,442.7547982999822,442.7381376999838,None,None,0,,442.7381376999838,None,,,,,,,pq3,2022_Apr_15_1411,training+cueing,2021.1.4,59.98375639728381,
Self.png,You,Self ,c,1,11,21,91,,,,,0,0,0,0,,,,,9,0,108,9,,,,,,,,,,,,,,,,,,,,,1.564,2.237,444.55975169999874,None,,,,,,,,,,,,,,,,,,,,445.1013996999827,445.6063918999862,0.508739320008317,1.009014320006827,445.58970240000053,445.68973779998487,445.58970240000053,445.68973779998487,445.68973779998487,None,c,1,1.3866527999925893,445.68973779998487,None,,,,,,,pq3,2022_Apr_15_1411,training+cueing,2021.1.4,59.98375639728381,
Friend.png,Friend,Friend,c,2,12,22,92,,,,,0,0,0,0,,,,,9,1,109,4,,,,,,,,,,,,,,,,,,,,,1.482,1.853,447.21371709997766,None,,,,,,,,,,,,,,,,,,,,447.75501629998325,448.2583068999811,0.506946319976123,1.0072018200007733,448.24162960000103,448.3583402999793,448.24162960000103,448.3583402999793,448.34163169999374,None,None,0,,448.34163169999374,None,,,,,,,pq3,2022_Apr_15_1411,training+cueing,2021.1.4,59.98375639728381,
Self.png,Friend,Self ,m,2.1,16,26,96,,,,,0,0,0,0,,,,,9,2,110,1,,,,,,,,,,,,,,,,,,,,,1.783,1.272,449.9307422999991,None,,,,,,,,,,,,,,,,,,,,450.46972499997355,450.9768959999783,0.5117602199898101,1.0121805199887604,450.9602518999891,451.0770903999801,450.9602518999891,451.0770903999801,451.06046339997556,None,m,1,0.9120069000055082,451.06046339997556,None,,,,,,,pq3,2022_Apr_15_1411,training+cueing,2021.1.4,59.98375639728381,
Stranger.png,Friend,Stranger,m,2.3,17,27,97,,,,,0,0,0,0,,,,,9,3,111,7,,,,,,,,,,,,,,,,,,,,,1.514,2.5,452.1018379999732,None,,,,,,,,,,,,,,,,,,,,452.64001609999104,453.14508919999935,0.5106568199989852,1.0109753200085834,453.1284151999862,453.2451747999876,453.1284151999862,453.2451747999876,453.22847429997637,None,None,0,,453.22847429997637,None,,,,,,,pq3,2022_Apr_15_1411,training+cueing,2021.1.4,59.98375639728381,
Friend.png,Friend,Friend,c,2,12,22,92,,,,,0,0,0,0,,,,,9,4,112,10,,,,,,,,,,,,,,,,,,,,,1.54,2.364,454.85051999997813,None,,,,,,,,,,,,,,,,,,,,455.400797099981,455.913893799996,0.5071353199891746,1.0075504200067371,455.8970649999974,456.0139642999857,455.8970649999974,456.0139642999857,455.9972993999836,None,c,1,1.303000299987616,455.9972993999836,None,,,,,,,pq3,2022_Apr_15_1411,training+cueing,2021.1.4,59.98375639728381,
Stranger.png,Stranger,Stranger,c,3,13,23,93,,,,,0,0,0,0,,,,,9,5,113,11,,,,,,,,,,,,,,,,,,,,,1.676,2.384,457.4379560999805,None,,,,,,,,,,,,,,,,,,,,457.9893603999808,458.49903709997307,0.503056719986489,1.0034219200024381,458.4823413999984,458.59907519997796,458.4823413999984,458.59907519997796,458.58238609999535,None,c,1,1.2300191999820527,458.58238609999535,None,,,,,,,pq3,2022_Apr_15_1411,training+cueing,2021.1.4,59.98375639728381,
Friend.png,You,Friend,m,1.2,14,24,94,,,,,0,0,0,0,,,,,9,6,114,3,,,,,,,,,,,,,,,,,,,,,1.667,2.283,459.93992879998405,None,,,,,,,,,,,,,,,,,,,,460.4841301999986,460.9840773999749,0.5007431200065184,1.0010646200098563,460.9674338999903,461.0675415999722,460.9674338999903,461.0675415999722,461.0675415999722,None,m,1,1.4968514000065625,461.0675415999722,None,,,,,,,pq3,2022_Apr_15_1411,training+cueing,2021.1.4,59.98375639728381,
Stranger.png,Stranger,Stranger,c,3,13,23,93,,,,,0,0,0,0,,,,,9,7,115,8,,,,,,,,,,,,,,,,,,,,,1.427,2.088,462.6918576999742,None,,,,,,,,,,,,,,,,,,,,463.2322722999961,463.736112899991,0.5055347199959215,1.0057089200126939,463.7195385999803,463.836132299999,463.7195385999803,463.836132299999,463.8194863999961,None,None,0,,463.8194863999961,None,,,,,,,pq3,2022_Apr_15_1411,training+cueing,2021.1.4,59.98375639728381,
Friend.png,Stranger,Friend,m,3.2,19,29,99,,,,,0,0,0,0,,,,,9,8,116,5,,,,,,,,,,,,,,,,,,,,,1.644,1.207,465.3600597999757,None,,,,,,,,,,,,,,,,,,,,465.9081986999954,466.4213968999975,0.5090600200346671,1.0093749200168531,466.40466749999905,466.5214375999931,466.40466749999905,466.5214375999931,466.5047229999909,None,None,0,,466.5047229999909,None,,,,,,,pq3,2022_Apr_15_1411,training+cueing,2021.1.4,59.98375639728381,
Self.png,Stranger,Self ,m,3.1,18,28,98,,,,,0,0,0,0,,,,,9,9,117,2,,,,,,,,,,,,,,,,,,,,,1.65,2.428,468.261529099982,None,,,,,,,,,,,,,,,,,,,,468.79909009998664,469.3067759999831,0.5142050200083759,1.014523919991916,469.29015469999285,469.40681829999085,469.29015469999285,469.40681829999085,469.3901656999951,None,None,0,,469.3901656999951,None,,,,,,,pq3,2022_Apr_15_1411,training+cueing,2021.1.4,59.98375639728381,
Self.png,You,Self ,c,1,11,21,91,,,,,0,0,0,0,,,,,9,10,118,0,,,,,,,,,,,,,,,,,,,,,1.669,1.491,471.1456064999802,None,,,,,,,,,,,,,,,,,,,,471.7032718999835,472.20894849998876,0.5084870599966962,1.0085998599824961,472.1923948999902,472.29227289999835,472.1923948999902,472.29227289999835,472.29227289999835,None,None,0,,472.29227289999835,None,,,,,,,pq3,2022_Apr_15_1411,training+cueing,2021.1.4,59.98375639728381,
Stranger.png,You,Stranger,m,1.3,15,25,95,,,,,0,0,0,0,,,,,9,11,119,6,,,,,,,,,,,,,,,,,,,,,1.758,2.333,474.0667329999851,None,,,,,,,,,,,,,,,,,,,,474.6061819999886,475.11103479997837,0.5095210200233851,1.0097811200248543,475.0943370999885,475.1943993999739,475.0943370999885,475.1943993999739,475.1943993999739,None,m,1,1.5622465999913402,475.1943993999739,None,,,,,,,pq3,2022_Apr_15_1411,training+cueing,2021.1.4,59.98375639728381,
,,,,,,,,,,,,0,0,0,0,,,,,,,,,,,,,,,,,,,,,,,,,,,,,,,,,,,,,,,,,,,,,,,,,,,,,,,,,,,,,,,,,,,0.014110719988821074,0.5118058199877851,,,,,pq3,2022_Apr_15_1411,training+cueing,2021.1.4,59.98375639728381,
Self.png,Stranger,Self ,m,3.1,18,28,98,,,,,1,0,1,0,0,0,0,2,,,,,,,,,,,,,,,,,477.3952427999757,None,space,52.22353769998881,2.009850539994659,None,531.6351879999856,None,1.517,1.686,534.6491448999732,None,535.1898125000007,535.7048098999949,535.6881521999894,535.8048677999759,535.6881521999894,535.8048677999759,535.7882021999976,None,None,0,,535.7882021999976,None,537.3059186999744,None,,,,,,,,,,,,,,,,,,,,,,,,,,pq3,2022_Apr_15_1411,training+cueing,2021.1.4,59.98375639728381,
Self.png,You,Self ,c,1,11,21,91,,,,,1,0,1,0,0,1,1,9,,,,,,,,,,,,,,,,,,,,,,,,,1.636,2.073,537.7062295999785,None,538.2357882999931,538.7403515999904,538.7236832999915,538.8237058999948,538.7236832999915,538.8237058999948,538.8237058999948,None,None,0,,538.8237058999948,None,540.4749887999787,None,,,,,,,,,,,,,,,,,,,,,,,,,,pq3,2022_Apr_15_1411,training+cueing,2021.1.4,59.98375639728381,
Friend.png,Friend,Friend,c,2,12,22,92,,,,,1,0,1,0,0,2,2,4,,,,,,,,,,,,,,,,,,,,,,,,,1.697,1.949,540.8757665999874,None,541.4076531999744,541.9092805999971,541.892580899992,542.0093109000009,541.892580899992,542.0093109000009,541.9926103999896,None,c,1,0.891566900012549,541.9926103999896,None,542.9089183999749,None,,,,,,,,,,,,,,,,,,,,,,,,,,pq3,2022_Apr_15_1411,training+cueing,2021.1.4,59.98375639728381,
Friend.png,You,Friend,m,1.2,14,24,94,,,,,1,0,1,0,0,3,3,3,,,,,,,,,,,,,,,,,,,,,,,,,1.54,2.146,543.3102507999865,None,543.8396251999948,544.3443452999927,544.3277242999757,544.4277672999888,544.3277242999757,544.4277672999888,544.4277672999888,None,m,1,0.872547199978726,544.4277672999888,None,545.3284564999922,None,,,,,,,,,,,,,,,,,,,,,,,,,,pq3,2022_Apr_15_1411,training+cueing,2021.1.4,59.98375639728381,
Stranger.png,Stranger,Stranger,c,3,13,23,93,,,,,1,0,1,0,0,4,4,8,,,,,,,,,,,,,,,,,,,,,,,,,1.546,2.054,545.7287316999864,None,546.2619423999859,546.7628164999769,546.7461055999738,546.8628764999739,546.7461055999738,546.8628764999739,546.8628764999739,None,c,1,1.2052511000074446,546.8628764999739,None,548.0970814999891,None,,,,,,,,,,,,,,,,,,,,,,,,,,pq3,2022_Apr_15_1411,training+cueing,2021.1.4,59.98375639728381,
Friend.png,Friend,Friend,c,2,12,22,92,,,,,1,0,1,0,0,5,5,10,,,,,,,,,,,,,,,,,,,,,,,,,1.734,2.443,548.497338199988,None,549.0298479999765,549.5314857999911,549.514801399986,549.6315369999793,549.514801399986,549.6315369999793,549.614837000001,None,c,1,1.3493730999762192,549.614837000001,None,550.9825582999911,None,,,,,,,,,,,,,,,,,,,,,,,,,,pq3,2022_Apr_15_1411,training+cueing,2021.1.4,59.98375639728381,
Self.png,Friend,Self ,m,2.1,16,26,96,,,,,1,0,1,0,0,6,6,1,,,,,,,,,,,,,,,,,,,,,,,,,1.701,1.817,551.3828996999946,None,551.9151300999802,552.4170050999965,552.4003219000006,552.5170492999896,552.4003219000006,552.5170492999896,552.5003104999778,None,None,0,,552.5003104999778,None,554.2002328999806,None,,,,,,,,,,,,,,,,,,,,,,,,,,pq3,2022_Apr_15_1411,training+cueing,2021.1.4,59.98375639728381,
Self.png,You,Self ,c,1,11,21,91,,,,,1,0,1,0,0,7,7,0,,,,,,,,,,,,,,,,,,,,,,,,,1.716,1.356,554.601848899998,None,555.1363503999892,555.6359136999818,555.6359136999818,555.7359301999968,555.6359136999818,555.7359301999968,555.7192641999864,None,c,1,1.0532199000008404,555.7192641999864,None,556.8128987999808,None,,,,,,,,,,,,,,,,,,,,,,,,,,pq3,2022_Apr_15_1411,training+cueing,2021.1.4,59.98375639728381,
Stranger.png,Friend,Stranger,m,2.3,17,27,97,,,,,1,0,1,0,0,8,8,7,,,,,,,,,,,,,,,,,,,,,,,,,1.431,2.321,557.2205078999978,None,557.7631647999806,558.2711490999791,558.2545889999892,558.3711973999743,558.2545889999892,558.3711973999743,558.3544715999742,None,None,0,,558.3544715999742,None,559.7920133000007,None,,,,,,,,,,,,,,,,,,,,,,,,,,pq3,2022_Apr_15_1411,training+cueing,2021.1.4,59.98375639728381,
Stranger.png,Stranger,Stranger,c,3,13,23,93,,,,,1,0,1,0,0,9,9,11,,,,,,,,,,,,,,,,,,,,,,,,,1.515,2.116,560.2058381999959,None,560.7352989999927,561.2399229999864,561.2232738999883,561.3399861999787,561.2232738999883,561.3399861999787,561.3233195999928,None,m,0,1.2888292999996338,561.3233195999928,None,562.6409215999884,None,,,,,,,,,,,,,,,,,,,,,,,,,,pq3,2022_Apr_15_1411,training+cueing,2021.1.4,59.98375639728381,
Friend.png,Stranger,Friend,m,3.2,19,29,99,,,,,1,0,1,0,0,10,10,5,,,,,,,,,,,,,,,,,,,,,,,,,1.545,1.61,563.0413087999914,None,563.5722026999865,564.0753277999756,564.0586725999892,564.1753692999773,564.0586725999892,564.1753692999773,564.1586864999845,None,m,1,1.1897217000077944,564.1586864999845,None,565.3910132999881,None,,,,,,,,,,,,,,,,,,,,,,,,,,pq3,2022_Apr_15_1411,training+cueing,2021.1.4,59.98375639728381,
Stranger.png,You,Stranger,m,1.3,15,25,95,,,,,1,0,1,0,0,11,11,6,,,,,,,,,,,,,,,,,,,,,,,,,1.413,1.697,565.7937888999877,None,566.3244044999883,566.8273305999755,566.8107043999771,566.9107431999873,566.8107043999771,566.9107431999873,566.9107431999873,None,m,1,1.1253677000058815,566.9107431999873,None,568.0597127999936,None,,,,,,,,,,,,,,,,,,,,,,,,,,pq3,2022_Apr_15_1411,training+cueing,2021.1.4,59.98375639728381,
Stranger.png,Friend,Stranger,m,2.3,17,27,97,,,,,1,0,1,0,,,,,0,0,0,7,,,,,,,,,,,,,,,,,,,575.0834802999743,None,1.649,1.295,578.5928072999814,None,,,,,,,,,,,,,,,,568.461896199995,None,0.01503054000204429,0.5136974400084,579.1335595999844,579.6365652999957,0.5053257200343069,1.0061815200315323,579.6199429999979,579.7366384999768,579.6199429999979,579.7366384999768,579.7199671999842,None,m,1,1.2921876000182237,579.7199671999842,None,,,,,,,pq3,2022_Apr_15_1411,training+cueing,2021.1.4,59.98375639728381,
Stranger.png,You,Stranger,m,1.3,15,25,95,,,,,1,0,1,0,,,,,0,1,1,6,,,,,,,,,,,,,,,,,,,,,1.79,2.478,581.1454690999817,None,,,,,,,,,,,,,,,,,,,,581.6992888999812,582.2050853999972,0.5127289599913638,1.013615559990285,582.1884413999796,582.2884736999986,582.1884413999796,582.2884736999986,582.2884736999986,None,m,1,1.5080658000078984,582.2884736999986,None,,,,,,,pq3,2022_Apr_15_1411,training+cueing,2021.1.4,59.98375639728381,
Friend.png,Stranger,Friend,m,3.2,19,29,99,,,,,1,0,1,0,,,,,0,2,2,5,,,,,,,,,,,,,,,,,,,,,1.795,1.445,583.9305978999764,None,,,,,,,,,,,,,,,,,,,,584.4858188999933,584.9904552999942,0.5077778599807061,1.0081027599808294,584.973706299992,585.0905143999844,584.973706299992,585.0905143999844,585.0737816999899,None,None,0,,585.0737816999899,None,,,,,,,pq3,2022_Apr_15_1411,training+cueing,2021.1.4,59.98375639728381,
Friend.png,Friend,Friend,c,2,12,22,92,,,,,1,0,1,0,,,,,0,3,3,4,,,,,,,,,,,,,,,,,,,,,1.726,1.405,586.979906099994,None,,,,,,,,,,,,,,,,,,,,587.5209057999891,588.0259496999788,0.5090406200033613,1.009313819988165,588.0093201999844,588.1259845999884,588.0093201999844,588.1259845999884,588.1093229999824,None,c,1,1.686854100000346,588.1093229999824,None,,,,,,,pq3,2022_Apr_15_1411,training+cueing,2021.1.4,59.98375639728381,
Friend.png,You,Friend,m,1.2,14,24,94,,,,,1,0,1,0,,,,,0,4,4,3,,,,,,,,,,,,,,,,,,,,,1.708,2.397,589.9334618999856,None,,,,,,,,,,,,,,,,,,,,590.473348999978,590.9781015999906,0.5065683199791238,1.0070370199682657,590.9614718999946,591.0615841999825,590.9614718999946,591.0615841999825,591.0615841999825,None,m,1,1.4065773999900557,591.0615841999825,None,,,,,,,pq3,2022_Apr_15_1411,training+cueing,2021.1.4,59.98375639728381,
Stranger.png,Stranger,Stranger,c,3,13,23,93,,,,,1,0,1,0,,,,,0,5,5,11,,,,,,,,,,,,,,,,,,,,,1.788,1.231,592.6033484999789,None,,,,,,,,,,,,,,,,,,,,593.1431940999755,593.6466972999915,0.5074433200061321,1.0077574200113304,593.6300302999734,593.7467274999944,593.6300302999734,593.7467274999944,593.7300663999922,None,None,0,,593.7300663999922,None,,,,,,,pq3,2022_Apr_15_1411,training+cueing,2021.1.4,59.98375639728381,
Self.png,You,Self ,c,1,11,21,91,,,,,1,0,1,0,,,,,0,6,6,9,,,,,,,,,,,,,,,,,,,,,1.628,1.239,595.6358604999841,None,,,,,,,,,,,,,,,,,,,,596.1788987999898,596.6822489999759,0.5070833200006746,1.0073532200185582,596.6655413999979,596.7655782999936,596.6655413999979,596.7655782999936,596.7655782999936,None,None,0,,596.7655782999936,None,,,,,,,pq3,2022_Apr_15_1411,training+cueing,2021.1.4,59.98375639728381,
Self.png,You,Self ,c,1,11,21,91,,,,,1,0,1,0,,,,,0,7,7,0,,,,,,,,,,,,,,,,,,,,,1.477,2.064,598.5042610999953,None,,,,,,,,,,,,,,,,,,,,599.0448724999733,599.5511704999954,0.5108242200221866,1.011064520018408,599.5345025999995,599.6345083999913,599.5345025999995,599.6345083999913,599.6345083999913,None,None,0,,599.6345083999913,None,,,,,,,pq3,2022_Apr_15_1411,training+cueing,2021.1.4,59.98375639728381,
Self.png,Friend,Self ,m,2.1,16,26,96,,,,,1,0,1,0,,,,,0,8,8,1,,,,,,,,,,,,,,,,,,,,,1.688,1.542,601.2231615999772,None,,,,,,,,,,,,,,,,,,,,601.766432799981,602.2696262999962,0.5056756199919619,None,602.252924499975,602.3696677999978,602.252924499975,602.3696677999978,602.3529577000008,None,c,0,0.08322549998410977,602.3529577000008,None,,,,,,,pq3,2022_Apr_15_1411,training+cueing,2021.1.4,59.98375639728381,
Self.png,Stranger,Self ,m,3.1,18,28,98,,,,,1,0,1,0,,,,,0,9,9,2,,,,,,,,,,,,,,,,,,,,,1.564,1.896,602.5594370999897,None,,,,,,,,,,,,,,,,,,,,603.0982385999814,603.6038434999937,0.5100140199938323,1.0104380200209562,603.5871506999829,603.7039430000004,603.5871506999829,603.7039430000004,603.6872000999865,None,None,0,,603.6872000999865,None,,,,,,,pq3,2022_Apr_15_1411,training+cueing,2021.1.4,59.98375639728381,
Friend.png,Friend,Friend,c,2,12,22,92,,,,,1,0,1,0,,,,,0,10,10,10,,,,,,,,,,,,,,,,,,,,,1.788,1.93,605.3592278999859,None,,,,,,,,,,,,,,,,,,,,605.9009310999827,606.405920899997,0.5085254199802876,1.0088315199827775,606.3892238999833,606.5059763999889,606.3892238999833,606.5059763999889,606.4892699999909,None,c,1,0.9708774999890011,606.4892699999909,None,,,,,,,pq3,2022_Apr_15_1411,training+cueing,2021.1.4,59.98375639728381,
Stranger.png,Stranger,Stranger,c,3,13,23,93,,,,,1,0,1,0,,,,,0,11,11,8,,,,,,,,,,,,,,,,,,,,,1.792,1.976,607.5958667999948,None,,,,,,,,,,,,,,,,,,,,608.135723799991,608.6408395999752,0.5098949199891649,1.0101736199867446,608.6242241,608.7408997999737,608.6242241,608.7408997999737,608.7242306999979,None,m,0,0.7839513999933843,608.7242306999979,None,,,,,,,pq3,2022_Apr_15_1411,training+cueing,2021.1.4,59.98375639728381,
Self.png,Friend,Self ,m,2.1,16,26,96,,,,,1,0,1,0,,,,,1,0,12,1,,,,,,,,,,,,,,,,,,,,,1.61,1.64,609.6307530999766,None,,,,,,,,,,,,,,,,,,,,610.1709381999972,610.6757285999774,0.5062752200174145,1.0065674200304784,610.6590080999886,610.7757409999904,610.6590080999886,610.7757409999904,610.7590424999944,None,m,1,1.3732842000026722,610.7590424999944,None,,,,,,,pq3,2022_Apr_15_1411,training+cueing,2021.1.4,59.98375639728381,
Friend.png,You,Friend,m,1.2,14,24,94,,,,,1,0,1,0,,,,,1,1,13,3,,,,,,,,,,,,,,,,,,,,,1.788,1.664,612.2665605999937,None,,,,,,,,,,,,,,,,,,,,612.807539899979,613.3108704999904,0.50716911998461,1.0075016199843958,613.2942405999929,613.3943017999991,613.2942405999929,613.3943017999991,613.3943017999991,None,m,1,1.0417330999916885,613.3943017999991,None,,,,,,,pq3,2022_Apr_15_1411,training+cueing,2021.1.4,59.98375639728381,
Stranger.png,Friend,Stranger,m,2.3,17,27,97,,,,,1,0,1,0,,,,,1,2,14,7,,,,,,,,,,,,,,,,,,,,,1.616,2.255,614.567529699998,None,,,,,,,,,,,,,,,,,,,,615.1074358999904,615.6125298999832,0.5090070200094488,1.009415220032679,615.5959142999782,615.712902499974,615.5959142999782,615.712902499974,615.6959317000001,None,m,1,1.44420529998024,615.6959317000001,None,,,,,,,pq3,2022_Apr_15_1411,training+cueing,2021.1.4,59.98375639728381,
Self.png,You,Self ,c,1,11,21,91,,,,,1,0,1,0,,,,,1,3,15,9,,,,,,,,,,,,,,,,,,,,,1.66,2.106,617.2696582999779,None,,,,,,,,,,,,,,,,,,,,617.8093583000009,618.3144954999734,0.5076287199917715,1.007917320006527,618.2978776999807,618.397928499995,618.2978776999807,618.397928499995,618.397928499995,None,None,0,,618.397928499995,None,,,,,,,pq3,2022_Apr_15_1411,training+cueing,2021.1.4,59.98375639728381,
Friend.png,Friend,Friend,c,2,12,22,92,,,,,1,0,1,0,,,,,1,4,16,4,,,,,,,,,,,,,,,,,,,,,1.698,2.136,620.1696800999925,None,,,,,,,,,,,,,,,,,,,,620.713400699984,621.216654399992,0.506073020020267,1.0063356200116687,621.1999851999863,621.3166988999874,621.1999851999863,621.3166988999874,621.2999916999834,None,None,0,,621.2999916999834,None,,,,,,,pq3,2022_Apr_15_1411,training+cueing,2021.1.4,59.98375639728381,
Stranger.png,Stranger,Stranger,c,3,13,23,93,,,,,1,0,1,0,,,,,1,5,17,8,,,,,,,,,,,,,,,,,,,,,1.744,2.242,623.105545599974,None,,,,,,,,,,,,,,,,,,,,623.6463611999934,624.1520988999982,0.5105918199988082,1.0110277200001292,624.1354226999974,624.2520911999745,624.1354226999974,624.2520911999745,624.2354195999797,None,m,0,1.1447872999997344,624.2354195999797,None,,,,,,,pq3,2022_Apr_15_1411,training+cueing,2021.1.4,59.98375639728381,
Self.png,Stranger,Self ,m,3.1,18,28,98,,,,,1,0,1,0,,,,,1,6,18,2,,,,,,,,,,,,,,,,,,,,,1.779,1.803,625.5102634999785,None,,,,,,,,,,,,,,,,,,,,626.0487206999969,626.5538105999876,0.5088764200045262,1.0092123200010974,626.5370917999826,626.653866299981,626.5370917999826,626.653866299981,626.637152899988,None,m,1,0.9188904000038747,626.637152899988,None,,,,,,,pq3,2022_Apr_15_1411,training+cueing,2021.1.4,59.98375639728381,
Friend.png,Friend,Friend,c,2,12,22,92,,,,,1,0,1,0,,,,,1,7,19,10,,,,,,,,,,,,,,,,,,,,,1.488,1.338,627.6775121999963,None,,,,,,,,,,,,,,,,,,,,628.2184734999901,628.7220658999868,0.5062670200131834,1.0065203200210817,628.7054158999817,628.8221343999903,628.7054158999817,628.8221343999903,628.8053936999931,None,c,1,1.2147497000114527,628.8053936999931,None,,,,,,,pq3,2022_Apr_15_1411,training+cueing,2021.1.4,59.98375639728381,
Friend.png,Stranger,Friend,m,3.2,19,29,99,,,,,1,0,1,0,,,,,1,8,20,5,,,,,,,,,,,,,,,,,,,,,1.496,2.42,630.1459233999776,None,,,,,,,,,,,,,,,,,,,,630.6978553999797,631.2072057999903,0.5006881200242788,1.00102842002525,631.1904731999966,631.307278799999,631.1904731999966,631.307278799999,631.307278799999,None,None,0,,631.307278799999,None,,,,,,,pq3,2022_Apr_15_1411,training+cueing,2021.1.4,59.98375639728381,
Self.png,You,Self ,c,1,11,21,91,,,,,1,0,1,0,,,,,1,9,21,0,,,,,,,,,,,,,,,,,,,,,1.412,1.327,632.9158805999905,None,,,,,,,,,,,,,,,,,,,,633.4577286999847,633.9591908000002,0.5034236200153828,1.0037204200343695,633.942475799995,634.0425063000002,633.942475799995,634.0425063000002,634.0425063000002,None,None,0,,634.0425063000002,None,,,,,,,pq3,2022_Apr_15_1411,training+cueing,2021.1.4,59.98375639728381,
Stranger.png,You,Stranger,m,1.3,15,25,95,,,,,1,0,1,0,,,,,1,10,22,6,,,,,,,,,,,,,,,,,,,,,1.715,1.86,635.5639520999976,None,,,,,,,,,,,,,,,,,,,,636.1042757999967,636.6110953999741,0.512578619964188,1.0128989199583884,636.5943869999901,636.6944880999799,636.5943869999901,636.6944880999799,636.6944880999799,None,m,1,1.069607299985364,636.6944880999799,None,,,,,,,pq3,2022_Apr_15_1411,training+cueing,2021.1.4,59.98375639728381,
Stranger.png,Stranger,Stranger,c,3,13,23,93,,,,,1,0,1,0,,,,,1,11,23,11,,,,,,,,,,,,,,,,,,,,,1.725,1.784,637.9016325999983,None,,,,,,,,,,,,,,,,,,,,638.4554218999983,638.9628479999956,0.5139365599607117,1.0148889599659014,638.9461279999814,639.0628778999962,638.9461279999814,639.0628778999962,639.0461500999809,None,c,1,0.9739230000122916,639.0461500999809,None,,,,,,,pq3,2022_Apr_15_1411,training+cueing,2021.1.4,59.98375639728381,
Friend.png,Stranger,Friend,m,3.2,19,29,99,,,,,1,0,1,0,,,,,2,0,24,5,,,,,,,,,,,,,,,,,,,,,1.484,1.978,640.1542126999993,None,,,,,,,,,,,,,,,,,,,,640.6928611999901,641.1977691999928,0.509071819978999,1.009378619986819,641.1810665999947,641.2978172999865,641.1810665999947,641.2978172999865,641.2811138999823,None,m,1,1.410889999999199,641.2811138999823,None,,,,,,,pq3,2022_Apr_15_1411,training+cueing,2021.1.4,59.98375639728381,
Stranger.png,You,Stranger,m,1.3,15,25,95,,,,,1,0,1,0,,,,,2,1,25,6,,,,,,,,,,,,,,,,,,,,,1.683,2.366,642.8221493999881,None,,,,,,,,,,,,,,,,,,,,643.3615968999802,643.8663414999901,0.5090419200132601,1.0094501200364903,643.8496773999941,643.949704300001,643.8496773999941,643.949704300001,643.949704300001,None,c,0,1.1584114000143018,643.949704300001,None,,,,,,,pq3,2022_Apr_15_1411,training+cueing,2021.1.4,59.98375639728381,
Friend.png,Friend,Friend,c,2,12,22,92,,,,,1,0,1,0,,,,,2,2,26,10,,,,,,,,,,,,,,,,,,,,,1.768,2.283,645.2402579999762,None,,,,,,,,,,,,,,,,,,,,645.8002050999785,646.301573499979,0.5012236600159667,1.0014807599945925,646.2849590999831,646.4016083999886,646.2849590999831,646.4016083999886,646.4016083999886,None,c,1,1.55461390002165,646.4016083999886,None,,,,,,,pq3,2022_Apr_15_1411,training+cueing,2021.1.4,59.98375639728381,
Self.png,Friend,Self ,m,2.1,16,26,96,,,,,1,0,1,0,,,,,2,3,27,1,,,,,,,,,,,,,,,,,,,,,1.553,1.839,648.0933235999837,None,,,,,,,,,,,,,,,,,,,,648.6354512999824,649.1368404999957,0.5032910199952312,1.0035207199980505,649.1201355999801,649.2368894999963,649.1201355999801,649.2368894999963,649.2201751999964,None,m,1,1.47178319998784,649.2201751999964,None,,,,,,,pq3,2022_Apr_15_1411,training+cueing,2021.1.4,59.98375639728381,
Self.png,Stranger,Self ,m,3.1,18,28,98,,,,,1,0,1,0,,,,,2,4,28,2,,,,,,,,,,,,,,,,,,,,,1.557,1.914,650.8281944999762,None,,,,,,,,,,,,,,,,,,,,651.3693959999946,651.8721505999856,0.5041343199845869,1.00465551999514,651.8554621999792,651.9722140999802,651.8554621999792,651.9722140999802,651.9554883999808,None,m,1,1.440854800021043,651.9554883999808,None,,,,,,,pq3,2022_Apr_15_1411,training+cueing,2021.1.4,59.98375639728381,
Self.png,You,Self ,c,1,11,21,91,,,,,1,0,1,0,,,,,2,5,29,9,,,,,,,,,,,,,,,,,,,,,1.731,1.968,653.5273185999831,None,,,,,,,,,,,,,,,,,,,,654.0756725999818,654.5907906999928,0.5142034200252965,1.0145069200079888,654.5740706999786,654.6741183999984,654.5740706999786,654.6741183999984,654.6741183999984,None,m,0,1.3459995000157505,654.6741183999984,None,,,,,,,pq3,2022_Apr_15_1411,training+cueing,2021.1.4,59.98375639728381,
Stranger.png,Stranger,Stranger,c,3,13,23,93,,,,,1,0,1,0,,,,,2,6,30,11,,,,,,,,,,,,,,,,,,,,,1.519,2.058,656.1491968999908,None,,,,,,,,,,,,,,,,,,,,656.6864628999901,657.192666899995,0.5113309199805371,1.011631519999355,657.1759519999905,657.2926753999782,657.1759519999905,657.2926753999782,657.2759451999736,None,c,1,1.0000751999905333,657.2759451999736,None,,,,,,,pq3,2022_Apr_15_1411,training+cueing,2021.1.4,59.98375639728381,
Friend.png,You,Friend,m,1.2,14,24,94,,,,,1,0,1,0,,,,,2,7,31,3,,,,,,,,,,,,,,,,,,,,,1.436,1.909,658.3996685999737,None,,,,,,,,,,,,,,,,,,,,658.9405196000007,659.4442442999862,0.506129420013167,1.0064244200184476,659.4276429999736,659.5276947999955,659.4276429999736,659.5276947999955,659.5276947999955,None,None,0,,659.5276947999955,None,,,,,,,pq3,2022_Apr_15_1411,training+cueing,2021.1.4,59.98375639728381,
Stranger.png,Friend,Stranger,m,2.3,17,27,97,,,,,1,0,1,0,,,,,2,8,32,7,,,,,,,,,,,,,,,,,,,,,1.406,1.746,661.0825658999966,None,,,,,,,,,,,,,,,,,,,,661.6278647999861,662.1295516999962,0.5046232200111263,1.0049206200055778,662.1128454999998,662.2295991999854,662.1128454999998,662.2295991999854,662.212918699981,None,None,0,,662.212918699981,None,,,,,,,pq3,2022_Apr_15_1411,training+cueing,2021.1.4,59.98375639728381,
Stranger.png,Stranger,Stranger,c,3,13,23,93,,,,,1,0,1,0,,,,,2,9,33,8,,,,,,,,,,,,,,,,,,,,,1.631,1.993,663.7347630999866,None,,,,,,,,,,,,,,,,,,,,664.2818757999921,664.7814345999795,0.5149669200181961,1.0158593200030737,664.7814345999795,664.8814856999961,664.7814345999795,664.8814856999961,664.8814856999961,None,None,0,,664.8814856999961,None,,,,,,,pq3,2022_Apr_15_1411,training+cueing,2021.1.4,59.98375639728381,
Friend.png,Friend,Friend,c,2,12,22,92,,,,,1,0,1,0,,,,,2,10,34,4,,,,,,,,,,,,,,,,,,,,,1.436,2.272,666.6200449999887,None,,,,,,,,,,,,,,,,,,,,667.1609418999869,667.6668876999756,0.5101093199918978,1.0105831200198736,667.6501723999972,667.7669480999757,667.6501723999972,667.7669480999757,667.7502579999855,None,None,0,,667.7502579999855,None,,,,,,,pq3,2022_Apr_15_1411,training+cueing,2021.1.4,59.98375639728381,
Self.png,You,Self ,c,1,11,21,91,,,,,1,0,1,0,,,,,2,11,35,0,,,,,,,,,,,,,,,,,,,,,1.56,2.339,669.3054980999732,None,,,,,,,,,,,,,,,,,,,,669.847197999974,670.3521647999878,0.5096157200168818,1.0105139200168196,670.3354616999859,670.4355216999829,670.3354616999859,670.4355216999829,670.4355216999829,None,c,1,0.8165928999951575,670.4355216999829,None,,,,,,,pq3,2022_Apr_15_1411,training+cueing,2021.1.4,59.98375639728381,
Stranger.png,Stranger,Stranger,c,3,13,23,93,,,,,1,0,1,0,,,,,3,0,36,11,,,,,,,,,,,,,,,,,,,,,1.714,2.442,671.3765640999773,None,,,,,,,,,,,,,,,,,,,,671.9141854999762,672.4203529999941,0.5100273199786898,1.0103200199955609,672.4036504999967,672.5203873999999,672.4036504999967,672.5203873999999,672.5036571999954,None,m,0,0.7964428999985103,672.5036571999954,None,,,,,,,pq3,2022_Apr_15_1411,training+cueing,2021.1.4,59.98375639728381,
Friend.png,You,Friend,m,1.2,14,24,94,,,,,1,0,1,0,,,,,3,1,37,3,,,,,,,,,,,,,,,,,,,,,1.78,1.47,673.4275983999833,None,,,,,,,,,,,,,,,,,,,,673.9680152999936,674.4718065999914,0.5075304199999664,1.0077777199912816,674.4551616999961,674.5551646999957,674.4551616999961,674.5551646999957,674.5551646999957,None,m,1,1.1127565000206232,674.5551646999957,None,,,,,,,pq3,2022_Apr_15_1411,training+cueing,2021.1.4,59.98375639728381,
Friend.png,Stranger,Friend,m,3.2,19,29,99,,,,,1,0,1,0,,,,,3,2,38,5,,,,,,,,,,,,,,,,,,,,,1.571,1.395,675.7955450000009,None,,,,,,,,,,,,,,,,,,,,676.3933638999879,676.9070872000011,0.5104660400247667,1.010661140026059,676.8903042999736,677.006985999993,676.8903042999736,677.006985999993,676.9902661999804,None,m,1,1.0940117000136524,676.9902661999804,None,,,,,,,pq3,2022_Apr_15_1411,training+cueing,2021.1.4,59.98375639728381,
Self.png,Friend,Self ,m,2.1,16,26,96,,,,,1,0,1,0,,,,,3,3,39,1,,,,,,,,,,,,,,,,,,,,,1.46,1.995,678.21721599999,None,,,,,,,,,,,,,,,,,,,,678.7563181000005,679.2586002999742,0.5036963199963793,1.0040038199804258,679.2418894000002,679.358648399997,679.2418894000002,679.358648399997,679.3419156999735,None,None,0,,679.3419156999735,None,,,,,,,pq3,2022_Apr_15_1411,training+cueing,2021.1.4,59.98375639728381,
Self.png,Stranger,Self ,m,3.1,18,28,98,,,,,1,0,1,0,,,,,3,4,40,2,,,,,,,,,,,,,,,,,,,,,1.479,1.852,680.9139237999916,None,,,,,,,,,,,,,,,,,,,,681.4568434999965,681.960544099973,0.5075976199877914,1.0079337199858855,681.9438900999958,682.0611239999998,681.9438900999958,682.0611239999998,682.044439099991,None,m,1,1.3195665999955963,682.044439099991,None,,,,,,,pq3,2022_Apr_15_1411,training+cueing,2021.1.4,59.98375639728381,
Stranger.png,You,Stranger,m,1.3,15,25,95,,,,,1,0,1,0,,,,,3,5,41,6,,,,,,,,,,,,,,,,,,,,,1.693,2.303,683.5026495999773,None,,,,,,,,,,,,,,,,,,,,684.0492789999989,684.5624392999744,0.5097587199998088,1.0100685200013686,684.5457634999766,684.6458080000011,684.5457634999766,684.6458080000011,684.6458080000011,None,m,1,1.0380831999937072,684.6458080000011,None,,,,,,,pq3,2022_Apr_15_1411,training+cueing,2021.1.4,59.98375639728381,
Friend.png,Friend,Friend,c,2,12,22,92,,,,,1,0,1,0,,,,,3,6,42,4,,,,,,,,,,,,,,,,,,,,,1.484,2.38,685.8194287999941,None,,,,,,,,,,,,,,,,,,,,686.3744019999867,686.8808017999982,0.5119173600105569,1.012216460017953,686.8641240999859,686.9808526999841,686.8641240999859,686.9808526999841,686.9641598999733,None,None,0,,686.9641598999733,None,,,,,,,pq3,2022_Apr_15_1411,training+cueing,2021.1.4,59.98375639728381,
Self.png,You,Self ,c,1,11,21,91,,,,,1,0,1,0,,,,,3,7,43,0,,,,,,,,,,,,,,,,,,,,,1.669,2.317,688.5533746999863,None,,,,,,,,,,,,,,,,,,,,689.0943588999799,689.5995917999826,0.509161120018689,1.0091696199961007,689.5829670999956,689.6827983999974,689.5829670999956,689.6827983999974,689.6827983999974,None,None,0,,689.6827983999974,None,,,,,,,pq3,2022_Apr_15_1411,training+cueing,2021.1.4,59.98375639728381,
Stranger.png,Friend,Stranger,m,2.3,17,27,97,,,,,1,0,1,0,,,,,3,8,44,7,,,,,,,,,,,,,,,,,,,,,1.683,2.253,691.4718006999756,None,,,,,,,,,,,,,,,,,,,,692.0144089999958,692.5181990999845,0.5053363199986052,1.0055756199872121,692.5015533999831,692.6182382999978,692.5015533999831,692.6182382999978,692.6015762999887,None,m,1,1.4503789999871515,692.6015762999887,None,,,,,,,pq3,2022_Apr_15_1411,training+cueing,2021.1.4,59.98375639728381,
Self.png,You,Self ,c,1,11,21,91,,,,,1,0,1,0,,,,,3,9,45,9,,,,,,,,,,,,,,,,,,,,,1.745,2.27,694.1756131000002,None,,,,,,,,,,,,,,,,,,,,694.7340765999979,695.2368342999835,0.5056305600155611,1.0059016600134782,695.2201867999975,695.3201972999959,695.2201867999975,695.3201972999959,695.3201972999959,None,c,1,0.8277748000109568,695.3201972999959,None,,,,,,,pq3,2022_Apr_15_1411,training+cueing,2021.1.4,59.98375639728381,
Stranger.png,Stranger,Stranger,c,3,13,23,93,,,,,1,0,1,0,,,,,3,10,46,8,,,,,,,,,,,,,,,,,,,,,1.451,2.329,696.2767036999867,None,,,,,,,,,,,,,,,,,,,,696.8180686999985,697.3217110999976,0.5064473199890926,1.0067241200013086,697.3050074999919,697.4217338999733,697.3050074999919,697.4217338999733,697.4050449999922,None,None,0,,697.4050449999922,None,,,,,,,pq3,2022_Apr_15_1411,training+cueing,2021.1.4,59.98375639728381,
Friend.png,Friend,Friend,c,2,12,22,92,,,,,1,0,1,0,,,,,3,11,47,10,,,,,,,,,,,,,,,,,,,,,1.758,1.206,698.9600444999814,None,,,,,,,,,,,,,,,,,,,,699.5023988999892,700.0069701999892,0.5063855200132821,1.0067107200156897,699.9902383000008,700.1070607999864,699.9902383000008,700.1070607999864,700.0904724999855,None,c,1,1.1294954000040889,700.0904724999855,None,,,,,,,pq3,2022_Apr_15_1411,training+cueing,2021.1.4,59.98375639728381,
Self.png,You,Self ,c,1,11,21,91,,,,,1,0,1,0,,,,,4,0,48,0,,,,,,,,,,,,,,,,,,,,,1.565,2.484,701.347205099999,None,,,,,,,,,,,,,,,,,,,,701.8874354999862,702.3919675999787,0.5087869199924171,1.0090799200115725,702.3753433999955,702.4753639999835,702.3753433999955,702.4753639999835,702.4753639999835,None,c,1,1.0484995000006165,702.4753639999835,None,,,,,,,pq3,2022_Apr_15_1411,training+cueing,2021.1.4,59.98375639728381,
Stranger.png,You,Stranger,m,1.3,15,25,95,,,,,1,0,1,0,,,,,4,1,49,6,,,,,,,,,,,,,,,,,,,,,1.455,2.371,703.6492609999841,None,,,,,,,,,,,,,,,,,,,,704.185422199982,704.6936244999815,0.5149181199958548,1.0152785200043581,704.6769547000004,704.7770637999929,704.6769547000004,704.7770637999929,704.7770637999929,None,None,0,,704.7770637999929,None,,,,,,,pq3,2022_Apr_15_1411,training+cueing,2021.1.4,59.98375639728381,
Self.png,You,Self ,c,1,11,21,91,,,,,1,0,1,0,,,,,4,2,50,9,,,,,,,,,,,,,,,,,,,,,1.798,2.415,706.3485572999925,None,,,,,,,,,,,,,,,,,,,,706.8875575999846,707.3956050999986,0.513623920007376,1.013907719985582,707.378939999995,707.4789555999741,707.378939999995,707.4789555999741,707.4789555999741,None,None,0,,707.4789555999741,None,,,,,,,pq3,2022_Apr_15_1411,training+cueing,2021.1.4,59.98375639728381,
Stranger.png,Stranger,Stranger,c,3,13,23,93,,,,,1,0,1,0,,,,,4,3,51,8,,,,,,,,,,,,,,,,,,,,,1.507,2.177,709.3844976999972,None,,,,,,,,,,,,,,,,,,,,709.9282926999731,710.4311592999729,0.5047015200252645,1.005221720028203,710.4144614999823,710.5317479999794,710.4144614999823,710.5317479999794,710.515030199982,None,m,0,0.7210390000254847,710.515030199982,None,,,,,,,pq3,2022_Apr_15_1411,training+cueing,2021.1.4,59.98375639728381,
Self.png,Stranger,Self ,m,3.1,18,28,98,,,,,1,0,1,0,,,,,4,4,52,2,,,,,,,,,,,,,,,,,,,,,1.672,1.21,711.3727685999766,None,,,,,,,,,,,,,,,,,,,,711.9083594999975,712.4158701999986,0.5129942199855577,1.013283619977301,712.3992492999823,712.5159365999862,712.3992492999823,712.5159365999862,712.4992619999975,None,m,1,0.9926937999844085,712.4992619999975,None,,,,,,,pq3,2022_Apr_15_1411,training+cueing,2021.1.4,59.98375639728381,
Stranger.png,Stranger,Stranger,c,3,13,23,93,,,,,1,0,1,0,,,,,4,5,53,11,,,,,,,,,,,,,,,,,,,,,1.677,1.971,713.6229406999773,None,,,,,,,,,,,,,,,,,,,,714.1622056999768,714.6677321999741,0.5112179200223181,1.011326720006764,714.6509974999935,714.7675599999784,714.6509974999935,714.7675599999784,714.7508447,None,m,0,1.0451156999915838,714.7508447,None,,,,,,,pq3,2022_Apr_15_1411,training+cueing,2021.1.4,59.98375639728381,
Self.png,Friend,Self ,m,2.1,16,26,96,,,,,1,0,1,0,,,,,4,6,54,1,,,,,,,,,,,,,,,,,,,,,1.523,1.62,715.9247331999941,None,,,,,,,,,,,,,,,,,,,,716.4650793999899,716.9691765999887,0.5071377200074494,1.0074044200009666,716.9525685999834,717.0692634999868,716.9525685999834,717.0692634999868,717.0525876999891,None,None,0,,717.0525876999891,None,,,,,,,pq3,2022_Apr_15_1411,training+cueing,2021.1.4,59.98375639728381,
Friend.png,Friend,Friend,c,2,12,22,92,,,,,1,0,1,0,,,,,4,7,55,4,,,,,,,,,,,,,,,,,,,,,1.775,2.454,718.6908775999909,None,,,,,,,,,,,,,,,,,,,,719.2316596999881,719.7378757999977,0.5103144200111274,1.0105615200009197,719.7211955999956,719.837919499987,719.7211955999956,719.837919499987,719.8212114999769,None,c,1,0.5986989999946672,719.8212114999769,None,,,,,,,pq3,2022_Apr_15_1411,training+cueing,2021.1.4,59.98375639728381,
Friend.png,You,Friend,m,1.2,14,24,94,,,,,1,0,1,0,,,,,4,8,56,3,,,,,,,,,,,,,,,,,,,,,1.791,2.116,720.5444916999841,None,,,,,,,,,,,,,,,,,,,,721.0843406999775,721.5892264999857,0.5099910200224258,1.0102523200330324,721.5725094999943,721.672560099978,721.5725094999943,721.672560099978,721.672560099978,None,None,0,,721.672560099978,None,,,,,,,pq3,2022_Apr_15_1411,training+cueing,2021.1.4,59.98375639728381,
Stranger.png,Friend,Stranger,m,2.3,17,27,97,,,,,1,0,1,0,,,,,4,9,57,7,,,,,,,,,,,,,,,,,,,,,1.688,2.381,723.5778997999732,None,,,,,,,,,,,,,,,,,,,,724.1205804999918,724.6246655999857,0.5070225200033747,1.007322120014578,724.6080703999905,724.7248068999907,724.6080703999905,724.7248068999907,724.7081171999744,None,m,1,1.247830399981467,724.7081171999744,None,,,,,,,pq3,2022_Apr_15_1411,training+cueing,2021.1.4,59.98375639728381,
Friend.png,Friend,Friend,c,2,12,22,92,,,,,1,0,1,0,,,,,4,10,58,10,,,,,,,,,,,,,,,,,,,,,1.501,1.444,726.082096899976,None,,,,,,,,,,,,,,,,,,,,726.6198170999996,727.1267074999923,0.5118670200463384,1.012122120038839,727.1098983999982,727.2265889999981,727.1098983999982,727.2265889999981,727.2099325999734,None,c,1,1.1460543000139296,727.2099325999734,None,,,,,,,pq3,2022_Apr_15_1411,training+cueing,2021.1.4,59.98375639728381,
Friend.png,Stranger,Friend,m,3.2,19,29,99,,,,,1,0,1,0,,,,,4,11,59,5,,,,,,,,,,,,,,,,,,,,,1.561,2.347,728.4844846999913,None,,,,,,,,,,,,,,,,,,,,729.0243259999843,729.5282344999723,0.5068237200321164,1.0071246200241148,729.5116165999789,729.6283076999825,729.5116165999789,729.6283076999825,729.6116667999886,None,m,1,1.4962553000077605,729.6116667999886,None,,,,,,,pq3,2022_Apr_15_1411,training+cueing,2021.1.4,59.98375639728381,
Friend.png,Friend,Friend,c,2,12,22,92,,,,,1,0,1,0,,,,,5,0,60,4,,,,,,,,,,,,,,,,,,,,,1.54,1.636,731.2353158999758,None,,,,,,,,,,,,,,,,,,,,731.7818936999829,732.2970437999757,0.5117581199738197,1.0123767199693248,732.2799325999804,732.397084999975,732.2799325999804,732.397084999975,732.3803933999734,None,m,0,1.5116340999957174,732.3803933999734,None,,,,,,,pq3,2022_Apr_15_1411,training+cueing,2021.1.4,59.98375639728381,
Stranger.png,Stranger,Stranger,c,3,13,23,93,,,,,1,0,1,0,,,,,5,1,61,11,,,,,,,,,,,,,,,,,,,,,1.4,1.542,734.0225164000003,None,,,,,,,,,,,,,,,,,,,,734.5645034999761,735.0658184999775,0.5021533200051636,1.0024296199844684,735.048959399981,735.165711699985,735.048959399981,735.165711699985,735.1489983999927,None,c,1,1.1748870000010356,735.1489983999927,None,,,,,,,pq3,2022_Apr_15_1411,training+cueing,2021.1.4,59.98375639728381,
Friend.png,You,Friend,m,1.2,14,24,94,,,,,1,0,1,0,,,,,5,2,62,3,,,,,,,,,,,,,,,,,,,,,1.635,1.209,736.4562140999769,None,,,,,,,,,,,,,,,,,,,,736.9959128999908,737.500667299988,0.5085897200042382,1.0089051199902315,737.484011099994,737.5841020999942,737.484011099994,737.5841020999942,737.5841020999942,None,m,1,0.8520713000034448,737.5841020999942,None,,,,,,,pq3,2022_Apr_15_1411,training+cueing,2021.1.4,59.98375639728381,
Friend.png,Stranger,Friend,m,3.2,19,29,99,,,,,1,0,1,0,,,,,5,3,63,5,,,,,,,,,,,,,,,,,,,,,1.533,1.895,738.5610891999968,None,,,,,,,,,,,,,,,,,,,,739.0985092999763,739.6022295999865,0.5046455199772026,1.0049392199725844,739.585556999984,739.7022832999937,739.585556999984,739.7022832999937,739.6855969999742,None,m,1,0.8143511000089347,739.6855969999742,None,,,,,,,pq3,2022_Apr_15_1411,training+cueing,2021.1.4,59.98375639728381,
Self.png,Stranger,Self ,m,3.1,18,28,98,,,,,1,0,1,0,,,,,5,4,64,2,,,,,,,,,,,,,,,,,,,,,1.445,1.396,740.6252966999891,None,,,,,,,,,,,,,,,,,,,,741.1722813999804,741.6870843999786,0.51322921999963,1.013508219999494,741.6703905999893,741.7871343999868,741.6703905999893,741.7871343999868,741.7704400999937,None,m,1,1.0813553000043612,741.7704400999937,None,,,,,,,pq3,2022_Apr_15_1411,training+cueing,2021.1.4,59.98375639728381,
Self.png,Friend,Self ,m,2.1,16,26,96,,,,,1,0,1,0,,,,,5,5,65,1,,,,,,,,,,,,,,,,,,,,,1.625,1.704,742.9773120999744,None,,,,,,,,,,,,,,,,,,,,743.5183394999767,744.0220853999781,0.5076551199890673,1.0080003199982457,744.0053780999733,744.1221613999805,744.0053780999733,744.1221613999805,744.1054566999956,None,None,0,,744.1054566999956,None,,,,,,,pq3,2022_Apr_15_1411,training+cueing,2021.1.4,59.98375639728381,
Self.png,You,Self ,c,1,11,21,91,,,,,1,0,1,0,,,,,5,6,66,0,,,,,,,,,,,,,,,,,,,,,1.68,1.801,745.8438561999938,None,,,,,,,,,,,,,,,,,,,,746.3934038000007,746.9074994999974,0.5098005199979525,1.0100698200112674,746.8908726999944,746.9909043999796,746.8908726999944,746.9909043999796,746.9909043999796,None,c,1,1.444999800005462,746.9909043999796,None,,,,,,,pq3,2022_Apr_15_1411,training+cueing,2021.1.4,59.98375639728381,
Stranger.png,You,Stranger,m,1.3,15,25,95,,,,,1,0,1,0,,,,,5,7,67,6,,,,,,,,,,,,,,,,,,,,,1.773,2.346,748.5646054999961,None,,,,,,,,,,,,,,,,,,,,749.1039314999944,749.6094418999855,0.5114091200230177,1.0118441200174857,749.5928017999977,749.6928598999802,749.5928017999977,749.6928598999802,749.6928598999802,None,None,0,,749.6928598999802,None,,,,,,,pq3,2022_Apr_15_1411,training+cueing,2021.1.4,59.98375639728381,
Stranger.png,Stranger,Stranger,c,3,13,23,93,,,,,1,0,1,0,,,,,5,8,68,8,,,,,,,,,,,,,,,,,,,,,1.569,1.769,751.5819656999956,None,,,,,,,,,,,,,,,,,,,,752.1228059999994,752.6283222999773,0.5078755200083833,1.008176520030247,752.6116136999917,752.7284699999727,752.6116136999917,752.7284699999727,752.7117698999937,None,c,1,0.9880733999889344,752.7117698999937,None,,,,,,,pq3,2022_Apr_15_1411,training+cueing,2021.1.4,59.98375639728381,
Self.png,You,Self ,c,1,11,21,91,,,,,1,0,1,0,,,,,5,9,69,9,,,,,,,,,,,,,,,,,,,,,1.416,1.543,753.835239899985,None,,,,,,,,,,,,,,,,,,,,754.3731991999957,754.8799717999937,0.5119413200300187,1.0122126200294588,754.863251599978,754.9632956999994,754.863251599978,754.9632956999994,754.9632956999994,None,None,0,,754.9632956999994,None,,,,,,,pq3,2022_Apr_15_1411,training+cueing,2021.1.4,59.98375639728381,
Stranger.png,Friend,Stranger,m,2.3,17,27,97,,,,,1,0,1,0,,,,,5,10,70,7,,,,,,,,,,,,,,,,,,,,,1.548,1.448,756.4854768999794,None,,,,,,,,,,,,,,,,,,,,757.0432525999786,757.5487225999823,0.5107758599915542,1.0110710599983577,757.5319979999913,757.6487553999759,757.5319979999913,757.6487553999759,757.6320334999764,None,m,1,1.0599938000086695,757.6320334999764,None,,,,,,,pq3,2022_Apr_15_1411,training+cueing,2021.1.4,59.98375639728381,
Friend.png,Friend,Friend,c,2,12,22,92,,,,,1,0,1,0,,,,,5,11,71,10,,,,,,,,,,,,,,,,,,,,,1.458,1.301,758.8236957999761,None,,,,,,,,,,,,,,,,,,,,759.3598911999725,759.8669050999742,0.5120680200052448,1.0123343199957162,759.8502447999781,759.9672384999867,759.8502447999781,759.9672384999867,759.9502408999833,None,None,0,,759.9502408999833,None,,,,,,,pq3,2022_Apr_15_1411,training+cueing,2021.1.4,59.98375639728381,
Stranger.png,Stranger,Stranger,c,3,13,23,93,,,,,1,0,1,0,,,,,6,0,72,11,,,,,,,,,,,,,,,,,,,,,1.559,2.449,761.5217516999983,None,,,,,,,,,,,,,,,,,,,,762.0641647999873,762.5689476999978,0.5078377199824899,1.0081356199807487,762.5521676999924,762.6691279999795,762.5521676999924,762.6691279999795,762.6526082999771,None,None,0,,762.6526082999771,None,,,,,,,pq3,2022_Apr_15_1411,training+cueing,2021.1.4,59.98375639728381,
Friend.png,Friend,Friend,c,2,12,22,92,,,,,1,0,1,0,,,,,6,1,73,10,,,,,,,,,,,,,,,,,,,,,1.431,2.045,764.3240762999922,None,,,,,,,,,,,,,,,,,,,,764.866717500001,765.3708799999731,0.5095496200374328,1.0081349200336263,765.3559122000006,765.470937599981,765.3559122000006,765.470937599981,765.4542232999811,None,c,1,0.7900097999954596,765.4542232999811,None,,,,,,,pq3,2022_Apr_15_1411,training+cueing,2021.1.4,59.98375639728381,
Friend.png,Friend,Friend,c,2,12,22,92,,,,,1,0,1,0,,,,,6,2,74,4,,,,,,,,,,,,,,,,,,,,,1.535,1.573,766.3776000999787,None,,,,,,,,,,,,,,,,,,,,766.9243863999727,767.4390205999953,0.5106912199989893,1.0109841200173832,767.4223448999983,767.5390896999743,767.4223448999983,767.5390896999743,767.5226380999957,None,c,1,1.0572203999909107,767.5226380999957,None,,,,,,,pq3,2022_Apr_15_1411,training+cueing,2021.1.4,59.98375639728381,
Self.png,Stranger,Self ,m,3.1,18,28,98,,,,,1,0,1,0,,,,,6,3,75,2,,,,,,,,,,,,,,,,,,,,,1.644,1.575,768.7123886999907,None,,,,,,,,,,,,,,,,,,,,769.2512618999754,769.757337899995,0.5110586200316902,1.0113218200276606,769.7407199000008,769.8573851999827,769.7407199000008,769.8573851999827,769.8407405999897,None,None,0,,769.8407405999897,None,,,,,,,pq3,2022_Apr_15_1411,training+cueing,2021.1.4,59.98375639728381,
Friend.png,Stranger,Friend,m,3.2,19,29,99,,,,,1,0,1,0,,,,,6,4,76,5,,,,,,,,,,,,,,,,,,,,,1.501,1.258,771.5961643999908,None,,,,,,,,,,,,,,,,,,,,772.1336454999982,772.6428148999985,0.5151668199978303,1.0156631199934054,772.6260914999875,772.7428502999828,772.6260914999875,772.7428502999828,772.7261326999869,None,m,1,0.9258509000064805,772.7261326999869,None,,,,,,,pq3,2022_Apr_15_1411,training+cueing,2021.1.4,59.98375639728381,
Stranger.png,Friend,Stranger,m,2.3,17,27,97,,,,,1,0,1,0,,,,,6,5,77,7,,,,,,,,,,,,,,,,,,,,,1.535,2.069,773.7830870999896,None,,,,,,,,,,,,,,,,,,,,774.3330676999758,774.8444604999968,0.5068127199774608,1.0070945199695416,774.8277330999845,774.9445259999775,774.8277330999845,774.9445259999775,774.9277839999995,None,None,0,,774.9277839999995,None,,,,,,,pq3,2022_Apr_15_1411,training+cueing,2021.1.4,59.98375639728381,
Self.png,You,Self ,c,1,11,21,91,,,,,1,0,1,0,,,,,6,6,78,0,,,,,,,,,,,,,,,,,,,,,1.755,2.426,776.5659143999801,None,,,,,,,,,,,,,,,,,,,,777.1079298999975,777.6130511999945,0.5104523200134281,1.010757720010588,777.596361199976,777.6964218999783,777.596361199976,777.6964218999783,777.6964218999783,None,c,1,0.8834266999911051,777.6964218999783,None,,,,,,,pq3,2022_Apr_15_1411,training+cueing,2021.1.4,59.98375639728381,
Self.png,You,Self ,c,1,11,21,91,,,,,1,0,1,0,,,,,6,7,79,9,,,,,,,,,,,,,,,,,,,,,1.494,1.466,778.7028637999902,None,,,,,,,,,,,,,,,,,,,,779.2414807999739,779.7479902999767,0.5112762200005818,1.0115203199966345,779.7312666999933,779.8312817999977,779.7312666999933,779.8312817999977,779.8312817999977,None,c,1,1.0205564000061713,779.8312817999977,None,,,,,,,pq3,2022_Apr_15_1411,training+cueing,2021.1.4,59.98375639728381,
Stranger.png,You,Stranger,m,1.3,15,25,95,,,,,1,0,1,0,,,,,6,8,80,6,,,,,,,,,,,,,,,,,,,,,1.646,1.324,780.9883737999771,None,,,,,,,,,,,,,,,,,,,,781.5260325999989,782.0330710999842,0.5132403199968394,1.0134701200004201,782.0164378999907,782.116483699996,782.0164378999907,782.116483699996,782.116483699996,None,m,1,1.4554672999947798,782.116483699996,None,,,,,,,pq3,2022_Apr_15_1411,training+cueing,2021.1.4,59.98375639728381,
Stranger.png,Stranger,Stranger,c,3,13,23,93,,,,,1,0,1,0,,,,,6,9,81,8,,,,,,,,,,,,,,,,,,,,,1.591,1.996,783.7085456999775,None,,,,,,,,,,,,,,,,,,,,784.2504440999764,784.7515178999747,0.5024007199972402,1.0026817199832294,784.7348974999913,784.8516024999844,784.7348974999913,784.8516024999844,784.834916199994,None,None,0,,784.834916199994,None,,,,,,,pq3,2022_Apr_15_1411,training+cueing,2021.1.4,59.98375639728381,
Self.png,Friend,Self ,m,2.1,16,26,96,,,,,1,0,1,0,,,,,6,10,82,1,,,,,,,,,,,,,,,,,,,,,1.481,1.434,786.5402696999954,None,,,,,,,,,,,,,,,,,,,,787.0846769999771,787.5869266999944,0.5027043200097978,1.0030139200098347,787.5702441999747,787.6869883999752,787.5702441999747,787.6869883999752,787.6702502999979,None,None,0,,787.6702502999979,None,,,,,,,pq3,2022_Apr_15_1411,training+cueing,2021.1.4,59.98375639728381,
Friend.png,You,Friend,m,1.2,14,24,94,,,,,1,0,1,0,,,,,6,11,83,3,,,,,,,,,,,,,,,,,,,,,1.572,2.085,789.2590061999799,None,,,,,,,,,,,,,,,,,,,,789.7991948999988,790.3055620999949,0.5120905200019479,1.0124211199872661,790.2888636999996,790.3889985999849,790.2888636999996,790.3889985999849,790.3889985999849,None,None,0,,790.3889985999849,None,,,,,,,pq3,2022_Apr_15_1411,training+cueing,2021.1.4,59.98375639728381,
Stranger.png,Friend,Stranger,m,2.3,17,27,97,,,,,1,0,1,0,,,,,7,0,84,7,,,,,,,,,,,,,,,,,,,,,1.749,1.689,792.0810778999876,None,,,,,,,,,,,,,,,,,,,,792.618614099978,793.1242495999904,0.5090045200195163,1.0093109200242907,793.1075986999786,793.2242970999796,793.1075986999786,793.2242970999796,793.2076497999951,None,m,1,1.1480758999823593,793.2076497999951,None,,,,,,,pq3,2022_Apr_15_1411,training+cueing,2021.1.4,59.98375639728381,
Friend.png,Friend,Friend,c,2,12,22,92,,,,,1,0,1,0,,,,,7,1,85,4,,,,,,,,,,,,,,,,,,,,,1.435,1.448,794.481486899982,None,,,,,,,,,,,,,,,,,,,,795.0183092999796,795.5259620999859,0.5156859199923929,1.0159765199932735,795.5093328999938,795.6259872999799,795.5093328999938,795.6259872999799,795.6093850999896,None,None,0,,795.6093850999896,None,,,,,,,pq3,2022_Apr_15_1411,training+cueing,2021.1.4,59.98375639728381,
Stranger.png,You,Stranger,m,1.3,15,25,95,,,,,1,0,1,0,,,,,7,2,86,6,,,,,,,,,,,,,,,,,,,,,1.494,2.274,797.1475366999803,None,,,,,,,,,,,,,,,,,,,,797.7014693999954,798.2113077999966,0.5037099200126249,1.0040126199892256,798.1945774999913,798.294630599994,798.1945774999913,798.294630599994,798.294630599994,None,m,1,1.4691790999786463,798.294630599994,None,,,,,,,pq3,2022_Apr_15_1411,training+cueing,2021.1.4,59.98375639728381,
Friend.png,You,Friend,m,1.2,14,24,94,,,,,1,0,1,0,,,,,7,3,87,3,,,,,,,,,,,,,,,,,,,,,1.746,2.308,799.8851578999893,None,,,,,,,,,,,,,,,,,,,,800.432387799985,800.9465851999994,0.5089401199948043,1.0093487199919764,800.9298634999723,801.0299489999888,800.9298634999723,801.0299489999888,801.0299489999888,None,None,0,,801.0299489999888,None,,,,,,,pq3,2022_Apr_15_1411,training+cueing,2021.1.4,59.98375639728381,
Self.png,Friend,Self ,m,2.1,16,26,96,,,,,1,0,1,0,,,,,7,4,88,1,,,,,,,,,,,,,,,,,,,,,1.578,1.397,802.8858105999825,None,,,,,,,,,,,,,,,,,,,,803.4279618999863,803.9320323999855,0.5077945200027898,1.0080922199995257,803.9154112999968,804.0321238999895,803.9154112999968,804.0321238999895,804.0154522999946,None,c,0,0.6283996000129264,804.0154522999946,None,,,,,,,pq3,2022_Apr_15_1411,training+cueing,2021.1.4,59.98375639728381,
