Image,Name,Face,CorrAns,Match,Face_onset,CResponse_onset,IResponse_onset,Match.thisRepN,Match.thisTrialN,Match.thisN,Match.thisIndex,Blocks.thisRepN,Blocks.thisTrialN,Blocks.thisN,Blocks.thisIndex,trials.thisRepN,trials.thisTrialN,trials.thisN,trials.thisIndex,trials_2.thisRepN,trials_2.thisTrialN,trials_2.thisN,trials_2.thisIndex,text.started,text.stopped,p1.started,p1.stopped,MatchInstructions.started,MatchInstructions.stopped,Name1.started,Name1.stopped,Face_Relevance.started,Face_Relevance.stopped,MismatchInstructions.started,MismatchInstructions.stopped,Rest_trainingInstruct.started,Rest_trainingInstruct.stopped,next8.keys,next8.rt,next8.started,next8.stopped,Ready.started,Ready.stopped,delay_one_picked,delay_two_picked,blank0.started,blank0.stopped,FixationCross1.started,FixationCross1.stopped,Name3.started,Name3.stopped,Face_Relevance3.started,Face_Relevance3.stopped,responseTime.started,responseTime.stopped,resp.keys,resp.corr,resp.rt,resp.started,resp.stopped,Accuracy.started,Accuracy.stopped,questions.started,questions.stopped,p2.started,p2.stopped,FixationCross3.started,FixationCross3.stopped,port_Face_onset.started,port_Face_onset.stopped,Name4.started,Name4.stopped,Face_Relevance4.started,Face_Relevance4.stopped,responseTime2.started,responseTime2.stopped,Response.keys,Response.corr,Response.rt,Response.started,Response.stopped,p3.started,p3.stopped,Finish.started,Finish.stopped,gender,age,participant,date,expName,psychopyVersion,frameRate,
Friend.png,Friend,,,,,,,0,0,0,1,,,,,,,,,,,,,12.835656800074503,None,0.003173339646309614,0.517932339804247,22.7072362001054,None,37.17779910005629,None,37.17779910005629,None,,,,,,,,,,,,,,,,,,,,,,,,,,,,,,,,,,,,,,,,,,,,,,,,,,,,,f,,ps,2022_Apr_04_1053,training+cueing,2021.1.4,60.174373267606704,
Stranger.png,Stranger,,,,,,,0,1,1,2,,,,,,,,,,,,,,,,,,,57.07611960009672,None,57.07611960009672,None,,,,,,,,,,,,,,,,,,,,,,,,,,,,,,,,,,,,,,,,,,,,,,,,,,,,,f,,ps,2022_Apr_04_1053,training+cueing,2021.1.4,60.174373267606704,
Self.png,You,,,,,,,0,2,2,0,,,,,,,,,,,,,,,,,,,77.07312120008282,None,77.07312120008282,None,,,,,,,,,,,,,,,,,,,,,,,,,,,,,,,,,,,,,,,,,,,,,,,,,,,,,f,,ps,2022_Apr_04_1053,training+cueing,2021.1.4,60.174373267606704,
Self.png,You,Self ,c,1,11,21,91,,,,,0,0,0,0,0,0,0,9,,,,,,,,,,,,,,,97.03079189988784,None,141.31341210007668,None,space,0.2806906998157501,2.008184160105884,None,143.59821549989283,None,1.775,2.291,146.61174790002406,None,147.24087160010822,147.75134090008214,147.73493729997426,147.83470400003716,147.73493729997426,147.83470400003716,147.83470400003716,None,c,1,1.2480297000147402,147.83470400003716,None,149.10225180000998,None,,,,,,,,,,,,,,,,,,,,,,,,f,,ps,2022_Apr_04_1053,training+cueing,2021.1.4,60.174373267606704,
Stranger.png,Stranger,Stranger,c,3,13,23,93,,,,,0,0,0,0,0,1,1,8,,,,,,,,,,,,,,,,,,,,,,,,,1.743,2.055,149.50282180006616,None,150.04242189996876,150.5534063000232,150.53696570009924,150.65344720007852,150.53696570009924,150.65344720007852,150.63674240000546,None,c,1,1.1019980998244137,150.63674240000546,None,151.75453480007127,None,,,,,,,,,,,,,,,,,,,,,,,,f,,ps,2022_Apr_04_1053,training+cueing,2021.1.4,60.174373267606704,
Friend.png,Friend,Friend,c,2,12,22,92,,,,,0,0,0,0,0,2,2,4,,,,,,,,,,,,,,,,,,,,,,,,,1.487,2.199,152.15475249988958,None,152.68660830007866,153.18862610007636,153.17220450006425,153.2886822000146,153.17220450006425,153.2886822000146,153.27197930007242,None,c,1,1.2827479999978095,153.27197930007242,None,154.57322590006515,None,,,,,,,,,,,,,,,,,,,,,,,,f,,ps,2022_Apr_04_1053,training+cueing,2021.1.4,60.174373267606704,
Stranger.png,Stranger,Stranger,c,3,13,23,93,,,,,0,0,0,0,0,3,3,11,,,,,,,,,,,,,,,,,,,,,,,,,1.652,1.951,154.97344610001892,None,155.50337589997798,156.00735830003396,155.99092640005983,156.1073568998836,155.99092640005983,156.1073568998836,156.09071910008788,None,None,0,,156.09071910008788,None,157.74086160003208,None,,,,,,,,,,,,,,,,,,,,,,,,f,,ps,2022_Apr_04_1053,training+cueing,2021.1.4,60.174373267606704,
Friend.png,You,Friend,m,1.2,14,24,94,,,,,0,0,0,0,0,4,4,3,,,,,,,,,,,,,,,,,,,,,,,,,1.447,1.478,158.1423162999563,None,158.6743896000553,159.1763206999749,159.15989349992014,159.25970409996808,159.15989349992014,159.25970409996808,159.25970409996808,None,c,0,0.7990348001476377,159.25970409996808,None,160.0772482000757,None,,,,,,,,,,,,,,,,,,,,,,,,f,,ps,2022_Apr_04_1053,training+cueing,2021.1.4,60.174373267606704,
Friend.png,Stranger,Friend,m,3.2,19,29,99,,,,,0,0,0,0,0,5,5,5,,,,,,,,,,,,,,,,,,,,,,,,,1.688,1.721,160.4773424998857,None,161.01170910010114,161.5113607000094,161.49491950008087,161.61144030001014,161.49491950008087,161.61144030001014,161.61144030001014,None,c,0,1.1832189001142979,161.61144030001014,None,162.81255539995618,None,,,,,,,,,,,,,,,,,,,,,,,,f,,ps,2022_Apr_04_1053,training+cueing,2021.1.4,60.174373267606704,
Stranger.png,Friend,Stranger,m,2.3,17,27,97,,,,,0,0,0,0,0,6,6,7,,,,,,,,,,,,,,,,,,,,,,,,,1.414,1.511,163.21270240005106,None,163.7434654000681,164.2466410000343,164.2302063999232,164.34669580007903,164.2302063999232,164.34669580007903,164.32996420003474,None,c,0,1.2167956999037415,164.32996420003474,None,165.56457430007868,None,,,,,,,,,,,,,,,,,,,,,,,,f,,ps,2022_Apr_04_1053,training+cueing,2021.1.4,60.174373267606704,
Self.png,You,Self ,c,1,11,21,91,,,,,0,0,0,0,0,7,7,0,,,,,,,,,,,,,,,,,,,,,,,,,1.543,2.348,165.96467279992066,None,166.4980258999858,166.99865290010348,166.98221919988282,167.0820146999322,166.98221919988282,167.0820146999322,167.0820146999322,None,c,1,1.3768081001471728,167.0820146999322,None,168.50000289990567,None,,,,,,,,,,,,,,,,,,,,,,,,f,,ps,2022_Apr_04_1053,training+cueing,2021.1.4,60.174373267606704,
Self.png,Friend,Self ,m,2.1,16,26,96,,,,,0,0,0,0,0,8,8,1,,,,,,,,,,,,,,,,,,,,,,,,,1.596,1.714,168.90019980003126,None,169.43134759995155,169.9342996000778,169.91767310001887,170.03418849990703,169.91767310001887,170.03418849990703,170.0174585999921,None,c,0,1.5453527998179197,170.0174585999921,None,171.5908294999972,None,,,,,,,,,,,,,,,,,,,,,,,,f,,ps,2022_Apr_04_1053,training+cueing,2021.1.4,60.174373267606704,
Stranger.png,You,Stranger,m,1.3,15,25,95,,,,,0,0,0,0,0,9,9,6,,,,,,,,,,,,,,,,,,,,,,,,,1.653,1.976,172.0023759000469,None,172.53146740002558,173.0363811000716,173.0199049001094,173.11971100000665,173.0199049001094,173.11971100000665,173.11971100000665,None,m,1,1.259057000046596,173.11971100000665,None,174.4031607999932,None,,,,,,,,,,,,,,,,,,,,,,,,f,,ps,2022_Apr_04_1053,training+cueing,2021.1.4,60.174373267606704,
Friend.png,Friend,Friend,c,2,12,22,92,,,,,0,0,0,0,0,10,10,10,,,,,,,,,,,,,,,,,,,,,,,,,1.646,2.018,174.8046315999236,None,175.34188549988903,175.85506380000152,175.83860219991766,175.9552370000165,175.83860219991766,175.9552370000165,175.9385273999069,None,m,0,0.9362389999441803,175.9385273999069,None,176.9081892000977,None,,,,,,,,,,,,,,,,,,,,,,,,f,,ps,2022_Apr_04_1053,training+cueing,2021.1.4,60.174373267606704,
Self.png,Stranger,Self ,m,3.1,18,28,98,,,,,0,0,0,0,0,11,11,2,,,,,,,,,,,,,,,,,,,,,,,,,1.573,1.459,177.3235267000273,None,177.86106489994563,178.3735797998961,178.3571214999538,178.47442819993012,178.3571214999538,178.47442819993012,178.45690930006094,None,c,0,0.7539262999780476,178.45690930006094,None,179.23959179990925,None,,,,,,,,,,,,,,,,,,,,,,,,f,,ps,2022_Apr_04_1053,training+cueing,2021.1.4,60.174373267606704,
Self.png,You,Self ,c,1,11,21,91,,,,,0,0,0,0,,,,,0,0,0,0,,,,,,,,,,,,,,,,,,,203.22462609992363,None,1.532,2.233,206.74687759997323,None,,,,,,,,,,,,,,,,179.6415303000249,None,0.014383960049599409,0.5123915600124747,207.3774381999392,207.87821449991316,0.49945053993724287,0.9997531399130821,207.86175019992515,207.96185550000519,207.86175019992515,207.96185550000519,207.96185550000519,None,c,1,1.0891347001306713,207.96185550000519,None,,,,,f,,ps,2022_Apr_04_1053,training+cueing,2021.1.4,60.174373267606704,
Stranger.png,You,Stranger,m,1.3,15,25,95,,,,,0,0,0,0,,,,,0,1,1,6,,,,,,,,,,,,,,,,,,,,,1.627,1.768,209.18662849999964,None,,,,,,,,,,,,,,,,,,,,209.7248649999965,210.2299138000235,0.5111108799465001,1.011394179891795,210.21344730001874,210.3132595999632,210.21344730001874,210.3132595999632,210.3132595999632,None,c,0,0.9775010000448674,210.3132595999632,None,,,,,f,,ps,2022_Apr_04_1053,training+cueing,2021.1.4,60.174373267606704,
Self.png,Stranger,Self ,m,3.1,18,28,98,,,,,0,0,0,0,,,,,0,2,2,2,,,,,,,,,,,,,,,,,,,,,1.528,1.231,211.42031110008247,None,,,,,,,,,,,,,,,,,,,,211.96347449999303,212.46482630004175,0.5046158800832927,1.0049311800394207,212.44842640007846,212.56491299998015,212.44842640007846,212.56491299998015,212.54822129989043,None,None,0,,212.54822129989043,None,,,,,f,,ps,2022_Apr_04_1053,training+cueing,2021.1.4,60.174373267606704,
Friend.png,Friend,Friend,c,2,12,22,92,,,,,0,0,0,0,,,,,0,3,3,10,,,,,,,,,,,,,,,,,,,,,1.628,2.453,214.1874235998839,None,,,,,,,,,,,,,,,,,,,,214.73044349998236,215.23350519989617,0.505829979898408,1.006080579943955,215.2171098999679,215.33355690003373,215.2171098999679,215.33355690003373,215.31688009994105,None,None,0,,215.31688009994105,None,,,,,f,,ps,2022_Apr_04_1053,training+cueing,2021.1.4,60.174373267606704,
Stranger.png,Friend,Stranger,m,2.3,17,27,97,,,,,0,0,0,0,,,,,0,4,4,7,,,,,,,,,,,,,,,,,,,,,1.528,1.795,217.05583949992433,None,,,,,,,,,,,,,,,,,,,,217.5964333000593,218.10225889994763,0.5111328798811883,None,218.08581040007994,218.20229130005464,218.08581040007994,218.20229130005464,218.18560440000147,None,c,0,0.1452290997840464,218.18560440000147,None,,,,,f,,ps,2022_Apr_04_1053,training+cueing,2021.1.4,60.174373267606704,
Stranger.png,Stranger,Stranger,c,3,13,23,93,,,,,0,0,0,0,,,,,0,5,5,8,,,,,,,,,,,,,,,,,,,,,1.417,1.927,218.45886459993199,None,,,,,,,,,,,,,,,,,,,,219.00095329992473,219.50326090003364,0.5051721800118685,1.0055886800400913,219.48686819989234,219.60416129999794,219.48686819989234,219.60416129999794,219.58746999991126,None,m,0,1.143316200003028,219.58746999991126,None,,,,,f,,ps,2022_Apr_04_1053,training+cueing,2021.1.4,60.174373267606704,
Self.png,You,Self ,c,1,11,21,91,,,,,0,0,0,0,,,,,0,6,6,9,,,,,,,,,,,,,,,,,,,,,1.626,1.626,220.86161289992742,None,,,,,,,,,,,,,,,,,,,,221.40144899999723,221.9050141000189,0.5067609800025821,1.0070434799417853,221.888598700054,221.98842699988745,221.888598700054,221.98842699988745,221.98842699988745,None,c,1,1.51041020010598,221.98842699988745,None,,,,,f,,ps,2022_Apr_04_1053,training+cueing,2021.1.4,60.174373267606704,
Friend.png,You,Friend,m,1.2,14,24,94,,,,,0,0,0,0,,,,,0,7,7,3,,,,,,,,,,,,,,,,,,,,,1.437,2.312,223.62941839988343,None,,,,,,,,,,,,,,,,,,,,224.16825879993849,224.67369910003617,0.5113608797546476,1.0115121798589826,224.65728270006366,224.7570277999621,224.65728270006366,224.7570277999621,224.7570277999621,None,m,1,0.9497388999443501,224.7570277999621,None,,,,,f,,ps,2022_Apr_04_1053,training+cueing,2021.1.4,60.174373267606704,
Friend.png,Stranger,Friend,m,3.2,19,29,99,,,,,0,0,0,0,,,,,0,8,8,5,,,,,,,,,,,,,,,,,,,,,1.685,1.5,225.8306072000414,None,,,,,,,,,,,,,,,,,,,,226.38684209994972,226.89199150004424,0.5082273401785642,1.0083226403221488,226.87567569990642,226.99199329991825,226.87567569990642,226.99199329991825,226.97529019997455,None,None,0,,226.97529019997455,None,,,,,f,,ps,2022_Apr_04_1053,training+cueing,2021.1.4,60.174373267606704,
Stranger.png,Stranger,Stranger,c,3,13,23,93,,,,,0,0,0,0,,,,,0,9,9,11,,,,,,,,,,,,,,,,,,,,,1.499,1.424,228.76441200007685,None,,,,,,,,,,,,,,,,,,,,229.30483949999325,229.8107261999976,0.5124177800025791,1.012785879895091,229.7942766000051,229.91078840009868,229.7942766000051,229.91078840009868,229.89407270005904,None,c,1,0.7406949000433087,229.89407270005904,None,,,,,f,,ps,2022_Apr_04_1053,training+cueing,2021.1.4,60.174373267606704,
Friend.png,Friend,Friend,c,2,12,22,92,,,,,0,0,0,0,,,,,0,10,10,4,,,,,,,,,,,,,,,,,,,,,1.494,2.085,230.76803850010037,None,,,,,,,,,,,,,,,,,,,,231.30890659987926,231.812161100097,0.5066389800049365,1.0069001798983663,231.79573150002398,231.9122184999287,231.79573150002398,231.9122184999287,231.8955262999516,None,None,0,,231.8955262999516,None,,,,,f,,ps,2022_Apr_04_1053,training+cueing,2021.1.4,60.174373267606704,
Self.png,Friend,Self ,m,2.1,16,26,96,,,,,0,0,0,0,,,,,0,11,11,1,,,,,,,,,,,,,,,,,,,,,1.64,1.982,233.50120060006157,None,,,,,,,,,,,,,,,,,,,,234.04139550006948,234.54761100001633,0.511472679907456,1.012203980004415,234.53116389992647,234.64751480007544,234.53116389992647,234.64751480007544,234.63089310005307,None,m,1,1.3318517999723554,234.63089310005307,None,,,,,f,,ps,2022_Apr_04_1053,training+cueing,2021.1.4,60.174373267606704,
Friend.png,Friend,Friend,c,2,12,22,92,,,,,0,0,0,0,,,,,1,0,12,4,,,,,,,,,,,,,,,,,,,,,1.43,1.7,236.08996909996495,None,,,,,,,,,,,,,,,,,,,,236.62840209994465,237.13295509992167,0.509488679934293,1.009783779969439,237.11623049993068,237.23273429996334,237.11623049993068,237.23273429996334,237.21603529993445,None,c,1,1.2107908001635224,237.21603529993445,None,,,,,f,,ps,2022_Apr_04_1053,training+cueing,2021.1.4,60.174373267606704,
Self.png,Friend,Self ,m,2.1,16,26,96,,,,,0,0,0,0,,,,,1,1,13,1,,,,,,,,,,,,,,,,,,,,,1.472,1.221,238.5570692999754,None,,,,,,,,,,,,,,,,,,,,239.09430360002443,239.6011105000507,0.5131580799352378,1.0134971800725907,239.5847008000128,239.70117189991288,239.5847008000128,239.70117189991288,239.68449290003628,None,m,1,1.030369200045243,239.68449290003628,None,,,,,f,,ps,2022_Apr_04_1053,training+cueing,2021.1.4,60.174373267606704,
Friend.png,Friend,Friend,c,2,12,22,92,,,,,0,0,0,0,,,,,1,2,14,10,,,,,,,,,,,,,,,,,,,,,1.566,2.221,240.8418195999693,None,,,,,,,,,,,,,,,,,,,,241.3769811000675,241.88609399995767,0.49932207982055843,0.99962377990596,241.85298709990457,241.95281299995258,241.85298709990457,241.95281299995258,241.95281299995258,None,c,1,1.145974799990654,241.95281299995258,None,,,,,f,,ps,2022_Apr_04_1053,training+cueing,2021.1.4,60.174373267606704,
Stranger.png,Stranger,Stranger,c,3,13,23,93,,,,,0,0,0,0,,,,,1,3,15,11,,,,,,,,,,,,,,,,,,,,,1.436,2.075,243.2268679998815,None,,,,,,,,,,,,,,,,,,,,243.76875309995376,244.27117320010439,0.505605380050838,1.0058865800965577,244.25475839991122,244.37122450000606,244.25475839991122,244.37122450000606,244.35453990008682,None,m,0,0.9362886999733746,244.35453990008682,None,,,,,f,,ps,2022_Apr_04_1053,training+cueing,2021.1.4,60.174373267606704,
Stranger.png,Stranger,Stranger,c,3,13,23,93,,,,,0,0,0,0,,,,,1,4,16,8,,,,,,,,,,,,,,,,,,,,,1.748,1.224,245.4283714001067,None,,,,,,,,,,,,,,,,,,,,245.9652404000517,246.47276100004092,0.5128810799214989,1.0134137799032032,246.45635710004717,246.5729571999982,246.45635710004717,246.5729571999982,246.55626070010476,None,None,0,,246.55626070010476,None,,,,,f,,ps,2022_Apr_04_1053,training+cueing,2021.1.4,60.174373267606704,
Self.png,You,Self ,c,1,11,21,91,,,,,0,0,0,0,,,,,1,5,17,0,,,,,,,,,,,,,,,,,,,,,1.589,1.459,248.4119051999878,None,,,,,,,,,,,,,,,,,,,,248.95625999988988,249.45824639988132,0.5057324799709022,1.0060698799788952,249.4418047000654,249.54161760001443,249.4418047000654,249.54161760001443,249.54161760001443,None,c,1,0.9011874001007527,249.54161760001443,None,,,,,f,,ps,2022_Apr_04_1053,training+cueing,2021.1.4,60.174373267606704,
Friend.png,You,Friend,m,1.2,14,24,94,,,,,0,0,0,0,,,,,1,6,18,3,,,,,,,,,,,,,,,,,,,,,1.455,1.671,250.565403399989,None,,,,,,,,,,,,,,,,,,,,251.1019659000449,251.609920399962,0.5148508797865361,1.0150515798013657,251.59342249995098,251.69318570010364,251.59342249995098,251.69318570010364,251.69318570010364,None,m,1,1.133592100115493,251.69318570010364,None,,,,,f,,ps,2022_Apr_04_1053,training+cueing,2021.1.4,60.174373267606704,
Stranger.png,Friend,Stranger,m,2.3,17,27,97,,,,,0,0,0,0,,,,,1,7,19,7,,,,,,,,,,,,,,,,,,,,,1.468,1.776,252.95068300003186,None,,,,,,,,,,,,,,,,,,,,253.4921711999923,253.99500599992462,0.5044733798131347,1.0047230799682438,253.97853829991072,254.09509390010498,253.97853829991072,254.09509390010498,254.07832410000265,None,None,0,,254.07832410000265,None,,,,,f,,ps,2022_Apr_04_1053,training+cueing,2021.1.4,60.174373267606704,
Self.png,You,Self ,c,1,11,21,91,,,,,0,0,0,0,,,,,1,8,20,9,,,,,,,,,,,,,,,,,,,,,1.63,2.272,255.65035840007477,None,,,,,,,,,,,,,,,,,,,,256.2157809000928,256.73020710004494,0.5147607398685068,1.0151293398812413,256.71374040003866,256.81353679997846,256.71374040003866,256.81353679997846,256.81353679997846,None,c,1,0.957220199983567,256.81353679997846,None,,,,,f,,ps,2022_Apr_04_1053,training+cueing,2021.1.4,60.174373267606704,
Self.png,Stranger,Self ,m,3.1,18,28,98,,,,,0,0,0,0,,,,,1,9,21,2,,,,,,,,,,,,,,,,,,,,,1.776,1.939,257.9041641999502,None,,,,,,,,,,,,,,,,,,,,258.44705830002204,258.9484713000711,0.5042401796672493,1.0044419798068702,258.9320861999877,259.04853020003065,258.9320861999877,259.04853020003065,259.03180329990573,None,m,1,0.8829518998973072,259.03180329990573,None,,,,,f,,ps,2022_Apr_04_1053,training+cueing,2021.1.4,60.174373267606704,
Friend.png,Stranger,Friend,m,3.2,19,29,99,,,,,0,0,0,0,,,,,1,10,22,5,,,,,,,,,,,,,,,,,,,,,1.771,2.334,260.0387472999282,None,,,,,,,,,,,,,,,,,,,,260.57526750001125,261.0833290000446,0.5140970798674971,1.0144201798830181,261.0668558999896,261.1833681000862,261.0668558999896,261.1833681000862,261.166685000062,None,m,1,1.2920985000673681,261.166685000062,None,,,,,f,,ps,2022_Apr_04_1053,training+cueing,2021.1.4,60.174373267606704,
Stranger.png,You,Stranger,m,1.3,15,25,95,,,,,0,0,0,0,,,,,1,11,23,6,,,,,,,,,,,,,,,,,,,,,1.528,1.674,262.59079129993916,None,,,,,,,,,,,,,,,,,,,,263.12922349991277,263.635215499904,0.5114597796928138,1.0117386798374355,263.61873560003005,263.71850330010056,263.61873560003005,263.71850330010056,263.71850330010056,None,m,1,1.284244699869305,263.71850330010056,None,,,,,f,,ps,2022_Apr_04_1053,training+cueing,2021.1.4,60.174373267606704,
Stranger.png,You,Stranger,m,1.3,15,25,95,,,,,0,0,0,0,,,,,2,0,24,6,,,,,,,,,,,,,,,,,,,,,1.642,2.209,265.1261241999455,None,,,,,,,,,,,,,,,,,,,,265.6655915998854,266.170323099941,0.5075832800939679,1.0078732802066952,266.1539143000264,266.2537211999297,266.1539143000264,266.2537211999297,266.2537211999297,None,m,1,0.9570448000449687,266.2537211999297,None,,,,,f,,ps,2022_Apr_04_1053,training+cueing,2021.1.4,60.174373267606704,
Friend.png,You,Friend,m,1.2,14,24,94,,,,,0,0,0,0,,,,,2,1,25,3,,,,,,,,,,,,,,,,,,,,,1.576,2.144,267.3440777999349,None,,,,,,,,,,,,,,,,,,,,267.88366769999266,268.388619299978,0.5109307796228677,1.0112351798452437,268.37215490010567,268.4719781000167,268.37215490010567,268.4719781000167,268.4719781000167,None,m,1,1.0428084000013769,268.4719781000167,None,,,,,f,,ps,2022_Apr_04_1053,training+cueing,2021.1.4,60.174373267606704,
Self.png,You,Self ,c,1,11,21,91,,,,,0,0,0,0,,,,,2,2,26,9,,,,,,,,,,,,,,,,,,,,,1.467,2.149,269.64535910007544,None,,,,,,,,,,,,,,,,,,,,270.18299899995327,270.6902560000308,0.5145860800985247,1.0148724799510092,270.67382150003687,270.77363010006957,270.67382150003687,270.77363010006957,270.77363010006957,None,c,1,0.8051046000327915,270.77363010006957,None,,,,,f,,ps,2022_Apr_04_1053,training+cueing,2021.1.4,60.174373267606704,
Friend.png,Stranger,Friend,m,3.2,19,29,99,,,,,0,0,0,0,,,,,2,3,27,5,,,,,,,,,,,,,,,,,,,,,1.738,1.611,271.71417509997264,None,,,,,,,,,,,,,,,,,,,,272.2551229998935,272.75840390007943,0.5043420800939202,1.004635580116883,272.7419861999806,272.8584910000209,272.7419861999806,272.8584910000209,272.8417505999096,None,m,1,0.8809998000506312,272.8417505999096,None,,,,,f,,ps,2022_Apr_04_1053,training+cueing,2021.1.4,60.174373267606704,
Self.png,Stranger,Self ,m,3.1,18,28,98,,,,,0,0,0,0,,,,,2,4,28,2,,,,,,,,,,,,,,,,,,,,,1.439,1.543,273.84837789996527,None,,,,,,,,,,,,,,,,,,,,274.3860400998965,274.8933129000943,0.5142648799810559,1.0145467799156904,274.8768909999635,274.9933750999626,274.8768909999635,274.9933750999626,274.9766985999886,None,m,1,0.9700986999087036,274.9766985999886,None,,,,,f,,ps,2022_Apr_04_1053,training+cueing,2021.1.4,60.174373267606704,
Stranger.png,Stranger,Stranger,c,3,13,23,93,,,,,0,0,0,0,,,,,2,5,29,8,,,,,,,,,,,,,,,,,,,,,1.537,2.323,276.0840867999941,None,,,,,,,,,,,,,,,,,,,,276.62410910008475,277.12826630007476,0.5099500801879913,1.0102387801744044,277.1118139999453,277.22832949995063,277.1118139999453,277.22832949995063,277.2116135000251,None,m,0,0.8312152998987585,277.2116135000251,None,,,,,f,,ps,2022_Apr_04_1053,training+cueing,2021.1.4,60.174373267606704,
Self.png,You,Self ,c,1,11,21,91,,,,,0,0,0,0,,,,,2,6,30,0,,,,,,,,,,,,,,,,,,,,,1.652,2.191,278.1685355999507,None,,,,,,,,,,,,,,,,,,,,278.7089450999629,279.2130881000776,0.5069299798924476,1.0072775799781084,279.1966836999636,279.2964761001058,279.1966836999636,279.2964761001058,279.2964761001058,None,c,1,0.8743010999169201,279.2964761001058,None,,,,,f,,ps,2022_Apr_04_1053,training+cueing,2021.1.4,60.174373267606704,
Stranger.png,Friend,Stranger,m,2.3,17,27,97,,,,,0,0,0,0,,,,,2,7,31,7,,,,,,,,,,,,,,,,,,,,,1.526,2.22,280.30372949992307,None,,,,,,,,,,,,,,,,,,,,280.8609201000072,281.3646782999858,0.5087614399380982,1.0090560400858521,281.3482580999844,281.4647828999441,281.3482580999844,281.4647828999441,281.4484103000723,None,m,1,1.3143480999860913,281.4484103000723,None,,,,,f,,ps,2022_Apr_04_1053,training+cueing,2021.1.4,60.174373267606704,
Friend.png,Friend,Friend,c,2,12,22,92,,,,,0,0,0,0,,,,,2,8,32,10,,,,,,,,,,,,,,,,,,,,,1.439,1.663,282.88892580009997,None,,,,,,,,,,,,,,,,,,,,283.42782499990426,283.9332113000564,0.5097118800040334,1.009993280051276,283.91674360004254,284.03320559998974,283.91674360004254,284.03320559998974,284.01651180000044,None,c,1,1.082169699948281,284.01651180000044,None,,,,,f,,ps,2022_Apr_04_1053,training+cueing,2021.1.4,60.174373267606704,
Self.png,Friend,Self ,m,2.1,16,26,96,,,,,0,0,0,0,,,,,2,9,33,1,,,,,,,,,,,,,,,,,,,,,1.716,1.403,285.2245322999079,None,,,,,,,,,,,,,,,,,,,,285.76355740008876,286.26822740002535,0.5103600798174739,1.010611779987812,286.251816800097,286.3682603999041,286.251816800097,286.3682603999041,286.3515761999879,None,m,1,1.0869593999814242,286.3515761999879,None,,,,,f,,ps,2022_Apr_04_1053,training+cueing,2021.1.4,60.174373267606704,
Friend.png,Friend,Friend,c,2,12,22,92,,,,,0,0,0,0,,,,,2,10,34,4,,,,,,,,,,,,,,,,,,,,,1.648,2.494,287.5639396000188,None,,,,,,,,,,,,,,,,,,,,288.09884679992683,288.6032589999959,0.5090105799026787,1.009351379936561,288.58676370000467,288.7032900999766,288.58676370000467,288.7032900999766,288.68657650006935,None,m,0,1.084297199966386,288.68657650006935,None,,,,,f,,ps,2022_Apr_04_1053,training+cueing,2021.1.4,60.174373267606704,
Stranger.png,Stranger,Stranger,c,3,13,23,93,,,,,0,0,0,0,,,,,2,11,35,11,,,,,,,,,,,,,,,,,,,,,1.404,2.246,289.8935285001062,None,,,,,,,,,,,,,,,,,,,,290.4329544000793,290.9383447000291,0.509029780048877,1.0091111799702048,290.9219917000737,291.03831340000033,290.9219917000737,291.03831340000033,291.0216230000369,None,c,1,0.9571508001536131,291.0216230000369,None,,,,,f,,ps,2022_Apr_04_1053,training+cueing,2021.1.4,60.174373267606704,
Stranger.png,Friend,Stranger,m,2.3,17,27,97,,,,,0,0,0,0,,,,,3,0,36,7,,,,,,,,,,,,,,,,,,,,,1.728,2.033,292.1117533999495,None,,,,,,,,,,,,,,,,,,,,292.65523819997907,293.15651970007457,0.5037895799614489,1.0040875801350921,293.14007660001516,293.2565738998819,293.14007660001516,293.2565738998819,293.23986530001275,None,None,0,,293.23986530001275,None,,,,,f,,ps,2022_Apr_04_1053,training+cueing,2021.1.4,60.174373267606704,
Stranger.png,You,Stranger,m,1.3,15,25,95,,,,,0,0,0,0,,,,,3,1,37,6,,,,,,,,,,,,,,,,,,,,,1.465,1.86,295.07912839995697,None,,,,,,,,,,,,,,,,,,,,295.62396520003676,296.12536519998685,0.5044695797841996,1.004705079831183,296.10892309993505,296.20870499988087,296.10892309993505,296.20870499988087,296.20870499988087,None,c,0,0.8420946002006531,296.20870499988087,None,,,,,f,,ps,2022_Apr_04_1053,training+cueing,2021.1.4,60.174373267606704,
Self.png,Stranger,Self ,m,3.1,18,28,98,,,,,0,0,0,0,,,,,3,2,38,2,,,,,,,,,,,,,,,,,,,,,1.463,1.49,297.18261380004697,None,,,,,,,,,,,,,,,,,,,,297.72373660001904,298.2268407999072,0.5057759797200561,1.0060505797155201,298.210431399988,298.3269007001072,298.210431399988,298.3269007001072,298.31022330000997,None,m,1,0.9165642000734806,298.31022330000997,None,,,,,f,,ps,2022_Apr_04_1053,training+cueing,2021.1.4,60.174373267606704,
Stranger.png,Stranger,Stranger,c,3,13,23,93,,,,,0,0,0,0,,,,,3,3,39,11,,,,,,,,,,,,,,,,,,,,,1.736,2.014,299.35009459988214,None,,,,,,,,,,,,,,,,,,,,299.89019559998997,300.3950980999507,0.5100986801553518,1.0102988800499588,300.37873329990543,300.49513330007903,300.37873329990543,300.49513330007903,300.4784065000713,None,m,0,1.0523041998967528,300.4784065000713,None,,,,,f,,ps,2022_Apr_04_1053,training+cueing,2021.1.4,60.174373267606704,
Friend.png,Stranger,Friend,m,3.2,19,29,99,,,,,0,0,0,0,,,,,3,4,40,5,,,,,,,,,,,,,,,,,,,,,1.751,2.209,301.6524350999389,None,,,,,,,,,,,,,,,,,,,,302.1910399000626,302.696745299967,0.5103988801129162,1.0106546799652278,302.6803349000402,302.7967908999417,302.6803349000402,302.7967908999417,302.78010140010156,None,m,1,1.2626622000243515,302.78010140010156,None,,,,,f,,ps,2022_Apr_04_1053,training+cueing,2021.1.4,60.174373267606704,
Stranger.png,Stranger,Stranger,c,3,13,23,93,,,,,0,0,0,0,,,,,3,5,41,8,,,,,,,,,,,,,,,,,,,,,1.43,2.495,304.170601000078,None,,,,,,,,,,,,,,,,,,,,304.70877539995126,305.2152410999406,0.5123534800950438,1.0126890800893307,305.19878680002876,305.31530370004475,305.19878680002876,305.31530370004475,305.29857279988937,None,m,0,0.9042399998288602,305.29857279988937,None,,,,,f,,ps,2022_Apr_04_1053,training+cueing,2021.1.4,60.174373267606704,
Self.png,You,Self ,c,1,11,21,91,,,,,0,0,0,0,,,,,3,6,42,0,,,,,,,,,,,,,,,,,,,,,1.584,1.448,306.3388712001033,None,,,,,,,,,,,,,,,,,,,,306.88137559988536,307.3837262999732,0.5056069798301905,1.005882679950446,307.36719979997724,307.4670313000679,307.36719979997724,307.4670313000679,307.4670313000679,None,c,1,0.9919096999801695,307.4670313000679,None,,,,,f,,ps,2022_Apr_04_1053,training+cueing,2021.1.4,60.174373267606704,
Friend.png,You,Friend,m,1.2,14,24,94,,,,,0,0,0,0,,,,,3,7,43,3,,,,,,,,,,,,,,,,,,,,,1.605,1.251,308.5922016999684,None,,,,,,,,,,,,,,,,,,,,309.1342068000231,309.6351061000023,0.49958527996204793,0.999894879758358,309.618678299943,309.718476699898,309.618678299943,309.718476699898,309.718476699898,None,m,1,0.7562821998726577,309.718476699898,None,,,,,f,,ps,2022_Apr_04_1053,training+cueing,2021.1.4,60.174373267606704,
Self.png,You,Self ,c,1,11,21,91,,,,,0,0,0,0,,,,,3,8,44,9,,,,,,,,,,,,,,,,,,,,,1.573,1.233,310.60877930000424,None,,,,,,,,,,,,,,,,,,,,311.14880890003406,311.65325560001656,0.5089522800408304,1.0092759800609201,311.63676339993253,311.7365864000749,311.63676339993253,311.7365864000749,311.7365864000749,None,c,1,0.6741836001165211,311.7365864000749,None,,,,,f,,ps,2022_Apr_04_1053,training+cueing,2021.1.4,60.174373267606704,
Friend.png,Friend,Friend,c,2,12,22,92,,,,,0,0,0,0,,,,,3,9,45,4,,,,,,,,,,,,,,,,,,,,,1.502,1.755,312.54314039996825,None,,,,,,,,,,,,,,,,,,,,313.0869299999904,313.58795930002816,0.5030159798916429,1.0033335799816996,313.5715367998928,313.68801530008204,313.5715367998928,313.68801530008204,313.671362800058,None,c,1,1.3153675000648946,313.671362800058,None,,,,,f,,ps,2022_Apr_04_1053,training+cueing,2021.1.4,60.174373267606704,
Self.png,Friend,Self ,m,2.1,16,26,96,,,,,0,0,0,0,,,,,3,10,46,1,,,,,,,,,,,,,,,,,,,,,1.794,2.212,315.1123257998843,None,,,,,,,,,,,,,,,,,,,,315.6513519999571,316.1564742999617,0.5081175798550248,1.0084510799497366,316.1400125999935,316.2565234999638,316.1400125999935,316.2565234999638,316.23983220010996,None,m,1,1.1629729000851512,316.23983220010996,None,,,,,f,,ps,2022_Apr_04_1053,training+cueing,2021.1.4,60.174373267606704,
Friend.png,Friend,Friend,c,2,12,22,92,,,,,0,0,0,0,,,,,3,11,47,10,,,,,,,,,,,,,,,,,,,,,1.435,1.614,317.5305212000385,None,,,,,,,,,,,,,,,,,,,,318.07018640008755,318.5749125001021,0.5101461801677942,1.0105404800269753,318.55848710006103,318.67501399992034,318.55848710006103,318.67501399992034,318.65825339988805,None,None,0,,318.65825339988805,None,,,,,f,,ps,2022_Apr_04_1053,training+cueing,2021.1.4,60.174373267606704,
Self.png,Friend,Self ,m,2.1,16,26,96,,,,,0,0,0,0,,,,,4,0,48,1,,,,,,,,,,,,,,,,,,,,,1.418,2.196,320.19729189993814,None,,,,,,,,,,,,,,,,,,,,320.73758199997246,321.2434495999478,0.5095855800900608,1.0101174800656736,321.22708120010793,321.34353869990446,321.22708120010793,321.34353869990446,321.32687260000966,None,m,1,0.9239535999950022,321.32687260000966,None,,,,,f,,ps,2022_Apr_04_1053,training+cueing,2021.1.4,60.174373267606704,
Self.png,Stranger,Self ,m,3.1,18,28,98,,,,,0,0,0,0,,,,,4,1,49,2,,,,,,,,,,,,,,,,,,,,,1.613,2.002,322.3855926999822,None,,,,,,,,,,,,,,,,,,,,322.9289663999807,323.4284121999517,0.49906127993017435,0.9993465798906982,323.41197489993647,323.52845979994163,323.41197489993647,323.52845979994163,323.52845979994163,None,m,1,1.346426700009033,323.52845979994163,None,,,,,f,,ps,2022_Apr_04_1053,training+cueing,2021.1.4,60.174373267606704,
Friend.png,Friend,Friend,c,2,12,22,92,,,,,0,0,0,0,,,,,4,2,50,10,,,,,,,,,,,,,,,,,,,,,1.739,2.253,325.0039399000816,None,,,,,,,,,,,,,,,,,,,,325.54691840009764,326.04697760008276,0.500689780106768,1.0009493802208453,326.03055240004323,326.14700770005584,326.03055240004323,326.14700770005584,326.14700770005584,None,c,1,0.8397821001708508,326.14700770005584,None,,,,,f,,ps,2022_Apr_04_1053,training+cueing,2021.1.4,60.174373267606704,
Friend.png,Stranger,Friend,m,3.2,19,29,99,,,,,0,0,0,0,,,,,4,3,51,5,,,,,,,,,,,,,,,,,,,,,1.474,1.251,327.1208323999308,None,,,,,,,,,,,,,,,,,,,,327.66347560007125,328.165156400064,0.5020608799532056,1.002352979965508,328.14873280003667,328.26520500006154,328.14873280003667,328.26520500006154,328.2485291000921,None,m,1,1.0902493998873979,328.2485291000921,None,,,,,f,,ps,2022_Apr_04_1053,training+cueing,2021.1.4,60.174373267606704,
Stranger.png,Stranger,Stranger,c,3,13,23,93,,,,,0,0,0,0,,,,,4,4,52,11,,,,,,,,,,,,,,,,,,,,,1.429,1.361,329.47255859989673,None,,,,,,,,,,,,,,,,,,,,330.0095404998865,330.51685689995065,0.514673079829663,1.0151465798262507,330.5004179000389,330.61691470001824,330.5004179000389,330.61691470001824,330.6002235999331,None,c,1,1.0586184998974204,330.6002235999331,None,,,,,f,,ps,2022_Apr_04_1053,training+cueing,2021.1.4,60.174373267606704,
Stranger.png,You,Stranger,m,1.3,15,25,95,,,,,0,0,0,0,,,,,4,5,53,6,,,,,,,,,,,,,,,,,,,,,1.752,1.674,331.79156369995326,None,,,,,,,,,,,,,,,,,,,,332.3473364999518,332.85193359991536,0.5108959400095046,1.0111480399500579,332.8354579999577,332.93556979997084,332.8354579999577,332.93556979997084,332.93556979997084,None,m,1,0.9311210999730974,332.93556979997084,None,,,,,f,,ps,2022_Apr_04_1053,training+cueing,2021.1.4,60.174373267606704,
Friend.png,Friend,Friend,c,2,12,22,92,,,,,0,0,0,0,,,,,4,6,54,4,,,,,,,,,,,,,,,,,,,,,1.407,1.688,333.9920232000295,None,,,,,,,,,,,,,,,,,,,,334.5347873000428,335.03679979988374,0.5030304798856378,1.0033299799542874,335.0203790999949,335.1368519999087,335.0203790999949,335.1368519999087,335.1201760999393,None,c,1,0.9226112000178546,335.1201760999393,None,,,,,f,,ps,2022_Apr_04_1053,training+cueing,2021.1.4,60.174373267606704,
Self.png,You,Self ,c,1,11,21,91,,,,,0,0,0,0,,,,,4,7,55,0,,,,,,,,,,,,,,,,,,,,,1.774,1.659,336.1773649000097,None,,,,,,,,,,,,,,,,,,,,336.71666059992276,337.22174279997125,0.5107435800600797,1.0110319801606238,337.20528270001523,337.3050987999886,337.20528270001523,337.3050987999886,337.3050987999886,None,m,0,0.6577522999141365,337.3050987999886,None,,,,,f,,ps,2022_Apr_04_1053,training+cueing,2021.1.4,60.174373267606704,
Self.png,You,Self ,c,1,11,21,91,,,,,0,0,0,0,,,,,4,8,56,9,,,,,,,,,,,,,,,,,,,,,1.625,1.649,338.09499130002223,None,,,,,,,,,,,,,,,,,,,,338.6344478998799,339.13977549993433,0.5088948798365891,1.0093896798789501,339.123380899895,339.22315360000357,339.123380899895,339.22315360000357,339.22315360000357,None,m,0,1.4596818001009524,339.22315360000357,None,,,,,f,,ps,2022_Apr_04_1053,training+cueing,2021.1.4,60.174373267606704,
Stranger.png,Friend,Stranger,m,2.3,17,27,97,,,,,0,0,0,0,,,,,4,9,57,7,,,,,,,,,,,,,,,,,,,,,1.782,1.921,340.8140606000088,None,,,,,,,,,,,,,,,,,,,,341.3708840000909,341.875139700016,0.5088654402643442,1.009153040125966,341.8586359000765,341.9751359000802,341.8586359000765,341.9751359000802,341.95840619993396,None,m,1,1.5563848000019789,341.95840619993396,None,,,,,f,,ps,2022_Apr_04_1053,training+cueing,2021.1.4,60.174373267606704,
Friend.png,You,Friend,m,1.2,14,24,94,,,,,0,0,0,0,,,,,4,10,58,3,,,,,,,,,,,,,,,,,,,,,1.41,1.86,343.6509950000327,None,,,,,,,,,,,,,,,,,,,,344.1941470000893,344.6937919999473,0.5000090801622719,1.0003099802415818,344.67734819999896,344.7771604000591,344.67734819999896,344.7771604000591,344.7771604000591,None,m,1,1.233742400072515,344.7771604000591,None,,,,,f,,ps,2022_Apr_04_1053,training+cueing,2021.1.4,60.174373267606704,
Stranger.png,Stranger,Stranger,c,3,13,23,93,,,,,0,0,0,0,,,,,4,11,59,8,,,,,,,,,,,,,,,,,,,,,1.482,1.366,346.1355630001053,None,,,,,,,,,,,,,,,,,,,,346.67825579992495,347.1789361999836,0.5000257799401879,1.00048817996867,347.16248430009,347.2789982999675,347.16248430009,347.2789982999675,347.2789982999675,None,c,1,1.3078459000680596,347.2789982999675,None,,,,,f,,ps,2022_Apr_04_1053,training+cueing,2021.1.4,60.174373267606704,
Self.png,You,Self ,c,1,11,21,91,,,,,0,0,0,0,,,,,5,0,60,0,,,,,,,,,,,,,,,,,,,,,1.699,2.333,348.7212185000535,None,,,,,,,,,,,,,,,,,,,,349.26452680001967,349.7641332000494,0.5004974799230695,1.0008634799160063,349.7477132999338,349.84753250004724,349.7477132999338,349.84753250004724,349.84753250004724,None,c,1,1.1872409000061452,349.84753250004724,None,,,,,f,,ps,2022_Apr_04_1053,training+cueing,2021.1.4,60.174373267606704,
Stranger.png,Stranger,Stranger,c,3,13,23,93,,,,,0,0,0,0,,,,,5,1,61,8,,,,,,,,,,,,,,,,,,,,,1.45,1.376,351.171521600103,None,,,,,,,,,,,,,,,,,,,,351.7151242000982,352.2159243999049,0.502183579839766,1.0027032799553126,352.19949180004187,352.3169257999398,352.19949180004187,352.3169257999398,352.3000699998811,None,m,0,0.7828047999646515,352.3000699998811,None,,,,,f,,ps,2022_Apr_04_1053,training+cueing,2021.1.4,60.174373267606704,
Self.png,Friend,Self ,m,2.1,16,26,96,,,,,0,0,0,0,,,,,5,2,62,1,,,,,,,,,,,,,,,,,,,,,1.584,2.182,353.2076038001105,None,,,,,,,,,,,,,,,,,,,,353.75047510000877,354.25070409988984,0.49940888001583517,0.9996866800356656,354.2342769999523,354.35075460001826,354.2342769999523,354.35075460001826,354.35075460001826,None,c,0,0.700035999994725,354.35075460001826,None,,,,,f,,ps,2022_Apr_04_1053,training+cueing,2021.1.4,60.174373267606704,
Friend.png,You,Friend,m,1.2,14,24,94,,,,,0,0,0,0,,,,,5,3,63,3,,,,,,,,,,,,,,,,,,,,,1.685,1.894,355.17402749997564,None,,,,,,,,,,,,,,,,,,,,355.7178851000499,356.21879930002615,0.5035807802341878,1.0038683800958097,356.20238179992884,356.3022060999647,356.20238179992884,356.3022060999647,356.3022060999647,None,m,1,0.8605920998379588,356.3022060999647,None,,,,,f,,ps,2022_Apr_04_1053,training+cueing,2021.1.4,60.174373267606704,
Stranger.png,You,Stranger,m,1.3,15,25,95,,,,,0,0,0,0,,,,,5,4,64,6,,,,,,,,,,,,,,,,,,,,,1.662,1.38,357.2925629001111,None,,,,,,,,,,,,,,,,,,,,357.8309893999249,358.33699840004556,0.5093878800980747,1.0096677800174803,358.3205595999025,358.420370799955,358.3205595999025,358.420370799955,358.420370799955,None,c,0,1.062476199818775,358.420370799955,None,,,,,f,,ps,2022_Apr_04_1053,training+cueing,2021.1.4,60.174373267606704,
Self.png,You,Self ,c,1,11,21,91,,,,,0,0,0,0,,,,,5,5,65,9,,,,,,,,,,,,,,,,,,,,,1.538,1.722,359.6104796999134,None,,,,,,,,,,,,,,,,,,,,360.15096460003406,360.6553056000266,0.5081985800061375,1.0084710798691958,360.638904399937,360.73870979994535,360.638904399937,360.73870979994535,360.73870979994535,None,c,1,0.8402535999193788,360.73870979994535,None,,,,,f,,ps,2022_Apr_04_1053,training+cueing,2021.1.4,60.174373267606704,
Friend.png,Friend,Friend,c,2,12,22,92,,,,,0,0,0,0,,,,,5,6,66,10,,,,,,,,,,,,,,,,,,,,,1.612,1.584,361.7126313999761,None,,,,,,,,,,,,,,,,,,,,362.25454199989326,362.75685820006765,0.5045848800800741,1.004868479911238,362.7404273999855,362.8569128001109,362.7404273999855,362.8569128001109,362.8402017999906,None,c,1,0.9307076998520643,362.8402017999906,None,,,,,f,,ps,2022_Apr_04_1053,training+cueing,2021.1.4,60.174373267606704,
Friend.png,Friend,Friend,c,2,12,22,92,,,,,0,0,0,0,,,,,5,7,67,4,,,,,,,,,,,,,,,,,,,,,1.561,2.288,363.8984491999727,None,,,,,,,,,,,,,,,,,,,,364.4355599998962,364.94183459994383,0.5103746801614761,1.0110527803190053,364.92554980004206,365.04263669997454,364.92554980004206,365.04263669997454,365.02515250002034,None,c,1,0.8258370000403374,365.02515250002034,None,,,,,f,,ps,2022_Apr_04_1053,training+cueing,2021.1.4,60.174373267606704,
Self.png,Stranger,Self ,m,3.1,18,28,98,,,,,0,0,0,0,,,,,5,8,68,2,,,,,,,,,,,,,,,,,,,,,1.625,1.309,365.98631220008247,None,,,,,,,,,,,,,,,,,,,,366.531065300107,367.0433557999786,0.5094790798611939,1.0096719798166305,367.02695959992707,367.14334330009297,367.02695959992707,367.14334330009297,367.1266602000687,None,m,1,0.9961788000073284,367.1266602000687,None,,,,,f,,ps,2022_Apr_04_1053,training+cueing,2021.1.4,60.174373267606704,
Friend.png,Stranger,Friend,m,3.2,19,29,99,,,,,0,0,0,0,,,,,5,9,69,5,,,,,,,,,,,,,,,,,,,,,1.695,2.126,368.25155989988707,None,,,,,,,,,,,,,,,,,,,,368.7925603000913,369.2949139000848,0.505787180038169,1.0060770800337195,369.27848379989155,369.39499889989384,369.27848379989155,369.39499889989384,369.37827280000784,None,m,1,0.8085088999941945,369.37827280000784,None,,,,,f,,ps,2022_Apr_04_1053,training+cueing,2021.1.4,60.174373267606704,
Stranger.png,Stranger,Stranger,c,3,13,23,93,,,,,0,0,0,0,,,,,5,10,70,11,,,,,,,,,,,,,,,,,,,,,1.526,1.823,370.3186683000531,None,,,,,,,,,,,,,,,,,,,,370.8574288999662,371.36314089992084,0.5101659798528999,1.0104462797753513,371.346651900094,371.4631753000431,371.346651900094,371.4631753000431,371.44886630005203,None,m,0,0.5939245000481606,371.44886630005203,None,,,,,f,,ps,2022_Apr_04_1053,training+cueing,2021.1.4,60.174373267606704,
Stranger.png,Friend,Stranger,m,2.3,17,27,97,,,,,0,0,0,0,,,,,5,11,71,7,,,,,,,,,,,,,,,,,,,,,1.761,1.789,372.16992769995704,None,,,,,,,,,,,,,,,,,,,,372.7108330000192,373.2144492000807,0.5084757800213993,1.0087881800718606,373.1979602999054,373.31449680007063,373.1979602999054,373.31449680007063,373.2977903999854,None,m,1,1.19387560011819,373.2977903999854,None,,,,,f,,ps,2022_Apr_04_1053,training+cueing,2021.1.4,60.174373267606704,
Self.png,Stranger,Self ,m,3.1,18,28,98,,,,,0,0,0,0,,,,,6,0,72,2,,,,,,,,,,,,,,,,,,,,,1.45,2.074,374.62582780001685,None,,,,,,,,,,,,,,,,,,,,375.16549340006895,375.6662147999741,0.5002183797769248,1.0005013798363507,375.6497591000516,375.7663020999171,375.6497591000516,375.7663020999171,375.7663020999171,None,m,1,1.3804605999030173,375.7663020999171,None,,,,,f,,ps,2022_Apr_04_1053,training+cueing,2021.1.4,60.174373267606704,
Friend.png,You,Friend,m,1.2,14,24,94,,,,,0,0,0,0,,,,,6,1,73,3,,,,,,,,,,,,,,,,,,,,,1.54,2.228,377.27322029997595,None,,,,,,,,,,,,,,,,,,,,377.8147549999412,378.31813440006226,0.5063038801308721,1.0066036800853908,378.3017142000608,378.40152089996263,378.3017142000608,378.40152089996263,378.40152089996263,None,m,1,0.9373280999716371,378.40152089996263,None,,,,,f,,ps,2022_Apr_04_1053,training+cueing,2021.1.4,60.174373267606704,
Self.png,You,Self ,c,1,11,21,91,,,,,0,0,0,0,,,,,6,2,74,9,,,,,,,,,,,,,,,,,,,,,1.652,2.443,379.47578340000473,None,,,,,,,,,,,,,,,,,,,,380.0141133000143,380.5196984000504,0.5114086798857898,1.0117363799363375,380.5032846000977,380.60310259996913,380.5032846000977,380.60310259996913,380.60310259996913,None,c,1,0.5917424000799656,380.60310259996913,None,,,,,f,,ps,2022_Apr_04_1053,training+cueing,2021.1.4,60.174373267606704,
Self.png,Friend,Self ,m,2.1,16,26,96,,,,,0,0,0,0,,,,,6,3,75,1,,,,,,,,,,,,,,,,,,,,,1.698,1.29,381.3267063999083,None,,,,,,,,,,,,,,,,,,,,381.8676652999129,382.3710847001057,0.505128680029884,1.0060040801763535,382.35466629988514,382.47193580004387,382.35466629988514,382.47193580004387,382.45447520003654,None,m,1,1.060289500048384,382.45447520003654,None,,,,,f,,ps,2022_Apr_04_1053,training+cueing,2021.1.4,60.174373267606704,
Stranger.png,Stranger,Stranger,c,3,13,23,93,,,,,0,0,0,0,,,,,6,4,76,8,,,,,,,,,,,,,,,,,,,,,1.635,2.037,383.64621990011074,None,,,,,,,,,,,,,,,,,,,,384.18851540004835,384.6894249001052,0.501367179909721,1.0016717799007893,384.6729596001096,384.789471300086,384.6729596001096,384.789471300086,384.789471300086,None,c,1,0.8052250000182539,384.789471300086,None,,,,,f,,ps,2022_Apr_04_1053,training+cueing,2021.1.4,60.174373267606704,
Self.png,You,Self ,c,1,11,21,91,,,,,0,0,0,0,,,,,6,5,77,0,,,,,,,,,,,,,,,,,,,,,1.517,2.259,385.72985569993034,None,,,,,,,,,,,,,,,,,,,,386.27200499991886,386.7742496000137,0.506108779925853,1.0064146800432354,386.75782219995745,386.85763860004954,386.75782219995745,386.85763860004954,386.85763860004954,None,c,1,0.7691740000154823,386.85763860004954,None,,,,,f,,ps,2022_Apr_04_1053,training+cueing,2021.1.4,60.174373267606704,
Friend.png,Friend,Friend,c,2,12,22,92,,,,,0,0,0,0,,,,,6,6,78,4,,,,,,,,,,,,,,,,,,,,,1.639,2.268,387.7480273998808,None,,,,,,,,,,,,,,,,,,,,388.28869040007703,388.792367399903,0.5052425800822675,1.005605580052361,388.77591810002923,388.8924020000268,388.77591810002923,388.8924020000268,388.8757178999949,None,c,1,0.6871555999387056,388.8757178999949,None,,,,,f,,ps,2022_Apr_04_1053,training+cueing,2021.1.4,60.174373267606704,
Stranger.png,Friend,Stranger,m,2.3,17,27,97,,,,,0,0,0,0,,,,,6,7,79,7,,,,,,,,,,,,,,,,,,,,,1.556,1.957,389.69952440005727,None,,,,,,,,,,,,,,,,,,,,390.2389263000805,390.74379720003344,0.5099611799232662,1.0102212799247354,390.72734889993444,390.8438438999001,390.72734889993444,390.8438438999001,390.827140300069,None,c,0,0.6236981998663396,390.827140300069,None,,,,,f,,ps,2022_Apr_04_1053,training+cueing,2021.1.4,60.174373267606704,
Friend.png,Stranger,Friend,m,3.2,19,29,99,,,,,0,0,0,0,,,,,6,8,80,5,,,,,,,,,,,,,,,,,,,,,1.418,2.002,391.5840288999025,None,,,,,,,,,,,,,,,,,,,,392.12364879995584,392.62847659992985,0.5076779800001532,1.0080127799883485,392.612100899918,392.72863660007715,392.612100899918,392.72863660007715,392.712050500093,None,m,1,0.930826700059697,392.712050500093,None,,,,,f,,ps,2022_Apr_04_1053,training+cueing,2021.1.4,60.174373267606704,
Stranger.png,Stranger,Stranger,c,3,13,23,93,,,,,0,0,0,0,,,,,6,9,81,11,,,,,,,,,,,,,,,,,,,,,1.441,1.677,393.77043949998915,None,,,,,,,,,,,,,,,,,,,,394.3108324999921,394.8134369000327,0.5067418799735606,1.0069867798592895,394.796995599987,394.91378609999083,394.796995599987,394.91378609999083,394.8967520000879,None,c,1,0.9060016998555511,394.8967520000879,None,,,,,f,,ps,2022_Apr_04_1053,training+cueing,2021.1.4,60.174373267606704,
Stranger.png,You,Stranger,m,1.3,15,25,95,,,,,0,0,0,0,,,,,6,10,82,6,,,,,,,,,,,,,,,,,,,,,1.766,1.515,395.9375571999699,None,,,,,,,,,,,,,,,,,,,,396.47696730005555,396.9816691998858,0.5089510802645236,1.009213280165568,396.96521020005457,397.06500820000656,396.96521020005457,397.06500820000656,397.06500820000656,None,m,1,1.0258148999419063,397.06500820000656,None,,,,,f,,ps,2022_Apr_04_1053,training+cueing,2021.1.4,60.174373267606704,
Friend.png,Friend,Friend,c,2,12,22,92,,,,,0,0,0,0,,,,,6,11,83,10,,,,,,,,,,,,,,,,,,,,,1.5,1.88,398.2218069001101,None,,,,,,,,,,,,,,,,,,,,398.76345600001514,399.26665559993125,0.5050855802837759,1.005342580145225,399.2502220000606,399.36667299992405,399.2502220000606,399.36667299992405,399.35000020009466,None,c,1,0.7887989999726415,399.35000020009466,None,,,,,f,,ps,2022_Apr_04_1053,training+cueing,2021.1.4,60.174373267606704,
Self.png,Stranger,Self ,m,3.1,18,28,98,,,,,0,0,0,0,,,,,7,0,84,2,,,,,,,,,,,,,,,,,,,,,1.59,1.503,400.27378230006434,None,,,,,,,,,,,,,,,,,,,,400.8145282000769,401.31810389994644,0.507239880040288,1.007534580072388,401.30167889990844,401.41825950006023,401.30167889990844,401.41825950006023,401.4014864999335,None,m,1,0.8813095998484641,401.4014864999335,None,,,,,f,,ps,2022_Apr_04_1053,training+cueing,2021.1.4,60.174373267606704,
Friend.png,Friend,Friend,c,2,12,22,92,,,,,0,0,0,0,,,,,7,1,85,4,,,,,,,,,,,,,,,,,,,,,1.524,1.867,402.4081345000304,None,,,,,,,,,,,,,,,,,,,,402.95389709994197,403.46972350007854,0.51538837980479,1.0156853799708188,403.4532113999594,403.5697550000623,403.4532113999594,403.5697550000623,403.55301530007273,None,c,1,0.809774599969387,403.55301530007273,None,,,,,f,,ps,2022_Apr_04_1053,training+cueing,2021.1.4,60.174373267606704,
Friend.png,Stranger,Friend,m,3.2,19,29,99,,,,,0,0,0,0,,,,,7,2,86,5,,,,,,,,,,,,,,,,,,,,,1.473,1.915,404.4935357000213,None,,,,,,,,,,,,,,,,,,,,405.0336778999772,405.5378213999793,0.507401579990983,1.0076375799253583,405.5213999999687,405.637865500059,405.5213999999687,405.637865500059,405.62119430000894,None,m,1,0.7256422000937164,405.62119430000894,None,,,,,f,,ps,2022_Apr_04_1053,training+cueing,2021.1.4,60.174373267606704,
Self.png,You,Self ,c,1,11,21,91,,,,,0,0,0,0,,,,,7,3,87,0,,,,,,,,,,,,,,,,,,,,,1.743,2.018,406.4778515000362,None,,,,,,,,,,,,,,,,,,,,407.018948599929,407.52261930005625,0.5067330796737224,1.0070339797530323,407.50614820001647,407.60606370004825,407.50614820001647,407.60606370004825,407.60606370004825,None,c,1,0.7086328999139369,407.60606370004825,None,,,,,f,,ps,2022_Apr_04_1053,training+cueing,2021.1.4,60.174373267606704,
Stranger.png,Stranger,Stranger,c,3,13,23,93,,,,,0,0,0,0,,,,,7,4,88,8,,,,,,,,,,,,,,,,,,,,,1.64,1.327,408.4459192000795,None,,,,,,,,,,,,,,,,,,,,408.98794250003994,409.49071160005406,0.5038855799939483,1.0048168799839914,409.4742499999702,409.5909289000556,409.4742499999702,409.5909289000556,409.57404630002566,None,m,0,0.9168078999500722,409.57404630002566,None,,,,,f,,ps,2022_Apr_04_1053,training+cueing,2021.1.4,60.174373267606704,
Stranger.png,Stranger,Stranger,c,3,13,23,93,,,,,0,0,0,0,,,,,7,5,89,11,,,,,,,,,,,,,,,,,,,,,1.5,1.929,410.6157048000023,None,,,,,,,,,,,,,,,,,,,,411.15481960005127,411.65894039999694,0.507549479836598,1.0077944798395038,411.6425369998906,411.7589930999093,411.6425369998906,411.7589930999093,411.742298200028,None,c,1,1.2125572999939322,411.742298200028,None,,,,,f,,ps,2022_Apr_04_1053,training+cueing,2021.1.4,60.174373267606704,
Self.png,Friend,Self ,m,2.1,16,26,96,,,,,0,0,0,0,,,,,7,6,90,1,,,,,,,,,,,,,,,,,,,,,1.599,1.762,413.08280500001274,None,,,,,,,,,,,,,,,,,,,,413.62465759995393,414.1273674000986,0.5065751797519624,1.006886679911986,414.11095150001347,414.22742190002464,414.11095150001347,414.22742190002464,414.210748200072,None,m,1,1.3040382999461144,414.210748200072,None,,,,,f,,ps,2022_Apr_04_1053,training+cueing,2021.1.4,60.174373267606704,
Stranger.png,You,Stranger,m,1.3,15,25,95,,,,,0,0,0,0,,,,,7,7,91,6,,,,,,,,,,,,,,,,,,,,,1.8,1.659,415.65160700003617,None,,,,,,,,,,,,,,,,,,,,416.1913540000096,416.695866700029,0.5076892799697816,1.0079845800064504,416.67945330007933,416.7792680999264,416.67945330007933,416.7792680999264,416.7792680999264,None,m,1,0.9755202000960708,416.7792680999264,None,,,,,f,,ps,2022_Apr_04_1053,training+cueing,2021.1.4,60.174373267606704,
Friend.png,Friend,Friend,c,2,12,22,92,,,,,0,0,0,0,,,,,7,8,92,10,,,,,,,,,,,,,,,,,,,,,1.75,2.043,417.8865447998978,None,,,,,,,,,,,,,,,,,,,,418.42943820008077,418.9311067000963,0.504474279936403,1.0045230800751597,418.9145883000456,419.03092389996164,418.9145883000456,419.03092389996164,419.01420530001633,None,c,1,0.724548599915579,419.01420530001633,None,,,,,f,,ps,2022_Apr_04_1053,training+cueing,2021.1.4,60.174373267606704,
Friend.png,You,Friend,m,1.2,14,24,94,,,,,0,0,0,0,,,,,7,9,93,3,,,,,,,,,,,,,,,,,,,,,1.635,1.709,419.87090840004385,None,,,,,,,,,,,,,,,,,,,,420.4122172999196,420.9156768999528,0.5075510798487812,1.0076397799421102,420.89941020007245,420.99904210004024,420.89941020007245,420.99904210004024,420.99904210004024,None,c,0,1.5237176001537591,420.99904210004024,None,,,,,f,,ps,2022_Apr_04_1053,training+cueing,2021.1.4,60.174373267606704,
Stranger.png,Friend,Stranger,m,2.3,17,27,97,,,,,0,0,0,0,,,,,7,10,94,7,,,,,,,,,,,,,,,,,,,,,1.462,1.755,422.6571092000231,None,,,,,,,,,,,,,,,,,,,,423.1968855999876,423.7009974999819,0.5062806801870465,1.00656628026627,423.68458710005507,423.8010392000433,423.68458710005507,423.8010392000433,423.78432379988953,None,m,1,0.7544581999536604,423.78432379988953,None,,,,,f,,ps,2022_Apr_04_1053,training+cueing,2021.1.4,60.174373267606704,
Self.png,You,Self ,c,1,11,21,91,,,,,0,0,0,0,,,,,7,11,95,9,,,,,,,,,,,,,,,,,,,,,1.769,2.3,424.67480550007895,None,,,,,,,,,,,,,,,,,,,,425.21646980009973,425.71914370008744,0.5054375801701099,1.0055939801968634,425.7027523999568,425.8024772000499,425.7027523999568,425.8024772000499,425.8024772000499,None,c,1,0.7683804000262171,425.8024772000499,None,,,,,f,,ps,2022_Apr_04_1053,training+cueing,2021.1.4,60.174373267606704,
Stranger.png,Stranger,Stranger,c,3,13,23,93,,,,,0,0,0,0,,,,,8,0,96,11,,,,,,,,,,,,,,,,,,,,,1.562,1.363,426.6922289999202,None,,,,,,,,,,,,,,,,,,,,427.2333434999455,427.73723000008613,0.5060893800109625,1.0064012799412012,427.72080049989745,427.83727109991014,427.72080049989745,427.83727109991014,427.82059459993616,None,m,0,0.7502198999281973,427.82059459993616,None,,,,,f,,ps,2022_Apr_04_1053,training+cueing,2021.1.4,60.174373267606704,
Self.png,Friend,Self ,m,2.1,16,26,96,,,,,0,0,0,0,,,,,8,1,97,1,,,,,,,,,,,,,,,,,,,,,1.47,1.367,428.6943699999247,None,,,,,,,,,,,,,,,,,,,,429.25230800011195,429.7554681999609,0.5068560398649424,1.0071523399092257,429.7390272000339,429.85555480001494,429.7390272000339,429.85555480001494,429.838820300065,None,c,0,1.0041083998512477,429.838820300065,None,,,,,f,,ps,2022_Apr_04_1053,training+cueing,2021.1.4,60.174373267606704,
Self.png,Stranger,Self ,m,3.1,18,28,98,,,,,0,0,0,0,,,,,8,2,98,2,,,,,,,,,,,,,,,,,,,,,1.567,1.962,430.9805952999741,None,,,,,,,,,,,,,,,,,,,,431.52082159998827,432.0236710999161,0.5068617796059698,1.0071732797659934,432.00720379990526,432.12372360005975,432.00720379990526,432.12372360005975,432.1070193001069,None,m,1,1.471718299901113,432.1070193001069,None,,,,,f,,ps,2022_Apr_04_1053,training+cueing,2021.1.4,60.174373267606704,
Friend.png,Friend,Friend,c,2,12,22,92,,,,,0,0,0,0,,,,,8,3,99,10,,,,,,,,,,,,,,,,,,,,,1.786,1.346,433.71420769998804,None,,,,,,,,,,,,,,,,,,,,434.25369370006956,434.7589702999685,0.5088124801404774,1.0091269800905138,434.7425307999365,434.85902479989454,434.7425307999365,434.85902479989454,434.84232480009086,None,m,0,0.6244385000318289,434.84232480009086,None,,,,,f,,ps,2022_Apr_04_1053,training+cueing,2021.1.4,60.174373267606704,
Stranger.png,Friend,Stranger,m,2.3,17,27,97,,,,,0,0,0,0,,,,,8,4,100,7,,,,,,,,,,,,,,,,,,,,,1.573,1.65,435.5990341999568,None,,,,,,,,,,,,,,,,,,,,436.1378472999204,436.6436717000324,0.511381879914552,1.0118530800100416,436.6272454999853,436.7444964000024,436.6272454999853,436.7444964000024,436.7270311000757,None,m,1,1.235896699829027,436.7270311000757,None,,,,,f,,ps,2022_Apr_04_1053,training+cueing,2021.1.4,60.174373267606704,
Friend.png,Friend,Friend,c,2,12,22,92,,,,,0,0,0,0,,,,,8,5,101,4,,,,,,,,,,,,,,,,,,,,,1.526,1.684,438.102096100105,None,,,,,,,,,,,,,,,,,,,,438.64012550003827,439.1454839000944,0.5102004799991846,1.0104765798896551,439.1290716000367,439.24553270009346,439.1290716000367,439.24553270009346,439.22887200000696,None,c,1,0.8620899000670761,439.22887200000696,None,,,,,f,,ps,2022_Apr_04_1053,training+cueing,2021.1.4,60.174373267606704,
Friend.png,You,Friend,m,1.2,14,24,94,,,,,0,0,0,0,,,,,8,6,102,3,,,,,,,,,,,,,,,,,,,,,1.512,1.54,440.2205439999234,None,,,,,,,,,,,,,,,,,,,,440.76236440008506,441.2636975001078,0.501847879961133,1.0021323799155653,441.24726830003783,441.3470997000113,441.24726830003783,441.3470997000113,441.3470997000113,None,m,1,1.0796979998704046,441.3470997000113,None,,,,,f,,ps,2022_Apr_04_1053,training+cueing,2021.1.4,60.174373267606704,
Friend.png,Stranger,Friend,m,3.2,19,29,99,,,,,0,0,0,0,,,,,8,7,103,5,,,,,,,,,,,,,,,,,,,,,1.692,1.72,442.55462349997833,None,,,,,,,,,,,,,,,,,,,,443.0966366000939,443.5987023001071,0.5053943798411638,1.0056772797834128,443.5822634000797,443.6987614999525,443.5822634000797,443.6987614999525,443.6820576998871,None,c,0,1.016754199983552,443.6820576998871,None,,,,,f,,ps,2022_Apr_04_1053,training+cueing,2021.1.4,60.174373267606704,
Self.png,You,Self ,c,1,11,21,91,,,,,0,0,0,0,,,,,8,8,104,0,,,,,,,,,,,,,,,,,,,,,1.716,1.599,444.82246550009586,None,,,,,,,,,,,,,,,,,,,,445.36119959992357,445.86703699990176,0.5090090800076723,1.0093056799378246,445.85054189991206,445.9503919999115,445.85054189991206,445.9503919999115,445.9503919999115,None,c,1,0.8924223000649363,445.9503919999115,None,,,,,f,,ps,2022_Apr_04_1053,training+cueing,2021.1.4,60.174373267606704,
Self.png,You,Self ,c,1,11,21,91,,,,,0,0,0,0,,,,,8,9,105,9,,,,,,,,,,,,,,,,,,,,,1.405,1.981,446.97457440011203,None,,,,,,,,,,,,,,,,,,,,447.51414630003273,448.018596699927,0.5102647799067199,1.010485579725355,448.00215859990567,448.1019413000904,448.00215859990567,448.1019413000904,448.1019413000904,None,c,1,0.8047868998255581,448.1019413000904,None,,,,,f,,ps,2022_Apr_04_1053,training+cueing,2021.1.4,60.174373267606704,
Stranger.png,Stranger,Stranger,c,3,13,23,93,,,,,0,0,0,0,,,,,8,10,106,8,,,,,,,,,,,,,,,,,,,,,1.664,1.963,449.04241749993525,None,,,,,,,,,,,,,,,,,,,,449.5830631998833,450.0867480998859,0.5083583798259497,1.0086651798337698,450.0703167999163,450.18691819999367,450.0703167999163,450.18691819999367,450.1701261999551,None,m,0,0.7046646999660879,450.1701261999551,None,,,,,f,,ps,2022_Apr_04_1053,training+cueing,2021.1.4,60.174373267606704,
Stranger.png,You,Stranger,m,1.3,15,25,95,,,,,0,0,0,0,,,,,8,11,107,6,,,,,,,,,,,,,,,,,,,,,1.786,1.732,451.01083220005967,None,,,,,,,,,,,,,,,,,,,,451.5511213000864,452.0548092001118,0.5060537797398865,1.0062725797761232,452.03843210008927,452.13817190006375,452.03843210008927,452.13817190006375,452.13817190006375,None,m,1,1.2966664000414312,452.13817190006375,None,,,,,f,,ps,2022_Apr_04_1053,training+cueing,2021.1.4,60.174373267606704,
Friend.png,Friend,Friend,c,2,12,22,92,,,,,0,0,0,0,,,,,9,0,108,4,,,,,,,,,,,,,,,,,,,,,1.661,1.348,453.56219250010327,None,,,,,,,,,,,,,,,,,,,,454.1038973000832,454.6066777999513,0.5065691799391061,1.0068496798630804,454.5902748000808,454.70754910004325,454.5902748000808,454.70754910004325,454.69082839996554,None,c,1,0.6319724000059068,454.69082839996554,None,,,,,f,,ps,2022_Apr_04_1053,training+cueing,2021.1.4,60.174373267606704,
Self.png,You,Self ,c,1,11,21,91,,,,,0,0,0,0,,,,,9,1,109,0,,,,,,,,,,,,,,,,,,,,,1.645,1.379,455.4482444000896,None,,,,,,,,,,,,,,,,,,,,455.9906725999899,456.4914222001098,0.5026837799232453,1.0029422799125314,456.47494710003957,456.57474460010417,456.47494710003957,456.57474460010417,456.57474460010417,None,c,1,0.9240214999299496,456.57474460010417,None,,,,,f,,ps,2022_Apr_04_1053,training+cueing,2021.1.4,60.174373267606704,
Friend.png,You,Friend,m,1.2,14,24,94,,,,,0,0,0,0,,,,,9,2,110,3,,,,,,,,,,,,,,,,,,,,,1.58,1.801,457.63134559988976,None,,,,,,,,,,,,,,,,,,,,458.1696456000209,458.67627350008115,0.5114804799668491,1.0117381799500436,458.65988450008444,458.7597042999696,458.65988450008444,458.7597042999696,458.7597042999696,None,m,1,1.0111390000674874,458.7597042999696,None,,,,,f,,ps,2022_Apr_04_1053,training+cueing,2021.1.4,60.174373267606704,
Friend.png,Stranger,Friend,m,3.2,19,29,99,,,,,0,0,0,0,,,,,9,3,111,5,,,,,,,,,,,,,,,,,,,,,1.703,1.928,459.899774099933,None,,,,,,,,,,,,,,,,,,,,460.440813299967,460.9446405998897,0.5072600801941007,1.0076499802526087,460.9282708000392,461.04464460001327,460.9282708000392,461.04464460001327,461.02794880000874,None,m,1,1.286860499996692,461.02794880000874,None,,,,,f,,ps,2022_Apr_04_1053,training+cueing,2021.1.4,60.174373267606704,
Stranger.png,You,Stranger,m,1.3,15,25,95,,,,,0,0,0,0,,,,,9,4,112,6,,,,,,,,,,,,,,,,,,,,,1.535,1.593,462.4522136999294,None,,,,,,,,,,,,,,,,,,,,462.99224249995314,463.49646440008655,0.506118780001998,1.0062748799100518,463.479822400026,463.57981100003235,463.479822400026,463.57981100003235,463.57981100003235,None,m,1,0.7989687998779118,463.57981100003235,None,,,,,f,,ps,2022_Apr_04_1053,training+cueing,2021.1.4,60.174373267606704,
Stranger.png,Friend,Stranger,m,2.3,17,27,97,,,,,0,0,0,0,,,,,9,5,113,7,,,,,,,,,,,,,,,,,,,,,1.639,2.263,464.50326170003973,None,,,,,,,,,,,,,,,,,,,,465.0440473998897,465.54789289995097,0.506997280055657,1.0072724800556898,465.53119889996015,465.64790669991635,465.53119889996015,465.64790669991635,465.6312168999575,None,m,1,1.0355711998417974,465.6312168999575,None,,,,,f,,ps,2022_Apr_04_1053,training+cueing,2021.1.4,60.174373267606704,
Friend.png,Friend,Friend,c,2,12,22,92,,,,,0,0,0,0,,,,,9,6,114,10,,,,,,,,,,,,,,,,,,,,,1.692,1.787,466.78809859999456,None,,,,,,,,,,,,,,,,,,,,467.3278081000317,467.8328648000024,0.5100767801050097,1.0106914800126106,467.8162330999039,467.9329713000916,467.8162330999039,467.9329713000916,467.9162286000792,None,c,1,0.8786680998746306,467.9162286000792,None,,,,,f,,ps,2022_Apr_04_1053,training+cueing,2021.1.4,60.174373267606704,
Stranger.png,Stranger,Stranger,c,3,13,23,93,,,,,0,0,0,0,,,,,9,7,115,8,,,,,,,,,,,,,,,,,,,,,1.628,2.209,468.92426680005156,None,,,,,,,,,,,,,,,,,,,,469.4658550999593,469.96776259993203,0.5021946798078716,1.0024483799934387,469.95112379989587,470.06775050004944,469.95112379989587,470.06775050004944,470.05108479992487,None,m,0,0.7600736999884248,470.05108479992487,None,,,,,f,,ps,2022_Apr_04_1053,training+cueing,2021.1.4,60.174373267606704,
Self.png,Friend,Self ,m,2.1,16,26,96,,,,,0,0,0,0,,,,,9,8,116,1,,,,,,,,,,,,,,,,,,,,,1.77,2.26,470.945370499976,None,,,,,,,,,,,,,,,,,,,,471.5056737998966,472.01937770005316,0.5123017400037497,1.0125523400492966,472.0025796999689,472.1192828998901,472.0025796999689,472.1192828998901,472.10257939994335,None,c,0,1.2522317999973893,472.10257939994335,None,,,,,f,,ps,2022_Apr_04_1053,training+cueing,2021.1.4,60.174373267606704,
Stranger.png,Stranger,Stranger,c,3,13,23,93,,,,,0,0,0,0,,,,,9,9,117,11,,,,,,,,,,,,,,,,,,,,,1.428,1.607,473.47689849999733,None,,,,,,,,,,,,,,,,,,,,474.0190334999934,474.5209953999147,0.5041638801340014,1.004462179960683,474.5043556999881,474.62109100003727,474.5043556999881,474.62109100003727,474.6043879999779,None,m,0,0.8464196999557316,474.6043879999779,None,,,,,f,,ps,2022_Apr_04_1053,training+cueing,2021.1.4,60.174373267606704,
Self.png,You,Self ,c,1,11,21,91,,,,,0,0,0,0,,,,,9,10,118,9,,,,,,,,,,,,,,,,,,,,,1.476,1.845,475.5764647999313,None,,,,,,,,,,,,,,,,,,,,476.1170034999959,476.6225240000058,0.509404179872945,1.0097198798321187,476.60584790003486,476.7059122999199,476.60584790003486,476.7059122999199,476.7059122999199,None,c,1,0.5368820000439882,476.7059122999199,None,,,,,f,,ps,2022_Apr_04_1053,training+cueing,2021.1.4,60.174373267606704,
Self.png,Stranger,Self ,m,3.1,18,28,98,,,,,0,0,0,0,,,,,9,11,119,2,,,,,,,,,,,,,,,,,,,,,1.659,2.476,477.37988999998197,None,,,,,,,,,,,,,,,,,,,,477.92098719999194,478.42384269996546,0.5061986800283194,1.0064850798808038,478.40722430008464,478.52391780004837,478.40722430008464,478.52391780004837,478.50722629996017,None,m,1,1.263687300030142,478.50722629996017,None,,,,,f,,ps,2022_Apr_04_1053,training+cueing,2021.1.4,60.174373267606704,
,,,,,,,,,,,,0,0,0,0,,,,,,,,,,,,,,,,,,,,,,,,,,,,,,,,,,,,,,,,,,,,,,,,,,,,,,,,,,,,,,,,,,,0.000690520042553544,None,,,f,,ps,2022_Apr_04_1053,training+cueing,2021.1.4,60.174373267606704,
Self.png,Friend,Self ,m,2.1,16,26,96,,,,,1,0,1,0,0,0,0,1,,,,,,,,,,,,,,,,,480.4089081999846,None,space,0.6412802000995725,2.0156525601632893,None,483.06085440004244,None,1.623,1.33,486.0749953999184,None,486.6086770000402,487.113512000069,487.0968494999688,487.21352050011046,487.0968494999688,487.21352050011046,487.1968352000695,None,c,0,0.7979653999209404,487.1968352000695,None,488.0142294000834,None,,,,,,,,,,,,,,,,,,,,,,,,f,,ps,2022_Apr_04_1053,training+cueing,2021.1.4,60.174373267606704,
Friend.png,Stranger,Friend,m,3.2,19,29,99,,,,,1,0,1,0,0,1,1,5,,,,,,,,,,,,,,,,,,,,,,,,,1.589,2.371,488.41441019997,None,488.95687690004706,489.4651496000588,489.43186139990576,489.5318773998879,489.43186139990576,489.5318773998879,489.5318773998879,None,None,0,,489.5318773998879,None,491.1330691999756,None,,,,,,,,,,,,,,,,,,,,,,,,f,,ps,2022_Apr_04_1053,training+cueing,2021.1.4,60.174373267606704,
Self.png,You,Self ,c,1,11,21,91,,,,,1,0,1,0,0,2,2,9,,,,,,,,,,,,,,,,,,,,,,,,,1.477,2.425,491.53358520008624,None,492.07287109992467,492.5841278000735,492.56744019989856,492.66748480009846,492.56744019989856,492.66748480009846,492.66748480009846,None,m,0,0.4153277000878006,492.66748480009846,None,493.1012252001092,None,,,,,,,,,,,,,,,,,,,,,,,,f,,ps,2022_Apr_04_1053,training+cueing,2021.1.4,60.174373267606704,
Friend.png,You,Friend,m,1.2,14,24,94,,,,,1,0,1,0,0,3,3,3,,,,,,,,,,,,,,,,,,,,,,,,,1.455,1.771,493.5014454999473,None,494.03006069990806,494.53552250005305,494.5188422999345,494.61889049992897,494.5188422999345,494.61889049992897,494.61889049992897,None,c,0,0.991952900076285,494.61889049992897,None,495.63635380007327,None,,,,,,,,,,,,,,,,,,,,,,,,f,,ps,2022_Apr_04_1053,training+cueing,2021.1.4,60.174373267606704,
Self.png,Stranger,Self ,m,3.1,18,28,98,,,,,1,0,1,0,0,4,4,2,,,,,,,,,,,,,,,,,,,,,,,,,1.647,2.144,496.03687490010634,None,496.5764758998994,497.08734329999425,497.0706903000828,497.1874283000361,497.0706903000828,497.1874283000361,497.170717400033,None,None,0,,497.170717400033,None,498.82209599995986,None,,,,,,,,,,,,,,,,,,,,,,,,f,,ps,2022_Apr_04_1053,training+cueing,2021.1.4,60.174373267606704,
Friend.png,Friend,Friend,c,2,12,22,92,,,,,1,0,1,0,0,5,5,4,,,,,,,,,,,,,,,,,,,,,,,,,1.451,2.453,499.2222907000687,None,499.7564167000819,500.25640000007115,500.2398328999989,500.35641729994677,500.2398328999989,500.35641729994677,500.35641729994677,None,None,0,,500.35641729994677,None,501.8078463000711,None,,,,,,,,,,,,,,,,,,,,,,,,f,,ps,2022_Apr_04_1053,training+cueing,2021.1.4,60.174373267606704,
Stranger.png,You,Stranger,m,1.3,15,25,95,,,,,1,0,1,0,0,6,6,6,,,,,,,,,,,,,,,,,,,,,,,,,1.723,1.52,502.20814569992945,None,502.7534348999616,503.25860640010796,503.24185930006206,503.34188370010816,503.24185930006206,503.34188370010816,503.34188370010816,None,m,1,1.1649257999379188,503.34188370010816,None,504.52444540010765,None,,,,,,,,,,,,,,,,,,,,,,,,f,,ps,2022_Apr_04_1053,training+cueing,2021.1.4,60.174373267606704,
Stranger.png,Friend,Stranger,m,2.3,17,27,97,,,,,1,0,1,0,0,7,7,7,,,,,,,,,,,,,,,,,,,,,,,,,1.667,1.299,504.9265614999458,None,505.4593032000121,505.9605006999336,505.9438348999247,506.0606742000673,505.9438348999247,506.0606742000673,506.0438222999219,None,m,1,0.07904940005391836,506.0438222999219,None,506.1439404000994,None,,,,,,,,,,,,,,,,,,,,,,,,f,,ps,2022_Apr_04_1053,training+cueing,2021.1.4,60.174373267606704,
Stranger.png,Stranger,Stranger,c,3,13,23,93,,,,,1,0,1,0,0,8,8,11,,,,,,,,,,,,,,,,,,,,,,,,,1.765,2.447,506.54446100001223,None,507.08327589998953,507.5949736998882,507.57839579996653,507.6950346000958,507.57839579996653,507.6950346000958,507.67836189991795,None,m,0,0.25251829996705055,507.67836189991795,None,507.96252799988724,None,,,,,,,,,,,,,,,,,,,,,,,,f,,ps,2022_Apr_04_1053,training+cueing,2021.1.4,60.174373267606704,
Stranger.png,Stranger,Stranger,c,3,13,23,93,,,,,1,0,1,0,0,9,9,8,,,,,,,,,,,,,,,,,,,,,,,,,1.753,1.689,508.3621962000616,None,508.8937055999413,509.39633010001853,509.3795990999788,509.4963575999718,509.3795990999788,509.4963575999718,509.47965179989114,None,m,0,0.6272178997751325,509.47965179989114,None,510.1301440000534,None,,,,,,,,,,,,,,,,,,,,,,,,f,,ps,2022_Apr_04_1053,training+cueing,2021.1.4,60.174373267606704,
Friend.png,Friend,Friend,c,2,12,22,92,,,,,1,0,1,0,0,10,10,10,,,,,,,,,,,,,,,,,,,,,,,,,1.584,2.153,510.53058260004036,None,511.06282739993185,511.5645665000193,511.5479506000411,511.6645553999115,511.5479506000411,511.6645553999115,511.64789330004714,None,c,1,0.2509320001117885,511.64789330004714,None,511.9136363998987,None,,,,,,,,,,,,,,,,,,,,,,,,f,,ps,2022_Apr_04_1053,training+cueing,2021.1.4,60.174373267606704,
Self.png,You,Self ,c,1,11,21,91,,,,,1,0,1,0,0,11,11,0,,,,,,,,,,,,,,,,,,,,,,,,,1.551,1.572,512.315100299893,None,512.8467176000122,513.3491293999832,513.3323894999921,513.4325087999459,513.3323894999921,513.4325087999459,513.4325087999459,None,None,0,,513.4325087999459,None,514.9819743998814,None,,,,,,,,,,,,,,,,,,,,,,,,f,,ps,2022_Apr_04_1053,training+cueing,2021.1.4,60.174373267606704,
Self.png,Friend,Self ,m,2.1,16,26,96,,,,,1,0,1,0,,,,,0,0,0,1,,,,,,,,,,,,,,,,,,,521.1716891000979,None,1.719,2.372,524.6870943999384,None,,,,,,,,,,,,,,,,515.3836735000368,None,0.014801060082390904,None,525.2054500998929,525.7081005000509,0.5053465799428523,1.0056731798686087,525.6914480999112,525.8081418999936,525.6914480999112,525.8081418999936,525.791465899907,None,c,0,0.8754162001423538,525.791465899907,None,,,,,f,,ps,2022_Apr_04_1053,training+cueing,2021.1.4,60.174373267606704,
Self.png,You,Self ,c,1,11,21,91,,,,,1,0,1,0,,,,,0,1,1,9,,,,,,,,,,,,,,,,,,,,,1.682,1.919,526.8054301999509,None,,,,,,,,,,,,,,,,,,,,527.3412742998917,527.8429946000688,0.5025097797624767,1.0028182798996568,527.8262869999744,527.926392500056,527.8262869999744,527.926392500056,527.926392500056,None,None,0,,527.926392500056,None,,,,,f,,ps,2022_Apr_04_1053,training+cueing,2021.1.4,60.174373267606704,
Friend.png,Friend,Friend,c,2,12,22,92,,,,,1,0,1,0,,,,,0,2,2,10,,,,,,,,,,,,,,,,,,,,,1.557,1.396,529.715069500031,None,,,,,,,,,,,,,,,,,,,,530.2574084999505,530.761748699937,0.5079274799209088,1.0081966798752546,530.7451094998978,530.8618022000883,530.7451094998978,530.8618022000883,530.8451262000017,None,m,0,0.7816365000326186,530.8451262000017,None,,,,,f,,ps,2022_Apr_04_1053,training+cueing,2021.1.4,60.174373267606704,
Stranger.png,Friend,Stranger,m,2.3,17,27,97,,,,,1,0,1,0,,,,,0,3,3,7,,,,,,,,,,,,,,,,,,,,,1.604,2.199,531.7518339001108,None,,,,,,,,,,,,,,,,,,,,532.2889018000569,532.7965752000455,0.5142232801299542,1.0145048801787198,532.7798886999954,532.896628000075,532.7798886999954,532.896628000075,532.8799121000338,None,c,0,0.6029183000791818,532.8799121000338,None,,,,,f,,ps,2022_Apr_04_1053,training+cueing,2021.1.4,60.174373267606704,
Self.png,Stranger,Self ,m,3.1,18,28,98,,,,,1,0,1,0,,,,,0,4,4,2,,,,,,,,,,,,,,,,,,,,,1.546,1.461,533.6202789999079,None,,,,,,,,,,,,,,,,,,,,534.1590873000678,534.6645823998842,0.5078739803284407,1.0081798802129924,534.6479112999514,534.764625800075,534.6479112999514,534.764625800075,534.7479544000234,None,c,0,0.5749352001585066,534.7479544000234,None,,,,,f,,ps,2022_Apr_04_1053,training+cueing,2021.1.4,60.174373267606704,
Stranger.png,Stranger,Stranger,c,3,13,23,93,,,,,1,0,1,0,,,,,0,5,5,8,,,,,,,,,,,,,,,,,,,,,1.46,1.252,535.4554645998869,None,,,,,,,,,,,,,,,,,,,,535.9924387000501,536.4992684999015,0.5139493797905743,1.0143277798779309,536.4825536999851,536.5993156998884,536.4825536999851,536.5993156998884,536.5826202000026,None,None,0,,536.5826202000026,None,,,,,f,,ps,2022_Apr_04_1053,training+cueing,2021.1.4,60.174373267606704,
Friend.png,Friend,Friend,c,2,12,22,92,,,,,1,0,1,0,,,,,0,6,6,4,,,,,,,,,,,,,,,,,,,,,1.7,1.968,538.1552198999561,None,,,,,,,,,,,,,,,,,,,,538.697106000036,539.2012517999392,0.5077960800845176,1.008071880089119,539.184553500032,539.3012699000537,539.184553500032,539.3012699000537,539.2845415999182,None,c,1,0.7263559999410063,539.2845415999182,None,,,,,f,,ps,2022_Apr_04_1053,training+cueing,2021.1.4,60.174373267606704,
Friend.png,Stranger,Friend,m,3.2,19,29,99,,,,,1,0,1,0,,,,,0,7,7,5,,,,,,,,,,,,,,,,,,,,,1.732,2.336,540.1408035000786,None,,,,,,,,,,,,,,,,,,,,540.6818289000075,541.1860684000421,0.505882180063054,1.0060423801187426,541.1694159999024,541.2859634999186,541.1694159999024,541.2859634999186,541.2693242998794,None,c,0,1.2054342001210898,541.2693242998794,None,,,,,f,,ps,2022_Apr_04_1053,training+cueing,2021.1.4,60.174373267606704,
Self.png,You,Self ,c,1,11,21,91,,,,,1,0,1,0,,,,,0,8,8,0,,,,,,,,,,,,,,,,,,,,,1.751,1.76,542.610270800069,None,,,,,,,,,,,,,,,,,,,,543.1511617999058,543.654441599967,0.5064120797906071,1.0067005797754973,543.6377512998879,543.7378195000347,543.6377512998879,543.7378195000347,543.7378195000347,None,c,1,0.7529827000107616,543.7378195000347,None,,,,,f,,ps,2022_Apr_04_1053,training+cueing,2021.1.4,60.174373267606704,
Stranger.png,Stranger,Stranger,c,3,13,23,93,,,,,1,0,1,0,,,,,0,9,9,11,,,,,,,,,,,,,,,,,,,,,1.791,1.921,544.6275704998989,None,,,,,,,,,,,,,,,,,,,,545.1704694998916,545.6725419000722,0.5040567801333964,1.0043259800877422,545.6558898000512,545.772607000079,545.6558898000512,545.772607000079,545.7559287000913,None,c,1,0.910946800140664,545.7559287000913,None,,,,,f,,ps,2022_Apr_04_1053,training+cueing,2021.1.4,60.174373267606704,
Stranger.png,You,Stranger,m,1.3,15,25,95,,,,,1,0,1,0,,,,,0,10,10,6,,,,,,,,,,,,,,,,,,,,,1.532,1.849,546.7960894000717,None,,,,,,,,,,,,,,,,,,,,547.3355823000893,547.840833599912,0.5090599798131734,1.009262679843232,547.8241761000827,547.9241432999261,547.8241761000827,547.9241432999261,547.9241432999261,None,m,1,1.1266475000884384,547.9241432999261,None,,,,,f,,ps,2022_Apr_04_1053,training+cueing,2021.1.4,60.174373267606704,
Friend.png,You,Friend,m,1.2,14,24,94,,,,,1,0,1,0,,,,,0,11,11,3,,,,,,,,,,,,,,,,,,,,,1.725,2.208,549.1816583999898,None,,,,,,,,,,,,,,,,,,,,549.7183505999856,550.2260112001095,0.5151886800304055,1.0153219799976796,550.2092917000409,550.3092173999175,550.2092917000409,550.3092173999175,550.3092173999175,None,c,0,0.6456106000114232,550.3092173999175,None,,,,,f,,ps,2022_Apr_04_1053,training+cueing,2021.1.4,60.174373267606704,
Friend.png,Friend,Friend,c,2,12,22,92,,,,,1,0,1,0,,,,,1,0,12,4,,,,,,,,,,,,,,,,,,,,,1.52,2.332,551.0830912000965,None,,,,,,,,,,,,,,,,,,,,551.6224076000508,552.1272090000566,0.5072863798122853,1.0076044797897339,552.1105295000598,552.2272612000816,552.1105295000598,552.2272612000816,552.2106244000606,None,c,1,0.7121574999764562,552.2106244000606,None,,,,,f,,ps,2022_Apr_04_1053,training+cueing,2021.1.4,60.174373267606704,
Self.png,Friend,Self ,m,2.1,16,26,96,,,,,1,0,1,0,,,,,1,1,13,1,,,,,,,,,,,,,,,,,,,,,1.685,2.374,553.0511127999052,None,,,,,,,,,,,,,,,,,,,,553.5893385000527,554.0953848999925,0.5120889798272401,1.0123439799062908,554.0786735999864,554.1953847999685,554.0786735999864,554.1953847999685,554.1786362999119,None,m,1,0.7921973001211882,554.1786362999119,None,,,,,f,,ps,2022_Apr_04_1053,training+cueing,2021.1.4,60.174373267606704,
Self.png,Stranger,Self ,m,3.1,18,28,98,,,,,1,0,1,0,,,,,1,2,14,2,,,,,,,,,,,,,,,,,,,,,1.49,2.166,555.1020551000256,None,,,,,,,,,,,,,,,,,,,,555.6433133999817,556.1468128000852,0.5077899799216539,1.0080807800404727,556.1301295000594,556.2468679000158,556.1301295000594,556.2468679000158,556.230178900063,None,c,0,0.6606676999945194,556.230178900063,None,,,,,f,,ps,2022_Apr_04_1053,training+cueing,2021.1.4,60.174373267606704,
Friend.png,You,Friend,m,1.2,14,24,94,,,,,1,0,1,0,,,,,1,3,15,3,,,,,,,,,,,,,,,,,,,,,1.675,2.277,557.0203523000237,None,,,,,,,,,,,,,,,,,,,,557.5602416000329,558.0648574999068,0.5076648800168186,1.0079459799453616,558.0482262999285,558.1482454000507,558.0482262999285,558.1482454000507,558.1482454000507,None,None,0,,558.1482454000507,None,,,,,f,,ps,2022_Apr_04_1053,training+cueing,2021.1.4,60.174373267606704,
Self.png,You,Self ,c,1,11,21,91,,,,,1,0,1,0,,,,,1,4,16,9,,,,,,,,,,,,,,,,,,,,,1.567,2.464,559.9384864999447,None,,,,,,,,,,,,,,,,,,,,560.4770055999979,560.9837144000921,0.5125670798588544,1.012719179969281,560.9671052000485,561.0670358999632,560.9671052000485,561.0670358999632,561.0670358999632,None,c,1,0.6077969998586923,561.0670358999632,None,,,,,f,,ps,2022_Apr_04_1053,training+cueing,2021.1.4,60.174373267606704,
Stranger.png,Stranger,Stranger,c,3,13,23,93,,,,,1,0,1,0,,,,,1,5,17,11,,,,,,,,,,,,,,,,,,,,,1.701,1.35,561.8074091000017,None,,,,,,,,,,,,,,,,,,,,562.3498885999434,562.8516748999245,0.5040914800483733,1.0044341799803078,562.8349943999201,562.9517449999694,562.8349943999201,562.9517449999694,562.9353626000229,None,c,1,0.5794875000137836,562.9353626000229,None,,,,,f,,ps,2022_Apr_04_1053,training+cueing,2021.1.4,60.174373267606704,
Stranger.png,Stranger,Stranger,c,3,13,23,93,,,,,1,0,1,0,,,,,1,6,18,8,,,,,,,,,,,,,,,,,,,,,1.728,2.239,563.6421201999765,None,,,,,,,,,,,,,,,,,,,,564.1773314999882,564.6862951999065,0.512995180208236,1.015938380267471,564.6529715999495,564.75304160011,564.6529715999495,564.75304160011,564.75304160011,None,c,1,0.6657436001114547,564.75304160011,None,,,,,f,,ps,2022_Apr_04_1053,training+cueing,2021.1.4,60.174373267606704,
Stranger.png,Friend,Stranger,m,2.3,17,27,97,,,,,1,0,1,0,,,,,1,7,19,7,,,,,,,,,,,,,,,,,,,,,1.545,2.361,565.5430042000953,None,,,,,,,,,,,,,,,,,,,,566.0849134998862,566.5877658999525,0.5059706799220294,1.0062247798778117,566.5710754999891,566.6877568999771,566.5710754999891,566.6877568999771,566.6710461000912,None,m,1,0.9078168000560254,566.6710461000912,None,,,,,f,,ps,2022_Apr_04_1053,training+cueing,2021.1.4,60.174373267606704,
Self.png,You,Self ,c,1,11,21,91,,,,,1,0,1,0,,,,,1,8,20,0,,,,,,,,,,,,,,,,,,,,,1.783,1.344,567.7116835000925,None,,,,,,,,,,,,,,,,,,,,568.2511098000687,568.7559410000686,0.5082282801158726,1.0085528800264,568.739255100023,568.8392954000738,568.739255100023,568.8392954000738,568.8392954000738,None,c,1,0.5315191999543458,568.8392954000738,None,,,,,f,,ps,2022_Apr_04_1053,training+cueing,2021.1.4,60.174373267606704,
Stranger.png,You,Stranger,m,1.3,15,25,95,,,,,1,0,1,0,,,,,1,9,21,6,,,,,,,,,,,,,,,,,,,,,1.538,2.289,569.495557700051,None,,,,,,,,,,,,,,,,,,,,570.0419739000499,570.5573213000316,0.5146151799708605,1.0149183799512684,570.540720900055,570.6406229999848,570.540720900055,570.6406229999848,570.6406229999848,None,c,0,0.7463867999613285,570.6406229999848,None,,,,,f,,ps,2022_Apr_04_1053,training+cueing,2021.1.4,60.174373267606704,
Friend.png,Friend,Friend,c,2,12,22,92,,,,,1,0,1,0,,,,,1,10,22,10,,,,,,,,,,,,,,,,,,,,,1.604,1.947,571.5158194999676,None,,,,,,,,,,,,,,,,,,,,572.0561939999461,572.5586751999799,0.5055342798586935,1.0058532799594104,572.5420297998935,572.6587449000217,572.5420297998935,572.6587449000217,572.6420601001009,None,c,1,0.6647017998620868,572.6420601001009,None,,,,,f,,ps,2022_Apr_04_1053,training+cueing,2021.1.4,60.174373267606704,
Friend.png,Stranger,Friend,m,3.2,19,29,99,,,,,1,0,1,0,,,,,1,11,23,5,,,,,,,,,,,,,,,,,,,,,1.506,2.425,573.4326375999954,None,,,,,,,,,,,,,,,,,,,,573.9857067000121,574.4936863000039,0.514021840179339,1.014330740319565,574.4767400999554,574.5934892001096,574.4767400999554,574.5934892001096,574.5767902000807,None,m,1,1.2259982000105083,574.5767902000807,None,,,,,f,,ps,2022_Apr_04_1053,training+cueing,2021.1.4,60.174373267606704,
Stranger.png,Friend,Stranger,m,2.3,17,27,97,,,,,1,0,1,0,,,,,2,0,24,7,,,,,,,,,,,,,,,,,,,,,1.403,2.185,575.9344466999173,None,,,,,,,,,,,,,,,,,,,,576.4730585000943,576.978578899987,0.5107035799883306,1.0109528799075633,576.9619273000862,577.0786033999175,576.9619273000862,577.0786033999175,577.0619292000774,None,m,1,0.8689149999991059,577.0619292000774,None,,,,,f,,ps,2022_Apr_04_1053,training+cueing,2021.1.4,60.174373267606704,
Stranger.png,You,Stranger,m,1.3,15,25,95,,,,,1,0,1,0,,,,,2,1,25,6,,,,,,,,,,,,,,,,,,,,,1.624,1.847,578.0691702000331,None,,,,,,,,,,,,,,,,,,,,578.6069960999303,579.1134226000868,0.5134788800496608,1.013670879881829,579.0968269000296,579.1968042999506,579.0968269000296,579.1968042999506,579.1968042999506,None,m,1,0.9260370000265539,579.1968042999506,None,,,,,f,,ps,2022_Apr_04_1053,training+cueing,2021.1.4,60.174373267606704,
Self.png,Stranger,Self ,m,3.1,18,28,98,,,,,1,0,1,0,,,,,2,2,26,2,,,,,,,,,,,,,,,,,,,,,1.78,2.484,580.2542975000106,None,,,,,,,,,,,,,,,,,,,,580.8047150999773,581.3151187999174,0.5031257797963917,1.003320679999888,581.2984263999388,581.4150932999328,581.2984263999388,581.4150932999328,581.3983835000545,None,m,1,0.9005087001714855,581.3983835000545,None,,,,,f,,ps,2022_Apr_04_1053,training+cueing,2021.1.4,60.174373267606704,
Friend.png,Friend,Friend,c,2,12,22,92,,,,,1,0,1,0,,,,,2,3,27,4,,,,,,,,,,,,,,,,,,,,,1.508,1.28,582.422328799963,None,,,,,,,,,,,,,,,,,,,,582.9640480000526,583.4666160999332,0.5048875797074288,1.0051783798262477,583.4499347999226,583.5666352999397,583.4499347999226,583.5666352999397,583.5499527000356,None,c,1,0.6848736999090761,583.5499527000356,None,,,,,f,,ps,2022_Apr_04_1053,training+cueing,2021.1.4,60.174373267606704,
Friend.png,You,Friend,m,1.2,14,24,94,,,,,1,0,1,0,,,,,2,4,28,3,,,,,,,,,,,,,,,,,,,,,1.584,1.42,584.3570308000781,None,,,,,,,,,,,,,,,,,,,,584.8972012000158,585.4013696000911,0.5063620798755437,1.0066346798557788,585.3846642000135,585.4847003000323,585.3846642000135,585.4847003000323,585.4847003000323,None,m,1,1.1181999000255018,585.4847003000323,None,,,,,f,,ps,2022_Apr_04_1053,training+cueing,2021.1.4,60.174373267606704,
Stranger.png,Stranger,Stranger,c,3,13,23,93,,,,,1,0,1,0,,,,,2,5,29,11,,,,,,,,,,,,,,,,,,,,,1.787,2.37,586.7253368000966,None,,,,,,,,,,,,,,,,,,,,587.263970799977,587.7696849999484,0.5121510797180235,1.0127200798597187,587.7530451000202,587.8697253998835,587.7530451000202,587.8697253998835,587.8530782999005,None,m,0,1.2297414999920875,587.8530782999005,None,,,,,f,,ps,2022_Apr_04_1053,training+cueing,2021.1.4,60.174373267606704,
Self.png,Friend,Self ,m,2.1,16,26,96,,,,,1,0,1,0,,,,,2,6,30,1,,,,,,,,,,,,,,,,,,,,,1.585,1.294,589.2097312000114,None,,,,,,,,,,,,,,,,,,,,589.7499889000319,590.2549213999882,0.509231979958713,1.009425580035895,590.2382455000188,590.3549180000555,590.2382455000188,590.3549180000555,590.3382311998866,None,None,0,,590.3382311998866,None,,,,,f,,ps,2022_Apr_04_1053,training+cueing,2021.1.4,60.174373267606704,
Self.png,You,Self ,c,1,11,21,91,,,,,1,0,1,0,,,,,2,7,31,9,,,,,,,,,,,,,,,,,,,,,1.433,2.176,592.0273601999506,None,,,,,,,,,,,,,,,,,,,,592.5668331000488,593.0735549000092,0.5111338798888028,1.0114269799087197,593.0568792999256,593.1569304000586,593.0568792999256,593.1569304000586,593.1569304000586,None,c,1,0.5499046999029815,593.1569304000586,None,,,,,f,,ps,2022_Apr_04_1053,training+cueing,2021.1.4,60.174373267606704,
Friend.png,Friend,Friend,c,2,12,22,92,,,,,1,0,1,0,,,,,2,8,32,10,,,,,,,,,,,,,,,,,,,,,1.769,2.31,593.8297872999683,None,,,,,,,,,,,,,,,,,,,,594.3702632000204,594.8748490000144,0.5099669799674302,1.0102558799553663,594.8582095000893,594.9749040000606,594.8582095000893,594.9749040000606,594.9582350999117,None,c,1,0.7328071999363601,594.9582350999117,None,,,,,f,,ps,2022_Apr_04_1053,training+cueing,2021.1.4,60.174373267606704,
Self.png,You,Self ,c,1,11,21,91,,,,,1,0,1,0,,,,,2,9,33,0,,,,,,,,,,,,,,,,,,,,,1.768,1.603,595.8184942998923,None,,,,,,,,,,,,,,,,,,,,596.3592449999414,596.8596278999466,0.5009606801904738,1.0012887802440673,596.8429322999436,596.9431004000362,596.8429322999436,596.9431004000362,596.9431004000362,None,c,1,0.7477574001532048,596.9431004000362,None,,,,,f,,ps,2022_Apr_04_1053,training+cueing,2021.1.4,60.174373267606704,
Stranger.png,Stranger,Stranger,c,3,13,23,93,,,,,1,0,1,0,,,,,2,10,34,8,,,,,,,,,,,,,,,,,,,,,1.737,1.382,597.8168081000913,None,,,,,,,,,,,,,,,,,,,,598.3561696000397,598.8613299001008,0.5080131802242249,1.0083208801224828,598.8446535000112,598.9613838000223,598.8446535000112,598.9613838000223,598.9446543001104,None,m,0,0.9221901001874357,598.9446543001104,None,,,,,f,,ps,2022_Apr_04_1053,training+cueing,2021.1.4,60.174373267606704,
Friend.png,Stranger,Friend,m,3.2,19,29,99,,,,,1,0,1,0,,,,,2,11,35,5,,,,,,,,,,,,,,,,,,,,,1.499,1.664,600.0028099999763,None,,,,,,,,,,,,,,,,,,,,600.541386900004,601.0460026999936,0.5101239799987525,1.010359579930082,601.0293767000549,601.1460357001051,601.0293767000549,601.1460357001051,601.1293655000627,None,c,0,1.3775200000964105,601.1293655000627,None,,,,,f,,ps,2022_Apr_04_1053,training+cueing,2021.1.4,60.174373267606704,
Stranger.png,Friend,Stranger,m,2.3,17,27,97,,,,,1,0,1,0,,,,,3,0,36,7,,,,,,,,,,,,,,,,,,,,,1.794,2.197,602.6369074000977,None,,,,,,,,,,,,,,,,,,,,603.1776105000172,603.681278700009,0.5049469799268991,1.0052434799727052,603.6645617999602,603.7812955998816,603.6645617999602,603.7812955998816,603.7645864998922,None,c,0,0.710216399980709,603.7645864998922,None,,,,,f,,ps,2022_Apr_04_1053,training+cueing,2021.1.4,60.174373267606704,
Friend.png,Friend,Friend,c,2,12,22,92,,,,,1,0,1,0,,,,,3,1,37,10,,,,,,,,,,,,,,,,,,,,,1.464,2.395,604.6040539001115,None,,,,,,,,,,,,,,,,,,,,605.142155499896,605.6492886999622,0.5132428801152855,1.0135396800469607,605.6326361000538,605.7493551000953,605.6326361000538,605.7493551000953,605.7327221999876,None,c,1,0.6621638000942767,605.7327221999876,None,,,,,f,,ps,2022_Apr_04_1053,training+cueing,2021.1.4,60.174373267606704,
Self.png,Stranger,Self ,m,3.1,18,28,98,,,,,1,0,1,0,,,,,3,2,38,2,,,,,,,,,,,,,,,,,,,,,1.472,2.5,606.5232766000554,None,,,,,,,,,,,,,,,,,,,,607.0632774000987,607.5673885999713,0.5089410797227174,1.0091871798504144,607.5507300999016,607.6674053999595,607.5507300999016,607.6674053999595,607.6510520998854,None,None,0,,607.6510520998854,None,,,,,f,,ps,2022_Apr_04_1053,training+cueing,2021.1.4,60.174373267606704,
Stranger.png,Stranger,Stranger,c,3,13,23,93,,,,,1,0,1,0,,,,,3,3,39,8,,,,,,,,,,,,,,,,,,,,,1.411,2.144,609.2409816000145,None,,,,,,,,,,,,,,,,,,,,609.7882516998798,610.3027260000817,0.5102805797941983,1.0104936799034476,610.2860508000012,610.402923299931,610.2860508000012,610.402923299931,610.3860347999725,None,c,1,1.0807965998537838,610.3860347999725,None,,,,,f,,ps,2022_Apr_04_1053,training+cueing,2021.1.4,60.174373267606704,
Stranger.png,You,Stranger,m,1.3,15,25,95,,,,,1,0,1,0,,,,,3,4,40,6,,,,,,,,,,,,,,,,,,,,,1.401,2.445,611.5927351999562,None,,,,,,,,,,,,,,,,,,,,612.1315071000718,612.6377071999013,0.5116615800652653,1.011959180003032,612.621035200078,612.7210917999037,612.621035200078,612.7210917999037,612.7210917999037,None,m,1,0.793652799911797,612.7210917999037,None,,,,,f,,ps,2022_Apr_04_1053,training+cueing,2021.1.4,60.174373267606704,
Friend.png,Stranger,Friend,m,3.2,19,29,99,,,,,1,0,1,0,,,,,3,5,41,5,,,,,,,,,,,,,,,,,,,,,1.584,2.004,613.6448282999918,None,,,,,,,,,,,,,,,,,,,,614.1864499000367,614.6892339999322,0.5048959800042212,1.0051844799891114,614.6725508000236,614.7892718999647,614.6725508000236,614.7892718999647,614.7725464999676,None,m,1,1.0142989000305533,614.7725464999676,None,,,,,f,,ps,2022_Apr_04_1053,training+cueing,2021.1.4,60.174373267606704,
Self.png,Friend,Self ,m,2.1,16,26,96,,,,,1,0,1,0,,,,,3,6,42,1,,,,,,,,,,,,,,,,,,,,,1.489,1.86,615.9125230999198,None,,,,,,,,,,,,,,,,,,,,616.4525186000392,616.9577629000414,0.5084859798662364,1.009438679786399,616.9410657000262,617.0575739000924,616.9410657000262,617.0575739000924,617.0408630999736,None,c,0,1.354037799872458,617.0408630999736,None,,,,,f,,ps,2022_Apr_04_1053,training+cueing,2021.1.4,60.174373267606704,
Self.png,You,Self ,c,1,11,21,91,,,,,1,0,1,0,,,,,3,7,43,0,,,,,,,,,,,,,,,,,,,,,1.659,1.407,618.531786599895,None,,,,,,,,,,,,,,,,,,,,619.0706829999108,619.5760923000053,0.5105472800787538,1.010844579897821,619.5593952999916,619.6594420999754,619.5593952999916,619.6594420999754,619.6594420999754,None,c,1,0.6074600999709219,619.6594420999754,None,,,,,f,,ps,2022_Apr_04_1053,training+cueing,2021.1.4,60.174373267606704,
Friend.png,You,Friend,m,1.2,14,24,94,,,,,1,0,1,0,,,,,3,8,44,3,,,,,,,,,,,,,,,,,,,,,1.792,1.735,620.3994374000467,None,,,,,,,,,,,,,,,,,,,,620.9372501999605,621.4440977999475,0.511696679983288,1.0120047801174223,621.4274263998959,621.5274590998888,621.4274263998959,621.5274590998888,621.5274590998888,None,m,1,1.027384900022298,621.5274590998888,None,,,,,f,,ps,2022_Apr_04_1053,training+cueing,2021.1.4,60.174373267606704,
Stranger.png,Stranger,Stranger,c,3,13,23,93,,,,,1,0,1,0,,,,,3,9,45,11,,,,,,,,,,,,,,,,,,,,,1.641,2.139,622.6838628998958,None,,,,,,,,,,,,,,,,,,,,623.2249280998949,623.7291371999308,0.5087395799346268,1.0090332799591124,623.7124010000844,623.8291686000302,623.7124010000844,623.8291686000302,623.8124291999266,None,m,0,0.5664107999764383,623.8124291999266,None,,,,,f,,ps,2022_Apr_04_1053,training+cueing,2021.1.4,60.174373267606704,
Friend.png,Friend,Friend,c,2,12,22,92,,,,,1,0,1,0,,,,,3,10,46,4,,,,,,,,,,,,,,,,,,,,,1.55,1.39,624.5034123999067,None,,,,,,,,,,,,,,,,,,,,625.0441914000548,625.5470944000408,0.5063553799409419,1.006688579916954,625.5303648000117,625.6471172999591,625.5303648000117,625.6471172999591,625.6303922000807,None,c,1,0.8604544000700116,625.6303922000807,None,,,,,f,,ps,2022_Apr_04_1053,training+cueing,2021.1.4,60.174373267606704,
Self.png,You,Self ,c,1,11,21,91,,,,,1,0,1,0,,,,,3,11,47,9,,,,,,,,,,,,,,,,,,,,,1.762,1.47,626.6210441000294,None,,,,,,,,,,,,,,,,,,,,627.161617500009,627.6652750000358,0.5059349799994379,1.006242079893127,627.6486152000725,627.7486755999271,627.6486152000725,627.7486755999271,627.7486755999271,None,c,1,1.0462166999932379,627.7486755999271,None,,,,,f,,ps,2022_Apr_04_1053,training+cueing,2021.1.4,60.174373267606704,
Friend.png,Friend,Friend,c,2,12,22,92,,,,,1,0,1,0,,,,,4,0,48,4,,,,,,,,,,,,,,,,,,,,,1.467,2.195,628.9230416999198,None,,,,,,,,,,,,,,,,,,,,629.4623525999486,629.9669494000264,0.509831580100581,1.0101233799941838,629.950304399943,630.066989300074,629.950304399943,630.066989300074,630.050326500088,None,c,1,1.1286422000266612,630.050326500088,None,,,,,f,,ps,2022_Apr_04_1053,training+cueing,2021.1.4,60.174373267606704,
Stranger.png,Stranger,Stranger,c,3,13,23,93,,,,,1,0,1,0,,,,,4,1,49,8,,,,,,,,,,,,,,,,,,,,,1.547,1.642,631.3087553998921,None,,,,,,,,,,,,,,,,,,,,631.8509935000911,632.351986899972,0.5032373799476773,1.0035342799965292,632.3353186000604,632.4520360000897,632.3353186000604,632.4520360000897,632.4353362000547,None,c,1,0.5194343999028206,632.4353362000547,None,,,,,f,,ps,2022_Apr_04_1053,training+cueing,2021.1.4,60.174373267606704,
Friend.png,Friend,Friend,c,2,12,22,92,,,,,1,0,1,0,,,,,4,2,50,10,,,,,,,,,,,,,,,,,,,,,1.477,1.533,633.0924233999103,None,,,,,,,,,,,,,,,,,,,,633.6429997999221,634.1534575999249,0.5032822801731527,1.0035823800135404,634.1366252999287,634.2533581000753,634.1366252999287,634.2533581000753,634.2366690000053,None,None,0,,634.2366690000053,None,,,,,f,,ps,2022_Apr_04_1053,training+cueing,2021.1.4,60.174373267606704,
Self.png,Stranger,Self ,m,3.1,18,28,98,,,,,1,0,1,0,,,,,4,3,51,2,,,,,,,,,,,,,,,,,,,,,1.612,1.973,635.8250396999065,None,,,,,,,,,,,,,,,,,,,,636.3680624999106,636.8719246999826,0.5070186799857765,1.0073302800301462,636.8552522999234,636.9719972000457,636.8552522999234,636.9719972000457,636.9552690999117,None,m,1,0.9436604999937117,636.9552690999117,None,,,,,f,,ps,2022_Apr_04_1053,training+cueing,2021.1.4,60.174373267606704,
Self.png,You,Self ,c,1,11,21,91,,,,,1,0,1,0,,,,,4,4,52,9,,,,,,,,,,,,,,,,,,,,,1.658,1.913,638.0306989999954,None,,,,,,,,,,,,,,,,,,,,638.5682910999749,639.0735750000458,0.5081178799737245,1.0084103799890727,639.0568599000107,639.1568909001071,639.0568599000107,639.1568909001071,639.1568909001071,None,c,1,0.7740623999852687,639.1568909001071,None,,,,,f,,ps,2022_Apr_04_1053,training+cueing,2021.1.4,60.174373267606704,
Stranger.png,You,Stranger,m,1.3,15,25,95,,,,,1,0,1,0,,,,,4,5,53,6,,,,,,,,,,,,,,,,,,,,,1.772,2.358,640.0642333999276,None,,,,,,,,,,,,,,,,,,,,640.6006680000573,641.1083217998967,0.5143869800958782,1.0146771799772978,641.0916697999928,641.1917137999553,641.0916697999928,641.1917137999553,641.1917137999553,None,m,1,1.1550606000237167,641.1917137999553,None,,,,,f,,ps,2022_Apr_04_1053,training+cueing,2021.1.4,60.174373267606704,
Stranger.png,Stranger,Stranger,c,3,13,23,93,,,,,1,0,1,0,,,,,4,6,54,11,,,,,,,,,,,,,,,,,,,,,1.5,1.929,642.4828011000063,None,,,,,,,,,,,,,,,,,,,,643.0236094000284,643.5267362000886,0.5054791797883809,1.0057641798630357,643.5101016000845,643.6268031999934,643.5101016000845,643.6268031999934,643.6101240999997,None,c,1,0.9130180000793189,643.6101240999997,None,,,,,f,,ps,2022_Apr_04_1053,training+cueing,2021.1.4,60.174373267606704,
Self.png,You,Self ,c,1,11,21,91,,,,,1,0,1,0,,,,,4,7,55,0,,,,,,,,,,,,,,,,,,,,,1.579,1.994,644.6537093999796,None,,,,,,,,,,,,,,,,,,,,645.1908615001012,645.6949956000317,0.5063361800275743,1.0066469800658524,645.6782829000149,645.7783719000872,645.6782829000149,645.7783719000872,645.7783719000872,None,c,1,0.5525271999649704,645.7783719000872,None,,,,,f,,ps,2022_Apr_04_1053,training+cueing,2021.1.4,60.174373267606704,
Friend.png,You,Friend,m,1.2,14,24,94,,,,,1,0,1,0,,,,,4,8,56,3,,,,,,,,,,,,,,,,,,,,,1.785,1.347,646.4677790999413,None,,,,,,,,,,,,,,,,,,,,647.0051625999622,647.5129929000977,0.4993158800061792,0.9996308798436075,647.4796011000872,647.5796523999888,647.4796011000872,647.5796523999888,647.5796523999888,None,m,1,0.991244699805975,647.5796523999888,None,,,,,f,,ps,2022_Apr_04_1053,training+cueing,2021.1.4,60.174373267606704,
Self.png,Friend,Self ,m,2.1,16,26,96,,,,,1,0,1,0,,,,,4,9,57,1,,,,,,,,,,,,,,,,,,,,,1.554,1.506,648.703218499897,None,,,,,,,,,,,,,,,,,,,,649.245422200067,649.7479628000874,0.5061018797568977,1.0063676799181849,649.731326200068,649.8479768000543,649.731326200068,649.8479768000543,649.8313976000063,None,None,0,,649.8313976000063,None,,,,,f,,ps,2022_Apr_04_1053,training+cueing,2021.1.4,60.174373267606704,
Friend.png,Stranger,Friend,m,3.2,19,29,99,,,,,1,0,1,0,,,,,4,10,58,5,,,,,,,,,,,,,,,,,,,,,1.584,1.962,651.5036744999234,None,,,,,,,,,,,,,,,,,,,,652.1043090999592,652.6166960999835,0.5076905598398298,1.008102259831503,652.6000852999277,652.7167275999673,652.6000852999277,652.7167275999673,652.7000426999293,None,c,0,1.2149199000559747,652.7000426999293,None,,,,,f,,ps,2022_Apr_04_1053,training+cueing,2021.1.4,60.174373267606704,
Stranger.png,Friend,Stranger,m,2.3,17,27,97,,,,,1,0,1,0,,,,,4,11,59,7,,,,,,,,,,,,,,,,,,,,,1.425,1.275,654.0409142998978,None,,,,,,,,,,,,,,,,,,,,654.595335100079,655.1019156000111,0.513157440116629,1.0134632401168346,655.0851185000502,655.2018633999396,655.0851185000502,655.2018633999396,655.1851635999046,None,m,1,1.225598300108686,655.1851635999046,None,,,,,f,,ps,2022_Apr_04_1053,training+cueing,2021.1.4,60.174373267606704,
Friend.png,Stranger,Friend,m,3.2,19,29,99,,,,,1,0,1,0,,,,,5,0,60,5,,,,,,,,,,,,,,,,,,,,,1.695,2.181,656.5432271000464,None,,,,,,,,,,,,,,,,,,,,657.1013466999866,657.6040642999578,0.5042329397983849,1.0044603399001062,657.5873626999091,657.7040111999959,657.5873626999091,657.7040111999959,657.6873057999182,None,m,1,0.7716305998619646,657.6873057999182,None,,,,,f,,ps,2022_Apr_04_1053,training+cueing,2021.1.4,60.174373267606704,
Self.png,You,Self ,c,1,11,21,91,,,,,1,0,1,0,,,,,5,1,61,9,,,,,,,,,,,,,,,,,,,,,1.759,2.181,658.5951223999728,None,,,,,,,,,,,,,,,,,,,,659.1328435998876,659.6384153000545,0.5112869800068438,1.0115902801044285,659.6217374000698,659.7217840000521,659.6217374000698,659.7217840000521,659.7217840000521,None,c,1,0.5290912999771535,659.7217840000521,None,,,,,f,,ps,2022_Apr_04_1053,training+cueing,2021.1.4,60.174373267606704,
Stranger.png,Stranger,Stranger,c,3,13,23,93,,,,,1,0,1,0,,,,,5,2,62,11,,,,,,,,,,,,,,,,,,,,,1.578,2.23,660.3791263999883,None,,,,,,,,,,,,,,,,,,,,660.9187570998911,661.4230653000996,0.5085949799977243,1.0088794801849872,661.4064056000207,661.523089400027,661.4064056000207,661.523089400027,661.5063839999493,None,m,0,0.712434200104326,661.5063839999493,None,,,,,f,,ps,2022_Apr_04_1053,training+cueing,2021.1.4,60.174373267606704,
Self.png,Friend,Self ,m,2.1,16,26,96,,,,,1,0,1,0,,,,,5,3,63,1,,,,,,,,,,,,,,,,,,,,,1.697,2.084,662.3467826000415,None,,,,,,,,,,,,,,,,,,,,662.8874832000583,663.3911727999803,0.505758480168879,1.00607398012653,663.3744453000836,663.4911944998894,663.3744453000836,663.4911944998894,663.4744955000933,None,c,0,0.888306199805811,663.4744955000933,None,,,,,f,,ps,2022_Apr_04_1053,training+cueing,2021.1.4,60.174373267606704,
Friend.png,Friend,Friend,c,2,12,22,92,,,,,1,0,1,0,,,,,5,4,64,10,,,,,,,,,,,,,,,,,,,,,1.621,1.479,664.4986473000608,None,,,,,,,,,,,,,,,,,,,,665.0371546999086,665.542719299905,0.5112492798361927,1.0115038799121976,665.5260447999462,665.6427543999162,665.5260447999462,665.6427543999162,665.6260349000804,None,m,0,0.6568099998403341,665.6260349000804,None,,,,,f,,ps,2022_Apr_04_1053,training+cueing,2021.1.4,60.174373267606704,
Self.png,Stranger,Self ,m,3.1,18,28,98,,,,,1,0,1,0,,,,,5,5,65,2,,,,,,,,,,,,,,,,,,,,,1.739,1.591,666.4158044001088,None,,,,,,,,,,,,,,,,,,,,666.9588297000155,667.4607840001117,0.5031343798618764,1.0033944798633456,667.4441172000952,667.5608035000041,667.4441172000952,667.5608035000041,667.5441087998915,None,m,1,0.7707330998964608,667.5441087998915,None,,,,,f,,ps,2022_Apr_04_1053,training+cueing,2021.1.4,60.174373267606704,
Friend.png,You,Friend,m,1.2,14,24,94,,,,,1,0,1,0,,,,,5,6,66,3,,,,,,,,,,,,,,,,,,,,,1.75,1.736,668.4513832998928,None,,,,,,,,,,,,,,,,,,,,668.9911215999164,669.4955627999734,0.5065952797885984,1.006885179784149,669.4789032000117,669.5789518000092,669.4789032000117,669.5789518000092,669.5789518000092,None,m,1,0.8158708000555634,669.5789518000092,None,,,,,f,,ps,2022_Apr_04_1053,training+cueing,2021.1.4,60.174373267606704,
Stranger.png,Friend,Stranger,m,2.3,17,27,97,,,,,1,0,1,0,,,,,5,7,67,7,,,,,,,,,,,,,,,,,,,,,1.555,1.719,670.5195569000207,None,,,,,,,,,,,,,,,,,,,,671.0595130999573,671.5637117000297,0.509119079913944,1.0094259798061103,671.54705929989,671.6637703999877,671.54705929989,671.6637703999877,671.6470707000699,None,m,1,0.7958297999575734,671.6470707000699,None,,,,,f,,ps,2022_Apr_04_1053,training+cueing,2021.1.4,60.174373267606704,
Friend.png,Friend,Friend,c,2,12,22,92,,,,,1,0,1,0,,,,,5,8,68,4,,,,,,,,,,,,,,,,,,,,,1.443,1.631,672.5708318999968,None,,,,,,,,,,,,,,,,,,,,673.1079849998932,673.6154507000465,0.5117376800626516,1.0119508800562471,673.5986075999681,673.715267600026,673.5986075999681,673.715267600026,673.6985770999454,None,m,0,0.8402938998769969,673.6985770999454,None,,,,,f,,ps,2022_Apr_04_1053,training+cueing,2021.1.4,60.174373267606704,
Stranger.png,You,Stranger,m,1.3,15,25,95,,,,,1,0,1,0,,,,,5,9,69,6,,,,,,,,,,,,,,,,,,,,,1.732,1.641,674.6724415000062,None,,,,,,,,,,,,,,,,,,,,675.2120513999835,675.7167557999492,0.5097472798079252,1.0099993799813092,675.7000937000848,675.8001111000776,675.7000937000848,675.8001111000776,675.8001111000776,None,m,1,1.0747606998775154,675.8001111000776,None,,,,,f,,ps,2022_Apr_04_1053,training+cueing,2021.1.4,60.174373267606704,
Self.png,You,Self ,c,1,11,21,91,,,,,1,0,1,0,,,,,5,10,70,0,,,,,,,,,,,,,,,,,,,,,1.461,2.441,677.0076226000674,None,,,,,,,,,,,,,,,,,,,,677.5560814999044,678.0684297000989,0.5086134797893465,1.008946379646659,678.051755500026,678.151833599899,678.051755500026,678.151833599899,678.151833599899,None,c,1,0.9149509000126272,678.151833599899,None,,,,,f,,ps,2022_Apr_04_1053,training+cueing,2021.1.4,60.174373267606704,
Stranger.png,Stranger,Stranger,c,3,13,23,93,,,,,1,0,1,0,,,,,5,11,71,8,,,,,,,,,,,,,,,,,,,,,1.417,2.1,679.1945841999259,None,,,,,,,,,,,,,,,,,,,,679.7329661000986,680.2368612999562,0.5052064801566303,1.0055154799483716,680.2199826000724,680.336829100037,680.2199826000724,680.336829100037,680.3200137000531,None,c,1,0.8108771000988781,680.3200137000531,None,,,,,f,,ps,2022_Apr_04_1053,training+cueing,2021.1.4,60.174373267606704,
Self.png,You,Self ,c,1,11,21,91,,,,,1,0,1,0,,,,,6,0,72,0,,,,,,,,,,,,,,,,,,,,,1.64,2.314,681.2606383000966,None,,,,,,,,,,,,,,,,,,,,681.8001774998847,682.304919899907,0.5107930800877512,1.0107401800341904,682.2884810999967,682.3882110998966,682.2884810999967,682.3882110998966,682.3882110998966,None,c,1,0.6946188001893461,682.3882110998966,None,,,,,f,,ps,2022_Apr_04_1053,training+cueing,2021.1.4,60.174373267606704,
Stranger.png,Stranger,Stranger,c,3,13,23,93,,,,,1,0,1,0,,,,,6,1,73,11,,,,,,,,,,,,,,,,,,,,,1.642,2.319,683.2119448999874,None,,,,,,,,,,,,,,,,,,,,683.7526797000319,684.2565162000246,0.5076552799437195,1.007900180062279,684.2397904999088,684.3565537999384,684.2397904999088,684.3565537999384,684.3398054998834,None,c,1,0.9190731002017856,684.3398054998834,None,,,,,f,,ps,2022_Apr_04_1053,training+cueing,2021.1.4,60.174373267606704,
Friend.png,Stranger,Friend,m,3.2,19,29,99,,,,,1,0,1,0,,,,,6,2,74,5,,,,,,,,,,,,,,,,,,,,,1.425,1.485,685.3983116000891,None,,,,,,,,,,,,,,,,,,,,685.9376004999503,686.4411991001107,0.5050414800643921,1.0057195799890906,686.4244738998823,686.5412145000882,686.4244738998823,686.5412145000882,686.5245091000106,None,m,1,1.0863078001420945,686.5245091000106,None,,,,,f,,ps,2022_Apr_04_1053,training+cueing,2021.1.4,60.174373267606704,
Self.png,Friend,Self ,m,2.1,16,26,96,,,,,1,0,1,0,,,,,6,3,75,1,,,,,,,,,,,,,,,,,,,,,1.489,1.561,687.7488992998842,None,,,,,,,,,,,,,,,,,,,,688.2881783000194,688.7928569000214,0.5099713797681034,1.0102862797211856,688.7761987000704,688.8929173001088,688.7761987000704,688.8929173001088,688.8762443000451,None,m,1,1.0065564999822527,688.8762443000451,None,,,,,f,,ps,2022_Apr_04_1053,training+cueing,2021.1.4,60.174373267606704,
Friend.png,You,Friend,m,1.2,14,24,94,,,,,1,0,1,0,,,,,6,4,76,3,,,,,,,,,,,,,,,,,,,,,1.522,1.568,690.0166515000165,None,,,,,,,,,,,,,,,,,,,,690.5543575999327,691.0612105000764,0.5115181799046695,1.0117951799184084,691.0445352001116,691.1445055999793,691.0445352001116,691.1445055999793,691.1445055999793,None,m,1,1.1063131999690086,691.1445055999793,None,,,,,f,,ps,2022_Apr_04_1053,training+cueing,2021.1.4,60.174373267606704,
Stranger.png,You,Stranger,m,1.3,15,25,95,,,,,1,0,1,0,,,,,6,5,77,6,,,,,,,,,,,,,,,,,,,,,1.701,2.336,692.385989600094,None,,,,,,,,,,,,,,,,,,,,692.9247916000895,693.4296929000411,0.508891579695046,1.0093930799048394,693.412927800091,693.5129746000748,693.412927800091,693.5129746000748,693.5129746000748,None,m,1,0.9297855999320745,693.5129746000748,None,,,,,f,,ps,2022_Apr_04_1053,training+cueing,2021.1.4,60.174373267606704,
Self.png,Stranger,Self ,m,3.1,18,28,98,,,,,1,0,1,0,,,,,6,6,78,2,,,,,,,,,,,,,,,,,,,,,1.7,2.121,694.5696346000768,None,,,,,,,,,,,,,,,,,,,,695.1133264000528,695.6144659998827,0.5013502798974514,1.0025650798343122,695.5977876000106,695.7145340999123,695.5977876000106,695.7145340999123,695.7145340999123,None,m,1,0.9044801001437008,695.7145340999123,None,,,,,f,,ps,2022_Apr_04_1053,training+cueing,2021.1.4,60.174373267606704,
Stranger.png,Stranger,Stranger,c,3,13,23,93,,,,,1,0,1,0,,,,,6,7,79,8,,,,,,,,,,,,,,,,,,,,,1.676,1.669,696.7562420000322,None,,,,,,,,,,,,,,,,,,,,697.2938216999173,697.7993735999335,0.509652080014348,1.0099454801529646,697.7827367999125,697.8994509000331,697.7827367999125,697.8994509000331,697.8827209998854,None,c,1,0.6242376000154763,697.8827209998854,None,,,,,f,,ps,2022_Apr_04_1053,training+cueing,2021.1.4,60.174373267606704,
Friend.png,Friend,Friend,c,2,12,22,92,,,,,1,0,1,0,,,,,6,8,80,4,,,,,,,,,,,,,,,,,,,,,1.668,2.199,698.6398835999426,None,,,,,,,,,,,,,,,,,,,,699.1795890000649,699.6840945999138,0.509233680088073,1.0095599801279604,699.6674025000539,699.7841682001017,699.6674025000539,699.7841682001017,699.7674137998838,None,c,1,0.6753742001019418,699.7674137998838,None,,,,,f,,ps,2022_Apr_04_1053,training+cueing,2021.1.4,60.174373267606704,
Friend.png,Friend,Friend,c,2,12,22,92,,,,,1,0,1,0,,,,,6,9,81,10,,,,,,,,,,,,,,,,,,,,,1.44,1.429,700.5739927999675,None,,,,,,,,,,,,,,,,,,,,701.1131535999011,701.6188409999013,0.5101963798515499,1.0104952799156308,701.6021610999014,701.7188715001103,701.6021610999014,701.7188715001103,701.7021798999049,None,c,1,0.6126715999562293,701.7021798999049,None,,,,,f,,ps,2022_Apr_04_1053,training+cueing,2021.1.4,60.174373267606704,
Stranger.png,Friend,Stranger,m,2.3,17,27,97,,,,,1,0,1,0,,,,,6,10,82,7,,,,,,,,,,,,,,,,,,,,,1.594,1.705,702.4426180999726,None,,,,,,,,,,,,,,,,,,,,702.9783006000798,703.4868282999378,0.5119727798737586,1.015126179670915,703.4535014000721,703.5537030000705,703.4535014000721,703.5537030000705,703.5710998000577,None,m,1,0.775833599967882,703.5710998000577,None,,,,,f,,ps,2022_Apr_04_1053,training+cueing,2021.1.4,60.174373267606704,
Self.png,You,Self ,c,1,11,21,91,,,,,1,0,1,0,,,,,6,11,83,9,,,,,,,,,,,,,,,,,,,,,1.769,1.492,704.4784689999651,None,,,,,,,,,,,,,,,,,,,,705.0205357999075,705.5216743000783,0.5017341799102724,1.0022290798369795,705.5050413000863,705.605140700005,705.5050413000863,705.605140700005,705.605140700005,None,c,1,0.6457270001992583,705.605140700005,None,,,,,f,,ps,2022_Apr_04_1053,training+cueing,2021.1.4,60.174373267606704,
Friend.png,You,Friend,m,1.2,14,24,94,,,,,1,0,1,0,,,,,7,0,84,3,,,,,,,,,,,,,,,,,,,,,1.712,1.769,706.3782985000871,None,,,,,,,,,,,,,,,,,,,,706.9260998999234,707.441010999959,0.509054479887709,1.0093541799578816,707.4230553000234,707.5231282000896,707.4230553000234,707.5231282000896,707.5231282000896,None,m,1,1.1757294000126421,707.5231282000896,None,,,,,f,,ps,2022_Apr_04_1053,training+cueing,2021.1.4,60.174373267606704,
