Image,Name,Face,CorrAns,Match,Face_onset,CResponse_onset,IResponse_onset,Match.thisRepN,Match.thisTrialN,Match.thisN,Match.thisIndex,Blocks.thisRepN,Blocks.thisTrialN,Blocks.thisN,Blocks.thisIndex,trials.thisRepN,trials.thisTrialN,trials.thisN,trials.thisIndex,trials_2.thisRepN,trials_2.thisTrialN,trials_2.thisN,trials_2.thisIndex,text.started,text.stopped,p1.started,p1.stopped,MatchInstructions.started,MatchInstructions.stopped,Name1.started,Name1.stopped,Face_Relevance.started,Face_Relevance.stopped,MismatchInstructions.started,MismatchInstructions.stopped,Rest_trainingInstruct.started,Rest_trainingInstruct.stopped,next8.keys,next8.rt,next8.started,next8.stopped,Ready.started,Ready.stopped,delay_one_picked,delay_two_picked,blank0.started,blank0.stopped,FixationCross1.started,FixationCross1.stopped,Name3.started,Name3.stopped,Face_Relevance3.started,Face_Relevance3.stopped,responseTime.started,responseTime.stopped,resp.keys,resp.corr,resp.rt,resp.started,resp.stopped,Accuracy.started,Accuracy.stopped,questions.started,questions.stopped,p2.started,p2.stopped,FixationCross3.started,FixationCross3.stopped,port_Face_onset.started,port_Face_onset.stopped,Name4.started,Name4.stopped,Face_Relevance4.started,Face_Relevance4.stopped,responseTime2.started,responseTime2.stopped,Response.keys,Response.corr,Response.rt,Response.started,Response.stopped,p3.started,p3.stopped,Finish.started,Finish.stopped,gender,age,participant,date,expName,psychopyVersion,frameRate,
Self.png,You,,,,,,,0,0,0,0,,,,,,,,,,,,,13.00019559985958,None,0.002321700332686305,0.5205421003047377,14.98706499999389,None,17.14277259982191,None,17.14277259982191,None,,,,,,,,,,,,,,,,,,,,,,,,,,,,,,,,,,,,,,,,,,,,,,,,,,,,,m,,ptt,2022_Apr_11_1424,training+cueing,2021.1.4,59.95218213834401,
Stranger.png,Stranger,,,,,,,0,1,1,2,,,,,,,,,,,,,,,,,,,37.04087859997526,None,37.04087859997526,None,,,,,,,,,,,,,,,,,,,,,,,,,,,,,,,,,,,,,,,,,,,,,,,,,,,,,m,,ptt,2022_Apr_11_1424,training+cueing,2021.1.4,59.95218213834401,
Friend.png,Friend,,,,,,,0,2,2,1,,,,,,,,,,,,,,,,,,,57.05590559984557,None,57.05590559984557,None,,,,,,,,,,,,,,,,,,,,,,,,,,,,,,,,,,,,,,,,,,,,,,,,,,,,,m,,ptt,2022_Apr_11_1424,training+cueing,2021.1.4,59.95218213834401,
Self.png,Friend,Self ,m,2.1,16,26,96,,,,,0,0,0,0,0,0,0,1,,,,,,,,,,,,,,,76.99896009988151,None,96.22965359990485,None,space,-0.33872659993357956,2.007660600123927,None,98.22956869984046,None,1.73,2.344,101.24560309993103,None,101.87666349997744,102.38447259995155,102.36762629984878,102.4843886999879,102.36762629984878,102.4843886999879,102.46764579997398,None,m,1,0.22415190003812313,102.46764579997398,None,102.72065100003965,None,,,,,,,,,,,,,,,,,,,,,,,,m,,ptt,2022_Apr_11_1424,training+cueing,2021.1.4,59.95218213834401,
Friend.png,Stranger,Friend,m,3.2,19,29,99,,,,,0,0,0,0,0,1,1,5,,,,,,,,,,,,,,,,,,,,,,,,,1.587,1.751,103.13461159984581,None,103.67494159983471,104.1852182999719,104.16858859988861,104.28527049999684,104.16858859988861,104.28527049999684,104.26858869986609,None,c,0,0.1991277001798153,104.26858869986609,None,104.48577809985727,None,,,,,,,,,,,,,,,,,,,,,,,,m,,ptt,2022_Apr_11_1424,training+cueing,2021.1.4,59.95218213834401,
Friend.png,You,Friend,m,1.2,14,24,94,,,,,0,0,0,0,0,2,2,3,,,,,,,,,,,,,,,,,,,,,,,,,1.717,2.366,104.88589249993674,None,105.4266305998899,105.93650859990157,105.9198690999765,106.01989390002564,105.9198690999765,106.01989390002564,106.01989390002564,None,m,1,0.20779399992898107,106.01989390002564,None,106.25222119991668,None,,,,,,,,,,,,,,,,,,,,,,,,m,,ptt,2022_Apr_11_1424,training+cueing,2021.1.4,59.95218213834401,
Stranger.png,Stranger,Stranger,c,3,13,23,93,,,,,0,0,0,0,0,3,3,8,,,,,,,,,,,,,,,,,,,,,,,,,1.61,1.923,106.65381309995428,None,107.18889219989069,107.70445409999229,107.6878577999305,107.80450319987722,107.6878577999305,107.80450319987722,107.78781350003555,None,m,0,0.11997490003705025,107.78781350003555,None,107.93841539998539,None,,,,,,,,,,,,,,,,,,,,,,,,m,,ptt,2022_Apr_11_1424,training+cueing,2021.1.4,59.95218213834401,
Stranger.png,Friend,Stranger,m,2.3,17,27,97,,,,,0,0,0,0,0,4,4,7,,,,,,,,,,,,,,,,,,,,,,,,,1.528,1.529,108.33821549988352,None,108.8818134998437,109.38896869984455,109.37234709993936,109.48898589983582,109.37234709993936,109.48898589983582,109.47237019985914,None,c,0,0.11529540014453232,109.47237019985914,None,109.60590089997277,None,,,,,,,,,,,,,,,,,,,,,,,,m,,ptt,2022_Apr_11_1424,training+cueing,2021.1.4,59.95218213834401,
Stranger.png,Stranger,Stranger,c,3,13,23,93,,,,,0,0,0,0,0,5,5,11,,,,,,,,,,,,,,,,,,,,,,,,,1.771,2.117,110.00612129992805,None,110.53919019992463,111.04015699983574,111.02354549989104,111.14018119988032,111.02354549989104,111.14018119988032,111.14018119988032,None,c,1,0.7035852000117302,111.14018119988032,None,111.8727575999219,None,,,,,,,,,,,,,,,,,,,,,,,,m,,ptt,2022_Apr_11_1424,training+cueing,2021.1.4,59.95218213834401,
Self.png,Stranger,Self ,m,3.1,18,28,98,,,,,0,0,0,0,0,6,6,2,,,,,,,,,,,,,,,,,,,,,,,,,1.773,1.455,112.27455279999413,None,112.81110519985668,113.32517759990878,113.3084996000398,113.42522279988043,113.3084996000398,113.42522279988043,113.40850609983318,None,m,1,0.2591232000850141,113.40850609983318,None,113.69216089998372,None,,,,,,,,,,,,,,,,,,,,,,,,m,,ptt,2022_Apr_11_1424,training+cueing,2021.1.4,59.95218213834401,
Self.png,You,Self ,c,1,11,21,91,,,,,0,0,0,0,0,7,7,0,,,,,,,,,,,,,,,,,,,,,,,,,1.603,1.738,114.09242059988901,None,114.6243753999006,115.12648009997793,115.10978599986993,115.20988309988752,115.10978599986993,115.20988309988752,115.20988309988752,None,c,1,0.39379989984445274,115.20988309988752,None,115.62691799993627,None,,,,,,,,,,,,,,,,,,,,,,,,m,,ptt,2022_Apr_11_1424,training+cueing,2021.1.4,59.95218213834401,
Friend.png,Friend,Friend,c,2,12,22,92,,,,,0,0,0,0,0,8,8,10,,,,,,,,,,,,,,,,,,,,,,,,,1.782,2.027,116.02732339990325,None,116.56721839983948,117.07789329998195,117.06120059988461,117.1779684999492,117.06120059988461,117.1779684999492,117.16124189994298,None,m,0,0.33045580005273223,117.16124189994298,None,117.51176230004057,None,,,,,,,,,,,,,,,,,,,,,,,,m,,ptt,2022_Apr_11_1424,training+cueing,2021.1.4,59.95218213834401,
Self.png,You,Self ,c,1,11,21,91,,,,,0,0,0,0,0,9,9,9,,,,,,,,,,,,,,,,,,,,,,,,,1.763,2.084,117.91182429995388,None,118.4442671998404,118.94589730002917,118.92922879988328,119.02925419993699,118.92922879988328,119.02925419993699,119.02925419993699,None,c,1,0.4943706002086401,119.02925419993699,None,119.54521959996782,None,,,,,,,,,,,,,,,,,,,,,,,,m,,ptt,2022_Apr_11_1424,training+cueing,2021.1.4,59.95218213834401,
Stranger.png,You,Stranger,m,1.3,15,25,95,,,,,0,0,0,0,0,10,10,6,,,,,,,,,,,,,,,,,,,,,,,,,1.558,2.465,119.94663829985075,None,120.47629739996046,120.98063909984194,120.96401600004174,121.06407319987193,120.96401600004174,121.06407319987193,121.06407319987193,None,c,0,0.6516404000576586,121.06407319987193,None,121.73198219994083,None,,,,,,,,,,,,,,,,,,,,,,,,m,,ptt,2022_Apr_11_1424,training+cueing,2021.1.4,59.95218213834401,
Friend.png,Friend,Friend,c,2,12,22,92,,,,,0,0,0,0,0,11,11,4,,,,,,,,,,,,,,,,,,,,,,,,,1.407,1.623,122.13153110002168,None,122.66222839988768,123.16563589987345,123.1489446000196,123.26566549995914,123.1489446000196,123.26566549995914,123.24895349983126,None,m,0,0.5147053000982851,123.24895349983126,None,123.7827999999281,None,,,,,,,,,,,,,,,,,,,,,,,,m,,ptt,2022_Apr_11_1424,training+cueing,2021.1.4,59.95218213834401,
Self.png,Stranger,Self ,m,3.1,18,28,98,,,,,0,0,0,0,,,,,0,0,0,2,,,,,,,,,,,,,,,,,,,156.70653439988382,None,1.763,2.487,160.2333415998146,None,,,,,,,,,,,,,,,,124.18304839986376,None,0.01437429990619421,0.5130797997117043,160.85164000000805,161.35987619985826,0.5146421000827104,1.0149309001863003,161.34322769986466,161.45987639995292,161.34322769986466,161.45987639995292,161.4432206999045,None,c,0,0.8324541999027133,161.4432206999045,None,,,,,m,,ptt,2022_Apr_11_1424,training+cueing,2021.1.4,59.95218213834401,
Friend.png,Friend,Friend,c,2,12,22,92,,,,,0,0,0,0,,,,,0,1,1,10,,,,,,,,,,,,,,,,,,,,,1.764,1.733,162.40138299996033,None,,,,,,,,,,,,,,,,,,,,162.94318960001692,163.44479639991187,0.5027050997596234,1.0029792997520417,163.4280367998872,163.54478039988317,163.4280367998872,163.54478039988317,163.52829619986005,None,c,1,1.0836641998030245,163.52829619986005,None,,,,,m,,ptt,2022_Apr_11_1424,training+cueing,2021.1.4,59.95218213834401,
Stranger.png,Stranger,Stranger,c,3,13,23,93,,,,,0,0,0,0,,,,,0,2,2,8,,,,,,,,,,,,,,,,,,,,,1.605,1.686,164.73942249990068,None,,,,,,,,,,,,,,,,,,,,165.29016410000622,165.79638900002465,0.5129199998918921,1.013251299969852,165.77972929994576,165.89644899987616,165.77972929994576,165.89644899987616,165.87975049996749,None,m,0,1.1318980001378804,165.87975049996749,None,,,,,m,,ptt,2022_Apr_11_1424,training+cueing,2021.1.4,59.95218213834401,
Self.png,You,Self ,c,1,11,21,91,,,,,0,0,0,0,,,,,0,3,3,0,,,,,,,,,,,,,,,,,,,,,1.695,1.955,167.1373530998826,None,,,,,,,,,,,,,,,,,,,,167.67652809992433,168.1814842999447,0.5073784999549389,1.0077158999629319,168.1648442998994,168.2648632999044,168.1648442998994,168.2648632999044,168.2648632999044,None,c,1,0.6989076000172645,168.2648632999044,None,,,,,m,,ptt,2022_Apr_11_1424,training+cueing,2021.1.4,59.95218213834401,
Stranger.png,You,Stranger,m,1.3,15,25,95,,,,,0,0,0,0,,,,,0,4,4,6,,,,,,,,,,,,,,,,,,,,,1.598,1.408,169.0883698000107,None,,,,,,,,,,,,,,,,,,,,169.62739589996636,170.13293690001592,0.5115183999296278,1.011758899781853,170.1162663998548,170.21627009985968,170.1162663998548,170.21627009985968,170.21627009985968,None,c,0,0.5074620000086725,170.21627009985968,None,,,,,m,,ptt,2022_Apr_11_1424,training+cueing,2021.1.4,59.95218213834401,
Friend.png,Friend,Friend,c,2,12,22,92,,,,,0,0,0,0,,,,,0,5,5,4,,,,,,,,,,,,,,,,,,,,,1.747,2.472,170.85641479981132,None,,,,,,,,,,,,,,,,,,,,171.39741089986637,171.90086499997415,0.5066191002260894,1.0068966003600508,171.8842020998709,172.00087490002625,171.8842020998709,172.00087490002625,171.9841852998361,None,c,1,0.7235165000893176,171.9841852998361,None,,,,,m,,ptt,2022_Apr_11_1424,training+cueing,2021.1.4,59.95218213834401,
Friend.png,You,Friend,m,1.2,14,24,94,,,,,0,0,0,0,,,,,0,6,6,3,,,,,,,,,,,,,,,,,,,,,1.62,1.24,172.84074239991605,None,,,,,,,,,,,,,,,,,,,,173.38078140001744,173.88559570000507,0.5078849997371435,1.0081916998606175,173.8689105999656,173.96894459985197,173.8689105999656,173.96894459985197,173.96894459985197,None,m,1,0.6907983000855893,173.96894459985197,None,,,,,m,,ptt,2022_Apr_11_1424,training+cueing,2021.1.4,59.95218213834401,
Stranger.png,Friend,Stranger,m,2.3,17,27,97,,,,,0,0,0,0,,,,,0,7,7,7,,,,,,,,,,,,,,,,,,,,,1.687,2.305,174.7921479998622,None,,,,,,,,,,,,,,,,,,,,175.3337310999632,175.83699660003185,0.5063086999580264,1.006558199878782,175.8203887999989,175.93704569991678,175.8203887999989,175.93704569991678,175.9203688998241,None,m,1,0.9634055998176336,175.9203688998241,None,,,,,m,,ptt,2022_Apr_11_1424,training+cueing,2021.1.4,59.95218213834401,
Stranger.png,Stranger,Stranger,c,3,13,23,93,,,,,0,0,0,0,,,,,0,8,8,11,,,,,,,,,,,,,,,,,,,,,1.515,2.196,177.01056859991513,None,,,,,,,,,,,,,,,,,,,,177.5514758999925,178.05528989993036,0.5057685999199748,1.0061205998063087,178.03858379996382,178.15535079990514,178.03858379996382,178.15535079990514,178.13857149984688,None,c,1,0.6012060001958162,178.13857149984688,None,,,,,m,,ptt,2022_Apr_11_1424,training+cueing,2021.1.4,59.95218213834401,
Friend.png,Stranger,Friend,m,3.2,19,29,99,,,,,0,0,0,0,,,,,0,9,9,5,,,,,,,,,,,,,,,,,,,,,1.622,1.285,178.86171599989757,None,,,,,,,,,,,,,,,,,,,,179.4005654999055,179.90662160003558,0.511752099962905,None,179.88992889993824,180.00667709996924,179.88992889993824,180.00667709996924,179.98994309990667,None,m,1,0.07781369984149933,179.98994309990667,None,,,,,m,,ptt,2022_Apr_11_1424,training+cueing,2021.1.4,59.95218213834401,
Self.png,Friend,Self ,m,2.1,16,26,96,,,,,0,0,0,0,,,,,0,10,10,1,,,,,,,,,,,,,,,,,,,,,1.682,1.442,180.19632109999657,None,,,,,,,,,,,,,,,,,,,,180.74239389994182,181.25756349996664,0.5140285999514163,1.0143248001113534,181.24094499996863,181.35761239985004,181.24094499996863,181.35761239985004,181.34093909990042,None,c,0,0.4868367000017315,181.34093909990042,None,,,,,m,,ptt,2022_Apr_11_1424,training+cueing,2021.1.4,59.95218213834401,
Self.png,You,Self ,c,1,11,21,91,,,,,0,0,0,0,,,,,0,11,11,9,,,,,,,,,,,,,,,,,,,,,1.764,1.674,181.96449099993333,None,,,,,,,,,,,,,,,,,,,,182.50401999987662,183.00900239986368,0.5077193998731673,None,182.99241169984452,183.09236410004087,182.99241169984452,183.09236410004087,183.09236410004087,None,c,1,0.35136159998364747,183.09236410004087,None,,,,,m,,ptt,2022_Apr_11_1424,training+cueing,2021.1.4,59.95218213834401,
Stranger.png,You,Stranger,m,1.3,15,25,95,,,,,0,0,0,0,,,,,1,0,12,6,,,,,,,,,,,,,,,,,,,,,1.547,1.255,183.5659650999587,None,,,,,,,,,,,,,,,,,,,,184.11701199994422,184.62667369982228,0.502612299984321,None,184.6100363000296,184.71005230001174,184.6100363000296,184.71005230001174,184.71005230001174,None,m,1,0.2216336999554187,184.71005230001174,None,,,,,m,,ptt,2022_Apr_11_1424,training+cueing,2021.1.4,59.95218213834401,
Friend.png,Friend,Friend,c,2,12,22,92,,,,,0,0,0,0,,,,,1,1,13,10,,,,,,,,,,,,,,,,,,,,,1.72,1.457,185.06675520003773,None,,,,,,,,,,,,,,,,,,,,185.60736200003885,186.11109269992448,0.506558199878782,1.0068541998043656,186.09444399992935,186.21113780001178,186.09444399992935,186.21113780001178,186.19445699988864,None,m,0,0.5452169000636786,186.19445699988864,None,,,,,m,,ptt,2022_Apr_11_1424,training+cueing,2021.1.4,59.95218213834401,
Friend.png,Stranger,Friend,m,3.2,19,29,99,,,,,0,0,0,0,,,,,1,2,14,5,,,,,,,,,,,,,,,,,,,,,1.527,2.159,186.86827529990114,None,,,,,,,,,,,,,,,,,,,,187.4105825999286,187.91242529987358,0.5034239997621626,1.0037353998050094,187.89572199992836,188.0124617998954,187.89572199992836,188.0124617998954,187.9957174998708,None,m,1,0.6479374000336975,187.9957174998708,None,,,,,m,,ptt,2022_Apr_11_1424,training+cueing,2021.1.4,59.95218213834401,
Friend.png,Friend,Friend,c,2,12,22,92,,,,,0,0,0,0,,,,,1,3,15,4,,,,,,,,,,,,,,,,,,,,,1.411,1.885,188.76830439991318,None,,,,,,,,,,,,,,,,,,,,189.31049339985475,189.8137586999219,0.5068481999915093,None,189.79716209997423,189.9137995999772,189.79716209997423,189.9137995999772,189.89713329984806,None,c,1,0.2667318000458181,189.89713329984806,None,,,,,m,,ptt,2022_Apr_11_1424,training+cueing,2021.1.4,59.95218213834401,
Self.png,Stranger,Self ,m,3.1,18,28,98,,,,,0,0,0,0,,,,,1,4,16,2,,,,,,,,,,,,,,,,,,,,,1.634,1.801,190.28727089986205,None,,,,,,,,,,,,,,,,,,,,190.82730539981276,191.3315574999433,0.5055634998716414,None,191.31485829991288,191.43162019993179,191.31485829991288,191.43162019993179,191.41486119991168,None,m,1,0.18877959996461868,191.41486119991168,None,,,,,m,,ptt,2022_Apr_11_1424,training+cueing,2021.1.4,59.95218213834401,
Stranger.png,Stranger,Stranger,c,3,13,23,93,,,,,0,0,0,0,,,,,1,5,17,11,,,,,,,,,,,,,,,,,,,,,1.649,1.741,191.73829109990038,None,,,,,,,,,,,,,,,,,,,,192.2768585998565,192.78259649989195,0.5110697997733951,None,192.76586649985984,192.88264039997011,192.76586649985984,192.88264039997011,192.86591029982083,None,m,0,0.28982200007885695,192.86591029982083,None,,,,,m,,ptt,2022_Apr_11_1424,training+cueing,2021.1.4,59.95218213834401,
Self.png,You,Self ,c,1,11,21,91,,,,,0,0,0,0,,,,,1,6,18,0,,,,,,,,,,,,,,,,,,,,,1.581,2.368,193.28933669999242,None,,,,,,,,,,,,,,,,,,,,193.82821820001118,194.33370790001936,0.5119609001558274,1.0122592002153397,194.31703089992516,194.4170504999347,194.31703089992516,194.4170504999347,194.4170504999347,None,c,1,0.466663199942559,194.4170504999347,None,,,,,m,,ptt,2022_Apr_11_1424,training+cueing,2021.1.4,59.95218213834401,
Stranger.png,Friend,Stranger,m,2.3,17,27,97,,,,,0,0,0,0,,,,,1,7,19,7,,,,,,,,,,,,,,,,,,,,,1.742,1.468,195.00706700002775,None,,,,,,,,,,,,,,,,,,,,195.55076109990478,196.05163639993407,0.4999585000332445,None,196.0349471999798,196.15166709991172,196.0349471999798,196.15166709991172,196.15166709991172,None,m,1,0.14007419999688864,196.15166709991172,None,,,,,m,,ptt,2022_Apr_11_1424,training+cueing,2021.1.4,59.95218213834401,
Friend.png,You,Friend,m,1.2,14,24,94,,,,,0,0,0,0,,,,,1,8,20,3,,,,,,,,,,,,,,,,,,,,,1.781,2.016,196.4242888998706,None,,,,,,,,,,,,,,,,,,,,196.96498980000615,197.46931519987993,0.5084017999470234,None,197.4526690999046,197.55272359983064,197.4526690999046,197.55272359983064,197.55272359983064,None,c,0,0.22699570003896952,197.55272359983064,None,,,,,m,,ptt,2022_Apr_11_1424,training+cueing,2021.1.4,59.95218213834401,
Self.png,You,Self ,c,1,11,21,91,,,,,0,0,0,0,,,,,1,9,21,9,,,,,,,,,,,,,,,,,,,,,1.705,2.494,197.90874479990453,None,,,,,,,,,,,,,,,,,,,,198.4480885998346,198.95371219981462,0.5114782000891864,None,198.93702099984512,199.0370502998121,198.93702099984512,199.0370502998121,199.0370502998121,None,m,0,0.15071759978309274,199.0370502998121,None,,,,,m,,ptt,2022_Apr_11_1424,training+cueing,2021.1.4,59.95218213834401,
Self.png,Friend,Self ,m,2.1,16,26,96,,,,,0,0,0,0,,,,,1,10,22,1,,,,,,,,,,,,,,,,,,,,,1.581,1.994,199.3096262998879,None,,,,,,,,,,,,,,,,,,,,199.85218199994415,200.35469760000706,0.5038576999213547,1.0041950999293476,200.33807789999992,200.454803599976,200.33807789999992,200.454803599976,200.43807819997892,None,c,0,0.46171740000136197,200.43807819997892,None,,,,,m,,ptt,2022_Apr_11_1424,training+cueing,2021.1.4,59.95218213834401,
Stranger.png,Stranger,Stranger,c,3,13,23,93,,,,,0,0,0,0,,,,,1,11,23,8,,,,,,,,,,,,,,,,,,,,,1.552,1.905,201.02767709991895,None,,,,,,,,,,,,,,,,,,,,201.5696252998896,202.07259849994443,0.5051349999848753,None,202.05598439997993,202.17267429991625,202.05598439997993,202.17267429991625,202.15602139988914,None,m,0,0.24764700001105666,202.15602139988914,None,,,,,m,,ptt,2022_Apr_11_1424,training+cueing,2021.1.4,59.95218213834401,
Stranger.png,Friend,Stranger,m,2.3,17,27,97,,,,,0,0,0,0,,,,,2,0,24,7,,,,,,,,,,,,,,,,,,,,,1.701,1.598,202.52944680000655,None,,,,,,,,,,,,,,,,,,,,203.0694560999982,203.57370339985937,0.5065212000627071,None,203.55708989989944,203.67376219993457,203.55708989989944,203.67376219993457,203.65706570004113,None,m,1,0.3786438999231905,203.65706570004113,None,,,,,m,,ptt,2022_Apr_11_1424,training+cueing,2021.1.4,59.95218213834401,
Self.png,You,Self ,c,1,11,21,91,,,,,0,0,0,0,,,,,2,1,25,9,,,,,,,,,,,,,,,,,,,,,1.487,2.491,204.1634789998643,None,,,,,,,,,,,,,,,,,,,,204.7048451998271,205.2083162998315,0.5066593000665307,1.0069408002309501,205.1915549999103,205.29160410002805,205.1915549999103,205.29160410002805,205.29160410002805,None,c,1,0.47231189999729395,205.29160410002805,None,,,,,m,,ptt,2022_Apr_11_1424,training+cueing,2021.1.4,59.95218213834401,
Stranger.png,Stranger,Stranger,c,3,13,23,93,,,,,0,0,0,0,,,,,2,2,26,8,,,,,,,,,,,,,,,,,,,,,1.61,2.078,205.89852639986202,None,,,,,,,,,,,,,,,,,,,,206.4712841999717,206.97627959982492,0.510317999869585,None,206.95961619983427,207.07630830002017,206.95961619983427,207.07630830002017,207.05963439983316,None,m,0,0.16018140013329685,207.05963439983316,None,,,,,m,,ptt,2022_Apr_11_1424,training+cueing,2021.1.4,59.95218213834401,
Friend.png,Stranger,Friend,m,3.2,19,29,99,,,,,0,0,0,0,,,,,2,3,27,5,,,,,,,,,,,,,,,,,,,,,1.592,2.435,207.3493504000362,None,,,,,,,,,,,,,,,,,,,,207.8851179999765,208.39386419998482,0.5146296001039445,1.0149229001253843,208.37718269997276,208.4939076998271,208.37718269997276,208.4939076998271,208.4772063998971,None,c,0,0.6785855998750776,208.4772063998971,None,,,,,m,,ptt,2022_Apr_11_1424,training+cueing,2021.1.4,59.95218213834401,
Friend.png,Friend,Friend,c,2,12,22,92,,,,,0,0,0,0,,,,,2,4,28,4,,,,,,,,,,,,,,,,,,,,,1.738,2.444,209.28364459984004,None,,,,,,,,,,,,,,,,,,,,209.825060099829,210.32859699986875,0.506239399779588,1.0065311999060214,210.3119657000061,210.42863260000013,210.3119657000061,210.42863260000013,210.41192399989814,None,m,0,0.6480562998913229,210.41192399989814,None,,,,,m,,ptt,2022_Apr_11_1424,training+cueing,2021.1.4,59.95218213834401,
Stranger.png,Stranger,Stranger,c,3,13,23,93,,,,,0,0,0,0,,,,,2,5,29,11,,,,,,,,,,,,,,,,,,,,,1.761,2.124,211.18942549987696,None,,,,,,,,,,,,,,,,,,,,211.73702190001495,212.2466597999446,0.5032093999907374,1.0041730999946594,212.23001639987342,212.3467357000336,212.23001639987342,212.3467357000336,212.33001699997112,None,m,0,0.5539524001069367,212.33001699997112,None,,,,,m,,ptt,2022_Apr_11_1424,training+cueing,2021.1.4,59.95218213834401,
Friend.png,You,Friend,m,1.2,14,24,94,,,,,0,0,0,0,,,,,2,6,30,3,,,,,,,,,,,,,,,,,,,,,1.706,1.305,213.02400109986775,None,,,,,,,,,,,,,,,,,,,,213.56283569987863,214.06464160000905,0.5029973997734487,None,214.04799219989218,214.1480361998547,214.04799219989218,214.1480361998547,214.1480361998547,None,c,0,0.303705400088802,214.1480361998547,None,,,,,m,,ptt,2022_Apr_11_1424,training+cueing,2021.1.4,59.95218213834401,
Stranger.png,You,Stranger,m,1.3,15,25,95,,,,,0,0,0,0,,,,,2,7,31,6,,,,,,,,,,,,,,,,,,,,,1.486,2.063,214.58823099988513,None,,,,,,,,,,,,,,,,,,,,215.12689840001985,215.63238759990782,0.5118096999358386,None,215.6157974000089,215.7158066998236,215.6157974000089,215.7158066998236,215.7158066998236,None,c,0,0.239924400113523,215.7158066998236,None,,,,,m,,ptt,2022_Apr_11_1424,training+cueing,2021.1.4,59.95218213834401,
Friend.png,Friend,Friend,c,2,12,22,92,,,,,0,0,0,0,,,,,2,8,32,10,,,,,,,,,,,,,,,,,,,,,1.622,1.399,216.08881929982454,None,,,,,,,,,,,,,,,,,,,,216.62942330003716,217.13349709985778,0.506147800013423,1.006446000188589,217.1168756999541,217.23354349983856,217.1168756999541,217.23354349983856,217.21687099989504,None,c,1,0.7069484000094235,217.21687099989504,None,,,,,m,,ptt,2022_Apr_11_1424,training+cueing,2021.1.4,59.95218213834401,
Self.png,Stranger,Self ,m,3.1,18,28,98,,,,,0,0,0,0,,,,,2,9,33,2,,,,,,,,,,,,,,,,,,,,,1.739,1.353,218.05697269993834,None,,,,,,,,,,,,,,,,,,,,218.59920789999887,219.10157649987377,0.5045364000834525,1.0048279999755323,219.08496909984387,219.20163389993832,219.08496909984387,219.20163389993832,219.18496749992482,None,m,1,0.6907975000794977,219.18496749992482,None,,,,,m,,ptt,2022_Apr_11_1424,training+cueing,2021.1.4,59.95218213834401,
Self.png,Friend,Self ,m,2.1,16,26,96,,,,,0,0,0,0,,,,,2,10,34,1,,,,,,,,,,,,,,,,,,,,,1.546,1.571,220.00888269999996,None,,,,,,,,,,,,,,,,,,,,220.54904139996506,221.0530067998916,0.5069428002461791,1.0074617001228034,221.03637530002743,221.15305570000783,221.03637530002743,221.15305570000783,221.13638389995322,None,m,1,0.7397476001642644,221.13638389995322,None,,,,,m,,ptt,2022_Apr_11_1424,training+cueing,2021.1.4,59.95218213834401,
Self.png,You,Self ,c,1,11,21,91,,,,,0,0,0,0,,,,,2,11,35,0,,,,,,,,,,,,,,,,,,,,,1.726,1.685,222.01025359984487,None,,,,,,,,,,,,,,,,,,,,222.55070859985426,223.0544569999911,0.5049568999093026,1.0054091999772936,223.03783289995044,223.13784660003148,223.03783289995044,223.13784660003148,223.13784660003148,None,c,1,0.577878599986434,223.13784660003148,None,,,,,m,,ptt,2022_Apr_11_1424,training+cueing,2021.1.4,59.95218213834401,
Friend.png,You,Friend,m,1.2,14,24,94,,,,,0,0,0,0,,,,,3,0,36,3,,,,,,,,,,,,,,,,,,,,,1.432,1.498,223.84461659984663,None,,,,,,,,,,,,,,,,,,,,224.38224039995112,224.88913249992765,0.5137855000793934,1.014073699945584,224.87250799988396,224.9725094998721,224.87250799988396,224.9725094998721,224.9725094998721,None,m,1,0.43944710004143417,224.9725094998721,None,,,,,m,,ptt,2022_Apr_11_1424,training+cueing,2021.1.4,59.95218213834401,
Stranger.png,Stranger,Stranger,c,3,13,23,93,,,,,0,0,0,0,,,,,3,1,37,11,,,,,,,,,,,,,,,,,,,,,1.617,1.217,225.5462207000237,None,,,,,,,,,,,,,,,,,,,,226.0877710999921,226.5903753999155,0.5048613001126796,None,226.57367890002206,226.69045479991473,226.57367890002206,226.69045479991473,226.67373839998618,None,c,1,0.17803520010784268,226.67373839998618,None,,,,,m,,ptt,2022_Apr_11_1424,training+cueing,2021.1.4,59.95218213834401,
Self.png,Friend,Self ,m,2.1,16,26,96,,,,,0,0,0,0,,,,,3,2,38,1,,,,,,,,,,,,,,,,,,,,,1.733,2.02,226.98033629986458,None,,,,,,,,,,,,,,,,,,,,227.53258179989643,228.04137889994308,0.5006334998179227,None,228.024759599939,228.14145620004274,228.024759599939,228.14145620004274,228.14145620004274,None,m,1,0.1662775999866426,228.14145620004274,None,,,,,m,,ptt,2022_Apr_11_1424,training+cueing,2021.1.4,59.95218213834401,
Stranger.png,You,Stranger,m,1.3,15,25,95,,,,,0,0,0,0,,,,,3,3,39,6,,,,,,,,,,,,,,,,,,,,,1.412,2.097,228.4317279998213,None,,,,,,,,,,,,,,,,,,,,228.98759259982035,229.49259539996274,0.5102078001946211,None,229.47595279989764,229.57598940003663,229.47595279989764,229.57598940003663,229.57598940003663,None,m,1,0.1557084999512881,229.57598940003663,None,,,,,m,,ptt,2022_Apr_11_1424,training+cueing,2021.1.4,59.95218213834401,
Stranger.png,Friend,Stranger,m,2.3,17,27,97,,,,,0,0,0,0,,,,,3,4,40,7,,,,,,,,,,,,,,,,,,,,,1.538,2.238,229.8652976998128,None,,,,,,,,,,,,,,,,,,,,230.40540349995717,230.91011839988641,0.506287100026384,1.0065891998820007,230.8934928998351,231.01017889985815,230.8934928998351,231.01017889985815,230.99351429985836,None,m,1,0.4342062999494374,230.99351429985836,None,,,,,m,,ptt,2022_Apr_11_1424,training+cueing,2021.1.4,59.95218213834401,
Self.png,You,Self ,c,1,11,21,91,,,,,0,0,0,0,,,,,3,5,41,0,,,,,,,,,,,,,,,,,,,,,1.404,2.157,231.5506229000166,None,,,,,,,,,,,,,,,,,,,,232.09117339993827,232.59473599982448,0.5071902999188751,None,232.57803969993256,232.67807179992087,232.57803969993256,232.67807179992087,232.67807179992087,None,m,0,0.2536741001531482,232.67807179992087,None,,,,,m,,ptt,2022_Apr_11_1424,training+cueing,2021.1.4,59.95218213834401,
Friend.png,Friend,Friend,c,2,12,22,92,,,,,0,0,0,0,,,,,3,6,42,10,,,,,,,,,,,,,,,,,,,,,1.721,2.427,233.06697219982743,None,,,,,,,,,,,,,,,,,,,,233.60989159997553,234.1124716999475,0.5063724997453392,1.0066789998672903,234.09577439981513,234.21282909996808,234.09577439981513,234.21282909996808,234.1960332999006,None,c,1,0.7196960998699069,234.1960332999006,None,,,,,m,,ptt,2022_Apr_11_1424,training+cueing,2021.1.4,59.95218213834401,
Self.png,You,Self ,c,1,11,21,91,,,,,0,0,0,0,,,,,3,7,43,9,,,,,,,,,,,,,,,,,,,,,1.79,1.866,235.0527578999754,None,,,,,,,,,,,,,,,,,,,,235.59244609996676,236.09721439983696,0.5072127999737859,1.0075084001291543,236.0805954998359,236.18064010003582,236.0805954998359,236.18064010003582,236.18064010003582,None,c,1,0.6070540999062359,236.18064010003582,None,,,,,m,,ptt,2022_Apr_11_1424,training+cueing,2021.1.4,59.95218213834401,
Stranger.png,Stranger,Stranger,c,3,13,23,93,,,,,0,0,0,0,,,,,3,8,44,8,,,,,,,,,,,,,,,,,,,,,1.707,1.33,236.9208925999701,None,,,,,,,,,,,,,,,,,,,,237.46351429983042,237.96527729998343,0.5048049001488835,1.0050403999630362,237.94865359994583,238.06528019998223,237.94865359994583,238.06528019998223,238.0486104998272,None,m,0,0.46719620004296303,238.0486104998272,None,,,,,m,,ptt,2022_Apr_11_1424,training+cueing,2021.1.4,59.95218213834401,
Friend.png,Stranger,Friend,m,3.2,19,29,99,,,,,0,0,0,0,,,,,3,9,45,5,,,,,,,,,,,,,,,,,,,,,1.63,1.879,238.63892779988237,None,,,,,,,,,,,,,,,,,,,,239.17771700001322,239.683222200023,0.5112431000452489,1.01150369993411,239.6664970999118,239.78323249984533,239.6664970999118,239.78323249984533,239.76648260001093,None,None,0,,239.76648260001093,None,,,,,m,,ptt,2022_Apr_11_1424,training+cueing,2021.1.4,59.95218213834401,
Friend.png,Friend,Friend,c,2,12,22,92,,,,,0,0,0,0,,,,,3,10,46,4,,,,,,,,,,,,,,,,,,,,,1.689,1.31,241.50551039981656,None,,,,,,,,,,,,,,,,,,,,242.047459699912,242.55191789986566,0.5067775000352412,1.007007900159806,242.53529229993,242.65196439996362,242.53529229993,242.65196439996362,242.63526769983582,None,m,0,0.5044881999492645,242.63526769983582,None,,,,,m,,ptt,2022_Apr_11_1424,training+cueing,2021.1.4,59.95218213834401,
Self.png,Stranger,Self ,m,3.1,18,28,98,,,,,0,0,0,0,,,,,3,11,47,2,,,,,,,,,,,,,,,,,,,,,1.638,1.738,243.2747460999526,None,,,,,,,,,,,,,,,,,,,,243.81614659982733,244.319826599909,0.5076300001237541,None,244.30320299998857,244.41987590002827,244.30320299998857,244.41987590002827,244.4031934000086,None,c,0,0.35285889985971153,244.4031934000086,None,,,,,m,,ptt,2022_Apr_11_1424,training+cueing,2021.1.4,59.95218213834401,
Self.png,You,Self ,c,1,11,21,91,,,,,0,0,0,0,,,,,4,0,48,0,,,,,,,,,,,,,,,,,,,,,1.558,1.515,244.8807806998957,None,,,,,,,,,,,,,,,,,,,,245.41807010001503,245.92101529985666,0.5035977000370622,1.0038527001161128,245.90438709990121,246.0043993999716,245.90438709990121,246.0043993999716,246.0043993999716,None,c,1,0.4312756999861449,246.0043993999716,None,,,,,m,,ptt,2022_Apr_11_1424,training+cueing,2021.1.4,59.95218213834401,
Stranger.png,Stranger,Stranger,c,3,13,23,93,,,,,0,0,0,0,,,,,4,1,49,11,,,,,,,,,,,,,,,,,,,,,1.67,1.229,246.56122689996846,None,,,,,,,,,,,,,,,,,,,,247.1029248998966,247.60554729984142,0.5051684998907149,None,247.5889422998298,247.7067551999353,247.5889422998298,247.7067551999353,247.68910059984773,None,m,0,0.3465911000967026,247.68910059984773,None,,,,,m,,ptt,2022_Apr_11_1424,training+cueing,2021.1.4,59.95218213834401,
Stranger.png,Stranger,Stranger,c,3,13,23,93,,,,,0,0,0,0,,,,,4,2,50,8,,,,,,,,,,,,,,,,,,,,,1.676,2.186,248.16274479986168,None,,,,,,,,,,,,,,,,,,,,248.70101099996828,249.20665159984492,0.5112536000087857,1.0115578998811543,249.1900742999278,249.306795099983,249.1900742999278,249.306795099983,249.2901343998965,None,c,1,0.44163169991225004,249.2901343998965,None,,,,,m,,ptt,2022_Apr_11_1424,training+cueing,2021.1.4,59.95218213834401,
Friend.png,Stranger,Friend,m,3.2,19,29,99,,,,,0,0,0,0,,,,,4,3,51,5,,,,,,,,,,,,,,,,,,,,,1.472,1.533,249.8630625999067,None,,,,,,,,,,,,,,,,,,,,250.40117999981157,250.90792609984055,0.5106633000541478,None,250.89130629994906,251.0079653998837,250.89130629994906,251.0079653998837,250.99129809997976,None,c,0,0.2925181998871267,250.99129809997976,None,,,,,m,,ptt,2022_Apr_11_1424,training+cueing,2021.1.4,59.95218213834401,
Self.png,Friend,Self ,m,2.1,16,26,96,,,,,0,0,0,0,,,,,4,4,52,1,,,,,,,,,,,,,,,,,,,,,1.523,1.754,251.41475699981675,None,,,,,,,,,,,,,,,,,,,,251.95642989990301,252.45910379989073,0.5066086000297219,1.006915899924934,252.44242809992284,252.55914679984562,252.44242809992284,252.55914679984562,252.54243429983035,None,c,0,0.3895608000457287,252.54243429983035,None,,,,,m,,ptt,2022_Apr_11_1424,training+cueing,2021.1.4,59.95218213834401,
Stranger.png,Friend,Stranger,m,2.3,17,27,97,,,,,0,0,0,0,,,,,4,5,53,7,,,,,,,,,,,,,,,,,,,,,1.796,2.318,253.06529139983468,None,,,,,,,,,,,,,,,,,,,,253.60233609983698,254.11026169988327,0.5150140002369881,1.015321200247854,254.09361630002968,254.21031329990365,254.09361630002968,254.21031329990365,254.19361940003,None,m,1,0.6420771998818964,254.19361940003,None,,,,,m,,ptt,2022_Apr_11_1424,training+cueing,2021.1.4,59.95218213834401,
Stranger.png,You,Stranger,m,1.3,15,25,95,,,,,0,0,0,0,,,,,4,6,54,6,,,,,,,,,,,,,,,,,,,,,1.621,2.265,254.9674622998573,None,,,,,,,,,,,,,,,,,,,,255.50688349991105,256.01162809995003,0.5072133999783546,None,255.99500769982114,256.0950132999569,255.99500769982114,256.0950132999569,256.0950132999569,None,m,1,0.21271570003591478,256.0950132999569,None,,,,,m,,ptt,2022_Apr_11_1424,training+cueing,2021.1.4,59.95218213834401,
Friend.png,You,Friend,m,1.2,14,24,94,,,,,0,0,0,0,,,,,4,7,55,3,,,,,,,,,,,,,,,,,,,,,1.542,2.074,256.43423729995266,None,,,,,,,,,,,,,,,,,,,,256.9736973999534,257.4793328999076,0.511399099836126,None,257.4627151999157,257.5627760000061,257.4627151999157,257.5627760000061,257.5627760000061,None,c,0,0.32901500002481043,257.5627760000061,None,,,,,m,,ptt,2022_Apr_11_1424,training+cueing,2021.1.4,59.95218213834401,
Friend.png,Friend,Friend,c,2,12,22,92,,,,,0,0,0,0,,,,,4,8,56,10,,,,,,,,,,,,,,,,,,,,,1.445,2.297,258.019194399938,None,,,,,,,,,,,,,,,,,,,,258.56029629986733,259.0639019999653,0.5056698000989854,1.0059126999694854,259.04724099999294,259.163938799873,259.04724099999294,259.163938799873,259.14718930004165,None,m,0,0.424532099859789,259.14718930004165,None,,,,,m,,ptt,2022_Apr_11_1424,training+cueing,2021.1.4,59.95218213834401,
Self.png,Stranger,Self ,m,3.1,18,28,98,,,,,0,0,0,0,,,,,4,9,57,2,,,,,,,,,,,,,,,,,,,,,1.427,2.234,259.7043270999566,None,,,,,,,,,,,,,,,,,,,,260.2462426000275,260.74839369999245,0.5053842996712774,1.0056790998205543,260.73173989984207,260.84847179986537,260.73173989984207,260.84847179986537,260.83175889984705,None,m,1,0.7239727000705898,260.83175889984705,None,,,,,m,,ptt,2022_Apr_11_1424,training+cueing,2021.1.4,59.95218213834401,
Friend.png,Friend,Friend,c,2,12,22,92,,,,,0,0,0,0,,,,,4,10,58,4,,,,,,,,,,,,,,,,,,,,,1.761,2.272,261.6925280999858,None,,,,,,,,,,,,,,,,,,,,262.24419280001894,262.74986319988966,0.5115328002721071,1.011830400209874,262.73317589983344,262.8498680999037,262.73317589983344,262.8498680999037,262.83317029988393,None,c,1,0.6266050999984145,262.83317029988393,None,,,,,m,,ptt,2022_Apr_11_1424,training+cueing,2021.1.4,59.95218213834401,
Self.png,You,Self ,c,1,11,21,91,,,,,0,0,0,0,,,,,4,11,59,9,,,,,,,,,,,,,,,,,,,,,1.571,2.21,263.59043929982,None,,,,,,,,,,,,,,,,,,,,264.1302522998303,264.6345354998484,0.5072933998890221,None,264.61790900002234,264.71792560000904,264.61790900002234,264.71792560000904,264.71792560000904,None,c,1,0.24582089995965362,264.71792560000904,None,,,,,m,,ptt,2022_Apr_11_1424,training+cueing,2021.1.4,59.95218213834401,
Friend.png,You,Friend,m,1.2,14,24,94,,,,,0,0,0,0,,,,,5,0,60,3,,,,,,,,,,,,,,,,,,,,,1.698,1.609,265.09123059990816,None,,,,,,,,,,,,,,,,,,,,265.62996869999915,266.1355959000066,0.5113393000792712,None,266.1189749999903,266.21900749998167,266.1189749999903,266.21900749998167,266.21900749998167,None,c,0,0.24889699998311698,266.21900749998167,None,,,,,m,,ptt,2022_Apr_11_1424,training+cueing,2021.1.4,59.95218213834401,
Stranger.png,Friend,Stranger,m,2.3,17,27,97,,,,,0,0,0,0,,,,,5,1,61,7,,,,,,,,,,,,,,,,,,,,,1.749,2.274,266.59594979998656,None,,,,,,,,,,,,,,,,,,,,267.1355846999213,267.63678429997526,0.5031557998154312,1.0034360999707133,267.6201043999754,267.73672799998894,267.6201043999754,267.73672799998894,267.7201317998115,None,m,1,0.3956573000177741,267.7201317998115,None,,,,,m,,ptt,2022_Apr_11_1424,training+cueing,2021.1.4,59.95218213834401,
Friend.png,Friend,Friend,c,2,12,22,92,,,,,0,0,0,0,,,,,5,2,62,4,,,,,,,,,,,,,,,,,,,,,1.6,2.431,268.2437171000056,None,,,,,,,,,,,,,,,,,,,,268.7798333000392,269.2879170998931,0.5143028998281807,None,269.27126139984466,269.3879285999574,269.27126139984466,269.3879285999574,269.37127979984507,None,c,1,0.2484211002010852,269.37127979984507,None,,,,,m,,ptt,2022_Apr_11_1424,training+cueing,2021.1.4,59.95218213834401,
Self.png,Stranger,Self ,m,3.1,18,28,98,,,,,0,0,0,0,,,,,5,3,63,2,,,,,,,,,,,,,,,,,,,,,1.672,1.436,269.74464859999716,None,,,,,,,,,,,,,,,,,,,,270.2856272999197,270.78915730002336,0.5075878999195993,None,270.77246899995953,270.889107799856,270.77246899995953,270.889107799856,270.8725934999529,None,m,1,0.2832152999471873,270.8725934999529,None,,,,,m,,ptt,2022_Apr_11_1424,training+cueing,2021.1.4,59.95218213834401,
Stranger.png,Stranger,Stranger,c,3,13,23,93,,,,,0,0,0,0,,,,,5,4,64,8,,,,,,,,,,,,,,,,,,,,,1.584,2.426,271.2785775999073,None,,,,,,,,,,,,,,,,,,,,271.8172077999916,272.3236430999823,0.5107285000849515,None,272.3069666000083,272.4236164998729,272.3069666000083,272.4236164998729,272.4069699998945,None,c,1,0.28486660006456077,272.4069699998945,None,,,,,m,,ptt,2022_Apr_11_1424,training+cueing,2021.1.4,59.95218213834401,
Stranger.png,You,Stranger,m,1.3,15,25,95,,,,,0,0,0,0,,,,,5,5,65,6,,,,,,,,,,,,,,,,,,,,,1.432,2.307,272.81476219999604,None,,,,,,,,,,,,,,,,,,,,273.3563149999827,273.8578623000067,0.5034868002403527,1.0038665002211928,273.84120989986695,273.9412406999618,273.84120989986695,273.9412406999618,273.9412406999618,None,c,0,0.39844859996810555,273.9412406999618,None,,,,,m,,ptt,2022_Apr_11_1424,training+cueing,2021.1.4,59.95218213834401,
Friend.png,Stranger,Friend,m,3.2,19,29,99,,,,,0,0,0,0,,,,,5,6,66,5,,,,,,,,,,,,,,,,,,,,,1.525,2.287,274.468240799848,None,,,,,,,,,,,,,,,,,,,,275.00787939992733,275.50910259992816,0.5028882997576147,1.0031634997576475,275.4924776998814,275.60910759982653,275.4924776998814,275.60910759982653,275.59242929983884,None,m,1,0.39539949991740286,275.59242929983884,None,,,,,m,,ptt,2022_Apr_11_1424,training+cueing,2021.1.4,59.95218213834401,
Friend.png,Friend,Friend,c,2,12,22,92,,,,,0,0,0,0,,,,,5,7,67,10,,,,,,,,,,,,,,,,,,,,,1.476,1.922,276.1159546999261,None,,,,,,,,,,,,,,,,,,,,276.6725300999824,277.17704209988005,0.5078734001144767,1.0081623001024127,277.1604130999185,277.27707950002514,277.1604130999185,277.27707950002514,277.26040889997967,None,c,1,0.5833310999441892,277.26040889997967,None,,,,,m,,ptt,2022_Apr_11_1424,training+cueing,2021.1.4,59.95218213834401,
Self.png,You,Self ,c,1,11,21,91,,,,,0,0,0,0,,,,,5,8,68,9,,,,,,,,,,,,,,,,,,,,,1.526,2.439,277.96695939986967,None,,,,,,,,,,,,,,,,,,,,278.50829509994946,279.0116258999333,0.5070071001537144,None,278.99495239998214,279.09496479993686,278.99495239998214,279.09496479993686,279.09496479993686,None,c,1,0.3168391000945121,279.09496479993686,None,,,,,m,,ptt,2022_Apr_11_1424,training+cueing,2021.1.4,59.95218213834401,
Self.png,You,Self ,c,1,11,21,91,,,,,0,0,0,0,,,,,5,9,69,0,,,,,,,,,,,,,,,,,,,,,1.78,1.33,279.5354832999874,None,,,,,,,,,,,,,,,,,,,,280.08868159982376,280.59610109985806,0.49996839999221265,None,280.5794440000318,280.67945139994845,280.5794440000318,280.67945139994845,280.67945139994845,None,m,0,0.25236480007879436,280.67945139994845,None,,,,,m,,ptt,2022_Apr_11_1424,training+cueing,2021.1.4,59.95218213834401,
Stranger.png,Stranger,Stranger,c,3,13,23,93,,,,,0,0,0,0,,,,,5,10,70,11,,,,,,,,,,,,,,,,,,,,,1.774,1.631,281.0698861000128,None,,,,,,,,,,,,,,,,,,,,281.61143789999187,282.11385939992033,0.5028995999600738,1.003177999984473,282.0972086000256,282.2139124998357,282.0972086000256,282.2139124998357,282.19722589990124,None,m,0,0.5905285000335425,282.19722589990124,None,,,,,m,,ptt,2022_Apr_11_1424,training+cueing,2021.1.4,59.95218213834401,
Self.png,Friend,Self ,m,2.1,16,26,96,,,,,0,0,0,0,,,,,5,11,71,1,,,,,,,,,,,,,,,,,,,,,1.625,2.252,282.9208694999106,None,,,,,,,,,,,,,,,,,,,,283.4630748999771,283.9652177998796,0.5057873001787812,1.0062453001737595,283.94855890003964,284.0658786999993,283.94855890003964,284.0658786999993,284.04852969991043,None,c,0,0.46730239992029965,284.04852969991043,None,,,,,m,,ptt,2022_Apr_11_1424,training+cueing,2021.1.4,59.95218213834401,
Self.png,You,Self ,c,1,11,21,91,,,,,0,0,0,0,,,,,6,0,72,9,,,,,,,,,,,,,,,,,,,,,1.689,1.941,284.64009110000916,None,,,,,,,,,,,,,,,,,,,,285.1800972998608,285.6831639998127,0.5039653000421822,1.0042461999692023,285.666435000021,285.7664478998631,285.666435000021,285.7664478998631,285.7664478998631,None,c,1,0.6693489998579025,285.7664478998631,None,,,,,m,,ptt,2022_Apr_11_1424,training+cueing,2021.1.4,59.95218213834401,
Friend.png,Friend,Friend,c,2,12,22,92,,,,,0,0,0,0,,,,,6,1,73,10,,,,,,,,,,,,,,,,,,,,,1.754,2.204,286.57304289983585,None,,,,,,,,,,,,,,,,,,,,287.1146197998896,287.61785329994746,0.5056409002281725,None,287.60119879990816,287.71789760002866,287.60119879990816,287.71789760002866,287.70121259987354,None,c,1,0.2387450998649001,287.70121259987354,None,,,,,m,,ptt,2022_Apr_11_1424,training+cueing,2021.1.4,59.95218213834401,
Stranger.png,Stranger,Stranger,c,3,13,23,93,,,,,0,0,0,0,,,,,6,2,74,8,,,,,,,,,,,,,,,,,,,,,1.63,2.104,288.07429210003465,None,,,,,,,,,,,,,,,,,,,,288.6172062999103,289.1189671999309,0.5043477998115122,None,289.1022777999751,289.21897019981407,289.1022777999751,289.21897019981407,289.20225109998137,None,m,0,0.11346099991351366,289.20225109998137,None,,,,,m,,ptt,2022_Apr_11_1424,training+cueing,2021.1.4,59.95218213834401,
Self.png,Friend,Self ,m,2.1,16,26,96,,,,,0,0,0,0,,,,,6,3,75,1,,,,,,,,,,,,,,,,,,,,,1.754,1.682,289.441560999956,None,,,,,,,,,,,,,,,,,,,,289.9821679999586,290.48660709988326,0.5057853998150676,None,290.4699077999685,290.5866439999081,290.4699077999685,290.5866439999081,290.56994289997965,None,c,0,0.21783290011808276,290.56994289997965,None,,,,,m,,ptt,2022_Apr_11_1424,training+cueing,2021.1.4,59.95218213834401,
Stranger.png,You,Stranger,m,1.3,15,25,95,,,,,0,0,0,0,,,,,6,4,76,6,,,,,,,,,,,,,,,,,,,,,1.475,1.74,290.9104277000297,None,,,,,,,,,,,,,,,,,,,,291.45020459988154,291.9544350998476,0.5074221999384463,None,291.93773419992067,292.0376971999649,291.93773419992067,292.0376971999649,292.0376971999649,None,m,1,0.12611890002153814,292.0376971999649,None,,,,,m,,ptt,2022_Apr_11_1424,training+cueing,2021.1.4,59.95218213834401,
Stranger.png,Friend,Stranger,m,2.3,17,27,97,,,,,0,0,0,0,,,,,6,5,77,7,,,,,,,,,,,,,,,,,,,,,1.667,1.566,292.2938429999631,None,,,,,,,,,,,,,,,,,,,,292.83537819981575,293.3386321000289,0.5066877999342978,1.0070097998250276,293.3219705999363,293.43870679987594,293.3219705999363,293.43870679987594,293.42196849989705,None,m,1,0.390057299984619,293.42196849989705,None,,,,,m,,ptt,2022_Apr_11_1424,training+cueing,2021.1.4,59.95218213834401,
Friend.png,Friend,Friend,c,2,12,22,92,,,,,0,0,0,0,,,,,6,6,78,4,,,,,,,,,,,,,,,,,,,,,1.41,1.342,293.9455247998703,None,,,,,,,,,,,,,,,,,,,,294.48792540002614,294.9898369999137,0.5017875998746604,1.002038500038907,294.97321520000696,295.08986249985173,294.97321520000696,295.08986249985173,295.07318269996904,None,c,1,0.5785658999811858,295.07318269996904,None,,,,,m,,ptt,2022_Apr_11_1424,training+cueing,2021.1.4,59.95218213834401,
Stranger.png,Stranger,Stranger,c,3,13,23,93,,,,,0,0,0,0,,,,,6,7,79,11,,,,,,,,,,,,,,,,,,,,,1.775,1.654,295.7794121999759,None,,,,,,,,,,,,,,,,,,,,296.3281155999284,296.8411822000053,0.5099372998811305,None,296.82452359981835,296.94123019999824,296.82452359981835,296.94123019999824,296.92453869991004,None,c,1,0.26329419994726777,296.92453869991004,None,,,,,m,,ptt,2022_Apr_11_1424,training+cueing,2021.1.4,59.95218213834401,
Self.png,You,Self ,c,1,11,21,91,,,,,0,0,0,0,,,,,6,8,80,0,,,,,,,,,,,,,,,,,,,,,1.647,1.626,297.3144745999016,None,,,,,,,,,,,,,,,,,,,,297.86546349991113,298.3756050998345,0.5021474997047335,None,298.35894329985604,298.4592197998427,298.35894329985604,298.4592197998427,298.4592197998427,None,m,0,0.18437579995952547,298.4592197998427,None,,,,,m,,ptt,2022_Apr_11_1424,training+cueing,2021.1.4,59.95218213834401,
Self.png,Stranger,Self ,m,3.1,18,28,98,,,,,0,0,0,0,,,,,6,9,81,2,,,,,,,,,,,,,,,,,,,,,1.756,2.034,298.7658794999588,None,,,,,,,,,,,,,,,,,,,,299.3079083999619,299.80999899981543,0.5055971997790039,None,299.79332019994035,299.9100656998344,299.79332019994035,299.9100656998344,299.89330190001056,None,c,0,0.3184636998921633,299.89330190001056,None,,,,,m,,ptt,2022_Apr_11_1424,training+cueing,2021.1.4,59.95218213834401,
Friend.png,You,Friend,m,1.2,14,24,94,,,,,0,0,0,0,,,,,6,10,82,3,,,,,,,,,,,,,,,,,,,,,1.48,1.574,300.33367299987003,None,,,,,,,,,,,,,,,,,,,,300.8746904998552,301.377812899882,0.5060025998391211,1.0062904998194426,301.36111809988506,301.4611342998687,301.36111809988506,301.4611342998687,301.4611342998687,None,m,1,0.638574100099504,301.4611342998687,None,,,,,m,,ptt,2022_Apr_11_1424,training+cueing,2021.1.4,59.95218213834401,
Friend.png,Stranger,Friend,m,3.2,19,29,99,,,,,0,0,0,0,,,,,6,11,83,5,,,,,,,,,,,,,,,,,,,,,1.784,1.968,302.2348259999417,None,,,,,,,,,,,,,,,,,,,,302.77607529982924,303.2791585000232,0.5043256001081318,1.0047943000681698,303.2625303999521,303.3791842998471,303.2625303999521,303.3791842998471,303.3624980999157,None,m,1,0.593340199906379,303.3624980999157,None,,,,,m,,ptt,2022_Apr_11_1424,training+cueing,2021.1.4,59.95218213834401,
Friend.png,Stranger,Friend,m,3.2,19,29,99,,,,,0,0,0,0,,,,,7,0,84,5,,,,,,,,,,,,,,,,,,,,,1.751,2.251,304.08689030003734,None,,,,,,,,,,,,,,,,,,,,304.6241627999116,305.1304830999579,0.5114155001938343,None,305.1138475998305,305.23054599994794,305.1138475998305,305.23054599994794,305.2138548998628,None,m,1,0.32650470011867583,305.2138548998628,None,,,,,m,,ptt,2022_Apr_11_1424,training+cueing,2021.1.4,59.95218213834401,
Self.png,Stranger,Self ,m,3.1,18,28,98,,,,,0,0,0,0,,,,,7,1,85,2,,,,,,,,,,,,,,,,,,,,,1.623,1.987,305.67156279995106,None,,,,,,,,,,,,,,,,,,,,306.2125552999787,306.7150002999697,0.5060420001391321,1.006323500070721,306.6983002999332,306.8150488999672,306.6983002999332,306.8150488999672,306.79831899981946,None,m,1,0.8534834999591112,306.79831899981946,None,,,,,m,,ptt,2022_Apr_11_1424,training+cueing,2021.1.4,59.95218213834401,
Stranger.png,Stranger,Stranger,c,3,13,23,93,,,,,0,0,0,0,,,,,7,2,86,11,,,,,,,,,,,,,,,,,,,,,1.774,2.137,307.78901369986124,None,,,,,,,,,,,,,,,,,,,,308.32732409983873,308.8332282998599,0.5100481999106705,None,308.8165825998876,308.93330979999155,308.8165825998876,308.93330979999155,308.9167698000092,None,m,0,0.334998199949041,308.9167698000092,None,,,,,m,,ptt,2022_Apr_11_1424,training+cueing,2021.1.4,59.95218213834401,
Self.png,You,Self ,c,1,11,21,91,,,,,0,0,0,0,,,,,7,3,87,0,,,,,,,,,,,,,,,,,,,,,1.565,2.037,309.39017129992135,None,,,,,,,,,,,,,,,,,,,,309.93138849991374,310.43435460003093,0.5059386999346316,None,310.41766379983164,310.5176897998899,310.41766379983164,310.5176897998899,310.5176897998899,None,c,1,0.2540976998861879,310.5176897998899,None,,,,,m,,ptt,2022_Apr_11_1424,training+cueing,2021.1.4,59.95218213834401,
Stranger.png,Stranger,Stranger,c,3,13,23,93,,,,,0,0,0,0,,,,,7,4,88,8,,,,,,,,,,,,,,,,,,,,,1.523,2.273,310.90777289983816,None,,,,,,,,,,,,,,,,,,,,311.4491773999762,311.9521353999153,0.5035909002181143,1.0038917001802474,311.9354348999914,312.052175699966,311.9354348999914,312.052175699966,312.03544280002825,None,m,0,0.4162852999288589,312.03544280002825,None,,,,,m,,ptt,2022_Apr_11_1424,training+cueing,2021.1.4,59.95218213834401,
Friend.png,You,Friend,m,1.2,14,24,94,,,,,0,0,0,0,,,,,7,5,89,3,,,,,,,,,,,,,,,,,,,,,1.529,2.376,312.57537169987336,None,,,,,,,,,,,,,,,,,,,,313.1292759999633,313.6366691000294,0.4992134002968669,None,313.60333389998414,313.7033363999799,313.60333389998414,313.7033363999799,313.7033363999799,None,m,1,0.2685052000451833,313.7033363999799,None,,,,,m,,ptt,2022_Apr_11_1424,training+cueing,2021.1.4,59.95218213834401,
Stranger.png,You,Stranger,m,1.3,15,25,95,,,,,0,0,0,0,,,,,7,6,90,6,,,,,,,,,,,,,,,,,,,,,1.681,1.319,314.0932231999468,None,,,,,,,,,,,,,,,,,,,,314.63300039991736,315.13778380001895,0.5096559999510646,None,315.1210776998196,315.22113640001044,315.1210776998196,315.22113640001044,315.22113640001044,None,c,0,0.22285389993339777,315.22113640001044,None,,,,,m,,ptt,2022_Apr_11_1424,training+cueing,2021.1.4,59.95218213834401,
Friend.png,Friend,Friend,c,2,12,22,92,,,,,0,0,0,0,,,,,7,7,91,10,,,,,,,,,,,,,,,,,,,,,1.7,1.399,315.57819419982843,None,,,,,,,,,,,,,,,,,,,,316.1186036998406,316.62227179994807,0.5045650000683963,1.0048671001568437,316.60549909994006,316.72218309994787,316.60549909994006,316.72218309994787,316.7055080998689,None,m,0,0.5142959000077099,316.7055080998689,None,,,,,m,,ptt,2022_Apr_11_1424,training+cueing,2021.1.4,59.95218213834401,
Stranger.png,Friend,Stranger,m,2.3,17,27,97,,,,,0,0,0,0,,,,,7,8,92,7,,,,,,,,,,,,,,,,,,,,,1.758,1.841,317.3452106998302,None,,,,,,,,,,,,,,,,,,,,317.8853165998589,318.390115799848,0.5095452000387013,1.009826600085944,318.37341949995607,318.4901862000115,318.37341949995607,318.4901862000115,318.4734143000096,None,c,0,0.44226919999346137,318.4734143000096,None,,,,,m,,ptt,2022_Apr_11_1424,training+cueing,2021.1.4,59.95218213834401,
Self.png,Friend,Self ,m,2.1,16,26,96,,,,,0,0,0,0,,,,,7,9,93,1,,,,,,,,,,,,,,,,,,,,,1.682,1.256,319.046351299854,None,,,,,,,,,,,,,,,,,,,,319.58677459997125,320.0913435998373,0.5088256001472473,1.00912360008806,320.07465819991194,320.19139419985004,320.07465819991194,320.19139419985004,320.1746616999153,None,m,1,0.7732115001417696,320.1746616999153,None,,,,,m,,ptt,2022_Apr_11_1424,training+cueing,2021.1.4,59.95218213834401,
Friend.png,Friend,Friend,c,2,12,22,92,,,,,0,0,0,0,,,,,7,10,94,4,,,,,,,,,,,,,,,,,,,,,1.439,1.86,321.0845035999082,None,,,,,,,,,,,,,,,,,,,,321.62246540002525,322.12610659981146,0.5051284001674503,1.0054069000761956,322.1094992000144,322.22617709985934,322.1094992000144,322.22617709985934,322.20952859986573,None,m,0,0.4502848000265658,322.20952859986573,None,,,,,m,,ptt,2022_Apr_11_1424,training+cueing,2021.1.4,59.95218213834401,
Self.png,You,Self ,c,1,11,21,91,,,,,0,0,0,0,,,,,7,11,95,9,,,,,,,,,,,,,,,,,,,,,1.767,1.744,322.78255609981716,None,,,,,,,,,,,,,,,,,,,,323.3252034999896,323.82737119984813,0.5047420000191778,1.00503270002082,323.8107260998804,323.910744599998,323.8107260998804,323.910744599998,323.910744599998,None,c,1,0.41304290015250444,323.910744599998,None,,,,,m,,ptt,2022_Apr_11_1424,training+cueing,2021.1.4,59.95218213834401,
Self.png,You,Self ,c,1,11,21,91,,,,,0,0,0,0,,,,,8,0,96,0,,,,,,,,,,,,,,,,,,,,,1.534,2.289,324.45029730000533,None,,,,,,,,,,,,,,,,,,,,324.98927659983747,325.4952241999563,0.5100602000020444,None,325.47860089992173,325.57862009992823,325.47860089992173,325.57862009992823,325.57862009992823,None,c,1,0.2971020000986755,325.57862009992823,None,,,,,m,,ptt,2022_Apr_11_1424,training+cueing,2021.1.4,59.95218213834401,
Friend.png,Stranger,Friend,m,3.2,19,29,99,,,,,0,0,0,0,,,,,8,1,97,5,,,,,,,,,,,,,,,,,,,,,1.753,1.639,326.0011185000185,None,,,,,,,,,,,,,,,,,,,,326.5447712999303,327.0463769999333,0.504153500078246,1.0046008999925107,327.02969649992883,327.14645159989595,327.02969649992883,327.14645159989595,327.1297257000115,None,m,1,0.5540964000392705,327.1297257000115,None,,,,,m,,ptt,2022_Apr_11_1424,training+cueing,2021.1.4,59.95218213834401,
Friend.png,You,Friend,m,1.2,14,24,94,,,,,0,0,0,0,,,,,8,2,98,3,,,,,,,,,,,,,,,,,,,,,1.787,1.244,327.819909799844,None,,,,,,,,,,,,,,,,,,,,328.3625486998353,328.86440579988994,0.5053354997653514,1.0056269997730851,328.8476980999112,328.94772939989343,328.8476980999112,328.94772939989343,328.94772939989343,None,c,0,0.5120343000162393,328.94772939989343,None,,,,,m,,ptt,2022_Apr_11_1424,training+cueing,2021.1.4,59.95218213834401,
Friend.png,Friend,Friend,c,2,12,22,92,,,,,0,0,0,0,,,,,8,3,99,4,,,,,,,,,,,,,,,,,,,,,1.443,2.447,329.5880781998858,None,,,,,,,,,,,,,,,,,,,,330.12850089999847,330.6323169998359,0.5048539999406785,None,330.6156766999047,330.7323419000022,330.6156766999047,330.7323419000022,330.71565519995056,None,m,0,0.36011440004222095,330.71565519995056,None,,,,,m,,ptt,2022_Apr_11_1424,training+cueing,2021.1.4,59.95218213834401,
Friend.png,Friend,Friend,c,2,12,22,92,,,,,0,0,0,0,,,,,8,4,100,10,,,,,,,,,,,,,,,,,,,,,1.492,1.616,331.2057923998218,None,,,,,,,,,,,,,,,,,,,,331.74538520001806,332.25016749999486,0.5094757999759167,1.0097312999423593,332.23345399997197,332.35019259992987,332.23345399997197,332.35019259992987,332.33344089984894,None,c,1,0.47025850019417703,332.33344089984894,None,,,,,m,,ptt,2022_Apr_11_1424,training+cueing,2021.1.4,59.95218213834401,
Self.png,Stranger,Self ,m,3.1,18,28,98,,,,,0,0,0,0,,,,,8,5,101,2,,,,,,,,,,,,,,,,,,,,,1.503,2.453,332.93978509982117,None,,,,,,,,,,,,,,,,,,,,333.4823153000325,333.9847319999244,0.5056262998841703,1.0058992998674512,333.96808669995517,334.08477489999495,333.96808669995517,334.08477489999495,334.06808699993417,None,m,1,0.5596674999687821,334.06808699993417,None,,,,,m,,ptt,2022_Apr_11_1424,training+cueing,2021.1.4,59.95218213834401,
Self.png,Friend,Self ,m,2.1,16,26,96,,,,,0,0,0,0,,,,,8,6,102,1,,,,,,,,,,,,,,,,,,,,,1.577,2.283,334.758518199902,None,,,,,,,,,,,,,,,,,,,,335.2987716998905,335.80268600001,0.5054830999579281,1.0057904000859708,335.78604459995404,335.9027221999131,335.78604459995404,335.9027221999131,335.88604979985394,None,m,1,0.773700000019744,335.88604979985394,None,,,,,m,,ptt,2022_Apr_11_1424,training+cueing,2021.1.4,59.95218213834401,
Self.png,You,Self ,c,1,11,21,91,,,,,0,0,0,0,,,,,8,7,103,9,,,,,,,,,,,,,,,,,,,,,1.537,1.961,336.79252199991606,None,,,,,,,,,,,,,,,,,,,,337.33397529996,337.8375247998629,0.5073339999653399,1.0075889001600444,337.8208533998113,337.92085669981316,337.8208533998113,337.92085669981316,337.92085669981316,None,c,1,0.8028549000155181,337.92085669981316,None,,,,,m,,ptt,2022_Apr_11_1424,training+cueing,2021.1.4,59.95218213834401,
Stranger.png,Friend,Stranger,m,2.3,17,27,97,,,,,0,0,0,0,,,,,8,8,104,7,,,,,,,,,,,,,,,,,,,,,1.422,1.661,338.8610964999534,None,,,,,,,,,,,,,,,,,,,,339.4173061000183,339.9223548998125,0.5079741002991796,None,339.9057239999529,340.0224174999166,339.9057239999529,340.0224174999166,340.00571249984205,None,m,1,0.2860514000058174,340.00571249984205,None,,,,,m,,ptt,2022_Apr_11_1424,training+cueing,2021.1.4,59.95218213834401,
Stranger.png,You,Stranger,m,1.3,15,25,95,,,,,0,0,0,0,,,,,8,9,105,6,,,,,,,,,,,,,,,,,,,,,1.797,1.597,340.4291472998448,None,,,,,,,,,,,,,,,,,,,,340.970381999854,341.473483099835,0.5060509997420013,1.0063248998485506,341.45679520000704,341.55685159983113,341.45679520000704,341.55685159983113,341.55685159983113,None,c,0,0.39884130004793406,341.55685159983113,None,,,,,m,,ptt,2022_Apr_11_1424,training+cueing,2021.1.4,59.95218213834401,
Stranger.png,Stranger,Stranger,c,3,13,23,93,,,,,0,0,0,0,,,,,8,10,106,8,,,,,,,,,,,,,,,,,,,,,1.46,2.107,342.0802452999633,None,,,,,,,,,,,,,,,,,,,,342.6229482998606,343.1246470999904,0.5043204999528825,None,343.10802279994823,343.22469219984487,343.10802279994823,343.22469219984487,343.2080262999516,None,m,0,0.1877075000666082,343.2080262999516,None,,,,,m,,ptt,2022_Apr_11_1424,training+cueing,2021.1.4,59.95218213834401,
Stranger.png,Stranger,Stranger,c,3,13,23,93,,,,,0,0,0,0,,,,,8,11,107,11,,,,,,,,,,,,,,,,,,,,,1.667,1.359,343.53100019996054,None,,,,,,,,,,,,,,,,,,,,344.06989219994284,344.5757035999559,0.5099242001306266,None,344.5590746998787,344.6757763000205,344.5590746998787,344.6757763000205,344.65907769999467,None,c,1,0.3526884999591857,344.65907769999467,None,,,,,m,,ptt,2022_Apr_11_1424,training+cueing,2021.1.4,59.95218213834401,
Stranger.png,Stranger,Stranger,c,3,13,23,93,,,,,0,0,0,0,,,,,9,0,108,11,,,,,,,,,,,,,,,,,,,,,1.447,2.366,345.1490107998252,None,,,,,,,,,,,,,,,,,,,,345.68811349989846,346.19355869991705,0.51014310028404,None,346.17688379995525,346.2944145000074,346.17688379995525,346.2944145000074,346.27689290000126,None,c,1,0.2709955000318587,346.27689290000126,None,,,,,m,,ptt,2022_Apr_11_1424,training+cueing,2021.1.4,59.95218213834401,
Self.png,Friend,Self ,m,2.1,16,26,96,,,,,0,0,0,0,,,,,9,1,109,1,,,,,,,,,,,,,,,,,,,,,1.607,1.404,346.6847196999006,None,,,,,,,,,,,,,,,,,,,,347.22741950000636,347.72802539984696,0.5019325001630932,1.002193300286308,347.7113584999461,347.82805829984136,347.7113584999461,347.82805829984136,347.8113573999144,None,m,1,0.6244073999114335,347.8113573999144,None,,,,,m,,ptt,2022_Apr_11_1424,training+cueing,2021.1.4,59.95218213834401,
Self.png,You,Self ,c,1,11,21,91,,,,,0,0,0,0,,,,,9,2,110,9,,,,,,,,,,,,,,,,,,,,,1.417,2.223,348.5682357000187,None,,,,,,,,,,,,,,,,,,,,349.10800309991464,349.61273099994287,0.5063486001454294,None,349.5960531998426,349.69609059998766,349.5960531998426,349.69609059998766,349.69609059998766,None,c,1,0.24372799997217953,349.69609059998766,None,,,,,m,,ptt,2022_Apr_11_1424,training+cueing,2021.1.4,59.95218213834401,
Self.png,You,Self ,c,1,11,21,91,,,,,0,0,0,0,,,,,9,3,111,0,,,,,,,,,,,,,,,,,,,,,1.777,2.142,350.06878019985743,None,,,,,,,,,,,,,,,,,,,,350.60823030001484,351.11380759999156,0.5104022000450641,1.0107813999056816,351.09707139991224,351.19712859997526,351.09707139991224,351.19712859997526,351.19712859997526,None,c,1,0.5345699000172317,351.19712859997526,None,,,,,m,,ptt,2022_Apr_11_1424,training+cueing,2021.1.4,59.95218213834401,
Stranger.png,Stranger,Stranger,c,3,13,23,93,,,,,0,0,0,0,,,,,9,4,112,8,,,,,,,,,,,,,,,,,,,,,1.76,2.115,351.854129599873,None,,,,,,,,,,,,,,,,,,,,352.39495769981295,352.8984032999724,0.5044919999781996,None,352.8817638999317,352.9985609999858,352.8817638999317,352.9985609999858,352.98175709997304,None,m,0,0.3180802999995649,352.98175709997304,None,,,,,m,,ptt,2022_Apr_11_1424,training+cueing,2021.1.4,59.95218213834401,
Friend.png,Friend,Friend,c,2,12,22,92,,,,,0,0,0,0,,,,,9,5,113,4,,,,,,,,,,,,,,,,,,,,,1.738,1.316,353.42181069985963,None,,,,,,,,,,,,,,,,,,,,353.96371969999745,354.46621280000545,0.5047857998870313,1.005175800062716,354.4496067999862,354.56711629987694,354.4496067999862,354.56711629987694,354.5495868998114,None,c,1,0.5102395999711007,354.5495868998114,None,,,,,m,,ptt,2022_Apr_11_1424,training+cueing,2021.1.4,59.95218213834401,
Stranger.png,Friend,Stranger,m,2.3,17,27,97,,,,,0,0,0,0,,,,,9,6,114,7,,,,,,,,,,,,,,,,,,,,,1.608,2.076,355.19104880001396,None,,,,,,,,,,,,,,,,,,,,355.7302313998807,356.2341286998708,0.5065692001953721,None,356.2174696000293,356.334170299815,356.2174696000293,356.334170299815,356.3175226999447,None,c,0,0.26226069987751544,356.3175226999447,None,,,,,m,,ptt,2022_Apr_11_1424,training+cueing,2021.1.4,59.95218213834401,
Friend.png,You,Friend,m,1.2,14,24,94,,,,,0,0,0,0,,,,,9,7,115,3,,,,,,,,,,,,,,,,,,,,,1.56,1.791,356.707123799948,None,,,,,,,,,,,,,,,,,,,,357.26364249992184,357.7687482999172,0.5080743001308292,None,357.75208320003003,357.8521085998509,357.75208320003003,357.8521085998509,357.8521085998509,None,c,0,0.19973300001583993,357.8521085998509,None,,,,,m,,ptt,2022_Apr_11_1424,training+cueing,2021.1.4,59.95218213834401,
Stranger.png,You,Stranger,m,1.3,15,25,95,,,,,0,0,0,0,,,,,9,8,116,6,,,,,,,,,,,,,,,,,,,,,1.773,1.547,358.1758991999086,None,,,,,,,,,,,,,,,,,,,,358.7137241999153,359.21967629995197,0.5125092000234872,1.012824899982661,359.20296210004017,359.30298829986714,359.20296210004017,359.30298829986714,359.30298829986714,None,m,1,0.8128001999575645,359.30298829986714,None,,,,,m,,ptt,2022_Apr_11_1424,training+cueing,2021.1.4,59.95218213834401,
Friend.png,Stranger,Friend,m,3.2,19,29,99,,,,,0,0,0,0,,,,,9,9,117,5,,,,,,,,,,,,,,,,,,,,,1.743,1.531,360.24344630003907,None,,,,,,,,,,,,,,,,,,,,360.7845544000156,361.28779949992895,0.5054550997447222,1.0057759997434914,361.271102800034,361.38786549982615,361.271102800034,361.38786549982615,361.3711063999217,None,m,1,0.7926598000340164,361.3711063999217,None,,,,,m,,ptt,2022_Apr_11_1424,training+cueing,2021.1.4,59.95218213834401,
Self.png,Stranger,Self ,m,3.1,18,28,98,,,,,0,0,0,0,,,,,9,10,118,2,,,,,,,,,,,,,,,,,,,,,1.558,2.245,362.29434939986095,None,,,,,,,,,,,,,,,,,,,,362.83085929998197,363.33930390002206,0.5150519001763314,1.0153326001018286,363.3226226998959,363.4393596998416,363.3226226998959,363.4393596998416,363.4226136999205,None,c,0,0.5490408998448402,363.4226136999205,None,,,,,m,,ptt,2022_Apr_11_1424,training+cueing,2021.1.4,59.95218213834401,
Friend.png,Friend,Friend,c,2,12,22,92,,,,,0,0,0,0,,,,,9,11,119,10,,,,,,,,,,,,,,,,,,,,,1.739,2.292,364.0960381999612,None,,,,,,,,,,,,,,,,,,,,364.63701069983654,365.14067170000635,0.5069780997000635,1.0073264997918159,365.12392199994065,365.2406388998497,365.12392199994065,365.2406388998497,365.223925499944,None,c,1,0.8279019999317825,365.223925499944,None,,,,,m,,ptt,2022_Apr_11_1424,training+cueing,2021.1.4,59.95218213834401,
,,,,,,,,,,,,0,0,0,0,,,,,,,,,,,,,,,,,,,,,,,,,,,,,,,,,,,,,,,,,,,,,,,,,,,,,,,,,,,,,,,,,,,0.0009955000132322311,None,,,m,,ptt,2022_Apr_11_1424,training+cueing,2021.1.4,59.95218213834401,
Self.png,You,Self ,c,1,11,21,91,,,,,1,0,1,0,0,0,0,9,,,,,,,,,,,,,,,,,366.6928075000178,None,space,2.5595316998660564,2.013157700188458,None,371.26186169986613,None,1.69,1.923,374.27774819987826,None,374.8106451998465,375.31460349983536,375.2980137998238,375.39799420000054,375.2980137998238,375.39799420000054,375.39799420000054,None,c,1,0.30183080001734197,375.39799420000054,None,375.7148513998836,None,,,,,,,,,,,,,,,,,,,,,,,,m,,ptt,2022_Apr_11_1424,training+cueing,2021.1.4,59.95218213834401,
Stranger.png,Stranger,Stranger,c,3,13,23,93,,,,,1,0,1,0,0,1,1,8,,,,,,,,,,,,,,,,,,,,,,,,,1.497,2.366,376.1152302999981,None,376.64828439988196,377.1493422000203,377.1326348998118,377.2493722999934,377.1326348998118,377.2493722999934,377.2493722999934,None,m,0,0.30633679986931384,377.2493722999934,None,377.58330409997143,None,,,,,,,,,,,,,,,,,,,,,,,,m,,ptt,2022_Apr_11_1424,training+cueing,2021.1.4,59.95218213834401,
Self.png,You,Self ,c,1,11,21,91,,,,,1,0,1,0,0,2,2,0,,,,,,,,,,,,,,,,,,,,,,,,,1.767,2.392,377.98323230003007,None,378.5351680999156,379.05063079996035,379.03400039998814,379.13405089988373,379.03400039998814,379.13405089988373,379.13405089988373,None,c,1,0.22974559990689158,379.13405089988373,None,379.38310129987076,None,,,,,,,,,,,,,,,,,,,,,,,,m,,ptt,2022_Apr_11_1424,training+cueing,2021.1.4,59.95218213834401,
Friend.png,Friend,Friend,c,2,12,22,92,,,,,1,0,1,0,0,3,3,10,,,,,,,,,,,,,,,,,,,,,,,,,1.726,2.078,379.7845218000002,None,380.3152894999366,380.8186009998899,380.80197689984925,380.91866199998185,380.80197689984925,380.91866199998185,380.90197409992106,None,c,1,0.38196019991301,380.90197409992106,None,381.30564799997956,None,,,,,,,,,,,,,,,,,,,,,,,,m,,ptt,2022_Apr_11_1424,training+cueing,2021.1.4,59.95218213834401,
Self.png,Stranger,Self ,m,3.1,18,28,98,,,,,1,0,1,0,0,4,4,2,,,,,,,,,,,,,,,,,,,,,,,,,1.523,1.584,381.7193688999396,None,382.2534264998976,382.75336529989727,382.7367062999401,382.8533608999569,382.7367062999401,382.8533608999569,382.8533608999569,None,c,0,0.41432320000603795,382.8533608999569,None,383.28766569984145,None,,,,,,,,,,,,,,,,,,,,,,,,m,,ptt,2022_Apr_11_1424,training+cueing,2021.1.4,59.95218213834401,
Stranger.png,Stranger,Stranger,c,3,13,23,93,,,,,1,0,1,0,0,5,5,11,,,,,,,,,,,,,,,,,,,,,,,,,1.681,2.129,383.68752499995753,None,384.2252724999562,384.73813159996644,384.7214357999619,384.83818149985746,384.7214357999619,384.83818149985746,384.82143909996375,None,m,0,0.31832379987463355,384.82143909996375,None,385.1551485999953,None,,,,,,,,,,,,,,,,,,,,,,,,m,,ptt,2022_Apr_11_1424,training+cueing,2021.1.4,59.95218213834401,
Friend.png,Stranger,Friend,m,3.2,19,29,99,,,,,1,0,1,0,0,6,6,5,,,,,,,,,,,,,,,,,,,,,,,,,1.605,2.467,385.5557744000107,None,386.0894221998751,386.5894853998907,386.5894853998907,386.6895104998257,386.5894853998907,386.6895104998257,386.6895104998257,None,c,0,0.8502503000199795,386.6895104998257,None,387.55690769990906,None,,,,,,,,,,,,,,,,,,,,,,,,m,,ptt,2022_Apr_11_1424,training+cueing,2021.1.4,59.95218213834401,
Stranger.png,Friend,Stranger,m,2.3,17,27,97,,,,,1,0,1,0,0,7,7,7,,,,,,,,,,,,,,,,,,,,,,,,,1.488,1.83,387.9571026000194,None,388.490183299873,388.9911942000035,388.97452459996566,389.0912360998336,388.97452459996566,389.0912360998336,389.07451329985633,None,c,0,0.16132940002717078,389.07451329985633,None,389.2581172999926,None,,,,,,,,,,,,,,,,,,,,,,,,m,,ptt,2022_Apr_11_1424,training+cueing,2021.1.4,59.95218213834401,
Friend.png,Friend,Friend,c,2,12,22,92,,,,,1,0,1,0,0,8,8,4,,,,,,,,,,,,,,,,,,,,,,,,,1.748,1.3,389.6583722999785,None,390.18759889993817,390.69243119983,390.67577879992314,390.7924899000209,390.67577879992314,390.7924899000209,390.77577079995535,None,m,0,0.12397699989378452,390.77577079995535,None,390.92597069987096,None,,,,,,,,,,,,,,,,,,,,,,,,m,,ptt,2022_Apr_11_1424,training+cueing,2021.1.4,59.95218213834401,
Self.png,Friend,Self ,m,2.1,16,26,96,,,,,1,0,1,0,0,9,9,1,,,,,,,,,,,,,,,,,,,,,,,,,1.59,2.02,391.326210899977,None,391.858305899892,392.3603039998561,392.34367229999043,392.4603504999541,392.34367229999043,392.4603504999541,392.4436146998778,None,c,0,0.5201366001274437,392.4436146998778,None,392.9941210998222,None,,,,,,,,,,,,,,,,,,,,,,,,m,,ptt,2022_Apr_11_1424,training+cueing,2021.1.4,59.95218213834401,
Stranger.png,You,Stranger,m,1.3,15,25,95,,,,,1,0,1,0,0,10,10,6,,,,,,,,,,,,,,,,,,,,,,,,,1.781,2.246,393.3944995999336,None,393.9286630998831,394.4284542000387,394.4284542000387,394.52848979993723,394.4284542000387,394.52848979993723,394.52848979993723,None,m,1,0.6272430000826716,394.52848979993723,None,395.1774699999951,None,,,,,,,,,,,,,,,,,,,,,,,,m,,ptt,2022_Apr_11_1424,training+cueing,2021.1.4,59.95218213834401,
Friend.png,You,Friend,m,1.2,14,24,94,,,,,1,0,1,0,0,11,11,3,,,,,,,,,,,,,,,,,,,,,,,,,1.656,1.295,395.5794730000198,None,396.1144725999329,396.63003550004214,396.6134348998312,396.7134053998161,396.6134348998312,396.7134053998161,396.7134053998161,None,c,0,0.4583570999093354,396.7134053998161,None,397.19749909988604,None,,,,,,,,,,,,,,,,,,,,,,,,m,,ptt,2022_Apr_11_1424,training+cueing,2021.1.4,59.95218213834401,
Self.png,Stranger,Self ,m,3.1,18,28,98,,,,,1,0,1,0,,,,,0,0,0,2,,,,,,,,,,,,,,,,,,,400.5997361999471,None,1.77,1.215,404.1341531998478,None,,,,,,,,,,,,,,,,397.5974264999386,None,0.014524699887260795,0.5133610998746008,404.66776610002853,405.16954579995945,0.5043161001522094,1.0046066001523286,405.1529255998321,405.26957949995995,405.1529255998321,405.26957949995995,405.2529217998963,None,c,0,0.5748548000119627,405.2529217998963,None,,,,,m,,ptt,2022_Apr_11_1424,training+cueing,2021.1.4,59.95218213834401,
Stranger.png,Stranger,Stranger,c,3,13,23,93,,,,,1,0,1,0,,,,,0,1,1,8,,,,,,,,,,,,,,,,,,,,,1.709,1.508,405.96089829993434,None,,,,,,,,,,,,,,,,,,,,406.4992237999104,407.00434569991194,0.5097698997706175,1.0103314998559654,406.9876476000063,407.10430149990134,406.9876476000063,407.10430149990134,407.08759839995764,None,m,0,0.4041967000812292,407.08759839995764,None,,,,,m,,ptt,2022_Apr_11_1424,training+cueing,2021.1.4,59.95218213834401,
Friend.png,Friend,Friend,c,2,12,22,92,,,,,1,0,1,0,,,,,0,2,2,4,,,,,,,,,,,,,,,,,,,,,1.627,2.435,407.62885899981484,None,,,,,,,,,,,,,,,,,,,,408.1701590998564,408.67213249998167,0.5035033000167459,1.0037789999041706,408.6554685998708,408.7721619999502,408.6554685998708,408.7721619999502,408.7554742000066,None,c,1,0.752284900052473,408.7554742000066,None,,,,,m,,ptt,2022_Apr_11_1424,training+cueing,2021.1.4,59.95218213834401,
Friend.png,Friend,Friend,c,2,12,22,92,,,,,1,0,1,0,,,,,0,3,3,10,,,,,,,,,,,,,,,,,,,,,1.741,2.397,409.64603529986925,None,,,,,,,,,,,,,,,,,,,,410.18413720000535,410.6901883999817,0.5115342000499368,1.0118301000911742,410.6735690999776,410.7902533998713,410.6735690999776,410.7902533998713,410.77354889991693,None,c,1,0.5102576999925077,410.77354889991693,None,,,,,m,,ptt,2022_Apr_11_1424,training+cueing,2021.1.4,59.95218213834401,
Stranger.png,You,Stranger,m,1.3,15,25,95,,,,,1,0,1,0,,,,,0,4,4,6,,,,,,,,,,,,,,,,,,,,,1.698,2.311,411.41335529997014,None,,,,,,,,,,,,,,,,,,,,411.95289870002307,412.4581944998354,0.5083869998343289,1.0086684999987483,412.4414990998339,412.5415286999196,412.4414990998339,412.5415286999196,412.5415286999196,None,m,1,0.5503046000376344,412.5415286999196,None,,,,,m,,ptt,2022_Apr_11_1424,training+cueing,2021.1.4,59.95218213834401,
Friend.png,You,Friend,m,1.2,14,24,94,,,,,1,0,1,0,,,,,0,5,5,3,,,,,,,,,,,,,,,,,,,,,1.438,1.527,413.21533359983005,None,,,,,,,,,,,,,,,,,,,,413.756397199817,414.25950159993954,0.5059702997095883,None,414.24288289994,414.34764529997483,414.24288289994,414.34764529997483,414.34764529997483,None,c,0,0.3121117998380214,414.34764529997483,None,,,,,m,,ptt,2022_Apr_11_1424,training+cueing,2021.1.4,59.95218213834401,
Friend.png,Stranger,Friend,m,3.2,19,29,99,,,,,1,0,1,0,,,,,0,6,6,5,,,,,,,,,,,,,,,,,,,,,1.657,2.039,414.783116400009,None,,,,,,,,,,,,,,,,,,,,415.3455046999734,415.8606196998153,0.5144914002157748,1.014763300307095,415.84401319990866,415.9606474000029,415.84401319990866,415.9606474000029,415.94400629983284,None,m,1,0.49173280014656484,415.94400629983284,None,,,,,m,,ptt,2022_Apr_11_1424,training+cueing,2021.1.4,59.95218213834401,
Self.png,You,Self ,c,1,11,21,91,,,,,1,0,1,0,,,,,0,7,7,0,,,,,,,,,,,,,,,,,,,,,1.665,1.889,416.567703000037,None,,,,,,,,,,,,,,,,,,,,417.10803799983114,417.61191029986367,0.5056690000928938,1.0059545000549406,417.5952704998199,417.69530000002123,417.5952704998199,417.69530000002123,417.69530000002123,None,c,1,0.43647660012356937,417.69530000002123,None,,,,,m,,ptt,2022_Apr_11_1424,training+cueing,2021.1.4,59.95218213834401,
Stranger.png,Friend,Stranger,m,2.3,17,27,97,,,,,1,0,1,0,,,,,0,8,8,7,,,,,,,,,,,,,,,,,,,,,1.636,2.101,418.2682002999354,None,,,,,,,,,,,,,,,,,,,,418.8084801000077,419.3131022998132,0.5091409001033753,None,419.2965084000025,419.4132085999008,419.2965084000025,419.4132085999008,419.39648599992506,None,c,0,0.2711681998334825,419.39648599992506,None,,,,,m,,ptt,2022_Apr_11_1424,training+cueing,2021.1.4,59.95218213834401,
Self.png,Friend,Self ,m,2.1,16,26,96,,,,,1,0,1,0,,,,,0,9,9,1,,,,,,,,,,,,,,,,,,,,,1.616,1.601,419.8031837998424,None,,,,,,,,,,,,,,,,,,,,420.3424777998589,420.84772129985504,0.5113609000109136,1.0117504000663757,420.8310599999968,420.94774620002136,420.8310599999968,420.94774620002136,420.93105799984187,None,None,0,,420.93105799984187,None,,,,,m,,ptt,2022_Apr_11_1424,training+cueing,2021.1.4,59.95218213834401,
Stranger.png,Stranger,Stranger,c,3,13,23,93,,,,,1,0,1,0,,,,,0,10,10,11,,,,,,,,,,,,,,,,,,,,,1.721,1.418,422.65320229995996,None,,,,,,,,,,,,,,,,,,,,423.20416339999065,423.716326699825,0.505928099853918,1.0062219998799264,423.699697899865,423.816379299853,423.699697899865,423.816379299853,423.7997335998807,None,c,1,0.42803249997086823,423.7997335998807,None,,,,,m,,ptt,2022_Apr_11_1424,training+cueing,2021.1.4,59.95218213834401,
Self.png,You,Self ,c,1,11,21,91,,,,,1,0,1,0,,,,,0,11,11,9,,,,,,,,,,,,,,,,,,,,,1.559,1.761,424.3564652998466,None,,,,,,,,,,,,,,,,,,,,424.8973113000393,425.4008772999514,0.5073533998802304,1.007653099950403,425.38423019996844,425.4842450998258,425.38423019996844,425.4842450998258,425.4842450998258,None,c,1,0.47151770000346005,425.4842450998258,None,,,,,m,,ptt,2022_Apr_11_1424,training+cueing,2021.1.4,59.95218213834401,
Self.png,Friend,Self ,m,2.1,16,26,96,,,,,1,0,1,0,,,,,1,0,12,1,,,,,,,,,,,,,,,,,,,,,1.425,1.635,426.0905734000262,None,,,,,,,,,,,,,,,,,,,,426.6317731998861,427.13549479981884,0.505640999879688,None,427.1188729000278,427.2355210999958,427.1188729000278,427.2355210999958,427.21884609991685,None,m,1,0.3209738000296056,427.21884609991685,None,,,,,m,,ptt,2022_Apr_11_1424,training+cueing,2021.1.4,59.95218213834401,
Self.png,You,Self ,c,1,11,21,91,,,,,1,0,1,0,,,,,1,1,13,9,,,,,,,,,,,,,,,,,,,,,1.61,1.981,427.6757129000034,None,,,,,,,,,,,,,,,,,,,,428.2167479998898,428.72010429995134,0.5072993002831936,None,428.70348399993964,428.80348789994605,428.70348399993964,428.80348789994605,428.80348789994605,None,c,1,0.2403555999044329,428.80348789994605,None,,,,,m,,ptt,2022_Apr_11_1424,training+cueing,2021.1.4,59.95218213834401,
Self.png,Stranger,Self ,m,3.1,18,28,98,,,,,1,0,1,0,,,,,1,2,14,2,,,,,,,,,,,,,,,,,,,,,1.678,2.019,429.17742579989135,None,,,,,,,,,,,,,,,,,,,,429.73521029995754,430.237785999896,0.5048782001249492,1.005179500207305,430.22109699994326,430.33783639990725,430.22109699994326,430.33783639990725,430.32115059997886,None,m,1,0.626666400115937,430.32115059997886,None,,,,,m,,ptt,2022_Apr_11_1424,training+cueing,2021.1.4,59.95218213834401,
Stranger.png,Friend,Stranger,m,2.3,17,27,97,,,,,1,0,1,0,,,,,1,3,15,7,,,,,,,,,,,,,,,,,,,,,1.47,1.204,431.0779287000187,None,,,,,,,,,,,,,,,,,,,,431.6185420998372,432.12242549983785,0.5062656002119184,None,432.10574029991403,432.2224795999937,432.10574029991403,432.2224795999937,432.20573459984735,None,c,0,0.3102826001122594,432.20573459984735,None,,,,,m,,ptt,2022_Apr_11_1424,training+cueing,2021.1.4,59.95218213834401,
Friend.png,Stranger,Friend,m,3.2,19,29,99,,,,,1,0,1,0,,,,,1,4,16,5,,,,,,,,,,,,,,,,,,,,,1.758,1.27,432.64930089982226,None,,,,,,,,,,,,,,,,,,,,433.1896230999846,433.6902465999592,0.5020250997040421,1.0023496998474002,433.67351630004123,433.7902642998379,433.67351630004123,433.7902642998379,433.773550799815,None,m,1,0.9981482999864966,433.773550799815,None,,,,,m,,ptt,2022_Apr_11_1424,training+cueing,2021.1.4,59.95218213834401,
Stranger.png,Stranger,Stranger,c,3,13,23,93,,,,,1,0,1,0,,,,,1,5,17,8,,,,,,,,,,,,,,,,,,,,,1.517,1.235,434.89768029982224,None,,,,,,,,,,,,,,,,,,,,435.4512985998299,435.95851739984937,0.5152415002230555,1.0155239002779126,435.94184759981,436.05857929983176,435.94184759981,436.05857929983176,436.0418187000323,None,m,0,0.6019934001378715,436.0418187000323,None,,,,,m,,ptt,2022_Apr_11_1424,training+cueing,2021.1.4,59.95218213834401,
Friend.png,Friend,Friend,c,2,12,22,92,,,,,1,0,1,0,,,,,1,6,18,10,,,,,,,,,,,,,,,,,,,,,1.685,2.299,436.76589419995435,None,,,,,,,,,,,,,,,,,,,,437.3063970999792,437.80983109981753,0.5056115000043064,1.0059058999177068,437.79320769989863,437.90989889996126,437.79320769989863,437.90989889996126,437.89320769999176,None,c,1,0.5265737001318485,437.89320769999176,None,,,,,m,,ptt,2022_Apr_11_1424,training+cueing,2021.1.4,59.95218213834401,
Friend.png,Friend,Friend,c,2,12,22,92,,,,,1,0,1,0,,,,,1,7,19,4,,,,,,,,,,,,,,,,,,,,,1.508,2.335,438.55032079992816,None,,,,,,,,,,,,,,,,,,,,439.0892572000157,439.59451069985516,0.5112445000559092,None,439.57787519996054,439.69457529997453,439.57787519996054,439.69457529997453,439.6778378998861,None,m,0,0.32592159998603165,439.6778378998861,None,,,,,m,,ptt,2022_Apr_11_1424,training+cueing,2021.1.4,59.95218213834401,
Stranger.png,You,Stranger,m,1.3,15,25,95,,,,,1,0,1,0,,,,,1,8,20,6,,,,,,,,,,,,,,,,,,,,,1.487,2.225,440.13381639984436,None,,,,,,,,,,,,,,,,,,,,440.67452959995717,441.1789996000007,0.5070525002665818,None,441.1623002998531,441.2623083998915,441.1623002998531,441.2623083998915,441.2623083998915,None,c,0,0.3415562999434769,441.2623083998915,None,,,,,m,,ptt,2022_Apr_11_1424,training+cueing,2021.1.4,59.95218213834401,
Self.png,You,Self ,c,1,11,21,91,,,,,1,0,1,0,,,,,1,9,21,0,,,,,,,,,,,,,,,,,,,,,1.788,1.637,441.73593580001034,None,,,,,,,,,,,,,,,,,,,,442.2723487999756,442.7801172998734,0.515444700140506,None,442.7634856000077,442.8635010998696,442.7634856000077,442.8635010998696,442.8635010998696,None,c,1,0.35616869991645217,442.8635010998696,None,,,,,m,,ptt,2022_Apr_11_1424,training+cueing,2021.1.4,59.95218213834401,
Stranger.png,Stranger,Stranger,c,3,13,23,93,,,,,1,0,1,0,,,,,1,10,22,11,,,,,,,,,,,,,,,,,,,,,1.661,1.871,443.3533336999826,None,,,,,,,,,,,,,,,,,,,,443.895457000006,444.3979372999165,0.5059617999941111,1.0062202999833971,444.381308699958,444.49799469998106,444.381308699958,444.49799469998106,444.48132029990666,None,m,0,0.41842469992116094,444.48132029990666,None,,,,,m,,ptt,2022_Apr_11_1424,training+cueing,2021.1.4,59.95218213834401,
Friend.png,You,Friend,m,1.2,14,24,94,,,,,1,0,1,0,,,,,1,11,23,3,,,,,,,,,,,,,,,,,,,,,1.517,2.176,445.0215052999556,None,,,,,,,,,,,,,,,,,,,,445.5740204998292,446.0826846999116,0.5155456000939012,None,446.0659745999146,446.1660297999624,446.0659745999146,446.1660297999624,446.1660297999624,None,c,0,0.25375789985992014,446.1660297999624,None,,,,,m,,ptt,2022_Apr_11_1424,training+cueing,2021.1.4,59.95218213834401,
Stranger.png,Stranger,Stranger,c,3,13,23,93,,,,,1,0,1,0,,,,,2,0,24,11,,,,,,,,,,,,,,,,,,,,,1.702,1.758,446.55690259998664,None,,,,,,,,,,,,,,,,,,,,447.0998245999217,447.600299899932,0.500501099973917,1.0007623999845237,447.5836041998118,447.7003386998549,447.5836041998118,447.7003386998549,447.7003386998549,None,m,0,0.5114800001028925,447.7003386998549,None,,,,,m,,ptt,2022_Apr_11_1424,training+cueing,2021.1.4,59.95218213834401,
Friend.png,Friend,Friend,c,2,12,22,92,,,,,1,0,1,0,,,,,2,1,25,4,,,,,,,,,,,,,,,,,,,,,1.782,1.767,448.34069720003754,None,,,,,,,,,,,,,,,,,,,,448.8807755999733,449.3848180999048,0.5078998000826687,1.0079789999872446,449.3684349998366,449.4849604999181,449.3684349998366,449.4849604999181,449.46836819988675,None,c,1,0.8236213999334723,449.46836819988675,None,,,,,m,,ptt,2022_Apr_11_1424,training+cueing,2021.1.4,59.95218213834401,
Self.png,You,Self ,c,1,11,21,91,,,,,1,0,1,0,,,,,2,2,26,9,,,,,,,,,,,,,,,,,,,,,1.503,1.27,450.42888789996505,None,,,,,,,,,,,,,,,,,,,,450.96718369983137,451.469778599916,0.5029708000365645,1.003153400029987,451.45312849991024,451.5531073999591,451.45312849991024,451.5531073999591,451.5531073999591,None,c,1,0.4985758999828249,451.5531073999591,None,,,,,m,,ptt,2022_Apr_11_1424,training+cueing,2021.1.4,59.95218213834401,
Self.png,You,Self ,c,1,11,21,91,,,,,1,0,1,0,,,,,2,3,27,0,,,,,,,,,,,,,,,,,,,,,1.724,1.679,452.17663619993255,None,,,,,,,,,,,,,,,,,,,,452.71318700001575,453.2210430998821,0.514605299802497,1.0148976997006685,453.204327999847,453.304341299925,453.204327999847,453.304341299925,453.304341299925,None,c,1,0.39540759986266494,453.304341299925,None,,,,,m,,ptt,2022_Apr_11_1424,training+cueing,2021.1.4,59.95218213834401,
Friend.png,Stranger,Friend,m,3.2,19,29,99,,,,,1,0,1,0,,,,,2,4,28,5,,,,,,,,,,,,,,,,,,,,,1.695,1.568,453.8278159999754,None,,,,,,,,,,,,,,,,,,,,454.36782929999754,454.87222629995085,0.5057297002058476,1.0071346000768244,454.8555362999905,454.9722893999424,454.8555362999905,454.9722893999424,454.95555279986,None,c,0,0.680374399991706,454.95555279986,None,,,,,m,,ptt,2022_Apr_11_1424,training+cueing,2021.1.4,59.95218213834401,
Self.png,Friend,Self ,m,2.1,16,26,96,,,,,1,0,1,0,,,,,2,5,29,1,,,,,,,,,,,,,,,,,,,,,1.476,1.942,455.76330260001123,None,,,,,,,,,,,,,,,,,,,,456.30359569983557,456.8069815998897,0.5059932000003755,1.0072097000665963,456.7903503999114,456.90698949992657,456.7903503999114,456.90698949992657,456.89029809995554,None,m,1,0.6180672999471426,456.89029809995554,None,,,,,m,,ptt,2022_Apr_11_1424,training+cueing,2021.1.4,59.95218213834401,
Friend.png,You,Friend,m,1.2,14,24,94,,,,,1,0,1,0,,,,,2,6,30,3,,,,,,,,,,,,,,,,,,,,,1.738,1.703,457.63431499991566,None,,,,,,,,,,,,,,,,,,,,458.1882574998308,458.691642699996,0.5071376003324986,None,458.67504270002246,458.77502359985374,458.67504270002246,458.77502359985374,458.77502359985374,None,c,0,0.36469199997372925,458.77502359985374,None,,,,,m,,ptt,2022_Apr_11_1424,training+cueing,2021.1.4,59.95218213834401,
Stranger.png,You,Stranger,m,1.3,15,25,95,,,,,1,0,1,0,,,,,2,7,31,6,,,,,,,,,,,,,,,,,,,,,1.541,1.933,459.2647889999207,None,,,,,,,,,,,,,,,,,,,,459.8031344998162,460.3096247999929,0.5109733000863343,1.011261000065133,460.29298130003735,460.3931534998119,460.29298130003735,460.3931534998119,460.3931534998119,None,m,1,0.6026717000640929,460.3931534998119,None,,,,,m,,ptt,2022_Apr_11_1424,training+cueing,2021.1.4,59.95218213834401,
Stranger.png,Stranger,Stranger,c,3,13,23,93,,,,,1,0,1,0,,,,,2,8,32,8,,,,,,,,,,,,,,,,,,,,,1.702,1.745,461.1337431999855,None,,,,,,,,,,,,,,,,,,,,461.6753320998978,462.17748119984753,0.5047587999142706,1.0050258997362107,462.16086189984344,462.2775185999926,462.16086189984344,462.2775185999926,462.26084819994867,None,m,0,0.6549199000000954,462.26084819994867,None,,,,,m,,ptt,2022_Apr_11_1424,training+cueing,2021.1.4,59.95218213834401,
Self.png,Stranger,Self ,m,3.1,18,28,98,,,,,1,0,1,0,,,,,2,9,33,2,,,,,,,,,,,,,,,,,,,,,1.621,1.336,463.0512184998952,None,,,,,,,,,,,,,,,,,,,,463.59956500004046,464.1122333998792,0.5080454000271857,1.008332199882716,464.09556299983524,464.2122849000152,464.09556299983524,464.2122849000152,464.19555970001966,None,m,1,0.5282368999905884,464.19555970001966,None,,,,,m,,ptt,2022_Apr_11_1424,training+cueing,2021.1.4,59.95218213834401,
Friend.png,Friend,Friend,c,2,12,22,92,,,,,1,0,1,0,,,,,2,10,34,10,,,,,,,,,,,,,,,,,,,,,1.688,2.015,464.85215639998205,None,,,,,,,,,,,,,,,,,,,,465.3921966999769,465.8968382999301,0.506379900034517,1.0066684000194073,465.8802145998925,465.99687989987433,465.8802145998925,465.99687989987433,465.9801832998637,None,c,1,0.40749290003441274,465.9801832998637,None,,,,,m,,ptt,2022_Apr_11_1424,training+cueing,2021.1.4,59.95218213834401,
Stranger.png,Friend,Stranger,m,2.3,17,27,97,,,,,1,0,1,0,,,,,2,11,35,7,,,,,,,,,,,,,,,,,,,,,1.455,2.035,466.52037429995835,None,,,,,,,,,,,,,,,,,,,,467.0589838998858,467.5647741998546,0.5115702000912279,1.0120095000602305,467.548121499829,467.66495749983005,467.548121499829,467.66495749983005,467.64806859986857,None,m,1,0.5157362001482397,467.64806859986857,None,,,,,m,,ptt,2022_Apr_11_1424,training+cueing,2021.1.4,59.95218213834401,
Friend.png,You,Friend,m,1.2,14,24,94,,,,,1,0,1,0,,,,,3,0,36,3,,,,,,,,,,,,,,,,,,,,,1.527,1.354,468.2898479998112,None,,,,,,,,,,,,,,,,,,,,468.82871699985117,469.3326820998918,0.5051938998512924,None,469.31604960002005,469.41606880002655,469.31604960002005,469.41606880002655,469.41606880002655,None,c,0,0.34765159990638494,469.41606880002655,None,,,,,m,,ptt,2022_Apr_11_1424,training+cueing,2021.1.4,59.95218213834401,
Friend.png,Friend,Friend,c,2,12,22,92,,,,,1,0,1,0,,,,,3,1,37,4,,,,,,,,,,,,,,,,,,,,,1.608,2.162,469.88903159997426,None,,,,,,,,,,,,,,,,,,,,470.4311273000203,470.9338570998516,0.5060850998852402,1.0064016999676824,470.91715019987896,471.03389590000734,470.91715019987896,471.03389590000734,471.0171498998534,None,m,0,0.5225821000058204,471.0171498998534,None,,,,,m,,ptt,2022_Apr_11_1424,training+cueing,2021.1.4,59.95218213834401,
Stranger.png,Friend,Stranger,m,2.3,17,27,97,,,,,1,0,1,0,,,,,3,2,38,7,,,,,,,,,,,,,,,,,,,,,1.768,1.225,471.67422429984435,None,,,,,,,,,,,,,,,,,,,,472.2131674999837,472.7184554999694,0.5114347001072019,1.0116584000643343,472.70187779981643,472.81847739988007,472.70187779981643,472.81847739988007,472.8018238998484,None,c,0,0.5620120998937637,472.8018238998484,None,,,,,m,,ptt,2022_Apr_11_1424,training+cueing,2021.1.4,59.95218213834401,
Stranger.png,Stranger,Stranger,c,3,13,23,93,,,,,1,0,1,0,,,,,3,3,39,11,,,,,,,,,,,,,,,,,,,,,1.652,2.192,473.4915134999901,None,,,,,,,,,,,,,,,,,,,,474.0331631998997,474.5364477999974,0.5047828999813646,None,474.51981589989737,474.6364664998837,474.51981589989737,474.6364664998837,474.6198054999113,None,c,1,0.37597549986094236,474.6198054999113,None,,,,,m,,ptt,2022_Apr_11_1424,training+cueing,2021.1.4,59.95218213834401,
Self.png,You,Self ,c,1,11,21,91,,,,,1,0,1,0,,,,,3,4,40,0,,,,,,,,,,,,,,,,,,,,,1.648,2.478,475.12630689982325,None,,,,,,,,,,,,,,,,,,,,475.6672427000012,476.17099929996766,0.5070374000351876,1.0072368001565337,476.1543932999484,476.25433579995297,476.1543932999484,476.25433579995297,476.25433579995297,None,c,1,0.5974737999495119,476.25433579995297,None,,,,,m,,ptt,2022_Apr_11_1424,training+cueing,2021.1.4,59.95218213834401,
Stranger.png,Stranger,Stranger,c,3,13,23,93,,,,,1,0,1,0,,,,,3,5,41,8,,,,,,,,,,,,,,,,,,,,,1.77,2.044,476.97764459997416,None,,,,,,,,,,,,,,,,,,,,477.5372605000157,478.0389927998185,0.5043191001750529,1.0046191001310945,478.0223026999738,478.13904249994084,478.0223026999738,478.13904249994084,478.12237759982236,None,m,0,0.4414185001514852,478.12237759982236,None,,,,,m,,ptt,2022_Apr_11_1424,training+cueing,2021.1.4,59.95218213834401,
Friend.png,Friend,Friend,c,2,12,22,92,,,,,1,0,1,0,,,,,3,6,42,10,,,,,,,,,,,,,,,,,,,,,1.769,1.526,478.6954894999508,None,,,,,,,,,,,,,,,,,,,,479.23691629990935,479.7402257998474,0.5042992997914553,1.0045725998934358,479.72357169981115,479.84021259984,479.72357169981115,479.84021259984,479.82357479981147,None,c,1,0.4362075999379158,479.82357479981147,None,,,,,m,,ptt,2022_Apr_11_1424,training+cueing,2021.1.4,59.95218213834401,
Self.png,You,Self ,c,1,11,21,91,,,,,1,0,1,0,,,,,3,7,43,9,,,,,,,,,,,,,,,,,,,,,1.537,1.397,480.39677959983237,None,,,,,,,,,,,,,,,,,,,,480.93959089997225,481.44145959988236,0.5052684000693262,None,481.42482069996186,481.5250792999286,481.42482069996186,481.5250792999286,481.5250792999286,None,c,1,0.3507170998491347,481.5250792999286,None,,,,,m,,ptt,2022_Apr_11_1424,training+cueing,2021.1.4,59.95218213834401,
Friend.png,Stranger,Friend,m,3.2,19,29,99,,,,,1,0,1,0,,,,,3,8,44,5,,,,,,,,,,,,,,,,,,,,,1.497,2.417,481.9979616999626,None,,,,,,,,,,,,,,,,,,,,482.5382095000241,483.04259840003215,0.5054946001619101,None,483.02598809986375,483.1426585998852,483.02598809986375,483.1426585998852,483.1259698998183,None,c,0,0.301763900090009,483.1259698998183,None,,,,,m,,ptt,2022_Apr_11_1424,training+cueing,2021.1.4,59.95218213834401,
Self.png,Stranger,Self ,m,3.1,18,28,98,,,,,1,0,1,0,,,,,3,9,45,2,,,,,,,,,,,,,,,,,,,,,1.718,1.274,483.5663717999123,None,,,,,,,,,,,,,,,,,,,,484.10290509997867,484.61037299991585,0.5156966997310519,None,484.5937508000061,484.7104320998769,484.5937508000061,484.7104320998769,484.67441529990174,None,c,0,0.2093968999106437,484.67441529990174,None,,,,,m,,ptt,2022_Apr_11_1424,training+cueing,2021.1.4,59.95218213834401,
Self.png,Friend,Self ,m,2.1,16,26,96,,,,,1,0,1,0,,,,,3,10,46,1,,,,,,,,,,,,,,,,,,,,,1.556,1.255,485.0167790998239,None,,,,,,,,,,,,,,,,,,,,485.569112499943,486.0782496999018,0.5020305998623371,1.002307099988684,486.06162489997223,486.1782936998643,486.06162489997223,486.1782936998643,486.161632000003,None,None,0,,486.161632000003,None,,,,,m,,ptt,2022_Apr_11_1424,training+cueing,2021.1.4,59.95218213834401,
Stranger.png,You,Stranger,m,1.3,15,25,95,,,,,1,0,1,0,,,,,3,11,47,6,,,,,,,,,,,,,,,,,,,,,1.531,1.274,487.83362279995345,None,,,,,,,,,,,,,,,,,,,,488.3743479999248,488.88013479998335,0.5096138999797404,None,488.86350979981944,488.96354869985953,488.86350979981944,488.96354869985953,488.96354869985953,None,c,0,0.384303699946031,488.96354869985953,None,,,,,m,,ptt,2022_Apr_11_1424,training+cueing,2021.1.4,59.95218213834401,
Self.png,Stranger,Self ,m,3.1,18,28,98,,,,,1,0,1,0,,,,,4,0,48,2,,,,,,,,,,,,,,,,,,,,,1.649,1.988,489.46993250004016,None,,,,,,,,,,,,,,,,,,,,490.0112147999462,490.51463650004007,0.5061852000653744,1.0064612000714988,490.4979979998898,490.6147328999359,490.4979979998898,490.6147328999359,490.59799989988096,None,c,0,0.47780210012570024,490.59799989988096,None,,,,,m,,ptt,2022_Apr_11_1424,training+cueing,2021.1.4,59.95218213834401,
Friend.png,Friend,Friend,c,2,12,22,92,,,,,1,0,1,0,,,,,4,1,49,10,,,,,,,,,,,,,,,,,,,,,1.726,2.026,491.2617841998581,None,,,,,,,,,,,,,,,,,,,,491.74627320002764,492.2494701000396,0.5066917999647558,1.0068951998837292,492.232857799856,492.3494565000292,492.232857799856,492.3494565000292,492.3328058999032,None,m,0,0.4869518999475986,492.3328058999032,None,,,,,m,,ptt,2022_Apr_11_1424,training+cueing,2021.1.4,59.95218213834401,
Stranger.png,Stranger,Stranger,c,3,13,23,93,,,,,1,0,1,0,,,,,4,2,50,8,,,,,,,,,,,,,,,,,,,,,1.702,1.977,492.9562205998227,None,,,,,,,,,,,,,,,,,,,,493.51082829991356,494.0172196999192,0.5120014999993145,1.0122728000860661,494.00059019983746,494.11727039981633,494.00059019983746,494.11727039981633,494.10057280003093,None,m,0,0.6072435998357832,494.10057280003093,None,,,,,m,,ptt,2022_Apr_11_1424,training+cueing,2021.1.4,59.95218213834401,
Self.png,You,Self ,c,1,11,21,91,,,,,1,0,1,0,,,,,4,3,51,0,,,,,,,,,,,,,,,,,,,,,1.656,2.357,494.8408574999776,None,,,,,,,,,,,,,,,,,,,,495.38046699995175,495.88520469982177,0.5087018001358956,1.0089245000854135,495.86858009989373,495.96861790004186,495.86858009989373,495.96861790004186,495.96861790004186,None,c,1,0.4830982000567019,495.96861790004186,None,,,,,m,,ptt,2022_Apr_11_1424,training+cueing,2021.1.4,59.95218213834401,
Friend.png,Friend,Friend,c,2,12,22,92,,,,,1,0,1,0,,,,,4,4,52,4,,,,,,,,,,,,,,,,,,,,,1.45,2.031,496.5755802998319,None,,,,,,,,,,,,,,,,,,,,497.1149775998201,497.61985369981267,0.5064727996941656,1.0067755996715277,497.6031908998266,497.71987379994243,497.6031908998266,497.71987379994243,497.70320350001566,None,c,1,0.4606258999556303,497.70320350001566,None,,,,,m,,ptt,2022_Apr_11_1424,training+cueing,2021.1.4,59.95218213834401,
Stranger.png,You,Stranger,m,1.3,15,25,95,,,,,1,0,1,0,,,,,4,5,53,6,,,,,,,,,,,,,,,,,,,,,1.421,1.583,498.2933994999621,None,,,,,,,,,,,,,,,,,,,,498.8340376999695,499.3377345998306,0.507051799679175,None,499.3211123999208,499.4211663999595,499.3211123999208,499.4211663999595,499.4211663999595,None,c,0,0.3586256999988109,499.4211663999595,None,,,,,m,,ptt,2022_Apr_11_1424,training+cueing,2021.1.4,59.95218213834401,
Self.png,You,Self ,c,1,11,21,91,,,,,1,0,1,0,,,,,4,6,54,9,,,,,,,,,,,,,,,,,,,,,1.48,2.057,499.9108227000106,None,,,,,,,,,,,,,,,,,,,,500.4496321999468,500.95557909994386,0.5115342999342829,1.0118150000926107,500.93890059995465,501.03891879995354,500.93890059995465,501.03891879995354,501.03891879995354,None,m,0,0.45284330006688833,501.03891879995354,None,,,,,m,,ptt,2022_Apr_11_1424,training+cueing,2021.1.4,59.95218213834401,
Self.png,Friend,Self ,m,2.1,16,26,96,,,,,1,0,1,0,,,,,4,7,55,1,,,,,,,,,,,,,,,,,,,,,1.666,2.445,501.62929359986447,None,,,,,,,,,,,,,,,,,,,,502.17959519987926,502.69023690000176,0.5030026000458747,1.0033958998974413,502.673588699894,502.79036429990083,502.673588699894,502.79036429990083,502.77369609987363,None,m,1,0.8301197998225689,502.77369609987363,None,,,,,m,,ptt,2022_Apr_11_1424,training+cueing,2021.1.4,59.95218213834401,
Friend.png,Stranger,Friend,m,3.2,19,29,99,,,,,1,0,1,0,,,,,4,8,56,5,,,,,,,,,,,,,,,,,,,,,1.483,1.874,503.73172679985873,None,,,,,,,,,,,,,,,,,,,,504.2739098998718,504.77499770000577,0.5022614998742938,1.0025533998850733,504.75835649995133,504.8750723998528,504.75835649995133,504.8750723998528,504.85835749981925,None,c,0,0.40940049989148974,504.85835749981925,None,,,,,m,,ptt,2022_Apr_11_1424,training+cueing,2021.1.4,59.95218213834401,
Friend.png,You,Friend,m,1.2,14,24,94,,,,,1,0,1,0,,,,,4,9,57,3,,,,,,,,,,,,,,,,,,,,,1.762,2.114,505.3988288999535,None,,,,,,,,,,,,,,,,,,,,505.9391379998997,506.4429355999455,0.5070960000157356,1.0073625999502838,506.42621369985864,506.5262334998697,506.42621369985864,506.5262334998697,506.5262334998697,None,c,0,0.4855517998803407,506.5262334998697,None,,,,,m,,ptt,2022_Apr_11_1424,training+cueing,2021.1.4,59.95218213834401,
Stranger.png,Friend,Stranger,m,2.3,17,27,97,,,,,1,0,1,0,,,,,4,10,58,7,,,,,,,,,,,,,,,,,,,,,1.75,2.236,507.13295619981363,None,,,,,,,,,,,,,,,,,,,,507.6737744999118,508.1774563000072,0.5054838999640197,1.0057760998606682,508.16083989990875,508.27749879984185,508.16083989990875,508.27749879984185,508.2608282000292,None,None,0,,508.2608282000292,None,,,,,m,,ptt,2022_Apr_11_1424,training+cueing,2021.1.4,59.95218213834401,
Stranger.png,Stranger,Stranger,c,3,13,23,93,,,,,1,0,1,0,,,,,4,11,59,11,,,,,,,,,,,,,,,,,,,,,1.489,1.49,510.1159736998379,None,,,,,,,,,,,,,,,,,,,,510.67126089986414,511.17964240000583,0.500653299735859,1.000940699595958,511.1630016998388,511.27968789986335,511.1630016998388,511.27968789986335,511.27968789986335,None,m,0,0.48455699998885393,511.27968789986335,None,,,,,m,,ptt,2022_Apr_11_1424,training+cueing,2021.1.4,59.95218213834401,
Friend.png,Stranger,Friend,m,3.2,19,29,99,,,,,1,0,1,0,,,,,5,0,60,5,,,,,,,,,,,,,,,,,,,,,1.666,2.417,511.8897288998123,None,,,,,,,,,,,,,,,,,,,,512.4259845998604,512.9309201999567,0.5071084999945015,1.007399900117889,512.9142809000332,513.0309554999694,512.9142809000332,513.0309554999694,513.0142638999969,None,c,0,0.8295617001131177,513.0142638999969,None,,,,,m,,ptt,2022_Apr_11_1424,training+cueing,2021.1.4,59.95218213834401,
Self.png,You,Self ,c,1,11,21,91,,,,,1,0,1,0,,,,,5,1,61,9,,,,,,,,,,,,,,,,,,,,,1.66,1.43,513.9707007999532,None,,,,,,,,,,,,,,,,,,,,514.5202128000092,515.0324472000357,0.5082735999021679,None,515.0157574999612,515.115760799963,515.0157574999612,515.115760799963,515.115760799963,None,c,1,0.34403309994377196,515.115760799963,None,,,,,m,,ptt,2022_Apr_11_1424,training+cueing,2021.1.4,59.95218213834401,
Stranger.png,Friend,Stranger,m,2.3,17,27,97,,,,,1,0,1,0,,,,,5,2,62,7,,,,,,,,,,,,,,,,,,,,,1.672,1.762,515.5894781998359,None,,,,,,,,,,,,,,,,,,,,516.1462969998829,516.6502939998172,0.5089176001492888,None,516.633600599831,516.7503317999654,516.633600599831,516.7503317999654,516.7335806000046,None,m,1,0.35819400008767843,516.7335806000046,None,,,,,m,,ptt,2022_Apr_11_1424,training+cueing,2021.1.4,59.95218213834401,
Friend.png,Friend,Friend,c,2,12,22,92,,,,,1,0,1,0,,,,,5,3,63,4,,,,,,,,,,,,,,,,,,,,,1.78,2.087,517.2237054998986,None,,,,,,,,,,,,,,,,,,,,517.7622660999186,518.2680928998161,0.5105044001247734,1.0107885000761598,518.251467899885,518.3681665998884,518.251467899885,518.3681665998884,518.3514542998746,None,c,1,0.5322630000300705,518.3514542998746,None,,,,,m,,ptt,2022_Apr_11_1424,training+cueing,2021.1.4,59.95218213834401,
Friend.png,Friend,Friend,c,2,12,22,92,,,,,1,0,1,0,,,,,5,4,64,10,,,,,,,,,,,,,,,,,,,,,1.477,2.184,519.0077600998338,None,,,,,,,,,,,,,,,,,,,,519.5474173999391,520.0527388998307,0.5101750001776963,1.0102795001585037,520.0362249999307,520.1528050999623,520.0362249999307,520.1528050999623,520.1360491998494,None,m,0,0.5237978999502957,520.1360491998494,None,,,,,m,,ptt,2022_Apr_11_1424,training+cueing,2021.1.4,59.95218213834401,
Stranger.png,Stranger,Stranger,c,3,13,23,93,,,,,1,0,1,0,,,,,5,5,65,8,,,,,,,,,,,,,,,,,,,,,1.657,2.49,520.7931639000308,None,,,,,,,,,,,,,,,,,,,,521.3349788999185,521.8373584998772,0.5047107001300901,1.004965899977833,521.8207327998243,521.9374118999112,521.8207327998243,521.9374118999112,521.9207164999098,None,c,1,0.579033900052309,521.9207164999098,None,,,,,m,,ptt,2022_Apr_11_1424,training+cueing,2021.1.4,59.95218213834401,
Self.png,You,Self ,c,1,11,21,91,,,,,1,0,1,0,,,,,5,6,66,0,,,,,,,,,,,,,,,,,,,,,1.735,1.798,522.6276646000333,None,,,,,,,,,,,,,,,,,,,,523.1803812999278,523.688780099852,0.4993722001090646,0.9996572001837194,523.6553917999845,523.7553952999879,523.6553917999845,523.7553952999879,523.7553952999879,None,c,1,0.6163269998505712,523.7553952999879,None,,,,,m,,ptt,2022_Apr_11_1424,training+cueing,2021.1.4,59.95218213834401,
Friend.png,You,Friend,m,1.2,14,24,94,,,,,1,0,1,0,,,,,5,7,67,3,,,,,,,,,,,,,,,,,,,,,1.66,2.34,524.4959990999196,None,,,,,,,,,,,,,,,,,,,,525.034391899826,525.5401871998329,0.5109769999980927,None,525.5235574999824,525.623385899933,525.5235574999824,525.623385899933,525.623385899933,None,c,0,0.34831080003641546,525.623385899933,None,,,,,m,,ptt,2022_Apr_11_1424,training+cueing,2021.1.4,59.95218213834401,
Self.png,Stranger,Self ,m,3.1,18,28,98,,,,,1,0,1,0,,,,,5,8,68,2,,,,,,,,,,,,,,,,,,,,,1.796,2.389,526.0969563999679,None,,,,,,,,,,,,,,,,,,,,526.6381260999478,527.1411762998905,0.5046656001359224,1.00492940004915,527.1245802999474,527.2412224998698,527.1245802999474,527.2412224998698,527.2245539999567,None,m,1,0.5072994001675397,527.2245539999567,None,,,,,m,,ptt,2022_Apr_11_1424,training+cueing,2021.1.4,59.95218213834401,
Stranger.png,Stranger,Stranger,c,3,13,23,93,,,,,1,0,1,0,,,,,5,9,69,11,,,,,,,,,,,,,,,,,,,,,1.555,2.103,527.8647997998632,None,,,,,,,,,,,,,,,,,,,,528.4035814998206,528.9093438000418,0.5111387001816183,None,528.8926230999641,529.0093447999097,528.8926230999641,529.0093447999097,528.9926340999082,None,c,1,0.339222599985078,528.9926340999082,None,,,,,m,,ptt,2022_Apr_11_1424,training+cueing,2021.1.4,59.95218213834401,
Self.png,Friend,Self ,m,2.1,16,26,96,,,,,1,0,1,0,,,,,5,10,70,1,,,,,,,,,,,,,,,,,,,,,1.708,2.14,529.4665343000088,None,,,,,,,,,,,,,,,,,,,,530.0113633999135,530.5269518999849,0.499098900007084,0.9993879999965429,530.4936623999383,530.5936320000328,530.4936623999383,530.5936320000328,530.5936320000328,None,m,1,0.7060000998899341,530.5936320000328,None,,,,,m,,ptt,2022_Apr_11_1424,training+cueing,2021.1.4,59.95218213834401,
Stranger.png,You,Stranger,m,1.3,15,25,95,,,,,1,0,1,0,,,,,5,11,71,6,,,,,,,,,,,,,,,,,,,,,1.789,2.418,531.4340213998221,None,,,,,,,,,,,,,,,,,,,,531.9746177999768,532.4784110998735,0.5056113000027835,1.0059063998050988,532.4617196000181,532.5617072999012,532.4617196000181,532.5617072999012,532.5617072999012,None,c,0,1.0101375000085682,532.5617072999012,None,,,,,m,,ptt,2022_Apr_11_1424,training+cueing,2021.1.4,59.95218213834401,
Friend.png,Friend,Friend,c,2,12,22,92,,,,,1,0,1,0,,,,,6,0,72,4,,,,,,,,,,,,,,,,,,,,,1.73,1.843,533.7012683998328,None,,,,,,,,,,,,,,,,,,,,534.2429563000333,534.7467102999799,0.506796799832955,1.0070975997950882,534.730049100006,534.8467711999547,534.730049100006,534.8467711999547,534.8300658999942,None,c,1,0.5656957998871803,534.8300658999942,None,,,,,m,,ptt,2022_Apr_11_1424,training+cueing,2021.1.4,59.95218213834401,
Self.png,Stranger,Self ,m,3.1,18,28,98,,,,,1,0,1,0,,,,,6,1,73,2,,,,,,,,,,,,,,,,,,,,,1.425,2.023,535.520073399879,None,,,,,,,,,,,,,,,,,,,,536.0621620998718,536.5648481999524,0.5051070998888463,None,536.5482173999771,536.6649175998755,536.5482173999771,536.6649175998755,536.6482114000246,None,m,1,0.3315779999829829,536.6482114000246,None,,,,,m,,ptt,2022_Apr_11_1424,training+cueing,2021.1.4,59.95218213834401,
Friend.png,You,Friend,m,1.2,14,24,94,,,,,1,0,1,0,,,,,6,2,74,3,,,,,,,,,,,,,,,,,,,,,1.754,2.281,537.1056273998693,None,,,,,,,,,,,,,,,,,,,,537.6476047998294,538.1491580000147,0.5018345999997109,None,538.1325540998951,538.2325466999318,538.1325540998951,538.2325466999318,538.2325466999318,None,c,0,0.18731170007959008,538.2325466999318,None,,,,,m,,ptt,2022_Apr_11_1424,training+cueing,2021.1.4,59.95218213834401,
Stranger.png,Stranger,Stranger,c,3,13,23,93,,,,,1,0,1,0,,,,,6,3,75,11,,,,,,,,,,,,,,,,,,,,,1.59,1.661,538.5560702998191,None,,,,,,,,,,,,,,,,,,,,539.1149349999614,539.6171428998932,0.507896900177002,None,539.600356400013,539.7170714999083,539.600356400013,539.7170714999083,539.7003827998415,None,m,0,0.15939070004969835,539.7003827998415,None,,,,,m,,ptt,2022_Apr_11_1424,training+cueing,2021.1.4,59.95218213834401,
Self.png,You,Self ,c,1,11,21,91,,,,,1,0,1,0,,,,,6,4,76,0,,,,,,,,,,,,,,,,,,,,,1.461,2.374,539.9909975999035,None,,,,,,,,,,,,,,,,,,,,540.5309206999373,541.0345751999412,0.5059824001509696,1.0064978001173586,541.017940599937,541.1179631999694,541.017940599937,541.1179631999694,541.1179631999694,None,c,1,0.4217932999599725,541.1179631999694,None,,,,,m,,ptt,2022_Apr_11_1424,training+cueing,2021.1.4,59.95218213834401,
Stranger.png,Friend,Stranger,m,2.3,17,27,97,,,,,1,0,1,0,,,,,6,5,77,7,,,,,,,,,,,,,,,,,,,,,1.783,2.378,541.6747422998305,None,,,,,,,,,,,,,,,,,,,,542.2338721000124,542.7358539998531,0.505500900093466,1.0059046000242233,542.7191860999446,542.8360188999213,542.7191860999446,542.8360188999213,542.819289600011,None,m,1,0.5605770999100059,542.819289600011,None,,,,,m,,ptt,2022_Apr_11_1424,training+cueing,2021.1.4,59.95218213834401,
Self.png,Friend,Self ,m,2.1,16,26,96,,,,,1,0,1,0,,,,,6,6,78,1,,,,,,,,,,,,,,,,,,,,,1.775,1.343,543.5102605998982,None,,,,,,,,,,,,,,,,,,,,544.0473527000286,544.5538015000056,0.513190200086683,1.0135284999851137,544.5371633998584,544.6539072999731,544.5371633998584,544.6539072999731,544.6371637999546,None,c,0,0.45459809992462397,544.6371637999546,None,,,,,m,,ptt,2022_Apr_11_1424,training+cueing,2021.1.4,59.95218213834401,
Stranger.png,You,Stranger,m,1.3,15,25,95,,,,,1,0,1,0,,,,,6,7,79,6,,,,,,,,,,,,,,,,,,,,,1.428,1.47,545.2273160000332,None,,,,,,,,,,,,,,,,,,,,545.7674551999662,546.2716953000054,0.5058973000850528,None,546.255083899945,546.3550901999697,546.255083899945,546.3550901999697,546.3550901999697,None,m,1,0.352638800162822,546.3550901999697,None,,,,,m,,ptt,2022_Apr_11_1424,training+cueing,2021.1.4,59.95218213834401,
Self.png,You,Self ,c,1,11,21,91,,,,,1,0,1,0,,,,,6,8,80,9,,,,,,,,,,,,,,,,,,,,,1.562,1.466,546.8455586999189,None,,,,,,,,,,,,,,,,,,,,547.3850958999246,547.8895747000352,0.5093006999231875,None,547.8728646999225,547.9729020998348,547.8728646999225,547.9729020998348,547.9729020998348,None,c,1,0.36692719999700785,547.9729020998348,None,,,,,m,,ptt,2022_Apr_11_1424,training+cueing,2021.1.4,59.95218213834401,
Friend.png,Stranger,Friend,m,3.2,19,29,99,,,,,1,0,1,0,,,,,6,9,81,5,,,,,,,,,,,,,,,,,,,,,1.774,2.011,548.4643744998612,None,,,,,,,,,,,,,,,,,,,,549.0078034999315,549.5074117998593,0.5001145000569522,None,549.4907124999445,549.6074594999664,549.4907124999445,549.6074594999664,549.6074594999664,None,c,0,0.2683131000958383,549.6074594999664,None,,,,,m,,ptt,2022_Apr_11_1424,training+cueing,2021.1.4,59.95218213834401,
Friend.png,Friend,Friend,c,2,12,22,92,,,,,1,0,1,0,,,,,6,10,82,10,,,,,,,,,,,,,,,,,,,,,1.411,1.569,550.0143516999669,None,,,,,,,,,,,,,,,,,,,,550.586226799991,551.0919071999379,0.515562699874863,1.0159410999622196,551.0751924999058,551.1919678999111,551.0751924999058,551.1919678999111,551.1752162999474,None,m,0,0.8925560000352561,551.1752162999474,None,,,,,m,,ptt,2022_Apr_11_1424,training+cueing,2021.1.4,59.95218213834401,
Stranger.png,Stranger,Stranger,c,3,13,23,93,,,,,1,0,1,0,,,,,6,11,83,8,,,,,,,,,,,,,,,,,,,,,1.52,2.437,552.198448299896,None,,,,,,,,,,,,,,,,,,,,552.7390236000065,553.2434483999386,0.5074150001164526,1.0077145001851022,553.2267527999356,553.3435011999682,553.2267527999356,553.3435011999682,553.326745599974,None,m,0,0.5330326000694185,553.326745599974,None,,,,,m,,ptt,2022_Apr_11_1424,training+cueing,2021.1.4,59.95218213834401,
Friend.png,Friend,Friend,c,2,12,22,92,,,,,1,0,1,0,,,,,7,0,84,4,,,,,,,,,,,,,,,,,,,,,1.552,1.794,553.9839831998106,None,,,,,,,,,,,,,,,,,,,,554.524094699882,555.0280384998769,0.5055086999200284,None,555.011400999967,555.1281063000206,555.011400999967,555.1281063000206,555.1114760998171,None,c,1,0.22029990004375577,555.1114760998171,None,,,,,m,,ptt,2022_Apr_11_1424,training+cueing,2021.1.4,59.95218213834401,
Stranger.png,Friend,Stranger,m,2.3,17,27,97,,,,,1,0,1,0,,,,,7,1,85,7,,,,,,,,,,,,,,,,,,,,,1.492,1.512,555.4677158999257,None,,,,,,,,,,,,,,,,,,,,556.0067288000137,556.512509000022,0.5106961999554187,1.0110361999832094,556.4957780998666,556.6125403000042,556.4957780998666,556.6125403000042,556.5958432999905,None,None,0,,556.5958432999905,None,,,,,m,,ptt,2022_Apr_11_1424,training+cueing,2021.1.4,59.95218213834401,
