Image,Name,Face,CorrAns,Match,Face_onset,CResponse_onset,IResponse_onset,Match.thisRepN,Match.thisTrialN,Match.thisN,Match.thisIndex,Blocks.thisRepN,Blocks.thisTrialN,Blocks.thisN,Blocks.thisIndex,trials.thisRepN,trials.thisTrialN,trials.thisN,trials.thisIndex,trials_2.thisRepN,trials_2.thisTrialN,trials_2.thisN,trials_2.thisIndex,text.started,text.stopped,p1.started,p1.stopped,MatchInstructions.started,MatchInstructions.stopped,Name1.started,Name1.stopped,Face_Relevance.started,Face_Relevance.stopped,MismatchInstructions.started,MismatchInstructions.stopped,Rest_trainingInstruct.started,Rest_trainingInstruct.stopped,next8.keys,next8.rt,next8.started,next8.stopped,Ready.started,Ready.stopped,delay_one_picked,delay_two_picked,blank0.started,blank0.stopped,FixationCross1.started,FixationCross1.stopped,Name3.started,Name3.stopped,Face_Relevance3.started,Face_Relevance3.stopped,responseTime.started,responseTime.stopped,resp.keys,resp.corr,resp.rt,resp.started,resp.stopped,Accuracy.started,Accuracy.stopped,questions.started,questions.stopped,p2.started,p2.stopped,FixationCross3.started,FixationCross3.stopped,port_Face_onset.started,port_Face_onset.stopped,Name4.started,Name4.stopped,Face_Relevance4.started,Face_Relevance4.stopped,responseTime2.started,responseTime2.stopped,Response.keys,Response.corr,Response.rt,Response.started,Response.stopped,p3.started,p3.stopped,Finish.started,Finish.stopped,gender,age,participant,date,expName,psychopyVersion,frameRate,
Stranger.png,Stranger,,,,,,,0,0,0,2,,,,,,,,,,,,,21.403393700020388,None,0.0115203398745507,0.5373180399183184,38.67402969999239,None,56.094394400017336,None,56.094394400017336,None,,,,,,,,,,,,,,,,,,,,,,,,,,,,,,,,,,,,,,,,,,,,,,,,,,,,,m,,pu,2022_Apr_12_1146,training+cueing,2021.1.4,59.967569570680396,
Self.png,You,,,,,,,0,1,1,0,,,,,,,,,,,,,,,,,,,75.99443379999138,None,75.99443379999138,None,,,,,,,,,,,,,,,,,,,,,,,,,,,,,,,,,,,,,,,,,,,,,,,,,,,,,m,,pu,2022_Apr_12_1146,training+cueing,2021.1.4,59.967569570680396,
Friend.png,Friend,,,,,,,0,2,2,1,,,,,,,,,,,,,,,,,,,95.98884169990197,None,95.98884169990197,None,,,,,,,,,,,,,,,,,,,,,,,,,,,,,,,,,,,,,,,,,,,,,,,,,,,,,m,,pu,2022_Apr_12_1146,training+cueing,2021.1.4,59.967569570680396,
Self.png,Friend,Self ,m,2.1,16,26,96,,,,,0,0,0,0,0,0,0,1,,,,,,,,,,,,,,,115.95010229991749,None,151.57606779993512,None,space,0.562394900014624,2.0085335297044367,None,154.14306539995596,None,1.528,2.449,157.15902010002173,None,157.8105721999891,158.31414199993014,158.2975108998362,158.4141159998253,158.2975108998362,158.4141159998253,158.39744520001113,None,m,1,1.3896834999322891,158.39744520001113,None,159.8195199999027,None,,,,,,,,,,,,,,,,,,,,,,,,m,,pu,2022_Apr_12_1146,training+cueing,2021.1.4,59.967569570680396,
Self.png,You,Self ,c,1,11,21,91,,,,,0,0,0,0,0,1,1,9,,,,,,,,,,,,,,,,,,,,,,,,,1.627,2.182,160.23249369999394,None,160.77335799997672,161.2829086999409,161.26631310000084,161.36633659992367,161.26631310000084,161.36633659992367,161.36633659992367,None,c,1,1.5566084999591112,161.36633659992367,None,162.95108060003258,None,,,,,,,,,,,,,,,,,,,,,,,,m,,pu,2022_Apr_12_1146,training+cueing,2021.1.4,59.967569570680396,
Friend.png,Stranger,Friend,m,3.2,19,29,99,,,,,0,0,0,0,0,2,2,5,,,,,,,,,,,,,,,,,,,,,,,,,1.488,1.805,163.35133269988,None,163.891310099978,164.401934399968,164.3852756000124,164.5020557998214,164.3852756000124,164.5020557998214,164.48531389981508,None,c,0,1.2697942999657243,164.48531389981508,None,165.7863415000029,None,,,,,,,,,,,,,,,,,,,,,,,,m,,pu,2022_Apr_12_1146,training+cueing,2021.1.4,59.967569570680396,
Stranger.png,You,Stranger,m,1.3,15,25,95,,,,,0,0,0,0,0,3,3,6,,,,,,,,,,,,,,,,,,,,,,,,,1.539,1.636,166.18654769985005,None,166.71898989984766,167.22068529995158,167.2039805999957,167.30401810002513,167.2039805999957,167.30401810002513,167.30401810002513,None,c,0,0.7550801998004317,167.30401810002513,None,168.08818880002946,None,,,,,,,,,,,,,,,,,,,,,,,,m,,pu,2022_Apr_12_1146,training+cueing,2021.1.4,59.967569570680396,
Self.png,You,Self ,c,1,11,21,91,,,,,0,0,0,0,0,4,4,0,,,,,,,,,,,,,,,,,,,,,,,,,1.632,2.231,168.48837809986435,None,169.02201949991286,169.52241279999726,169.50569289992563,169.60569909983315,169.50569289992563,169.60569909983315,169.60569909983315,None,c,1,0.965302900178358,169.60569909983315,None,170.58868239982985,None,,,,,,,,,,,,,,,,,,,,,,,,m,,pu,2022_Apr_12_1146,training+cueing,2021.1.4,59.967569570680396,
Stranger.png,Friend,Stranger,m,2.3,17,27,97,,,,,0,0,0,0,0,5,5,7,,,,,,,,,,,,,,,,,,,,,,,,,1.586,1.232,170.99015349987894,None,171.52264470001683,172.02426550001837,172.00752320000902,172.12428929982707,172.00752320000902,172.12428929982707,172.1075377999805,None,m,1,0.7194181999657303,172.1075377999805,None,172.85831719986163,None,,,,,,,,,,,,,,,,,,,,,,,,m,,pu,2022_Apr_12_1146,training+cueing,2021.1.4,59.967569570680396,
Friend.png,Friend,Friend,c,2,12,22,92,,,,,0,0,0,0,0,6,6,10,,,,,,,,,,,,,,,,,,,,,,,,,1.613,2.292,173.2584538999945,None,173.78602329990827,174.29259500000626,174.27587249991484,174.39259059983306,174.27587249991484,174.39259059983306,174.37584039987996,None,c,1,0.7392138000577688,174.37584039987996,None,175.14324669982307,None,,,,,,,,,,,,,,,,,,,,,,,,m,,pu,2022_Apr_12_1146,training+cueing,2021.1.4,59.967569570680396,
Self.png,Stranger,Self ,m,3.1,18,28,98,,,,,0,0,0,0,0,7,7,2,,,,,,,,,,,,,,,,,,,,,,,,,1.551,1.872,175.54373189993203,None,176.07865289994515,176.57777770003304,176.57777770003304,176.67789559997618,176.57777770003304,176.67789559997618,176.67789559997618,None,c,0,0.741149399895221,176.67789559997618,None,177.4489133998286,None,,,,,,,,,,,,,,,,,,,,,,,,m,,pu,2022_Apr_12_1146,training+cueing,2021.1.4,59.967569570680396,
Friend.png,Friend,Friend,c,2,12,22,92,,,,,0,0,0,0,0,8,8,4,,,,,,,,,,,,,,,,,,,,,,,,,1.604,2.463,177.8618417000398,None,178.3921097998973,178.89592589996755,178.87927549984306,178.9960270000156,178.87927549984306,178.9960270000156,178.97954489989206,None,c,1,1.3034928000997752,178.97954489989206,None,180.31224989984185,None,,,,,,,,,,,,,,,,,,,,,,,,m,,pu,2022_Apr_12_1146,training+cueing,2021.1.4,59.967569570680396,
Stranger.png,Stranger,Stranger,c,3,13,23,93,,,,,0,0,0,0,0,9,9,8,,,,,,,,,,,,,,,,,,,,,,,,,1.545,1.999,180.7139466998633,None,181.26115479995497,181.76472619990818,181.74802179983817,181.86480299988762,181.74802179983817,181.86480299988762,181.84801910002716,None,m,0,0.9470892001409084,181.84801910002716,None,182.81949479994364,None,,,,,,,,,,,,,,,,,,,,,,,,m,,pu,2022_Apr_12_1146,training+cueing,2021.1.4,59.967569570680396,
Stranger.png,Stranger,Stranger,c,3,13,23,93,,,,,0,0,0,0,0,10,10,11,,,,,,,,,,,,,,,,,,,,,,,,,1.523,1.432,183.23270589997992,None,183.76127150002867,184.26654669991694,184.2498339000158,184.3666689998936,184.2498339000158,184.3666689998936,184.34988659992814,None,m,0,0.8611755000893027,184.34988659992814,None,185.2339965000283,None,,,,,,,,,,,,,,,,,,,,,,,,m,,pu,2022_Apr_12_1146,training+cueing,2021.1.4,59.967569570680396,
Friend.png,You,Friend,m,1.2,14,24,94,,,,,0,0,0,0,0,11,11,3,,,,,,,,,,,,,,,,,,,,,,,,,1.467,1.232,185.6341782999225,None,186.17872079997323,186.68509709998034,186.66841789986938,186.76835959986784,186.66841789986938,186.76835959986784,186.76835959986784,None,c,0,0.8266540998592973,186.76835959986784,None,187.61906729987822,None,,,,,,,,,,,,,,,,,,,,,,,,m,,pu,2022_Apr_12_1146,training+cueing,2021.1.4,59.967569570680396,
Friend.png,Friend,Friend,c,2,12,22,92,,,,,0,0,0,0,,,,,0,0,0,10,,,,,,,,,,,,,,,,,,,191.0217885999009,None,1.793,1.942,194.54597999993712,None,,,,,,,,,,,,,,,,188.01968199992552,None,0.014650729950517416,0.513663929887116,195.16207229997963,195.6749861999415,0.5062281403224915,1.0064298403449357,195.65832899999805,195.77497679996304,195.65832899999805,195.77497679996304,195.7582540998701,None,c,1,0.8608587000053376,195.7582540998701,None,,,,,m,,pu,2022_Apr_12_1146,training+cueing,2021.1.4,59.967569570680396,
Self.png,Friend,Self ,m,2.1,16,26,96,,,,,0,0,0,0,,,,,0,1,1,1,,,,,,,,,,,,,,,,,,,,,1.699,2.163,196.74932229984552,None,,,,,,,,,,,,,,,,,,,,197.28595469985157,197.79327549994923,0.5132148899137974,1.013445490039885,197.7765130000189,197.8934364998713,197.7765130000189,197.8934364998713,197.87682819995098,None,c,0,1.0942444999236614,197.87682819995098,None,,,,,m,,pu,2022_Apr_12_1146,training+cueing,2021.1.4,59.967569570680396,
Self.png,You,Self ,c,1,11,21,91,,,,,0,0,0,0,,,,,0,2,2,9,,,,,,,,,,,,,,,,,,,,,1.759,1.36,199.10053929989226,None,,,,,,,,,,,,,,,,,,,,199.64849339984357,200.16159439994954,0.5087245900649577,1.009069090243429,200.14479249995202,200.24495549988933,200.14479249995202,200.24495549988933,200.24495549988933,None,c,1,1.1420781998895109,200.24495549988933,None,,,,,m,,pu,2022_Apr_12_1146,training+cueing,2021.1.4,59.967569570680396,
Stranger.png,Friend,Stranger,m,2.3,17,27,97,,,,,0,0,0,0,,,,,0,3,3,7,,,,,,,,,,,,,,,,,,,,,1.566,1.279,201.5182983998675,None,,,,,,,,,,,,,,,,,,,,202.06011900003068,202.5636440999806,0.5056079900823534,1.005893690045923,202.54688939987682,202.66361239994876,202.54688939987682,202.66361239994876,202.64690739987418,None,None,0,,202.64690739987418,None,,,,,m,,pu,2022_Apr_12_1146,training+cueing,2021.1.4,59.967569570680396,
Friend.png,Stranger,Friend,m,3.2,19,29,99,,,,,0,0,0,0,,,,,0,4,4,5,,,,,,,,,,,,,,,,,,,,,1.407,2.367,204.3190953999292,None,,,,,,,,,,,,,,,,,,,,204.86086509982124,205.36536980001256,0.5074231901671737,1.0077003901824355,205.34869529982097,205.4653765000403,205.34869529982097,205.4653765000403,205.44866569992155,None,m,1,1.1384425000287592,205.44866569992155,None,,,,,m,,pu,2022_Apr_12_1146,training+cueing,2021.1.4,59.967569570680396,
Self.png,You,Self ,c,1,11,21,91,,,,,0,0,0,0,,,,,0,5,5,0,,,,,,,,,,,,,,,,,,,,,1.488,2.278,206.7225881998893,None,,,,,,,,,,,,,,,,,,,,207.26323159993626,207.7671882000286,0.5073939901776612,1.0075916901696473,207.75052429991774,207.85059839999303,207.75052429991774,207.85059839999303,207.85059839999303,None,c,1,0.9604503000155091,207.85059839999303,None,,,,,m,,pu,2022_Apr_12_1146,training+cueing,2021.1.4,59.967569570680396,
Stranger.png,Stranger,Stranger,c,3,13,23,93,,,,,0,0,0,0,,,,,0,6,6,11,,,,,,,,,,,,,,,,,,,,,1.404,2.143,208.94093179982156,None,,,,,,,,,,,,,,,,,,,,209.48345579998568,209.98540879995562,0.5061683899257332,1.0064448900520802,209.96873299987055,210.0854569999501,209.96873299987055,210.0854569999501,210.06874369992875,None,m,0,1.2224140001926571,210.06874369992875,None,,,,,m,,pu,2022_Apr_12_1146,training+cueing,2021.1.4,59.967569570680396,
Stranger.png,Stranger,Stranger,c,3,13,23,93,,,,,0,0,0,0,,,,,0,7,7,8,,,,,,,,,,,,,,,,,,,,,1.534,1.599,211.4261185999494,None,,,,,,,,,,,,,,,,,,,,211.96476959995925,212.47056659986265,0.5109497900120914,1.0113492901436985,212.45390599989332,212.57060309988447,212.45390599989332,212.57060309988447,212.55383999994956,None,c,1,1.1051332999486476,212.55383999994956,None,,,,,m,,pu,2022_Apr_12_1146,training+cueing,2021.1.4,59.967569570680396,
Friend.png,Friend,Friend,c,2,12,22,92,,,,,0,0,0,0,,,,,0,8,8,4,,,,,,,,,,,,,,,,,,,,,1.504,1.554,213.79439409985207,None,,,,,,,,,,,,,,,,,,,,214.33442069985904,214.83889300003648,0.5070186899974942,1.0073005901649594,214.82224789983593,214.9393409998156,214.82224789983593,214.9393409998156,214.92225149995647,None,m,0,1.0886983999516815,214.92225149995647,None,,,,,m,,pu,2022_Apr_12_1146,training+cueing,2021.1.4,59.967569570680396,
Stranger.png,You,Stranger,m,1.3,15,25,95,,,,,0,0,0,0,,,,,0,9,9,6,,,,,,,,,,,,,,,,,,,,,1.509,1.836,216.14552949997596,None,,,,,,,,,,,,,,,,,,,,216.69154100003652,217.1906307998579,0.5142100902739912,1.0144055902492255,217.1906307998579,217.29067709995434,217.1906307998579,217.29067709995434,217.29067709995434,None,None,0,,217.29067709995434,None,,,,,m,,pu,2022_Apr_12_1146,training+cueing,2021.1.4,59.967569570680396,
Self.png,Stranger,Self ,m,3.1,18,28,98,,,,,0,0,0,0,,,,,0,10,10,2,,,,,,,,,,,,,,,,,,,,,1.533,1.336,218.91615499998443,None,,,,,,,,,,,,,,,,,,,,219.45590820000507,219.95931099983864,0.5055635902099311,1.0058127902448177,219.94264869997278,220.05936139984988,219.94264869997278,220.05936139984988,220.0426473999396,None,m,1,0.9764029998332262,220.0426473999396,None,,,,,m,,pu,2022_Apr_12_1146,training+cueing,2021.1.4,59.967569570680396,
Friend.png,You,Friend,m,1.2,14,24,94,,,,,0,0,0,0,,,,,0,11,11,3,,,,,,,,,,,,,,,,,,,,,1.683,1.21,221.15004409989342,None,,,,,,,,,,,,,,,,,,,,221.68967580003664,222.19427319988608,0.506695989985019,1.0069451900199056,222.17756729992107,222.27760159992613,222.17756729992107,222.27760159992613,222.27760159992613,None,m,1,1.3175687999464571,222.27760159992613,None,,,,,m,,pu,2022_Apr_12_1146,training+cueing,2021.1.4,59.967569570680396,
Friend.png,Friend,Friend,c,2,12,22,92,,,,,0,0,0,0,,,,,1,0,12,10,,,,,,,,,,,,,,,,,,,,,1.466,1.556,223.71811160002835,None,,,,,,,,,,,,,,,,,,,,224.25889279996045,224.76282979990356,0.506658990168944,1.0068481902126223,224.74616779992357,224.86283329990692,224.74616779992357,224.86283329990692,224.84609450004064,None,c,1,1.0049785999581218,224.84609450004064,None,,,,,m,,pu,2022_Apr_12_1146,training+cueing,2021.1.4,59.967569570680396,
Friend.png,Stranger,Friend,m,3.2,19,29,99,,,,,0,0,0,0,,,,,1,1,13,5,,,,,,,,,,,,,,,,,,,,,1.549,1.75,225.9867101998534,None,,,,,,,,,,,,,,,,,,,,226.52718309988268,227.03112980001606,0.5069690903183073,1.0072599900886416,227.0144360999111,227.13102149986662,227.0144360999111,227.13102149986662,227.11439949995838,None,c,0,1.2966882002074271,227.11439949995838,None,,,,,m,,pu,2022_Apr_12_1146,training+cueing,2021.1.4,59.967569570680396,
Self.png,You,Self ,c,1,11,21,91,,,,,0,0,0,0,,,,,1,2,14,9,,,,,,,,,,,,,,,,,,,,,1.447,2.062,228.5377434999682,None,,,,,,,,,,,,,,,,,,,,229.07635229988955,229.58292760001495,0.5109352897852659,1.0111680899281055,229.56627799989656,229.6663019999396,229.56627799989656,229.6663019999396,229.6663019999396,None,c,1,1.0327322001103312,229.6663019999396,None,,,,,m,,pu,2022_Apr_12_1146,training+cueing,2021.1.4,59.967569570680396,
Self.png,You,Self ,c,1,11,21,91,,,,,0,0,0,0,,,,,1,3,15,0,,,,,,,,,,,,,,,,,,,,,1.632,2.324,230.82366919983178,None,,,,,,,,,,,,,,,,,,,,231.36205139989033,231.86787840002216,0.5114093900192529,1.0115501899272203,231.8514201999642,231.95131449983455,231.8514201999642,231.95131449983455,231.95131449983455,None,c,1,0.6678257000166923,231.95131449983455,None,,,,,m,,pu,2022_Apr_12_1146,training+cueing,2021.1.4,59.967569570680396,
Stranger.png,Stranger,Stranger,c,3,13,23,93,,,,,0,0,0,0,,,,,1,4,16,11,,,,,,,,,,,,,,,,,,,,,1.708,2.384,232.74532949994318,None,,,,,,,,,,,,,,,,,,,,233.28224289999343,233.78596999985166,0.5047141900286078,1.004969690227881,233.76929999981076,233.8859859998338,233.76929999981076,233.8859859998338,233.8693484000396,None,m,0,1.085762299830094,233.8693484000396,None,,,,,m,,pu,2022_Apr_12_1146,training+cueing,2021.1.4,59.967569570680396,
Friend.png,Friend,Friend,c,2,12,22,92,,,,,0,0,0,0,,,,,1,5,17,4,,,,,,,,,,,,,,,,,,,,,1.461,1.941,235.07808869984,None,,,,,,,,,,,,,,,,,,,,235.6337607000023,236.13769949995913,0.5078570200130343,1.0081128200981766,236.12100929999724,236.23773069982417,236.12100929999724,236.23773069982417,236.22100469982252,None,c,1,1.3101351000368595,236.22100469982252,None,,,,,m,,pu,2022_Apr_12_1146,training+cueing,2021.1.4,59.967569570680396,
Self.png,Stranger,Self ,m,3.1,18,28,98,,,,,0,0,0,0,,,,,1,6,18,2,,,,,,,,,,,,,,,,,,,,,1.486,1.768,237.66108500002883,None,,,,,,,,,,,,,,,,,,,,238.20275559998117,238.7062786000315,0.5057031898759305,1.005880189826712,238.68959039985202,238.80624730000272,238.68959039985202,238.80624730000272,238.7895511998795,None,m,1,1.3175916001200676,238.7895511998795,None,,,,,m,,pu,2022_Apr_12_1146,training+cueing,2021.1.4,59.967569570680396,
Stranger.png,You,Stranger,m,1.3,15,25,95,,,,,0,0,0,0,,,,,1,7,19,6,,,,,,,,,,,,,,,,,,,,,1.551,1.653,240.22992910002358,None,,,,,,,,,,,,,,,,,,,,240.76985949999653,241.2747372998856,0.5071527902036905,1.0073504901956767,241.2580848999787,241.3580975998193,241.2580848999787,241.3580975998193,241.3580975998193,None,m,1,1.0369441001676023,241.3580975998193,None,,,,,m,,pu,2022_Apr_12_1146,training+cueing,2021.1.4,59.967569570680396,
Friend.png,You,Friend,m,1.2,14,24,94,,,,,0,0,0,0,,,,,1,8,20,3,,,,,,,,,,,,,,,,,,,,,1.79,2.222,242.5319032999687,None,,,,,,,,,,,,,,,,,,,,243.06863530003466,243.57637969986536,0.514795689843595,1.0150102898478508,243.55973919993266,243.65969279990532,243.55973919993266,243.65969279990532,243.65969279990532,None,m,1,1.087373400107026,243.65969279990532,None,,,,,m,,pu,2022_Apr_12_1146,training+cueing,2021.1.4,59.967569570680396,
Stranger.png,Friend,Stranger,m,2.3,17,27,97,,,,,0,0,0,0,,,,,1,9,21,7,,,,,,,,,,,,,,,,,,,,,1.527,1.358,244.88334059994668,None,,,,,,,,,,,,,,,,,,,,245.42525870003738,245.92814119998366,0.5056407898664474,1.0059092899318784,245.91142320004292,246.02812050003558,245.91142320004292,246.02812050003558,246.0114048998803,None,c,0,0.9115645999554545,246.0114048998803,None,,,,,m,,pu,2022_Apr_12_1146,training+cueing,2021.1.4,59.967569570680396,
Stranger.png,Stranger,Stranger,c,3,13,23,93,,,,,0,0,0,0,,,,,1,10,22,8,,,,,,,,,,,,,,,,,,,,,1.526,1.237,247.05243639997207,None,,,,,,,,,,,,,,,,,,,,247.59254290000536,248.0963180998806,0.5063975900411606,1.0067122899927199,248.0796185999643,248.19635939993896,248.0796185999643,248.19635939993896,248.17965179984458,None,c,1,1.031530800042674,248.17965179984458,None,,,,,m,,pu,2022_Apr_12_1146,training+cueing,2021.1.4,59.967569570680396,
Self.png,Friend,Self ,m,2.1,16,26,96,,,,,0,0,0,0,,,,,1,11,23,1,,,,,,,,,,,,,,,,,,,,,1.742,2.054,249.33809769991785,None,,,,,,,,,,,,,,,,,,,,249.87705400004052,250.38131739990786,0.5094065901357681,1.0096734901890159,250.36465759994462,250.48132109991275,250.36465759994462,250.48132109991275,250.46462029987015,None,m,1,0.9865276000928134,250.46462029987015,None,,,,,m,,pu,2022_Apr_12_1146,training+cueing,2021.1.4,59.967569570680396,
Self.png,Friend,Self ,m,2.1,16,26,96,,,,,0,0,0,0,,,,,2,0,24,1,,,,,,,,,,,,,,,,,,,,,1.565,1.684,251.58835209999233,None,,,,,,,,,,,,,,,,,,,,252.126085099997,252.63297759997658,0.5107556900475174,1.01214439002797,252.61628569988534,252.73298550001346,252.61628569988534,252.73298550001346,252.7162746998947,None,m,1,0.7348500001244247,252.7162746998947,None,,,,,m,,pu,2022_Apr_12_1146,training+cueing,2021.1.4,59.967569570680396,
Friend.png,Friend,Friend,c,2,12,22,92,,,,,0,0,0,0,,,,,2,1,25,10,,,,,,,,,,,,,,,,,,,,,1.551,2.416,253.57463489985093,None,,,,,,,,,,,,,,,,,,,,254.11288010003045,254.61771719995886,0.5093926901463419,1.0097533899825066,254.60100849997252,254.71776929986663,254.60100849997252,254.71776929986663,254.7009958999697,None,c,1,0.9581418000161648,254.7009958999697,None,,,,,m,,pu,2022_Apr_12_1146,training+cueing,2021.1.4,59.967569570680396,
Self.png,You,Self ,c,1,11,21,91,,,,,0,0,0,0,,,,,2,2,26,0,,,,,,,,,,,,,,,,,,,,,1.718,2.37,255.7907982999459,None,,,,,,,,,,,,,,,,,,,,256.33233490004204,256.83599479985423,0.507335290312767,1.007986190263182,256.81931960000657,256.91936389985494,256.81931960000657,256.91936389985494,256.91936389985494,None,c,1,0.5798334998544306,256.91936389985494,None,,,,,m,,pu,2022_Apr_12_1146,training+cueing,2021.1.4,59.967569570680396,
Stranger.png,Stranger,Stranger,c,3,13,23,93,,,,,0,0,0,0,,,,,2,3,27,8,,,,,,,,,,,,,,,,,,,,,1.605,1.446,257.6271420000121,None,,,,,,,,,,,,,,,,,,,,258.1690374999307,258.67061589984223,0.500478990143165,1.0008106902241707,258.653959200019,258.7706520999782,258.653959200019,258.7706520999782,258.7706520999782,None,c,1,0.9524093000218272,258.7706520999782,None,,,,,m,,pu,2022_Apr_12_1146,training+cueing,2021.1.4,59.967569570680396,
Stranger.png,Stranger,Stranger,c,3,13,23,93,,,,,0,0,0,0,,,,,2,4,28,11,,,,,,,,,,,,,,,,,,,,,1.755,1.967,259.8460646998137,None,,,,,,,,,,,,,,,,,,,,260.38446169998497,260.8888965998776,0.5084274900145829,1.0086560901254416,260.87225320003927,260.9889703998342,260.87225320003927,260.9889703998342,260.97222170000896,None,c,1,0.7987488000653684,260.97222170000896,None,,,,,m,,pu,2022_Apr_12_1146,training+cueing,2021.1.4,59.967569570680396,
Self.png,Stranger,Self ,m,3.1,18,28,98,,,,,0,0,0,0,,,,,2,5,29,2,,,,,,,,,,,,,,,,,,,,,1.581,1.224,261.8963611999061,None,,,,,,,,,,,,,,,,,,,,262.437601899961,262.9407152000349,0.5052518900483847,1.0052185899112374,262.9239864998963,263.0404173999559,262.9239864998963,263.0404173999559,263.0236881999299,None,m,1,0.9073762998450547,263.0236881999299,None,,,,,m,,pu,2022_Apr_12_1146,training+cueing,2021.1.4,59.967569570680396,
Stranger.png,You,Stranger,m,1.3,15,25,95,,,,,0,0,0,0,,,,,2,6,30,6,,,,,,,,,,,,,,,,,,,,,1.713,2.108,264.0643581999466,None,,,,,,,,,,,,,,,,,,,,264.6038152000401,265.1086693999823,0.5072082900442183,1.007451290031895,265.0919562999625,265.1919592998456,265.0919562999625,265.1919592998456,265.1919592998456,None,m,1,1.0271079000085592,265.1919592998456,None,,,,,m,,pu,2022_Apr_12_1146,training+cueing,2021.1.4,59.967569570680396,
Friend.png,Stranger,Friend,m,3.2,19,29,99,,,,,0,0,0,0,,,,,2,7,31,5,,,,,,,,,,,,,,,,,,,,,1.412,2.039,266.3488765999209,None,,,,,,,,,,,,,,,,,,,,266.8899713999126,267.3936959998682,0.5078212900552899,1.0080376900732517,267.3770135999657,267.49362950003706,267.3770135999657,267.49362950003706,267.47692219982855,None,m,1,1.0782161001116037,267.47692219982855,None,,,,,m,,pu,2022_Apr_12_1146,training+cueing,2021.1.4,59.967569570680396,
Friend.png,Friend,Friend,c,2,12,22,92,,,,,0,0,0,0,,,,,2,8,32,4,,,,,,,,,,,,,,,,,,,,,1.656,1.771,268.6852676998824,None,,,,,,,,,,,,,,,,,,,,269.2237469998654,269.728641099995,0.5067096902057528,1.0070415900554508,269.711932499893,269.82866479991935,269.711932499893,269.82866479991935,269.81191099993885,None,m,0,1.1432185999583453,269.81191099993885,None,,,,,m,,pu,2022_Apr_12_1146,training+cueing,2021.1.4,59.967569570680396,
Stranger.png,Friend,Stranger,m,2.3,17,27,97,,,,,0,0,0,0,,,,,2,9,33,7,,,,,,,,,,,,,,,,,,,,,1.587,2.492,271.0855524998624,None,,,,,,,,,,,,,,,,,,,,271.62146950000897,272.1303691000212,0.5007734601385891,1.0010339601431042,272.113696699962,272.2304193000309,272.113696699962,272.2304193000309,272.2304193000309,None,c,0,0.9647017999086529,272.2304193000309,None,,,,,m,,pu,2022_Apr_12_1146,training+cueing,2021.1.4,59.967569570680396,
Self.png,You,Self ,c,1,11,21,91,,,,,0,0,0,0,,,,,2,10,34,9,,,,,,,,,,,,,,,,,,,,,1.422,1.715,273.3205493998248,None,,,,,,,,,,,,,,,,,,,,273.8707200998906,274.382038799813,0.5058347901795059,1.0060898901429027,274.36535009997897,274.4653411998879,274.36535009997897,274.4653411998879,274.4653411998879,None,c,1,0.8417744999751449,274.4653411998879,None,,,,,m,,pu,2022_Apr_12_1146,training+cueing,2021.1.4,59.967569570680396,
Friend.png,You,Friend,m,1.2,14,24,94,,,,,0,0,0,0,,,,,2,11,35,3,,,,,,,,,,,,,,,,,,,,,1.448,1.213,275.4383817999624,None,,,,,,,,,,,,,,,,,,,,275.97844149987213,276.4835402998142,0.5076638900209218,1.0081496899947524,276.46683839987963,276.5668581998907,276.46683839987963,276.5668581998907,276.5668581998907,None,m,1,1.2362884001340717,276.5668581998907,None,,,,,m,,pu,2022_Apr_12_1146,training+cueing,2021.1.4,59.967569570680396,
Stranger.png,Friend,Stranger,m,2.3,17,27,97,,,,,0,0,0,0,,,,,3,0,36,7,,,,,,,,,,,,,,,,,,,,,1.795,1.708,277.94049259996973,None,,,,,,,,,,,,,,,,,,,,278.47837679996155,278.9854418998584,0.5133656901307404,1.013514090096578,278.96874069981277,279.08539299992844,278.96874069981277,279.08539299992844,279.0686319998931,None,m,1,1.1184187999460846,279.0686319998931,None,,,,,m,,pu,2022_Apr_12_1146,training+cueing,2021.1.4,59.967569570680396,
Stranger.png,Stranger,Stranger,c,3,13,23,93,,,,,0,0,0,0,,,,,3,1,37,8,,,,,,,,,,,,,,,,,,,,,1.715,2.134,280.30921069998294,None,,,,,,,,,,,,,,,,,,,,280.85983279999346,281.3704365999438,0.504140289966017,1.0043108901008964,281.35377229982987,281.4704427998513,281.35377229982987,281.4704427998513,281.4536723999772,None,m,0,1.2453402001410723,281.4536723999772,None,,,,,m,,pu,2022_Apr_12_1146,training+cueing,2021.1.4,59.967569570680396,
Friend.png,Stranger,Friend,m,3.2,19,29,99,,,,,0,0,0,0,,,,,3,2,38,5,,,,,,,,,,,,,,,,,,,,,1.698,2.09,282.8279923000373,None,,,,,,,,,,,,,,,,,,,,283.36457289988175,283.8721594000235,0.5130194902885705,1.0132732903584838,283.8555765999481,283.97216889983974,283.8555765999481,283.97216889983974,283.95556199993007,None,c,0,1.255434799939394,283.95556199993007,None,,,,,m,,pu,2022_Apr_12_1146,training+cueing,2021.1.4,59.967569570680396,
Self.png,You,Self ,c,1,11,21,91,,,,,0,0,0,0,,,,,3,3,39,9,,,,,,,,,,,,,,,,,,,,,1.725,1.527,285.3501978998538,None,,,,,,,,,,,,,,,,,,,,285.88451869995333,286.39059279998764,0.5120037901215255,1.0123798900749534,286.3739938000217,286.47401149990037,286.3739938000217,286.47401149990037,286.47401149990037,None,c,1,0.7530641998164356,286.47401149990037,None,,,,,m,,pu,2022_Apr_12_1146,training+cueing,2021.1.4,59.967569570680396,
Self.png,You,Self ,c,1,11,21,91,,,,,0,0,0,0,,,,,3,4,40,0,,,,,,,,,,,,,,,,,,,,,1.468,1.544,287.3643427998759,None,,,,,,,,,,,,,,,,,,,,287.9189140999224,288.42551800003275,0.5108418199233711,1.01110051991418,288.40880530001596,288.5088646998629,288.40880530001596,288.5088646998629,288.5088646998629,None,c,1,0.8461507998872548,288.5088646998629,None,,,,,m,,pu,2022_Apr_12_1146,training+cueing,2021.1.4,59.967569570680396,
Stranger.png,Stranger,Stranger,c,3,13,23,93,,,,,0,0,0,0,,,,,3,5,41,11,,,,,,,,,,,,,,,,,,,,,1.578,2.387,289.4823354999535,None,,,,,,,,,,,,,,,,,,,,290.0220657000318,290.52704399987124,0.5086955900769681,1.0091773900203407,290.5103106999304,290.6270247998182,290.5103106999304,290.6270247998182,290.610343700042,None,m,0,1.032827999908477,290.610343700042,None,,,,,m,,pu,2022_Apr_12_1146,training+cueing,2021.1.4,59.967569570680396,
Stranger.png,You,Stranger,m,1.3,15,25,95,,,,,0,0,0,0,,,,,3,6,42,6,,,,,,,,,,,,,,,,,,,,,1.64,2.255,291.7671382999979,None,,,,,,,,,,,,,,,,,,,,292.30955330003053,292.81203079991974,0.505721690133214,1.0060083901043981,292.79535639984533,292.8953674000222,292.79535639984533,292.8953674000222,292.8953674000222,None,m,1,1.0036910998169333,292.8953674000222,None,,,,,m,,pu,2022_Apr_12_1146,training+cueing,2021.1.4,59.967569570680396,
Friend.png,You,Friend,m,1.2,14,24,94,,,,,0,0,0,0,,,,,3,7,43,3,,,,,,,,,,,,,,,,,,,,,1.637,2.406,294.03544689994305,None,,,,,,,,,,,,,,,,,,,,294.572502899915,295.08032579999417,0.5133484902326018,1.0136247901245952,295.0636383998208,295.1636619998608,295.0636383998208,295.1636619998608,295.1636619998608,None,m,1,1.215378100052476,295.1636619998608,None,,,,,m,,pu,2022_Apr_12_1146,training+cueing,2021.1.4,59.967569570680396,
Friend.png,Friend,Friend,c,2,12,22,92,,,,,0,0,0,0,,,,,3,8,44,10,,,,,,,,,,,,,,,,,,,,,1.684,1.421,296.50354489986785,None,,,,,,,,,,,,,,,,,,,,297.0423441999592,297.5487780999392,0.511338589945808,1.0115775901358575,297.5320969999302,297.6487592998892,297.5320969999302,297.6487592998892,297.63206880004145,None,m,0,0.699043900007382,297.63206880004145,None,,,,,m,,pu,2022_Apr_12_1146,training+cueing,2021.1.4,59.967569570680396,
Self.png,Friend,Self ,m,2.1,16,26,96,,,,,0,0,0,0,,,,,3,9,45,1,,,,,,,,,,,,,,,,,,,,,1.59,1.941,298.45582719985396,None,,,,,,,,,,,,,,,,,,,,298.99470909987576,299.50009869993664,0.5121472901664674,1.012427489971742,299.4835047998931,299.6001754999161,299.4835047998931,299.6001754999161,299.58346390002407,None,m,1,0.8116613000165671,299.58346390002407,None,,,,,m,,pu,2022_Apr_12_1146,training+cueing,2021.1.4,59.967569570680396,
Self.png,Stranger,Self ,m,3.1,18,28,98,,,,,0,0,0,0,,,,,3,10,46,2,,,,,,,,,,,,,,,,,,,,,1.444,2.17,300.5264238999225,None,,,,,,,,,,,,,,,,,,,,301.0663973998744,301.56833689985797,0.5025031899567693,1.0027508898638189,301.55166470003314,301.6683427998796,301.55166470003314,301.6683427998796,301.6516489998903,None,m,1,1.415395800024271,301.6516489998903,None,,,,,m,,pu,2022_Apr_12_1146,training+cueing,2021.1.4,59.967569570680396,
Friend.png,Friend,Friend,c,2,12,22,92,,,,,0,0,0,0,,,,,3,11,47,4,,,,,,,,,,,,,,,,,,,,,1.673,2.195,303.1926400999073,None,,,,,,,,,,,,,,,,,,,,303.7336339999456,304.2369305000175,0.5064685901161283,1.0066734901629388,304.220309099881,304.336964600021,304.220309099881,304.336964600021,304.3202332998626,None,c,1,0.8588591001462191,304.3202332998626,None,,,,,m,,pu,2022_Apr_12_1146,training+cueing,2021.1.4,59.967569570680396,
Friend.png,Friend,Friend,c,2,12,22,92,,,,,0,0,0,0,,,,,4,0,48,10,,,,,,,,,,,,,,,,,,,,,1.655,1.428,305.31120689981617,None,,,,,,,,,,,,,,,,,,,,305.86176029988565,306.3718145999592,0.5029999900143594,1.0033515898976475,306.35512729990296,306.4718347999733,306.35512729990296,306.4718347999733,306.4550767999608,None,c,1,1.0441175000742078,306.4550767999608,None,,,,,m,,pu,2022_Apr_12_1146,training+cueing,2021.1.4,59.967569570680396,
Self.png,You,Self ,c,1,11,21,91,,,,,0,0,0,0,,,,,4,1,49,9,,,,,,,,,,,,,,,,,,,,,1.528,1.905,307.63010449986905,None,,,,,,,,,,,,,,,,,,,,308.16822350001894,308.67343780002557,0.5090727899223566,1.0093955900520086,308.65678129997104,308.7567735000048,308.65678129997104,308.7567735000048,308.7567735000048,None,c,1,0.7583982001524419,308.7567735000048,None,,,,,m,,pu,2022_Apr_12_1146,training+cueing,2021.1.4,59.967569570680396,
Stranger.png,Friend,Stranger,m,2.3,17,27,97,,,,,0,0,0,0,,,,,4,2,50,7,,,,,,,,,,,,,,,,,,,,,1.788,1.632,309.64682939997874,None,,,,,,,,,,,,,,,,,,,,310.1905026999302,310.6916579999961,0.5015903902240098,1.0018018900882453,310.6749544998165,310.79166210000403,310.6749544998165,310.79166210000403,310.77489500003867,None,m,1,0.9321321998722851,310.77489500003867,None,,,,,m,,pu,2022_Apr_12_1146,training+cueing,2021.1.4,59.967569570680396,
Stranger.png,You,Stranger,m,1.3,15,25,95,,,,,0,0,0,0,,,,,4,3,51,6,,,,,,,,,,,,,,,,,,,,,1.426,1.917,311.83159559988417,None,,,,,,,,,,,,,,,,,,,,312.3689029000234,312.876492299838,0.5128528901841491,1.0131553900428116,312.85983620001934,312.96009649988264,312.85983620001934,312.96009649988264,312.96009649988264,None,c,0,0.7309753000736237,312.96009649988264,None,,,,,m,,pu,2022_Apr_12_1146,training+cueing,2021.1.4,59.967569570680396,
Friend.png,Friend,Friend,c,2,12,22,92,,,,,0,0,0,0,,,,,4,4,52,4,,,,,,,,,,,,,,,,,,,,,1.414,2.108,313.81610499997623,None,,,,,,,,,,,,,,,,,,,,314.3707504000049,314.8780256998725,0.5156264200340956,1.015838020015508,314.8613272998482,314.97801069985144,314.8613272998482,314.97801069985144,314.9421438998543,None,c,1,1.0848838000092655,314.9421438998543,None,,,,,m,,pu,2022_Apr_12_1146,training+cueing,2021.1.4,59.967569570680396,
Self.png,Friend,Self ,m,2.1,16,26,96,,,,,0,0,0,0,,,,,4,5,53,1,,,,,,,,,,,,,,,,,,,,,1.498,1.655,316.15192519989796,None,,,,,,,,,,,,,,,,,,,,316.6883572000079,317.19629139988683,0.5156973900739104,1.0159941900055856,317.1796023999341,317.2963186998386,317.1796023999341,317.2963186998386,317.2604061998427,None,m,1,0.7346623002085835,317.2604061998427,None,,,,,m,,pu,2022_Apr_12_1146,training+cueing,2021.1.4,59.967569570680396,
Self.png,Stranger,Self ,m,3.1,18,28,98,,,,,0,0,0,0,,,,,4,6,54,2,,,,,,,,,,,,,,,,,,,,,1.731,1.504,318.1201281999238,None,,,,,,,,,,,,,,,,,,,,318.66066159983166,319.16444529988803,0.5053213899955153,1.0055729900486767,319.14773259987123,319.26443809992634,319.14773259987123,319.26443809992634,319.2476643999107,None,m,1,0.7634472998324782,319.2476643999107,None,,,,,m,,pu,2022_Apr_12_1146,training+cueing,2021.1.4,59.967569570680396,
Stranger.png,Stranger,Stranger,c,3,13,23,93,,,,,0,0,0,0,,,,,4,7,55,11,,,,,,,,,,,,,,,,,,,,,1.775,2.093,320.13813559990376,None,,,,,,,,,,,,,,,,,,,,320.6742862998508,321.1824925998226,0.4990963900927454,1.0004079900681973,321.1490573999472,321.2491649999283,321.1490573999472,321.2491649999283,321.2491649999283,None,c,1,1.0178820001892745,321.2491649999283,None,,,,,m,,pu,2022_Apr_12_1146,training+cueing,2021.1.4,59.967569570680396,
Friend.png,Stranger,Friend,m,3.2,19,29,99,,,,,0,0,0,0,,,,,4,8,56,5,,,,,,,,,,,,,,,,,,,,,1.534,1.99,322.38953589997254,None,,,,,,,,,,,,,,,,,,,,322.92727370001376,323.43413880001754,0.5110686898697168,1.0113129899837077,323.41747899982147,323.5341797999572,323.41747899982147,323.5341797999572,323.51747890003026,None,None,0,,323.51747890003026,None,,,,,m,,pu,2022_Apr_12_1146,training+cueing,2021.1.4,59.967569570680396,
Stranger.png,Stranger,Stranger,c,3,13,23,93,,,,,0,0,0,0,,,,,4,9,57,8,,,,,,,,,,,,,,,,,,,,,1.786,1.372,325.15607369993813,None,,,,,,,,,,,,,,,,,,,,325.69775259983726,326.2027101998683,0.5104323897976428,1.0106672898400575,326.18614609981887,326.30286439997144,326.18614609981887,326.30286439997144,326.286130100023,None,c,1,0.7809240999631584,326.286130100023,None,,,,,m,,pu,2022_Apr_12_1146,training+cueing,2021.1.4,59.967569570680396,
Friend.png,You,Friend,m,1.2,14,24,94,,,,,0,0,0,0,,,,,4,10,58,3,,,,,,,,,,,,,,,,,,,,,1.787,2.369,327.1930394000374,None,,,,,,,,,,,,,,,,,,,,327.73182539991103,328.23759309994057,0.5113514901604503,1.0116564901545644,328.22092320001684,328.32099639996886,328.22092320001684,328.32099639996886,328.32099639996886,None,m,1,0.9220477999188006,328.32099639996886,None,,,,,m,,pu,2022_Apr_12_1146,training+cueing,2021.1.4,59.967569570680396,
Self.png,You,Self ,c,1,11,21,91,,,,,0,0,0,0,,,,,4,11,59,0,,,,,,,,,,,,,,,,,,,,,1.718,2.275,329.37788849999197,None,,,,,,,,,,,,,,,,,,,,329.9420364999678,330.4560906998813,0.5110967201180756,1.0117617202922702,330.4394850998651,330.53949779993854,330.4394850998651,330.53949779993854,330.53949779993854,None,c,1,0.6398259999696165,330.53949779993854,None,,,,,m,,pu,2022_Apr_12_1146,training+cueing,2021.1.4,59.967569570680396,
Stranger.png,Stranger,Stranger,c,3,13,23,93,,,,,0,0,0,0,,,,,5,0,60,8,,,,,,,,,,,,,,,,,,,,,1.512,2.08,331.3142140998971,None,,,,,,,,,,,,,,,,,,,,331.8548735999502,332.35724419984035,0.5052768900059164,1.0055837901309133,332.3405673999805,332.45729029993527,332.3405673999805,332.45729029993527,332.4405626000371,None,c,1,1.0425106999464333,332.4405626000371,None,,,,,m,,pu,2022_Apr_12_1146,training+cueing,2021.1.4,59.967569570680396,
Friend.png,Friend,Friend,c,2,12,22,92,,,,,0,0,0,0,,,,,5,1,61,10,,,,,,,,,,,,,,,,,,,,,1.479,2.282,333.61462290002964,None,,,,,,,,,,,,,,,,,,,,334.1531811999157,334.65897629992105,0.5112193902023137,1.0114992901217192,334.64222999988124,334.7589596998878,334.64222999988124,334.7589596998878,334.7422390000429,None,m,0,0.6928850000258535,334.7422390000429,None,,,,,m,,pu,2022_Apr_12_1146,training+cueing,2021.1.4,59.967569570680396,
Self.png,You,Self ,c,1,11,21,91,,,,,0,0,0,0,,,,,5,2,62,9,,,,,,,,,,,,,,,,,,,,,1.551,2.481,335.5664472000208,None,,,,,,,,,,,,,,,,,,,,336.1147333998233,336.6270053999033,0.5069260902237147,1.0071706902235746,336.61036439985037,336.71035389997996,336.61036439985037,336.71035389997996,336.71035389997996,None,c,1,0.6609608000144362,336.71035389997996,None,,,,,m,,pu,2022_Apr_12_1146,training+cueing,2021.1.4,59.967569570680396,
Self.png,You,Self ,c,1,11,21,91,,,,,0,0,0,0,,,,,5,3,63,0,,,,,,,,,,,,,,,,,,,,,1.625,1.529,337.50037419982255,None,,,,,,,,,,,,,,,,,,,,338.03946190001443,338.5450977999717,0.5115984899457544,1.0118158899713308,338.5284800999798,338.6284757000394,338.5284800999798,338.6284757000394,338.6284757000394,None,c,1,0.6785959999542683,338.6284757000394,None,,,,,m,,pu,2022_Apr_12_1146,training+cueing,2021.1.4,59.967569570680396,
Stranger.png,Stranger,Stranger,c,3,13,23,93,,,,,0,0,0,0,,,,,5,4,64,11,,,,,,,,,,,,,,,,,,,,,1.763,1.539,339.4354888999369,None,,,,,,,,,,,,,,,,,,,,339.97342399996705,340.4797851999756,0.5113843900617212,1.0123247902374715,340.46311379992403,340.5800299998373,340.46311379992403,340.5800299998373,340.56323149986565,None,c,1,1.3360169001389295,340.56323149986565,None,,,,,m,,pu,2022_Apr_12_1146,training+cueing,2021.1.4,59.967569570680396,
Self.png,Stranger,Self ,m,3.1,18,28,98,,,,,0,0,0,0,,,,,5,5,65,2,,,,,,,,,,,,,,,,,,,,,1.772,2.094,342.03842719993554,None,,,,,,,,,,,,,,,,,,,,342.5774282999337,343.0817289999686,0.5080699899699539,1.0082867899909616,343.06503559998237,343.1817266999278,343.06503559998237,343.1817266999278,343.16497479984537,None,m,1,1.1340618999674916,343.16497479984537,None,,,,,m,,pu,2022_Apr_12_1146,training+cueing,2021.1.4,59.967569570680396,
Friend.png,Friend,Friend,c,2,12,22,92,,,,,0,0,0,0,,,,,5,6,66,4,,,,,,,,,,,,,,,,,,,,,1.789,1.504,344.4216010000091,None,,,,,,,,,,,,,,,,,,,,344.97148559987545,345.48345769988373,0.5079926901962608,1.0082591902464628,345.4667245999444,345.5834852999542,345.4667245999444,345.5834852999542,345.5667013998609,None,c,1,0.9726434000767767,345.5667013998609,None,,,,,m,,pu,2022_Apr_12_1146,training+cueing,2021.1.4,59.967569570680396,
Stranger.png,You,Stranger,m,1.3,15,25,95,,,,,0,0,0,0,,,,,5,7,67,6,,,,,,,,,,,,,,,,,,,,,1.668,1.985,346.67811560002156,None,,,,,,,,,,,,,,,,,,,,347.212534799939,347.71836219984107,0.5088936898391694,1.0091450898908079,347.7016930000391,347.8017102999147,347.7016930000391,347.8017102999147,347.8017102999147,None,c,0,0.545377500122413,347.8017102999147,None,,,,,m,,pu,2022_Apr_12_1146,training+cueing,2021.1.4,59.967569570680396,
Self.png,Friend,Self ,m,2.1,16,26,96,,,,,0,0,0,0,,,,,5,8,68,1,,,,,,,,,,,,,,,,,,,,,1.635,1.36,348.4751897000242,None,,,,,,,,,,,,,,,,,,,,349.0139832999557,349.51967159984633,0.5108038899488747,1.0111077898181975,349.50298659992404,349.61969029996544,349.50298659992404,349.61969029996544,349.60303759993985,None,m,1,0.7920522000640631,349.60303759993985,None,,,,,m,,pu,2022_Apr_12_1146,training+cueing,2021.1.4,59.967569570680396,
Friend.png,You,Friend,m,1.2,14,24,94,,,,,0,0,0,0,,,,,5,9,69,3,,,,,,,,,,,,,,,,,,,,,1.608,1.843,350.52598709985614,None,,,,,,,,,,,,,,,,,,,,351.06464959983714,351.5711317998357,0.512786190258339,1.0130761901382357,351.55445219995454,351.6544973999262,351.55445219995454,351.6544973999262,351.6544973999262,None,c,0,0.9965647000353783,351.6544973999262,None,,,,,m,,pu,2022_Apr_12_1146,training+cueing,2021.1.4,59.967569570680396,
Friend.png,Stranger,Friend,m,3.2,19,29,99,,,,,0,0,0,0,,,,,5,10,70,5,,,,,,,,,,,,,,,,,,,,,1.765,1.909,352.7785355998203,None,,,,,,,,,,,,,,,,,,,,353.3180457998533,353.8227937000338,0.5079527900088578,1.0082169901579618,353.80610359995626,353.9227856998332,353.80610359995626,353.9227856998332,353.90605190000497,None,c,0,0.8889331999234855,353.90605190000497,None,,,,,m,,pu,2022_Apr_12_1146,training+cueing,2021.1.4,59.967569570680396,
Stranger.png,Friend,Stranger,m,2.3,17,27,97,,,,,0,0,0,0,,,,,5,11,71,7,,,,,,,,,,,,,,,,,,,,,1.768,2.416,354.9304043999873,None,,,,,,,,,,,,,,,,,,,,355.4690237999894,355.97448890004307,0.5096091900486499,1.0098191902507097,355.9577211998403,356.074533799896,355.9577211998403,356.074533799896,356.0579414998647,None,c,0,0.5931875999085605,356.0579414998647,None,,,,,m,,pu,2022_Apr_12_1146,training+cueing,2021.1.4,59.967569570680396,
Self.png,Stranger,Self ,m,3.1,18,28,98,,,,,0,0,0,0,,,,,6,0,72,2,,,,,,,,,,,,,,,,,,,,,1.773,1.421,356.7814066999126,None,,,,,,,,,,,,,,,,,,,,357.3218769999221,357.8256452998612,0.5054931901395321,1.0057232901453972,357.80905409995466,357.9257072999608,357.80905409995466,357.9257072999608,357.9089917000383,None,m,1,0.7422345001250505,357.9089917000383,None,,,,,m,,pu,2022_Apr_12_1146,training+cueing,2021.1.4,59.967569570680396,
Friend.png,You,Friend,m,1.2,14,24,94,,,,,0,0,0,0,,,,,6,1,73,3,,,,,,,,,,,,,,,,,,,,,1.519,1.948,358.7834970999975,None,,,,,,,,,,,,,,,,,,,,359.3222874000203,359.82710679993033,0.5087342902552336,1.0090215902309865,359.81045069987886,359.9105427998584,359.81045069987886,359.9105427998584,359.9105427998584,None,m,1,0.9967497000470757,359.9105427998584,None,,,,,m,,pu,2022_Apr_12_1146,training+cueing,2021.1.4,59.967569570680396,
Stranger.png,Stranger,Stranger,c,3,13,23,93,,,,,0,0,0,0,,,,,6,2,74,11,,,,,,,,,,,,,,,,,,,,,1.418,1.522,361.039228499867,None,,,,,,,,,,,,,,,,,,,,361.5774419999216,362.0788415998686,0.5024334902409464,1.002595990197733,362.0621660000179,362.17878649989143,362.0621660000179,362.17878649989143,362.1620702999644,None,c,1,1.03300920012407,362.1620702999644,None,,,,,m,,pu,2022_Apr_12_1146,training+cueing,2021.1.4,59.967569570680396,
Stranger.png,Friend,Stranger,m,2.3,17,27,97,,,,,0,0,0,0,,,,,6,3,75,7,,,,,,,,,,,,,,,,,,,,,1.472,1.248,363.3192604999058,None,,,,,,,,,,,,,,,,,,,,363.8576515999157,364.36377289984375,0.5099235901143402,1.010249889921397,364.34703489998356,364.46402990003116,364.34703489998356,364.46402990003116,364.4470267998986,None,c,0,0.6520130001008511,364.4470267998986,None,,,,,m,,pu,2022_Apr_12_1146,training+cueing,2021.1.4,59.967569570680396,
Self.png,You,Self ,c,1,11,21,91,,,,,0,0,0,0,,,,,6,4,76,0,,,,,,,,,,,,,,,,,,,,,1.483,2.445,365.22083009989,None,,,,,,,,,,,,,,,,,,,,365.76214969996363,366.2651621999685,0.5069618900306523,1.007166190072894,366.2484913999215,366.3484724999871,366.2484913999215,366.3484724999871,366.3484724999871,None,m,0,0.8465813000220805,366.3484724999871,None,,,,,m,,pu,2022_Apr_12_1146,training+cueing,2021.1.4,59.967569570680396,
Stranger.png,Stranger,Stranger,c,3,13,23,93,,,,,0,0,0,0,,,,,6,5,77,8,,,,,,,,,,,,,,,,,,,,,1.505,1.816,367.3222886000294,None,,,,,,,,,,,,,,,,,,,,367.8620388000272,368.3668251000345,0.5103236900176853,1.0104203901719302,368.3501460000407,368.4666550999973,368.3501460000407,368.4666550999973,368.44994560000487,None,c,1,1.1133342999964952,368.44994560000487,None,,,,,m,,pu,2022_Apr_12_1146,training+cueing,2021.1.4,59.967569570680396,
Self.png,You,Self ,c,1,11,21,91,,,,,0,0,0,0,,,,,6,6,78,9,,,,,,,,,,,,,,,,,,,,,1.748,1.874,369.6944361999631,None,,,,,,,,,,,,,,,,,,,,370.22936569992453,370.73499220004305,0.5084476901683956,1.0088099902495742,370.7183383998927,370.8183552999981,370.7183383998927,370.8183552999981,370.8183552999981,None,c,1,0.8730188000481576,370.8183552999981,None,,,,,m,,pu,2022_Apr_12_1146,training+cueing,2021.1.4,59.967569570680396,
Stranger.png,You,Stranger,m,1.3,15,25,95,,,,,0,0,0,0,,,,,6,7,79,6,,,,,,,,,,,,,,,,,,,,,1.664,1.686,371.8259929998312,None,,,,,,,,,,,,,,,,,,,,372.3626403999515,372.86991689982824,0.5138905898202211,1.0142190898768604,372.8531804999802,372.95350209996104,372.8531804999802,372.95350209996104,372.95350209996104,None,m,1,1.0415490998420864,372.95350209996104,None,,,,,m,,pu,2022_Apr_12_1146,training+cueing,2021.1.4,59.967569570680396,
Friend.png,Stranger,Friend,m,3.2,19,29,99,,,,,0,0,0,0,,,,,6,8,80,5,,,,,,,,,,,,,,,,,,,,,1.695,1.592,374.1274003998842,None,,,,,,,,,,,,,,,,,,,,374.664805599954,375.17155739990994,0.5102400900796056,1.0107518900185823,375.1549001999665,375.2716154998634,375.1549001999665,375.2716154998634,375.25489109987393,None,m,1,0.8362948999274522,375.25489109987393,None,,,,,m,,pu,2022_Apr_12_1146,training+cueing,2021.1.4,59.967569570680396,
Friend.png,Friend,Friend,c,2,12,22,92,,,,,0,0,0,0,,,,,6,9,81,4,,,,,,,,,,,,,,,,,,,,,1.783,2.177,376.2288637999445,None,,,,,,,,,,,,,,,,,,,,376.7692633999977,377.27315529994667,0.5071241902187467,1.008276790380478,377.25648849993013,377.37313989992253,377.25648849993013,377.37313989992253,377.3563935998827,None,c,1,0.7509143000934273,377.3563935998827,None,,,,,m,,pu,2022_Apr_12_1146,training+cueing,2021.1.4,59.967569570680396,
Friend.png,Friend,Friend,c,2,12,22,92,,,,,0,0,0,0,,,,,6,10,82,10,,,,,,,,,,,,,,,,,,,,,1.452,2.449,378.2337950998917,None,,,,,,,,,,,,,,,,,,,,378.7674678999465,379.2745504998602,0.5136400901246816,1.0139185900334269,379.2578556998633,379.3745877998881,379.2578556998633,379.3745877998881,379.3578564999625,None,c,1,1.1332418001256883,379.3578564999625,None,,,,,m,,pu,2022_Apr_12_1146,training+cueing,2021.1.4,59.967569570680396,
Self.png,Friend,Self ,m,2.1,16,26,96,,,,,0,0,0,0,,,,,6,11,83,1,,,,,,,,,,,,,,,,,,,,,1.482,1.964,380.6146642998792,None,,,,,,,,,,,,,,,,,,,,381.1578203998506,381.6595379000064,0.5024329898878932,1.0027100900188088,381.6429402998183,381.75962909986265,381.6429402998183,381.75962909986265,381.7428815998137,None,m,1,0.7002040999941528,381.7428815998137,None,,,,,m,,pu,2022_Apr_12_1146,training+cueing,2021.1.4,59.967569570680396,
Self.png,Stranger,Self ,m,3.1,18,28,98,,,,,0,0,0,0,,,,,7,0,84,2,,,,,,,,,,,,,,,,,,,,,1.589,1.68,382.566572799813,None,,,,,,,,,,,,,,,,,,,,383.10668849991634,383.61096399999224,0.5087294899858534,1.0090400900226086,383.59432319994085,383.71100609982386,383.59432319994085,383.71100609982386,383.6943106998224,None,m,1,0.8451044999528676,383.6943106998224,None,,,,,m,,pu,2022_Apr_12_1146,training+cueing,2021.1.4,59.967569570680396,
Friend.png,You,Friend,m,1.2,14,24,94,,,,,0,0,0,0,,,,,7,1,85,3,,,,,,,,,,,,,,,,,,,,,1.486,1.428,384.67238739994355,None,,,,,,,,,,,,,,,,,,,,385.20713540003635,385.712499700021,0.5105609900783747,1.0107858900446445,385.6958713999484,385.79587799985893,385.6958713999484,385.79587799985893,385.79587799985893,None,m,1,1.0792566000018269,385.79587799985893,None,,,,,m,,pu,2022_Apr_12_1146,training+cueing,2021.1.4,59.967569570680396,
Self.png,You,Self ,c,1,11,21,91,,,,,0,0,0,0,,,,,7,2,86,9,,,,,,,,,,,,,,,,,,,,,1.531,1.504,387.00365179986693,None,,,,,,,,,,,,,,,,,,,,387.5396489999257,388.04755779984407,0.5136829901020974,1.0141357900574803,388.03089039982297,388.1309052000288,388.03089039982297,388.1309052000288,388.1309052000288,None,c,1,0.6481599998660386,388.1309052000288,None,,,,,m,,pu,2022_Apr_12_1146,training+cueing,2021.1.4,59.967569570680396,
Self.png,You,Self ,c,1,11,21,91,,,,,0,0,0,0,,,,,7,3,87,0,,,,,,,,,,,,,,,,,,,,,1.599,2.262,388.9046807999257,None,,,,,,,,,,,,,,,,,,,,389.44748650002293,389.94904159987345,0.5114543898962438,1.0115985900629312,389.9323119998444,390.03227990004234,389.9323119998444,390.03227990004234,390.03227990004234,None,c,1,0.7147328001447022,390.03227990004234,None,,,,,m,,pu,2022_Apr_12_1146,training+cueing,2021.1.4,59.967569570680396,
Friend.png,Friend,Friend,c,2,12,22,92,,,,,0,0,0,0,,,,,7,4,88,4,,,,,,,,,,,,,,,,,,,,,1.539,1.464,390.8721622999292,None,,,,,,,,,,,,,,,,,,,,391.4100917999167,391.9170474000275,0.5119259899947792,1.0122045900207013,391.90037569985725,392.01709669991396,391.90037569985725,392.01709669991396,392.0004326000344,None,c,1,1.0346963999327272,392.0004326000344,None,,,,,m,,pu,2022_Apr_12_1146,training+cueing,2021.1.4,59.967569570680396,
Stranger.png,You,Stranger,m,1.3,15,25,95,,,,,0,0,0,0,,,,,7,5,89,6,,,,,,,,,,,,,,,,,,,,,1.687,2.427,393.1577560999431,None,,,,,,,,,,,,,,,,,,,,393.69812799990177,394.2020443000365,0.5068970900028944,1.0071105901151896,394.18535649986006,394.28532869997434,394.18535649986006,394.28532869997434,394.28532869997434,None,c,0,0.6377620999701321,394.28532869997434,None,,,,,m,,pu,2022_Apr_12_1146,training+cueing,2021.1.4,59.967569570680396,
Friend.png,Stranger,Friend,m,3.2,19,29,99,,,,,0,0,0,0,,,,,7,6,90,5,,,,,,,,,,,,,,,,,,,,,1.533,1.964,395.05942489998415,None,,,,,,,,,,,,,,,,,,,,395.5975623000413,396.10338529990986,0.5110367899760604,1.0116561900358647,396.0866759000346,396.20340200001374,396.0866759000346,396.20340200001374,396.1866549998522,None,c,0,0.6723463998641819,396.1866549998522,None,,,,,m,,pu,2022_Apr_12_1146,training+cueing,2021.1.4,59.967569570680396,
Friend.png,Friend,Friend,c,2,12,22,92,,,,,0,0,0,0,,,,,7,7,91,10,,,,,,,,,,,,,,,,,,,,,1.714,1.912,396.9947156000417,None,,,,,,,,,,,,,,,,,,,,397.5327879998367,398.03806439996697,0.5077443900518119,1.00798229011707,398.021466499893,398.1380839999765,398.021466499893,398.1380839999765,398.12140689999796,None,c,1,0.7216648999601603,398.12140689999796,None,,,,,m,,pu,2022_Apr_12_1146,training+cueing,2021.1.4,59.967569570680396,
Self.png,Friend,Self ,m,2.1,16,26,96,,,,,0,0,0,0,,,,,7,8,92,1,,,,,,,,,,,,,,,,,,,,,1.772,2.189,398.97893869993277,None,,,,,,,,,,,,,,,,,,,,399.52817439986393,400.0395814999938,0.5060605900362134,1.006310589844361,400.02289809985086,400.13958989991806,400.02289809985086,400.13958989991806,400.1228785000276,None,m,1,0.5282910999376327,400.1228785000276,None,,,,,m,,pu,2022_Apr_12_1146,training+cueing,2021.1.4,59.967569570680396,
Stranger.png,Stranger,Stranger,c,3,13,23,93,,,,,0,0,0,0,,,,,7,9,93,11,,,,,,,,,,,,,,,,,,,,,1.529,2.391,400.7802964998409,None,,,,,,,,,,,,,,,,,,,,401.3195537000429,401.82417639996856,0.5100617897696793,1.0103470899630338,401.80750699993223,401.92422419996,401.80750699993223,401.92422419996,401.90746559994295,None,c,1,1.2399633000604808,401.90746559994295,None,,,,,m,,pu,2022_Apr_12_1146,training+cueing,2021.1.4,59.967569570680396,
Stranger.png,Stranger,Stranger,c,3,13,23,93,,,,,0,0,0,0,,,,,7,10,94,8,,,,,,,,,,,,,,,,,,,,,1.755,1.985,403.28163089999,None,,,,,,,,,,,,,,,,,,,,403.8167526999023,404.32590970001183,0.5002582899760455,1.0005063901189715,404.29264310002327,404.39266199991107,404.29264310002327,404.39266199991107,404.39266199991107,None,c,1,0.5464680998120457,404.39266199991107,None,,,,,m,,pu,2022_Apr_12_1146,training+cueing,2021.1.4,59.967569570680396,
Stranger.png,Friend,Stranger,m,2.3,17,27,97,,,,,0,0,0,0,,,,,7,11,95,7,,,,,,,,,,,,,,,,,,,,,1.438,2.429,405.066546499962,None,,,,,,,,,,,,,,,,,,,,405.6050461998675,406.11059219995514,0.5113216899335384,1.011578890029341,406.0939279999584,406.21064139995724,406.0939279999584,406.21064139995724,406.1939411999192,None,c,0,0.4092194000259042,406.1939411999192,None,,,,,m,,pu,2022_Apr_12_1146,training+cueing,2021.1.4,59.967569570680396,
Self.png,Friend,Self ,m,2.1,16,26,96,,,,,0,0,0,0,,,,,8,0,96,1,,,,,,,,,,,,,,,,,,,,,1.761,2.128,406.73371930001304,None,,,,,,,,,,,,,,,,,,,,407.2783216999378,407.77849179995246,0.4990458900574595,0.9993105900939554,407.7618115998339,407.87852339982055,407.7618115998339,407.87852339982055,407.87852339982055,None,m,1,0.8205660001840442,407.87852339982055,None,,,,,m,,pu,2022_Apr_12_1146,training+cueing,2021.1.4,59.967569570680396,
Friend.png,Friend,Friend,c,2,12,22,92,,,,,0,0,0,0,,,,,8,1,97,4,,,,,,,,,,,,,,,,,,,,,1.622,1.369,408.83497249986976,None,,,,,,,,,,,,,,,,,,,,409.3706572998781,409.88001029985026,0.5006516596768051,1.0012869597412646,409.86337319994345,409.9810101999901,409.86337319994345,409.9810101999901,409.9810101999901,None,c,1,0.9260639999993145,409.9810101999901,None,,,,,m,,pu,2022_Apr_12_1146,training+cueing,2021.1.4,59.967569570680396,
Self.png,You,Self ,c,1,11,21,91,,,,,0,0,0,0,,,,,8,2,98,9,,,,,,,,,,,,,,,,,,,,,1.606,2.237,411.0376885998994,None,,,,,,,,,,,,,,,,,,,,411.5827643999364,412.09829130000435,0.5139185900334269,1.0141720902174711,412.08166170003824,412.1816473000217,412.08166170003824,412.1816473000217,412.1816473000217,None,c,1,0.6614747000858188,412.1816473000217,None,,,,,m,,pu,2022_Apr_12_1146,training+cueing,2021.1.4,59.967569570680396,
Self.png,You,Self ,c,1,11,21,91,,,,,0,0,0,0,,,,,8,3,99,0,,,,,,,,,,,,,,,,,,,,,1.469,1.319,412.9722920998465,None,,,,,,,,,,,,,,,,,,,,413.5067809999455,414.016328800004,0.5007661597337574,1.0009830596391112,413.99968450004235,414.09962789993733,413.99968450004235,414.09962789993733,414.09962789993733,None,c,1,0.6795022999867797,414.09962789993733,None,,,,,m,,pu,2022_Apr_12_1146,training+cueing,2021.1.4,59.967569570680396,
Self.png,Stranger,Self ,m,3.1,18,28,98,,,,,0,0,0,0,,,,,8,4,100,2,,,,,,,,,,,,,,,,,,,,,1.54,1.529,414.90632899990305,None,,,,,,,,,,,,,,,,,,,,415.4460557999555,415.9510877998546,0.5095776899252087,1.0098803900182247,415.9344070998486,416.05104189994745,415.9344070998486,416.05104189994745,416.03436849988066,None,None,0,,416.03436849988066,None,,,,,m,,pu,2022_Apr_12_1146,training+cueing,2021.1.4,59.967569570680396,
Friend.png,Stranger,Friend,m,3.2,19,29,99,,,,,0,0,0,0,,,,,8,5,101,5,,,,,,,,,,,,,,,,,,,,,1.652,1.716,417.68966799997725,None,,,,,,,,,,,,,,,,,,,,418.22854099981487,418.7364019998349,0.5146251900587231,1.0148741900920868,418.71978129982017,418.83643119991757,418.71978129982017,418.83643119991757,418.81972269993275,None,c,0,1.143422900000587,418.81972269993275,None,,,,,m,,pu,2022_Apr_12_1146,training+cueing,2021.1.4,59.967569570680396,
Friend.png,Friend,Friend,c,2,12,22,92,,,,,0,0,0,0,,,,,8,6,102,10,,,,,,,,,,,,,,,,,,,,,1.789,1.631,420.09394439985044,None,,,,,,,,,,,,,,,,,,,,420.6444688998163,421.15487749991007,0.5033129898365587,1.003586889943108,421.138151000021,421.2548658999149,421.138151000021,421.2548658999149,421.2381535999011,None,c,1,1.2369556999765337,421.2381535999011,None,,,,,m,,pu,2022_Apr_12_1146,training+cueing,2021.1.4,59.967569570680396,
Stranger.png,Stranger,Stranger,c,3,13,23,93,,,,,0,0,0,0,,,,,8,7,103,11,,,,,,,,,,,,,,,,,,,,,1.773,2.118,422.6125041998457,None,,,,,,,,,,,,,,,,,,,,423.15348899993114,423.6569326999597,0.5052887899801135,1.0057122900616378,423.6399552000221,423.7568395000417,423.6399552000221,423.7568395000417,423.740143999923,None,c,1,0.5750344002153724,423.740143999923,None,,,,,m,,pu,2022_Apr_12_1146,training+cueing,2021.1.4,59.967569570680396,
Stranger.png,You,Stranger,m,1.3,15,25,95,,,,,0,0,0,0,,,,,8,8,104,6,,,,,,,,,,,,,,,,,,,,,1.707,1.862,424.4470471998211,None,,,,,,,,,,,,,,,,,,,,424.98399939993396,425.49132419982925,0.5124171900097281,1.0126844900660217,425.47466459986754,425.5746577999089,425.47466459986754,425.5746577999089,425.5746577999089,None,m,1,0.628456300124526,425.5746577999089,None,,,,,m,,pu,2022_Apr_12_1146,training+cueing,2021.1.4,59.967569570680396,
Stranger.png,Friend,Stranger,m,2.3,17,27,97,,,,,0,0,0,0,,,,,8,9,105,7,,,,,,,,,,,,,,,,,,,,,1.466,1.261,426.3317050000187,None,,,,,,,,,,,,,,,,,,,,426.87138859997503,427.3760144999251,0.5088655899744481,1.0090853900182992,427.3593462998979,427.4760310999118,427.3593462998979,427.4760310999118,427.4592722998932,None,c,0,1.2557860999368131,427.4592722998932,None,,,,,m,,pu,2022_Apr_12_1146,training+cueing,2021.1.4,59.967569570680396,
Friend.png,You,Friend,m,1.2,14,24,94,,,,,0,0,0,0,,,,,8,10,106,3,,,,,,,,,,,,,,,,,,,,,1.52,1.749,428.85022859997116,None,,,,,,,,,,,,,,,,,,,,429.3880495999474,429.89449750003405,0.5129464901983738,1.01316669001244,429.87788819987327,429.97783580003306,429.87788819987327,429.97783580003306,429.97783580003306,None,m,1,0.737199200084433,429.97783580003306,None,,,,,m,,pu,2022_Apr_12_1146,training+cueing,2021.1.4,59.967569570680396,
Stranger.png,Stranger,Stranger,c,3,13,23,93,,,,,0,0,0,0,,,,,8,11,107,8,,,,,,,,,,,,,,,,,,,,,1.423,1.592,430.851761699887,None,,,,,,,,,,,,,,,,,,,,431.39275470003486,431.8960196999833,0.5047769898083061,1.0048720899503678,431.87940520001575,431.9959873999469,431.87940520001575,431.9959873999469,431.9792511998676,None,c,1,0.8478451000992209,431.9792511998676,None,,,,,m,,pu,2022_Apr_12_1146,training+cueing,2021.1.4,59.967569570680396,
Self.png,Stranger,Self ,m,3.1,18,28,98,,,,,0,0,0,0,,,,,9,0,108,2,,,,,,,,,,,,,,,,,,,,,1.49,1.528,432.9536575998645,None,,,,,,,,,,,,,,,,,,,,433.4899704998825,433.9974830998108,0.512032890226692,1.0126337902620435,433.9807531000115,434.0975116000045,433.9807531000115,434.0975116000045,434.0807698999997,None,m,1,0.8742772000841796,434.0807698999997,None,,,,,m,,pu,2022_Apr_12_1146,training+cueing,2021.1.4,59.967569570680396,
Stranger.png,Stranger,Stranger,c,3,13,23,93,,,,,0,0,0,0,,,,,9,1,109,8,,,,,,,,,,,,,,,,,,,,,1.722,1.699,435.0876894998364,None,,,,,,,,,,,,,,,,,,,,435.6357935999986,436.14904739987105,0.509637989802286,1.010072089964524,436.1323678998742,436.2492376998998,436.1323678998742,436.2492376998998,436.23252459988,None,m,0,0.6425809001084417,436.23252459988,None,,,,,m,,pu,2022_Apr_12_1146,training+cueing,2021.1.4,59.967569570680396,
Self.png,Friend,Self ,m,2.1,16,26,96,,,,,0,0,0,0,,,,,9,2,110,1,,,,,,,,,,,,,,,,,,,,,1.567,2.266,437.0063534998335,None,,,,,,,,,,,,,,,,,,,,437.54323459998704,438.0503970000427,0.5121822899673134,1.0124740900937468,438.03371530002914,438.1504076998681,438.03371530002914,438.1504076998681,438.1337052998133,None,m,1,0.8694154999684542,438.1337052998133,None,,,,,m,,pu,2022_Apr_12_1146,training+cueing,2021.1.4,59.967569570680396,
Stranger.png,You,Stranger,m,1.3,15,25,95,,,,,0,0,0,0,,,,,9,3,111,6,,,,,,,,,,,,,,,,,,,,,1.539,2.208,439.14055319991894,None,,,,,,,,,,,,,,,,,,,,439.6947537998203,440.20202209986746,0.5147883200552315,1.0150100199971348,440.1853245999664,440.2853206999134,440.1853245999664,440.2853206999134,440.2853206999134,None,m,1,0.9900461998768151,440.2853206999134,None,,,,,m,,pu,2022_Apr_12_1146,training+cueing,2021.1.4,59.967569570680396,
Stranger.png,Stranger,Stranger,c,3,13,23,93,,,,,0,0,0,0,,,,,9,4,112,11,,,,,,,,,,,,,,,,,,,,,1.565,1.529,441.40947279985994,None,,,,,,,,,,,,,,,,,,,,441.9478782999795,442.4536478999071,0.5096294903196394,1.0102191902697086,442.43692979984917,442.553616899997,442.43692979984917,442.553616899997,442.53692219988443,None,c,1,1.1062082001008093,442.53692219988443,None,,,,,m,,pu,2022_Apr_12_1146,training+cueing,2021.1.4,59.967569570680396,
Friend.png,Friend,Friend,c,2,12,22,92,,,,,0,0,0,0,,,,,9,5,113,4,,,,,,,,,,,,,,,,,,,,,1.471,1.544,443.77807549992576,None,,,,,,,,,,,,,,,,,,,,444.3280362000223,444.8386084998492,0.5044436901807785,1.0047188901808113,444.82197859999724,444.93900000001304,444.82197859999724,444.93900000001304,444.9219708999153,None,c,1,1.0411861999891698,444.9219708999153,None,,,,,m,,pu,2022_Apr_12_1146,training+cueing,2021.1.4,59.967569570680396,
Self.png,You,Self ,c,1,11,21,91,,,,,0,0,0,0,,,,,9,6,114,0,,,,,,,,,,,,,,,,,,,,,1.677,1.628,446.09542979998514,None,,,,,,,,,,,,,,,,,,,,446.6446132999845,447.1570085999556,0.5085346901323646,1.0087074900511652,447.1404194999486,447.2403594998177,447.1404194999486,447.2403594998177,447.2403594998177,None,c,1,0.6747737000696361,447.2403594998177,None,,,,,m,,pu,2022_Apr_12_1146,training+cueing,2021.1.4,59.967569570680396,
Stranger.png,Friend,Stranger,m,2.3,17,27,97,,,,,0,0,0,0,,,,,9,7,115,7,,,,,,,,,,,,,,,,,,,,,1.442,1.467,448.04746549995616,None,,,,,,,,,,,,,,,,,,,,448.5841065000277,449.09167069988325,0.5126324899028987,1.0128625899087638,449.0750690998975,449.1917742998339,449.0750690998975,449.1917742998339,449.17503899987787,None,m,1,1.06005740002729,449.17503899987787,None,,,,,m,,pu,2022_Apr_12_1146,training+cueing,2021.1.4,59.967569570680396,
Friend.png,You,Friend,m,1.2,14,24,94,,,,,0,0,0,0,,,,,9,8,116,3,,,,,,,,,,,,,,,,,,,,,1.777,1.357,450.3652909998782,None,,,,,,,,,,,,,,,,,,,,450.906439299928,451.4100963999517,0.5078726899810135,1.0081154899671674,451.3934855000116,451.4934284000192,451.3934855000116,451.4934284000192,451.4934284000192,None,c,0,0.5496730001177639,451.4934284000192,None,,,,,m,,pu,2022_Apr_12_1146,training+cueing,2021.1.4,59.967569570680396,
Friend.png,Stranger,Friend,m,3.2,19,29,99,,,,,0,0,0,0,,,,,9,9,117,5,,,,,,,,,,,,,,,,,,,,,1.674,1.48,452.1665483999532,None,,,,,,,,,,,,,,,,,,,,452.7089517998975,453.2114367999602,0.5059524900279939,1.0062263901345432,453.1947194999084,453.31143000000156,453.1947194999084,453.31143000000156,453.2946897998918,None,m,1,0.47643820010125637,453.2946897998918,None,,,,,m,,pu,2022_Apr_12_1146,training+cueing,2021.1.4,59.967569570680396,
Friend.png,Friend,Friend,c,2,12,22,92,,,,,0,0,0,0,,,,,9,10,118,10,,,,,,,,,,,,,,,,,,,,,1.559,1.825,453.90124159981497,None,,,,,,,,,,,,,,,,,,,,454.43980139982887,454.94619509996846,0.5104528898373246,1.0107291899621487,454.9292858999688,455.0460439999588,454.9292858999688,455.0460439999588,455.02925119991414,None,c,1,0.5658448000904173,455.02925119991414,None,,,,,m,,pu,2022_Apr_12_1146,training+cueing,2021.1.4,59.967569570680396,
Self.png,You,Self ,c,1,11,21,91,,,,,0,0,0,0,,,,,9,11,119,9,,,,,,,,,,,,,,,,,,,,,1.612,1.23,455.71933009987697,None,,,,,,,,,,,,,,,,,,,,456.25914449989796,456.7639444998931,0.5097066899761558,1.0100321900099516,456.7473132000305,456.8474421999417,456.7473132000305,456.8474421999417,456.8474421999417,None,c,1,0.5716298001352698,456.8474421999417,None,,,,,m,,pu,2022_Apr_12_1146,training+cueing,2021.1.4,59.967569570680396,
,,,,,,,,,,,,0,0,0,0,,,,,,,,,,,,,,,,,,,,,,,,,,,,,,,,,,,,,,,,,,,,,,,,,,,,,,,,,,,,,,,,,,,0.0009065098129212856,None,,,m,,pu,2022_Apr_12_1146,training+cueing,2021.1.4,59.967569570680396,
Stranger.png,You,Stranger,m,1.3,15,25,95,,,,,1,0,1,0,0,0,0,6,,,,,,,,,,,,,,,,,458.0658597999718,None,space,111.00158890010789,2.0132275300566107,None,571.0805854999926,None,1.794,2.112,574.0862408999819,None,574.610934099881,575.1165918998886,575.0999414999969,575.1999980998226,575.0999414999969,575.1999980998226,575.1999980998226,None,m,1,0.9230843000113964,575.1999980998226,None,576.1501770999748,None,,,,,,,,,,,,,,,,,,,,,,,,m,,pu,2022_Apr_12_1146,training+cueing,2021.1.4,59.967569570680396,
Friend.png,You,Friend,m,1.2,14,24,94,,,,,1,0,1,0,0,1,1,3,,,,,,,,,,,,,,,,,,,,,,,,,1.695,2.364,576.5511115998961,None,577.0774202998728,577.5850756999571,577.568439199822,577.6684561998118,577.568439199822,577.6684561998118,577.6684561998118,None,m,1,0.7426853999495506,577.6684561998118,None,578.4357407998759,None,,,,,,,,,,,,,,,,,,,,,,,,m,,pu,2022_Apr_12_1146,training+cueing,2021.1.4,59.967569570680396,
Stranger.png,Stranger,Stranger,c,3,13,23,93,,,,,1,0,1,0,0,2,2,8,,,,,,,,,,,,,,,,,,,,,,,,,1.618,2.068,578.8365958998911,None,579.3736947998405,579.8868175998796,579.8700451999903,579.9867948000319,579.8700451999903,579.9867948000319,579.9700722999405,None,c,1,0.7130558998323977,579.9700722999405,None,580.7040265998803,None,,,,,,,,,,,,,,,,,,,,,,,,m,,pu,2022_Apr_12_1146,training+cueing,2021.1.4,59.967569570680396,
Friend.png,Friend,Friend,c,2,12,22,92,,,,,1,0,1,0,0,3,3,10,,,,,,,,,,,,,,,,,,,,,,,,,1.56,1.998,581.1042875999119,None,581.6359739999752,582.1383636998944,582.1216837000102,582.2384424000047,582.1216837000102,582.2384424000047,582.2217910999898,None,c,1,0.6052934001199901,582.2217910999898,None,582.8537762998603,None,,,,,,,,,,,,,,,,,,,,,,,,m,,pu,2022_Apr_12_1146,training+cueing,2021.1.4,59.967569570680396,
Stranger.png,Stranger,Stranger,c,3,13,23,93,,,,,1,0,1,0,0,4,4,11,,,,,,,,,,,,,,,,,,,,,,,,,1.723,1.563,583.256033899961,None,583.7857462998945,584.2899262998253,584.2732563999016,584.3899742998183,584.2732563999016,584.3899742998183,584.3732698999811,None,c,1,1.0938884001225233,584.3732698999811,None,585.4908484998159,None,,,,,,,,,,,,,,,,,,,,,,,,m,,pu,2022_Apr_12_1146,training+cueing,2021.1.4,59.967569570680396,
Friend.png,Stranger,Friend,m,3.2,19,29,99,,,,,1,0,1,0,0,5,5,5,,,,,,,,,,,,,,,,,,,,,,,,,1.646,1.966,585.8912282998208,None,586.425973800011,586.9251763999928,586.9251763999928,587.0252300000284,586.9251763999928,587.0252300000284,587.0252300000284,None,c,0,0.7138737998902798,587.0252300000284,None,587.7594555998221,None,,,,,,,,,,,,,,,,,,,,,,,,m,,pu,2022_Apr_12_1146,training+cueing,2021.1.4,59.967569570680396,
Self.png,Friend,Self ,m,2.1,16,26,96,,,,,1,0,1,0,0,6,6,1,,,,,,,,,,,,,,,,,,,,,,,,,1.414,1.468,588.1594765000045,None,588.6949400999583,589.2101999998558,589.1934762999881,589.3102428999264,589.1934762999881,589.3102428999264,589.2936170999892,None,m,1,0.6534840997774154,589.2936170999892,None,589.979076199932,None,,,,,,,,,,,,,,,,,,,,,,,,m,,pu,2022_Apr_12_1146,training+cueing,2021.1.4,59.967569570680396,
Friend.png,Friend,Friend,c,2,12,22,92,,,,,1,0,1,0,0,7,7,4,,,,,,,,,,,,,,,,,,,,,,,,,1.618,1.767,590.3943665998522,None,590.9199398998171,591.4284299998544,591.4117797999643,591.5284865999129,591.4117797999643,591.5284865999129,591.5284865999129,None,c,1,1.0266342998947948,591.5284865999129,None,592.5793004999869,None,,,,,,,,,,,,,,,,,,,,,,,,m,,pu,2022_Apr_12_1146,training+cueing,2021.1.4,59.967569570680396,
Stranger.png,Friend,Stranger,m,2.3,17,27,97,,,,,1,0,1,0,0,8,8,7,,,,,,,,,,,,,,,,,,,,,,,,,1.561,1.635,592.9797594998963,None,593.5158214999828,594.0303398999386,594.0136430999264,594.1303776998539,594.0136430999264,594.1303776998539,594.1136358999647,None,m,1,0.7774267999920994,594.1136358999647,None,594.9142509999219,None,,,,,,,,,,,,,,,,,,,,,,,,m,,pu,2022_Apr_12_1146,training+cueing,2021.1.4,59.967569570680396,
Self.png,You,Self ,c,1,11,21,91,,,,,1,0,1,0,0,9,9,9,,,,,,,,,,,,,,,,,,,,,,,,,1.66,2.285,595.3145669999067,None,595.8469294998795,596.348664799938,596.3319933998864,596.4320673998445,596.3319933998864,596.4320673998445,596.4320673998445,None,c,1,0.7150161999743432,596.4320673998445,None,597.165976600023,None,,,,,,,,,,,,,,,,,,,,,,,,m,,pu,2022_Apr_12_1146,training+cueing,2021.1.4,59.967569570680396,
Self.png,You,Self ,c,1,11,21,91,,,,,1,0,1,0,0,10,10,0,,,,,,,,,,,,,,,,,,,,,,,,,1.701,2.497,597.5668105999939,None,598.0935429998208,598.6003019998316,598.5836133998819,598.6836844999343,598.5836133998819,598.6836844999343,598.6836844999343,None,c,1,0.7034318000078201,598.6836844999343,None,599.417585299816,None,,,,,,,,,,,,,,,,,,,,,,,,m,,pu,2022_Apr_12_1146,training+cueing,2021.1.4,59.967569570680396,
Self.png,Stranger,Self ,m,3.1,18,28,98,,,,,1,0,1,0,0,11,11,2,,,,,,,,,,,,,,,,,,,,,,,,,1.535,1.299,599.8185878999066,None,600.3597881000023,600.8685630999971,600.8353086998686,600.935330899898,600.8353086998686,600.935330899898,600.935330899898,None,m,1,0.724295400083065,600.935330899898,None,601.7027885999996,None,,,,,,,,,,,,,,,,,,,,,,,,m,,pu,2022_Apr_12_1146,training+cueing,2021.1.4,59.967569570680396,
Self.png,Stranger,Self ,m,3.1,18,28,98,,,,,1,0,1,0,,,,,0,0,0,2,,,,,,,,,,,,,,,,,,,605.1051786998287,None,1.631,1.306,608.6289337000344,None,,,,,,,,,,,,,,,,602.1028642999008,None,0.014302629977464676,0.5124324299395084,609.1557375998236,609.6584923998453,0.5068797902204096,1.0071810903027654,609.6417793999426,609.7585181000177,609.6417793999426,609.7585181000177,609.7418327999767,None,m,1,1.021285300143063,609.7418327999767,None,,,,,m,,pu,2022_Apr_12_1146,training+cueing,2021.1.4,59.967569570680396,
Self.png,You,Self ,c,1,11,21,91,,,,,1,0,1,0,,,,,0,1,1,0,,,,,,,,,,,,,,,,,,,,,1.588,1.479,610.8997400999069,None,,,,,,,,,,,,,,,,,,,,611.4378340998664,611.9433196999598,0.51042768987827,1.0107272898312658,611.9266251998488,612.026661099866,611.9266251998488,612.026661099866,612.026661099866,None,c,1,0.7524588999804109,612.026661099866,None,,,,,m,,pu,2022_Apr_12_1146,training+cueing,2021.1.4,59.967569570680396,
Self.png,You,Self ,c,1,11,21,91,,,,,1,0,1,0,,,,,0,2,2,9,,,,,,,,,,,,,,,,,,,,,1.786,2.492,612.9164972999133,None,,,,,,,,,,,,,,,,,,,,613.454694799846,613.9614587998949,0.5112283900380135,1.0114783900789917,613.9447924999986,614.0448178998195,613.9447924999986,614.0448178998195,614.0448178998195,None,c,1,0.5903258000034839,614.0448178998195,None,,,,,m,,pu,2022_Apr_12_1146,training+cueing,2021.1.4,59.967569570680396,
Friend.png,Friend,Friend,c,2,12,22,92,,,,,1,0,1,0,,,,,0,3,3,4,,,,,,,,,,,,,,,,,,,,,1.636,1.561,614.7683854999486,None,,,,,,,,,,,,,,,,,,,,615.3061740000267,615.8127828999422,0.5121592900250107,1.0125197898596525,615.796112400014,615.9128384999931,615.796112400014,615.9128384999931,615.8961258998606,None,m,0,1.2990278000943363,615.8961258998606,None,,,,,m,,pu,2022_Apr_12_1146,training+cueing,2021.1.4,59.967569570680396,
Friend.png,You,Friend,m,1.2,14,24,94,,,,,1,0,1,0,,,,,0,4,4,3,,,,,,,,,,,,,,,,,,,,,1.521,2.098,617.3200725999195,None,,,,,,,,,,,,,,,,,,,,617.8616624998394,618.3646280998364,0.5047586902510375,1.0050193902570754,618.3479722000193,618.4480098998174,618.3479722000193,618.4480098998174,618.4480098998174,None,m,1,0.9231288000009954,618.4480098998174,None,,,,,m,,pu,2022_Apr_12_1146,training+cueing,2021.1.4,59.967569570680396,
Stranger.png,Stranger,Stranger,c,3,13,23,93,,,,,1,0,1,0,,,,,0,5,5,11,,,,,,,,,,,,,,,,,,,,,1.484,1.923,619.504460999975,None,,,,,,,,,,,,,,,,,,,,620.0453633000143,620.5495694999117,0.5084878902416676,1.0087185902521014,620.5329294998664,620.649591999827,620.5329294998664,620.649591999827,620.6328950999305,None,c,1,0.9625343999359757,620.6328950999305,None,,,,,m,,pu,2022_Apr_12_1146,training+cueing,2021.1.4,59.967569570680396,
Stranger.png,You,Stranger,m,1.3,15,25,95,,,,,1,0,1,0,,,,,0,6,6,6,,,,,,,,,,,,,,,,,,,,,1.635,1.492,621.7271531999577,None,,,,,,,,,,,,,,,,,,,,622.2625551000237,622.7678143999074,0.5102306900080293,1.010653689969331,622.7511408999562,622.8511795999948,622.7511408999562,622.8511795999948,622.8511795999948,None,m,1,0.7759748001117259,622.8511795999948,None,,,,,m,,pu,2022_Apr_12_1146,training+cueing,2021.1.4,59.967569570680396,
Friend.png,Friend,Friend,c,2,12,22,92,,,,,1,0,1,0,,,,,0,7,7,10,,,,,,,,,,,,,,,,,,,,,1.504,2.274,623.7580967999529,None,,,,,,,,,,,,,,,,,,,,624.2981789000332,624.8028118000366,0.5067380899563432,1.0069634900428355,624.7861332998145,624.9028053998481,624.7861332998145,624.9028053998481,624.8861437998712,None,c,1,1.060956799890846,624.8861437998712,None,,,,,m,,pu,2022_Apr_12_1146,training+cueing,2021.1.4,59.967569570680396,
Stranger.png,Stranger,Stranger,c,3,13,23,93,,,,,1,0,1,0,,,,,0,8,8,8,,,,,,,,,,,,,,,,,,,,,1.656,1.937,626.0763456998393,None,,,,,,,,,,,,,,,,,,,,626.6177069998812,627.1209876998328,0.5058307899162173,1.0060594899114221,627.1043173000216,627.2210275998805,627.1043173000216,627.2210275998805,627.2043228999246,None,m,0,0.7587242000736296,627.2043228999246,None,,,,,m,,pu,2022_Apr_12_1146,training+cueing,2021.1.4,59.967569570680396,
Self.png,Friend,Self ,m,2.1,16,26,96,,,,,1,0,1,0,,,,,0,9,9,1,,,,,,,,,,,,,,,,,,,,,1.452,2.039,628.0942829998676,None,,,,,,,,,,,,,,,,,,,,628.6326557998545,629.1390994999092,0.5121964900754392,1.0124780898913741,629.1224326000083,629.2391659000423,629.1224326000083,629.2391659000423,629.2224536999129,None,m,1,0.9166346001438797,629.2224536999129,None,,,,,m,,pu,2022_Apr_12_1146,training+cueing,2021.1.4,59.967569570680396,
Friend.png,Stranger,Friend,m,3.2,19,29,99,,,,,1,0,1,0,,,,,0,10,10,5,,,,,,,,,,,,,,,,,,,,,1.744,2.355,630.2627546000294,None,,,,,,,,,,,,,,,,,,,,630.8033852998633,631.3073474999983,0.5063011900056154,1.0065482901409268,631.2906943999697,631.407397700008,631.2906943999697,631.407397700008,631.390684499871,None,c,0,0.9243834000080824,631.390684499871,None,,,,,m,,pu,2022_Apr_12_1146,training+cueing,2021.1.4,59.967569570680396,
Stranger.png,Friend,Stranger,m,2.3,17,27,97,,,,,1,0,1,0,,,,,0,11,11,7,,,,,,,,,,,,,,,,,,,,,1.53,2.179,632.4475110999774,None,,,,,,,,,,,,,,,,,,,,632.999717899831,633.5089423998725,0.502852390287444,1.0031243902631104,633.4922787998803,633.609018499963,633.4922787998803,633.609018499963,633.5922959998716,None,m,1,0.930838700151071,633.5922959998716,None,,,,,m,,pu,2022_Apr_12_1146,training+cueing,2021.1.4,59.967569570680396,
Self.png,You,Self ,c,1,11,21,91,,,,,1,0,1,0,,,,,1,0,12,0,,,,,,,,,,,,,,,,,,,,,1.777,1.57,634.6495305998251,None,,,,,,,,,,,,,,,,,,,,635.186202300014,635.6938598998822,0.513144789962098,1.0141339900437742,635.6771686999127,635.7772198999301,635.6771686999127,635.7772198999301,635.7772198999301,None,c,1,0.553990000160411,635.7772198999301,None,,,,,m,,pu,2022_Apr_12_1146,training+cueing,2021.1.4,59.967569570680396,
Friend.png,Stranger,Friend,m,3.2,19,29,99,,,,,1,0,1,0,,,,,1,1,13,5,,,,,,,,,,,,,,,,,,,,,1.61,1.656,636.4664194998331,None,,,,,,,,,,,,,,,,,,,,637.0069375999738,637.5118872998282,0.5097154902759939,1.0099399902392179,637.4951853000093,637.6118667998817,637.4951853000093,637.6118667998817,637.5951962999534,None,c,0,0.7999327001161873,637.5951962999534,None,,,,,m,,pu,2022_Apr_12_1146,training+cueing,2021.1.4,59.967569570680396,
Self.png,Stranger,Self ,m,3.1,18,28,98,,,,,1,0,1,0,,,,,1,2,14,2,,,,,,,,,,,,,,,,,,,,,1.462,1.827,638.5187542999629,None,,,,,,,,,,,,,,,,,,,,639.0541703000199,639.5633306999225,0.501420859945938,1.0017003598622978,639.5466499999166,639.6634022998624,639.5466499999166,639.6634022998624,639.6634022998624,None,m,1,0.7156907999888062,639.6634022998624,None,,,,,m,,pu,2022_Apr_12_1146,training+cueing,2021.1.4,59.967569570680396,
Friend.png,Friend,Friend,c,2,12,22,92,,,,,1,0,1,0,,,,,1,3,15,10,,,,,,,,,,,,,,,,,,,,,1.406,1.41,640.5037654999178,None,,,,,,,,,,,,,,,,,,,,641.0421411998104,641.5480952998623,0.5099449900444597,1.0102564899716526,641.5314151998609,641.6481399999466,641.5314151998609,641.6481399999466,641.6314322999679,None,c,1,0.6356829998549074,641.6314322999679,None,,,,,m,,pu,2022_Apr_12_1146,training+cueing,2021.1.4,59.967569570680396,
Stranger.png,Stranger,Stranger,c,3,13,23,93,,,,,1,0,1,0,,,,,1,4,16,11,,,,,,,,,,,,,,,,,,,,,1.685,1.538,642.4049404000398,None,,,,,,,,,,,,,,,,,,,,642.9695900999941,643.4828719999641,0.5107240199577063,1.0109789201524109,643.4661803999916,643.5828835999127,643.4661803999916,643.5828835999127,643.5661784999538,None,c,1,1.1489536999724805,643.5661784999538,None,,,,,m,,pu,2022_Apr_12_1146,training+cueing,2021.1.4,59.967569570680396,
Friend.png,Friend,Friend,c,2,12,22,92,,,,,1,0,1,0,,,,,1,5,17,4,,,,,,,,,,,,,,,,,,,,,1.532,2.205,644.8403059998527,None,,,,,,,,,,,,,,,,,,,,645.3791743998881,645.8846370000392,0.5103705902583897,1.0106884902343154,645.8678849998396,645.984635300003,645.8678849998396,645.984635300003,645.9679284999147,None,c,1,0.7311197000090033,645.9679284999147,None,,,,,m,,pu,2022_Apr_12_1146,training+cueing,2021.1.4,59.967569570680396,
Stranger.png,Friend,Stranger,m,2.3,17,27,97,,,,,1,0,1,0,,,,,1,6,18,7,,,,,,,,,,,,,,,,,,,,,1.6,1.9,646.8243964998983,None,,,,,,,,,,,,,,,,,,,,647.3599757999182,647.8693128000014,0.5004518597852439,1.0007638598326594,647.8526558999438,647.9693801999092,647.8526558999438,647.9693801999092,647.9693801999092,None,m,1,1.1297695999965072,647.9693801999092,None,,,,,m,,pu,2022_Apr_12_1146,training+cueing,2021.1.4,59.967569570680396,
Self.png,You,Self ,c,1,11,21,91,,,,,1,0,1,0,,,,,1,7,19,9,,,,,,,,,,,,,,,,,,,,,1.624,2.19,649.2265125999693,None,,,,,,,,,,,,,,,,,,,,649.766878399998,650.2710847000126,0.5071487899404019,1.0074199899099767,650.2544217999093,650.3545186999254,650.2544217999093,650.3545186999254,650.3545186999254,None,c,1,0.6007004000712186,650.3545186999254,None,,,,,m,,pu,2022_Apr_12_1146,training+cueing,2021.1.4,59.967569570680396,
Friend.png,You,Friend,m,1.2,14,24,94,,,,,1,0,1,0,,,,,1,8,20,3,,,,,,,,,,,,,,,,,,,,,1.555,1.264,651.078339099884,None,,,,,,,,,,,,,,,,,,,,651.6124674999155,652.1224234998226,0.5007554600015283,1.0010595601052046,652.1057400999125,652.2057941998355,652.1057400999125,652.2057941998355,652.2057941998355,None,c,0,0.7174973001237959,652.2057941998355,None,,,,,m,,pu,2022_Apr_12_1146,training+cueing,2021.1.4,59.967569570680396,
Stranger.png,You,Stranger,m,1.3,15,25,95,,,,,1,0,1,0,,,,,1,9,21,6,,,,,,,,,,,,,,,,,,,,,1.436,1.612,653.0513154999353,None,,,,,,,,,,,,,,,,,,,,653.585928699933,654.0905136999208,0.5093772900290787,1.0095878900028765,654.0738770000171,654.1739314999431,654.0738770000171,654.1739314999431,654.1739314999431,None,m,1,0.9735028999857605,654.1739314999431,None,,,,,m,,pu,2022_Apr_12_1146,training+cueing,2021.1.4,59.967569570680396,
Stranger.png,Stranger,Stranger,c,3,13,23,93,,,,,1,0,1,0,,,,,1,10,22,8,,,,,,,,,,,,,,,,,,,,,1.618,2.121,655.279900399968,None,,,,,,,,,,,,,,,,,,,,655.8204760998487,656.3254694000352,0.5107995900325477,1.0110792899504304,656.30879619997,656.4255198999308,656.30879619997,656.4255198999308,656.408815599978,None,c,1,0.4984081999864429,656.408815599978,None,,,,,m,,pu,2022_Apr_12_1146,training+cueing,2021.1.4,59.967569570680396,
Self.png,Friend,Self ,m,2.1,16,26,96,,,,,1,0,1,0,,,,,1,11,23,1,,,,,,,,,,,,,,,,,,,,,1.711,2.141,657.0350558999926,None,,,,,,,,,,,,,,,,,,,,657.5867018999998,658.0933787999675,0.511665620142594,1.0119555201381445,658.0767500998918,658.1934613999911,658.0767500998918,658.1934613999911,658.1768151000142,None,m,1,0.778272399911657,658.1768151000142,None,,,,,m,,pu,2022_Apr_12_1146,training+cueing,2021.1.4,59.967569570680396,
Stranger.png,Friend,Stranger,m,2.3,17,27,97,,,,,1,0,1,0,,,,,2,0,24,7,,,,,,,,,,,,,,,,,,,,,1.736,2.361,659.0836604000069,None,,,,,,,,,,,,,,,,,,,,659.6434712000191,660.1450341998134,0.5037706200964749,1.0040465202182531,660.1283478999976,660.2450502000283,660.1283478999976,660.2450502000283,660.2283629998565,None,m,1,1.5108986999839544,660.2283629998565,None,,,,,m,,pu,2022_Apr_12_1146,training+cueing,2021.1.4,59.967569570680396,
Self.png,Friend,Self ,m,2.1,16,26,96,,,,,1,0,1,0,,,,,2,1,25,1,,,,,,,,,,,,,,,,,,,,,1.523,1.989,661.8692886999343,None,,,,,,,,,,,,,,,,,,,,662.4043091000058,662.9135546998587,0.5006370595656335,1.000911059556529,662.896930199815,663.0136259999126,662.896930199815,663.0136259999126,663.0136259999126,None,m,1,1.0295021999627352,663.0136259999126,None,,,,,m,,pu,2022_Apr_12_1146,training+cueing,2021.1.4,59.967569570680396,
Self.png,You,Self ,c,1,11,21,91,,,,,1,0,1,0,,,,,2,2,26,0,,,,,,,,,,,,,,,,,,,,,1.471,1.729,664.1700325999409,None,,,,,,,,,,,,,,,,,,,,664.7098464998417,665.2152467998676,0.5080380900762975,1.008346589980647,665.1985563000198,665.29864059994,665.1985563000198,665.29864059994,665.29864059994,None,m,0,0.5525239000562578,665.29864059994,None,,,,,m,,pu,2022_Apr_12_1146,training+cueing,2021.1.4,59.967569570680396,
Self.png,You,Self ,c,1,11,21,91,,,,,1,0,1,0,,,,,2,3,27,9,,,,,,,,,,,,,,,,,,,,,1.439,2.379,665.9887232999317,None,,,,,,,,,,,,,,,,,,,,666.5281436999794,667.0332537000068,0.5102018902543932,1.0106022900436074,667.0164987999015,667.1166772998404,667.0164987999015,667.1166772998404,667.1166772998404,None,c,1,0.558441000059247,667.1166772998404,None,,,,,m,,pu,2022_Apr_12_1146,training+cueing,2021.1.4,59.967569570680396,
Friend.png,Friend,Friend,c,2,12,22,92,,,,,1,0,1,0,,,,,2,4,28,10,,,,,,,,,,,,,,,,,,,,,1.469,1.433,667.8066860998515,None,,,,,,,,,,,,,,,,,,,,668.3477243999951,668.8512768999208,0.5053095899056643,1.005587189923972,668.8345417999662,668.951289499877,668.8345417999662,668.951289499877,668.9346406999975,None,c,1,0.8044794001616538,668.9346406999975,None,,,,,m,,pu,2022_Apr_12_1146,training+cueing,2021.1.4,59.967569570680396,
Stranger.png,Stranger,Stranger,c,3,13,23,93,,,,,1,0,1,0,,,,,2,5,29,11,,,,,,,,,,,,,,,,,,,,,1.407,1.946,669.8744498998858,None,,,,,,,,,,,,,,,,,,,,670.4146203999408,670.9193903999403,0.5094615900889039,1.0104023900348693,670.9026988998521,671.0201006999705,670.9026988998521,671.0201006999705,671.0033301999792,None,m,0,1.087726900121197,671.0033301999792,None,,,,,m,,pu,2022_Apr_12_1146,training+cueing,2021.1.4,59.967569570680396,
Friend.png,You,Friend,m,1.2,14,24,94,,,,,1,0,1,0,,,,,2,6,30,3,,,,,,,,,,,,,,,,,,,,,1.622,2.202,672.2260938999243,None,,,,,,,,,,,,,,,,,,,,672.7679784998763,673.2710967999883,0.5068873902782798,1.0070585901848972,673.254494199995,673.3544298999477,673.254494199995,673.3544298999477,673.3544298999477,None,m,1,0.9127730000764132,673.3544298999477,None,,,,,m,,pu,2022_Apr_12_1146,training+cueing,2021.1.4,59.967569570680396,
Stranger.png,You,Stranger,m,1.3,15,25,95,,,,,1,0,1,0,,,,,2,7,31,6,,,,,,,,,,,,,,,,,,,,,1.466,1.373,674.395049699815,None,,,,,,,,,,,,,,,,,,,,674.9319629999809,675.4393118999433,0.5127822901122272,1.0130631900392473,675.4226526999846,675.522658099886,675.4226526999846,675.522658099886,675.522658099886,None,m,1,1.3045266999397427,675.522658099886,None,,,,,m,,pu,2022_Apr_12_1146,training+cueing,2021.1.4,59.967569570680396,
Friend.png,Stranger,Friend,m,3.2,19,29,99,,,,,1,0,1,0,,,,,2,8,32,5,,,,,,,,,,,,,,,,,,,,,1.753,1.72,676.9640680998564,None,,,,,,,,,,,,,,,,,,,,677.5037255999632,678.0078652999364,0.5077062901109457,1.0081073900219053,677.9911779998802,678.107924599899,677.9911779998802,678.107924599899,678.0911975000054,None,m,1,1.5198924001306295,678.0911975000054,None,,,,,m,,pu,2022_Apr_12_1146,training+cueing,2021.1.4,59.967569570680396,
Self.png,Stranger,Self ,m,3.1,18,28,98,,,,,1,0,1,0,,,,,2,9,33,2,,,,,,,,,,,,,,,,,,,,,1.464,1.558,679.7489367998205,None,,,,,,,,,,,,,,,,,,,,680.2869969999883,680.7932013999671,0.512858489761129,1.0131546899210662,680.7765460000373,680.8932647998445,680.7765460000373,680.8932647998445,680.8765485000331,None,m,1,0.8145075999200344,680.8765485000331,None,,,,,m,,pu,2022_Apr_12_1146,training+cueing,2021.1.4,59.967569570680396,
Stranger.png,Stranger,Stranger,c,3,13,23,93,,,,,1,0,1,0,,,,,2,10,34,8,,,,,,,,,,,,,,,,,,,,,1.674,2.237,681.8162986999378,None,,,,,,,,,,,,,,,,,,,,682.3518190998584,682.8613022000063,0.499577890150249,0.9997493901755661,682.8280694000423,682.9280834998935,682.8280694000423,682.9280834998935,682.9280834998935,None,c,1,0.9070673000533134,682.9280834998935,None,,,,,m,,pu,2022_Apr_12_1146,training+cueing,2021.1.4,59.967569570680396,
Friend.png,Friend,Friend,c,2,12,22,92,,,,,1,0,1,0,,,,,2,11,35,4,,,,,,,,,,,,,,,,,,,,,1.577,1.312,683.9687055000104,None,,,,,,,,,,,,,,,,,,,,684.5094375999179,685.0129318998661,0.5075019903015345,1.0077462901826948,684.996283599874,685.1129754998256,684.996283599874,685.1129754998256,685.0962840998545,None,c,1,0.5307867999654263,685.0962840998545,None,,,,,m,,pu,2022_Apr_12_1146,training+cueing,2021.1.4,59.967569570680396,
Self.png,Friend,Self ,m,2.1,16,26,96,,,,,1,0,1,0,,,,,3,0,36,1,,,,,,,,,,,,,,,,,,,,,1.694,2.217,685.7529203998856,None,,,,,,,,,,,,,,,,,,,,686.2910151998512,686.7975786998868,0.5109840899240226,1.0112601900473237,686.7809007999022,686.8976180998143,686.7809007999022,686.8976180998143,686.8809016000014,None,c,0,0.6023073999676853,686.8809016000014,None,,,,,m,,pu,2022_Apr_12_1146,training+cueing,2021.1.4,59.967569570680396,
Self.png,You,Self ,c,1,11,21,91,,,,,1,0,1,0,,,,,3,1,37,0,,,,,,,,,,,,,,,,,,,,,1.686,1.896,687.6213020998985,None,,,,,,,,,,,,,,,,,,,,688.1604406998958,688.6656049999874,0.5106433902401477,1.0109237902797759,688.6489088998642,688.7489346999209,688.6489088998642,688.7489346999209,688.7489346999209,None,c,1,0.4781762999482453,688.7489346999209,None,,,,,m,,pu,2022_Apr_12_1146,training+cueing,2021.1.4,59.967569570680396,
Stranger.png,You,Stranger,m,1.3,15,25,95,,,,,1,0,1,0,,,,,3,2,38,6,,,,,,,,,,,,,,,,,,,,,1.463,1.234,689.3555693000089,None,,,,,,,,,,,,,,,,,,,,689.8942378000356,690.4001644998789,0.5125745900440961,1.0128989899531007,690.383478899952,690.4835708998144,690.383478899952,690.4835708998144,690.4835708998144,None,m,1,0.9196166999172419,690.4835708998144,None,,,,,m,,pu,2022_Apr_12_1146,training+cueing,2021.1.4,59.967569570680396,
Stranger.png,Friend,Stranger,m,2.3,17,27,97,,,,,1,0,1,0,,,,,3,3,39,7,,,,,,,,,,,,,,,,,,,,,1.598,1.992,691.5411563999951,None,,,,,,,,,,,,,,,,,,,,692.0784948999062,692.5850815000013,0.5115134899970144,1.0117743900045753,692.5684274998493,692.6851394998375,692.5684274998493,692.6851394998375,692.6684536000248,None,m,1,1.1507453999947757,692.6684536000248,None,,,,,m,,pu,2022_Apr_12_1146,training+cueing,2021.1.4,59.967569570680396,
Stranger.png,Stranger,Stranger,c,3,13,23,93,,,,,1,0,1,0,,,,,3,4,40,11,,,,,,,,,,,,,,,,,,,,,1.72,1.345,693.942221299978,None,,,,,,,,,,,,,,,,,,,,694.4847658998333,694.9868144998327,0.5055060901213437,1.0057901900727302,694.9701467000414,695.0868795998394,694.9701467000414,695.0868795998394,695.0701663999353,None,c,1,0.7648747998755425,695.0701663999353,None,,,,,m,,pu,2022_Apr_12_1146,training+cueing,2021.1.4,59.967569570680396,
Self.png,You,Self ,c,1,11,21,91,,,,,1,0,1,0,,,,,3,5,41,9,,,,,,,,,,,,,,,,,,,,,1.794,2.143,695.9598850000184,None,,,,,,,,,,,,,,,,,,,,696.5196553999558,697.0216230999213,0.5057341200299561,1.0060262200422585,697.0049655998591,697.105012399843,697.0049655998591,697.105012399843,697.105012399843,None,c,1,0.6181235001422465,697.105012399843,None,,,,,m,,pu,2022_Apr_12_1146,training+cueing,2021.1.4,59.967569570680396,
Friend.png,You,Friend,m,1.2,14,24,94,,,,,1,0,1,0,,,,,3,6,42,3,,,,,,,,,,,,,,,,,,,,,1.512,1.818,697.8451304000337,None,,,,,,,,,,,,,,,,,,,,698.3945456999354,698.9063528999686,0.5054900899995118,1.0057999901473522,698.8896430998575,698.9897328999359,698.8896430998575,698.9897328999359,698.9897328999359,None,m,1,1.3893766000401229,698.9897328999359,None,,,,,m,,pu,2022_Apr_12_1146,training+cueing,2021.1.4,59.967569570680396,
Friend.png,Stranger,Friend,m,3.2,19,29,99,,,,,1,0,1,0,,,,,3,7,43,5,,,,,,,,,,,,,,,,,,,,,1.618,2.051,700.5133664999157,None,,,,,,,,,,,,,,,,,,,,701.0558872998226,701.5582379999105,0.5047850902192295,1.0050433902069926,701.5415964999702,701.658311399864,701.5415964999702,701.658311399864,701.64158639987,None,m,1,1.1695683000143617,701.64158639987,None,,,,,m,,pu,2022_Apr_12_1146,training+cueing,2021.1.4,59.967569570680396,
Self.png,Stranger,Self ,m,3.1,18,28,98,,,,,1,0,1,0,,,,,3,8,44,2,,,,,,,,,,,,,,,,,,,,,1.425,1.657,702.9485792999621,None,,,,,,,,,,,,,,,,,,,,703.4862146999221,703.993355799932,0.5120609898585826,1.0123617900535464,703.9766734000295,704.0934025000315,703.9766734000295,704.0934025000315,704.0766977998428,None,m,1,1.262440200196579,704.0766977998428,None,,,,,m,,pu,2022_Apr_12_1146,training+cueing,2021.1.4,59.967569570680396,
Stranger.png,Stranger,Stranger,c,3,13,23,93,,,,,1,0,1,0,,,,,3,9,45,8,,,,,,,,,,,,,,,,,,,,,1.78,1.508,705.4672675000038,None,,,,,,,,,,,,,,,,,,,,706.0056020999327,706.5118456999771,0.5120086902752519,1.0123281902633607,706.4951496999711,706.6118903998286,706.4951496999711,706.6118903998286,706.5951932999305,None,c,1,1.0478656000923365,706.5951932999305,None,,,,,m,,pu,2022_Apr_12_1146,training+cueing,2021.1.4,59.967569570680396,
Friend.png,Friend,Friend,c,2,12,22,92,,,,,1,0,1,0,,,,,3,10,46,10,,,,,,,,,,,,,,,,,,,,,1.666,2.195,707.7688010998536,None,,,,,,,,,,,,,,,,,,,,708.3223107999656,708.8301390998531,0.49918471998535097,0.9994781198911369,708.7968376998324,708.896886699833,708.7968376998324,708.896886699833,708.896886699833,None,c,1,0.7462375001050532,708.896886699833,None,,,,,m,,pu,2022_Apr_12_1146,training+cueing,2021.1.4,59.967569570680396,
Friend.png,Friend,Friend,c,2,12,22,92,,,,,1,0,1,0,,,,,3,11,47,4,,,,,,,,,,,,,,,,,,,,,1.683,1.875,709.7702094998676,None,,,,,,,,,,,,,,,,,,,,710.307625999907,710.8149565998465,0.5118276898283511,1.0121384898666292,710.7982683998998,710.915019299835,710.7982683998998,710.915019299835,710.8982963999733,None,c,1,0.5688423998653889,710.8982963999733,None,,,,,m,,pu,2022_Apr_12_1146,training+cueing,2021.1.4,59.967569570680396,
Self.png,Friend,Self ,m,2.1,16,26,96,,,,,1,0,1,0,,,,,4,0,48,1,,,,,,,,,,,,,,,,,,,,,1.472,2.199,711.6052784000058,None,,,,,,,,,,,,,,,,,,,,712.143823399907,712.6496315000113,0.5114153902977705,1.0117636902723461,712.6329306999687,712.7496611999813,712.6329306999687,712.7496611999813,712.7329797998536,None,m,1,0.8301927000284195,712.7329797998536,None,,,,,m,,pu,2022_Apr_12_1146,training+cueing,2021.1.4,59.967569570680396,
Friend.png,Stranger,Friend,m,3.2,19,29,99,,,,,1,0,1,0,,,,,4,1,49,5,,,,,,,,,,,,,,,,,,,,,1.617,2.015,713.6896393999923,None,,,,,,,,,,,,,,,,,,,,714.2286107998807,714.7344275999349,0.5109752900898457,1.0113688900601119,714.7177901999094,714.8344866998959,714.7177901999094,714.8344866998959,714.8178069998976,None,m,1,1.3693823998328298,714.8178069998976,None,,,,,m,,pu,2022_Apr_12_1146,training+cueing,2021.1.4,59.967569570680396,
Self.png,You,Self ,c,1,11,21,91,,,,,1,0,1,0,,,,,4,2,50,9,,,,,,,,,,,,,,,,,,,,,1.493,1.914,716.3245845998172,None,,,,,,,,,,,,,,,,,,,,716.8628948999103,717.3697122000158,0.5114088898990303,1.0117273898795247,717.3530329999048,717.4530774999876,717.3530329999048,717.4530774999876,717.4530774999876,None,c,1,0.7019509000238031,717.4530774999876,None,,,,,m,,pu,2022_Apr_12_1146,training+cueing,2021.1.4,59.967569570680396,
Stranger.png,Stranger,Stranger,c,3,13,23,93,,,,,1,0,1,0,,,,,4,3,51,8,,,,,,,,,,,,,,,,,,,,,1.693,1.557,718.2933528998401,None,,,,,,,,,,,,,,,,,,,,718.8362104999833,719.337844699854,0.5038384899962693,1.004035189980641,719.3211896999273,719.4378646998666,719.3211896999273,719.4378646998666,719.4211485998239,None,c,1,1.1020523998886347,719.4211485998239,None,,,,,m,,pu,2022_Apr_12_1146,training+cueing,2021.1.4,59.967569570680396,
Stranger.png,Friend,Stranger,m,2.3,17,27,97,,,,,1,0,1,0,,,,,4,4,52,7,,,,,,,,,,,,,,,,,,,,,1.618,1.46,720.6445991999935,None,,,,,,,,,,,,,,,,,,,,721.1844754000194,721.6895098998211,0.508232390275225,1.0085494902450591,721.6728375998791,721.7896133998875,721.6728375998791,721.7896133998875,721.7728587999009,None,c,0,1.070336899952963,721.7728587999009,None,,,,,m,,pu,2022_Apr_12_1146,training+cueing,2021.1.4,59.967569570680396,
Stranger.png,Stranger,Stranger,c,3,13,23,93,,,,,1,0,1,0,,,,,4,5,53,11,,,,,,,,,,,,,,,,,,,,,1.733,1.885,722.9812079998665,None,,,,,,,,,,,,,,,,,,,,723.5193894999102,724.0245347998571,0.5105780898593366,1.010880489833653,724.0078487999272,724.1245974998455,724.0078487999272,724.1245974998455,724.1079057999887,None,m,0,0.7352257999591529,724.1079057999887,None,,,,,m,,pu,2022_Apr_12_1146,training+cueing,2021.1.4,59.967569570680396,
Self.png,You,Self ,c,1,11,21,91,,,,,1,0,1,0,,,,,4,6,54,0,,,,,,,,,,,,,,,,,,,,,1.464,2.146,724.9649749998935,None,,,,,,,,,,,,,,,,,,,,725.5053832998965,726.0093050999567,0.5082585902418941,1.0085003902204335,725.9926716999616,726.0926649998873,725.9926716999616,726.0926649998873,726.0926649998873,None,c,1,0.5265363999642432,726.0926649998873,None,,,,,m,,pu,2022_Apr_12_1146,training+cueing,2021.1.4,59.967569570680396,
Friend.png,You,Friend,m,1.2,14,24,94,,,,,1,0,1,0,,,,,4,7,55,3,,,,,,,,,,,,,,,,,,,,,1.628,2.045,726.7489890998695,None,,,,,,,,,,,,,,,,,,,,727.2875454998575,727.7939633999486,0.5112355903256685,1.0114933904260397,727.777285899967,727.8773113000207,727.777285899967,727.8773113000207,727.8773113000207,None,c,0,1.2057836998719722,727.8773113000207,None,,,,,m,,pu,2022_Apr_12_1146,training+cueing,2021.1.4,59.967569570680396,
Stranger.png,You,Stranger,m,1.3,15,25,95,,,,,1,0,1,0,,,,,4,8,56,6,,,,,,,,,,,,,,,,,,,,,1.594,1.246,729.2166452999227,None,,,,,,,,,,,,,,,,,,,,729.756154499948,730.2623914999422,0.5121924900449812,1.0124882902018726,730.2457270999439,730.3457581000403,730.2457270999439,730.3457581000403,730.3457581000403,None,m,1,0.9613786002155393,730.3457581000403,None,,,,,m,,pu,2022_Apr_12_1146,training+cueing,2021.1.4,59.967569570680396,
Self.png,Stranger,Self ,m,3.1,18,28,98,,,,,1,0,1,0,,,,,4,9,57,2,,,,,,,,,,,,,,,,,,,,,1.588,1.984,731.4360823000316,None,,,,,,,,,,,,,,,,,,,,732.0318173998967,732.5473845000379,0.5150661799125373,1.0153796798549592,732.5307036999147,732.6474204999395,732.5307036999147,732.6474204999395,732.6307276999578,None,m,1,0.8364019999280572,732.6307276999578,None,,,,,m,,pu,2022_Apr_12_1146,training+cueing,2021.1.4,59.967569570680396,
Friend.png,Friend,Friend,c,2,12,22,92,,,,,1,0,1,0,,,,,4,10,58,4,,,,,,,,,,,,,,,,,,,,,1.62,1.809,733.6048540000338,None,,,,,,,,,,,,,,,,,,,,734.1561618999112,734.6656282998156,0.5017368900589645,1.0020431901793927,734.6489085999783,734.7656315998174,734.6489085999783,734.7656315998174,734.7656315998174,None,c,1,0.7175521999597549,734.7656315998174,None,,,,,m,,pu,2022_Apr_12_1146,training+cueing,2021.1.4,59.967569570680396,
Friend.png,Friend,Friend,c,2,12,22,92,,,,,1,0,1,0,,,,,4,11,59,10,,,,,,,,,,,,,,,,,,,,,1.762,1.27,735.6056727999821,None,,,,,,,,,,,,,,,,,,,,736.1421568000223,736.650300399866,0.5000896900892258,1.000376689946279,736.6169850998558,736.7170328998473,736.6169850998558,736.7170328998473,736.7170328998473,None,c,1,0.4781948998570442,736.7170328998473,None,,,,,m,,pu,2022_Apr_12_1146,training+cueing,2021.1.4,59.967569570680396,
Friend.png,You,Friend,m,1.2,14,24,94,,,,,1,0,1,0,,,,,5,0,60,3,,,,,,,,,,,,,,,,,,,,,1.758,1.636,737.3232846998144,None,,,,,,,,,,,,,,,,,,,,737.8626861998346,738.3682704998646,0.5087962900288403,1.0091245900839567,738.3515857998282,738.4516357998364,738.3515857998282,738.4516357998364,738.4516357998364,None,m,1,1.1115498000290245,738.4516357998364,None,,,,,m,,pu,2022_Apr_12_1146,training+cueing,2021.1.4,59.967569570680396,
Stranger.png,You,Stranger,m,1.3,15,25,95,,,,,1,0,1,0,,,,,5,1,61,6,,,,,,,,,,,,,,,,,,,,,1.74,2.324,739.6920707998797,None,,,,,,,,,,,,,,,,,,,,740.2283954999875,740.7366392000113,0.499157490208745,0.9994713901542127,740.7032838999294,740.8033141000196,740.7032838999294,740.8033141000196,740.8033141000196,None,m,1,1.3358261999674141,740.8033141000196,None,,,,,m,,pu,2022_Apr_12_1146,training+cueing,2021.1.4,59.967569570680396,
Friend.png,Friend,Friend,c,2,12,22,92,,,,,1,0,1,0,,,,,5,2,62,10,,,,,,,,,,,,,,,,,,,,,1.559,1.541,742.2775103999302,None,,,,,,,,,,,,,,,,,,,,742.8157728998922,743.3220178999472,0.5117544902022928,1.0120269902981818,743.3051950000226,743.421903599985,743.3051950000226,743.421903599985,743.4052093999926,None,c,1,0.7499220999889076,743.4052093999926,None,,,,,m,,pu,2022_Apr_12_1146,training+cueing,2021.1.4,59.967569570680396,
Friend.png,Friend,Friend,c,2,12,22,92,,,,,1,0,1,0,,,,,5,3,63,4,,,,,,,,,,,,,,,,,,,,,1.588,2.162,744.2782427999191,None,,,,,,,,,,,,,,,,,,,,744.8166963998228,745.3233649998438,0.5112355900928378,1.0115148900076747,745.3066294998862,745.4233562999871,745.3066294998862,745.4233562999871,745.4066700998228,None,m,0,0.82847879990004,745.4066700998228,None,,,,,m,,pu,2022_Apr_12_1146,training+cueing,2021.1.4,59.967569570680396,
Self.png,Friend,Self ,m,2.1,16,26,96,,,,,1,0,1,0,,,,,5,4,64,1,,,,,,,,,,,,,,,,,,,,,1.533,1.985,746.3635352000128,None,,,,,,,,,,,,,,,,,,,,746.8997710999101,747.4081733999774,0.5005690599791706,1.0008950599003583,747.3914538000245,747.5082101998851,747.3914538000245,747.5082101998851,747.5082101998851,None,m,1,0.7269282001070678,747.5082101998851,None,,,,,m,,pu,2022_Apr_12_1146,training+cueing,2021.1.4,59.967569570680396,
Self.png,You,Self ,c,1,11,21,91,,,,,1,0,1,0,,,,,5,5,65,9,,,,,,,,,,,,,,,,,,,,,1.414,1.834,748.3653631999623,None,,,,,,,,,,,,,,,,,,,,748.9058983998839,749.4095940999687,0.5078286901116371,1.0081349902320653,749.3929293998517,749.4929966998752,749.3929293998517,749.4929966998752,749.4929966998752,None,m,0,0.4541271000634879,749.4929966998752,None,,,,,m,,pu,2022_Apr_12_1146,training+cueing,2021.1.4,59.967569570680396,
Stranger.png,Stranger,Stranger,c,3,13,23,93,,,,,1,0,1,0,,,,,5,6,66,11,,,,,,,,,,,,,,,,,,,,,1.643,1.675,750.0827375999652,None,,,,,,,,,,,,,,,,,,,,750.6239223999437,751.1275222999975,0.5048940901178867,1.0051451900508255,751.1108646998182,751.2275561999995,751.1108646998182,751.2275561999995,751.2108739998657,None,c,1,0.7842717999592423,751.2108739998657,None,,,,,m,,pu,2022_Apr_12_1146,training+cueing,2021.1.4,59.967569570680396,
Self.png,Stranger,Self ,m,3.1,18,28,98,,,,,1,0,1,0,,,,,5,7,67,2,,,,,,,,,,,,,,,,,,,,,1.76,2.387,752.1177226,None,,,,,,,,,,,,,,,,,,,,752.6554914999288,753.1623241999187,0.5140122901648283,1.0143601901363581,753.145650099963,753.262377299834,753.145650099963,753.262377299834,753.2456703998614,None,m,1,1.0537384001072496,753.2456703998614,None,,,,,m,,pu,2022_Apr_12_1146,training+cueing,2021.1.4,59.967569570680396,
Stranger.png,Friend,Stranger,m,2.3,17,27,97,,,,,1,0,1,0,,,,,5,8,68,7,,,,,,,,,,,,,,,,,,,,,1.774,1.635,754.4400708000176,None,,,,,,,,,,,,,,,,,,,,754.9749779000413,755.4806905000005,0.5083901900798082,1.0086694899946451,755.4639927998651,755.5807070999872,755.4639927998651,755.5807070999872,755.5639780999627,None,m,1,0.8311065998859704,755.5639780999627,None,,,,,m,,pu,2022_Apr_12_1146,training+cueing,2021.1.4,59.967569570680396,
Stranger.png,Stranger,Stranger,c,3,13,23,93,,,,,1,0,1,0,,,,,5,9,69,8,,,,,,,,,,,,,,,,,,,,,1.488,1.221,756.5207419998478,None,,,,,,,,,,,,,,,,,,,,757.0623894999735,757.5655084999744,0.5069134901277721,1.0071978901978582,757.54884329997,757.6655633999035,757.54884329997,757.6655633999035,757.6488532999065,None,m,0,0.9062716998159885,757.6488532999065,None,,,,,m,,pu,2022_Apr_12_1146,training+cueing,2021.1.4,59.967569570680396,
Self.png,You,Self ,c,1,11,21,91,,,,,1,0,1,0,,,,,5,10,70,0,,,,,,,,,,,,,,,,,,,,,1.778,1.204,758.689049599925,None,,,,,,,,,,,,,,,,,,,,759.2297616999131,759.733749799896,0.507192290155217,1.0074557901825756,759.717074799817,759.8171178998891,759.717074799817,759.8171178998891,759.8171178998891,None,c,1,0.6099518998526037,759.8171178998891,None,,,,,m,,pu,2022_Apr_12_1146,training+cueing,2021.1.4,59.967569570680396,
Friend.png,Stranger,Friend,m,3.2,19,29,99,,,,,1,0,1,0,,,,,5,11,71,5,,,,,,,,,,,,,,,,,,,,,1.691,1.269,760.5564617998898,None,,,,,,,,,,,,,,,,,,,,761.0968065999914,761.6017564998474,0.5076865900773555,1.007990790065378,761.585091299843,761.7018248999957,761.585091299843,761.7018248999957,761.6851154998876,None,m,1,1.0460369000211358,761.6851154998876,None,,,,,m,,pu,2022_Apr_12_1146,training+cueing,2021.1.4,59.967569570680396,
Stranger.png,Stranger,Stranger,c,3,13,23,93,,,,,1,0,1,0,,,,,6,0,72,8,,,,,,,,,,,,,,,,,,,,,1.458,2.411,762.8588387998752,None,,,,,,,,,,,,,,,,,,,,763.3944375000428,763.9034616998397,0.501128259813413,1.0016470598056912,763.8867724998854,764.0040641999803,763.8867724998854,764.0040641999803,764.0040641999803,None,c,1,0.4871517999563366,764.0040641999803,None,,,,,m,,pu,2022_Apr_12_1146,training+cueing,2021.1.4,59.967569570680396,
Friend.png,You,Friend,m,1.2,14,24,94,,,,,1,0,1,0,,,,,6,1,73,3,,,,,,,,,,,,,,,,,,,,,1.742,2.273,764.6284619998187,None,,,,,,,,,,,,,,,,,,,,765.1683338999283,765.6713425000198,0.5059738899581134,1.0062886897940189,765.6547180998605,765.7547501998488,765.6547180998605,765.7547501998488,765.7547501998488,None,m,1,1.3124600001610816,765.7547501998488,None,,,,,m,,pu,2022_Apr_12_1146,training+cueing,2021.1.4,59.967569570680396,
Self.png,Friend,Self ,m,2.1,16,26,96,,,,,1,0,1,0,,,,,6,2,74,1,,,,,,,,,,,,,,,,,,,,,1.746,2.216,767.1952688999008,None,,,,,,,,,,,,,,,,,,,,767.7338379998691,768.2399236999918,0.5100763898808509,1.0103440899401903,768.2232341000345,768.3399612999056,768.2232341000345,768.3399612999056,768.3232664000243,None,m,1,0.9039229000918567,768.3232664000243,None,,,,,m,,pu,2022_Apr_12_1146,training+cueing,2021.1.4,59.967569570680396,
Self.png,You,Self ,c,1,11,21,91,,,,,1,0,1,0,,,,,6,3,75,0,,,,,,,,,,,,,,,,,,,,,1.626,2.466,769.3636117000133,None,,,,,,,,,,,,,,,,,,,,769.9044049000368,770.4081929000095,0.5073299903888255,1.007634290261194,770.3914896999486,770.4915245999582,770.3914896999486,770.4915245999582,770.4915245999582,None,c,1,0.7516371998935938,770.4915245999582,None,,,,,m,,pu,2022_Apr_12_1146,training+cueing,2021.1.4,59.967569570680396,
Friend.png,Stranger,Friend,m,3.2,19,29,99,,,,,1,0,1,0,,,,,6,4,76,5,,,,,,,,,,,,,,,,,,,,,1.497,2.04,771.3649306998122,None,,,,,,,,,,,,,,,,,,,,771.9036734998226,772.4096188000403,0.5103686903603375,1.0106819903012365,772.3929190998897,772.5096495999023,772.3929190998897,772.5096495999023,772.4929818999954,None,c,0,1.1341673999559134,772.4929818999954,None,,,,,m,,pu,2022_Apr_12_1146,training+cueing,2021.1.4,59.967569570680396,
Stranger.png,Friend,Stranger,m,2.3,17,27,97,,,,,1,0,1,0,,,,,6,5,77,7,,,,,,,,,,,,,,,,,,,,,1.441,1.237,773.75003320002,None,,,,,,,,,,,,,,,,,,,,774.2918964999262,774.7947027999908,0.5058124898932874,1.0060816900804639,774.7779941998888,774.8947369998787,774.7779941998888,774.8947369998787,774.8780376999639,None,m,1,0.7490381000097841,774.8780376999639,None,,,,,m,,pu,2022_Apr_12_1146,training+cueing,2021.1.4,59.967569570680396,
Friend.png,Friend,Friend,c,2,12,22,92,,,,,1,0,1,0,,,,,6,6,78,4,,,,,,,,,,,,,,,,,,,,,1.654,2.472,775.7517913000192,None,,,,,,,,,,,,,,,,,,,,776.2889236998744,776.7961175998207,0.5132967901881784,1.013616390293464,776.7794162000064,776.8961646999232,776.7794162000064,776.8961646999232,776.8794575999491,None,c,1,0.811734699876979,776.8794575999491,None,,,,,m,,pu,2022_Apr_12_1146,training+cueing,2021.1.4,59.967569570680396,
Friend.png,Friend,Friend,c,2,12,22,92,,,,,1,0,1,0,,,,,6,7,79,10,,,,,,,,,,,,,,,,,,,,,1.406,1.491,777.818607499823,None,,,,,,,,,,,,,,,,,,,,778.3578382998239,778.8643076999579,0.5114972901064903,1.011804690118879,778.8476157998666,778.9643961000256,778.8476157998666,778.9643961000256,778.947893399978,None,c,1,0.6633329999167472,778.947893399978,None,,,,,m,,pu,2022_Apr_12_1146,training+cueing,2021.1.4,59.967569570680396,
Self.png,You,Self ,c,1,11,21,91,,,,,1,0,1,0,,,,,6,8,80,9,,,,,,,,,,,,,,,,,,,,,1.473,1.629,779.7378024000209,None,,,,,,,,,,,,,,,,,,,,780.2766437998507,780.7822992999572,0.5114669899921864,1.0116935900878161,780.7657007998787,780.8657249999233,780.7657007998787,780.8657249999233,780.8657249999233,None,m,0,0.5695158001035452,780.8657249999233,None,,,,,m,,pu,2022_Apr_12_1146,training+cueing,2021.1.4,59.967569570680396,
Stranger.png,You,Stranger,m,1.3,15,25,95,,,,,1,0,1,0,,,,,6,9,81,6,,,,,,,,,,,,,,,,,,,,,1.729,1.761,781.5735077999998,None,,,,,,,,,,,,,,,,,,,,782.1129709999077,782.6170122998301,0.5075578899122775,1.0078479899093509,782.6003379998729,782.7004163998645,782.6003379998729,782.7004163998645,782.7004163998645,None,m,1,1.2947941001038998,782.7004163998645,None,,,,,m,,pu,2022_Apr_12_1146,training+cueing,2021.1.4,59.967569570680396,
Stranger.png,Stranger,Stranger,c,3,13,23,93,,,,,1,0,1,0,,,,,6,10,82,11,,,,,,,,,,,,,,,,,,,,,1.721,1.512,784.1239098999649,None,,,,,,,,,,,,,,,,,,,,784.6649547999259,785.1688498998992,0.5058348900638521,1.0061412900686264,785.1521771999542,785.2688986998983,785.1521771999542,785.2688986998983,785.2522054999135,None,c,1,0.9349569999612868,785.2522054999135,None,,,,,m,,pu,2022_Apr_12_1146,training+cueing,2021.1.4,59.967569570680396,
Self.png,Stranger,Self ,m,3.1,18,28,98,,,,,1,0,1,0,,,,,6,11,83,2,,,,,,,,,,,,,,,,,,,,,1.464,1.88,786.3088447998744,None,,,,,,,,,,,,,,,,,,,,786.8498016998637,787.3537613998633,0.5089116902090609,1.0092297901865095,787.3370911998209,787.4538654999342,787.3370911998209,787.4538654999342,787.4371120999567,None,m,1,0.8940495001152158,787.4371120999567,None,,,,,m,,pu,2022_Apr_12_1146,training+cueing,2021.1.4,59.967569570680396,
