Image,Name,Face,CorrAns,Match,Face_onset,CResponse_onset,IResponse_onset,Match.thisRepN,Match.thisTrialN,Match.thisN,Match.thisIndex,Blocks.thisRepN,Blocks.thisTrialN,Blocks.thisN,Blocks.thisIndex,trials.thisRepN,trials.thisTrialN,trials.thisN,trials.thisIndex,trials_2.thisRepN,trials_2.thisTrialN,trials_2.thisN,trials_2.thisIndex,text.started,text.stopped,p1.started,p1.stopped,MatchInstructions.started,MatchInstructions.stopped,Name1.started,Name1.stopped,Face_Relevance.started,Face_Relevance.stopped,MismatchInstructions.started,MismatchInstructions.stopped,Rest_trainingInstruct.started,Rest_trainingInstruct.stopped,next8.keys,next8.rt,next8.started,next8.stopped,Ready.started,Ready.stopped,delay_one_picked,delay_two_picked,blank0.started,blank0.stopped,FixationCross1.started,FixationCross1.stopped,Name3.started,Name3.stopped,Face_Relevance3.started,Face_Relevance3.stopped,responseTime.started,responseTime.stopped,resp.keys,resp.corr,resp.started,resp.stopped,Accuracy.started,Accuracy.stopped,resp.rt,questions.started,questions.stopped,p2.started,p2.stopped,FixationCross3.started,FixationCross3.stopped,port_Face_onset.started,port_Face_onset.stopped,Name4.started,Name4.stopped,Face_Relevance4.started,Face_Relevance4.stopped,responseTime2.started,responseTime2.stopped,Response.keys,Response.corr,Response.rt,Response.started,Response.stopped,p3.started,p3.stopped,Finish.started,Finish.stopped,gender,age,participant,date,expName,psychopyVersion,frameRate,
Friend.png,Friend,,,,,,,0,0,0,1,,,,,,,,,,,,,14.800057700020261,None,0.006080059916712344,0.5277508599101566,28.54960030002985,None,101.0564131999854,None,101.0564131999854,None,,,,,,,,,,,,,,,,,,,,,,,,,,,,,,,,,,,,,,,,,,,,,,,,,,,,,,,pw,2022_Apr_18_1143,training+cueing,2021.1.4,59.981957422495825,
Stranger.png,Stranger,,,,,,,0,1,1,2,,,,,,,,,,,,,,,,,,,120.96110140002565,None,120.96110140002565,None,,,,,,,,,,,,,,,,,,,,,,,,,,,,,,,,,,,,,,,,,,,,,,,,,,,,,,,pw,2022_Apr_18_1143,training+cueing,2021.1.4,59.981957422495825,
Self.png,You,,,,,,,0,2,2,0,,,,,,,,,,,,,,,,,,,140.95795020001242,None,140.95795020001242,None,,,,,,,,,,,,,,,,,,,,,,,,,,,,,,,,,,,,,,,,,,,,,,,,,,,,,,,pw,2022_Apr_18_1143,training+cueing,2021.1.4,59.981957422495825,
Stranger.png,Friend,Stranger,m,2.3,17,27,97,,,,,0,0,0,0,0,0,0,7,,,,,,,,,,,,,,,160.9122706000344,None,236.35003249999136,None,space,-0.8376298000221141,2.0076344599947333,None,238.3516792000155,None,1.463,1.854,241.36805950000416,None,241.99441380001372,242.50449240003945,242.48783759999787,242.60452069999883,242.48783759999787,242.60452069999883,242.60452069999883,None,None,0,242.60452069999883,None,244.08005440002307,None,,,,,,,,,,,,,,,,,,,,,,,,,,,pw,2022_Apr_18_1143,training+cueing,2021.1.4,59.981957422495825,
Self.png,You,Self ,c,1,11,21,91,,,,,0,0,0,0,0,1,1,9,,,,,,,,,,,,,,,,,,,,,,,,,1.744,2.304,244.48933469998883,None,245.02665910002543,245.54002140002558,245.52335020003375,245.62340590002714,245.52335020003375,245.62340590002714,245.62340590002714,None,m,0,245.62340590002714,None,246.23896650003735,None,0.5912152000237256,,,,,,,,,,,,,,,,,,,,,,,,,,pw,2022_Apr_18_1143,training+cueing,2021.1.4,59.981957422495825,
Stranger.png,You,Stranger,m,1.3,15,25,95,,,,,0,0,0,0,0,2,2,6,,,,,,,,,,,,,,,,,,,,,,,,,1.545,2.21,246.64101870002924,None,247.1798743000254,247.6917276000022,247.6750594000332,247.7752129000146,247.6750594000332,247.7752129000146,247.7752129000146,None,c,0,247.7752129000146,None,248.7074040999869,None,0.9031484000151977,,,,,,,,,,,,,,,,,,,,,,,,,,pw,2022_Apr_18_1143,training+cueing,2021.1.4,59.981957422495825,
Self.png,Friend,Self ,m,2.1,16,26,96,,,,,0,0,0,0,0,3,3,1,,,,,,,,,,,,,,,,,,,,,,,,,1.565,1.961,249.1094127999968,None,249.64726669999072,250.16018539998913,250.1435093000182,250.26025530003244,250.1435093000182,250.26025530003244,250.24357190000592,None,m,1,250.24357190000592,None,251.69589480001014,None,1.4269731999957003,,,,,,,,,,,,,,,,,,,,,,,,,,pw,2022_Apr_18_1143,training+cueing,2021.1.4,59.981957422495825,
Self.png,Stranger,Self ,m,3.1,18,28,98,,,,,0,0,0,0,0,4,4,2,,,,,,,,,,,,,,,,,,,,,,,,,1.444,1.92,252.09506160003366,None,252.63219850003952,253.1455116000143,253.1288358999882,253.2455833000131,253.1288358999882,253.2455833000131,253.2288667000248,None,m,1,253.2288667000248,None,254.59658579999814,None,1.3373747000005096,,,,,,,,,,,,,,,,,,,,,,,,,,pw,2022_Apr_18_1143,training+cueing,2021.1.4,59.981957422495825,
Stranger.png,Stranger,Stranger,c,3,13,23,93,,,,,0,0,0,0,0,5,5,8,,,,,,,,,,,,,,,,,,,,,,,,,1.611,1.293,254.9970285000163,None,255.53383120003855,256.0476374999853,256.0310383000178,256.14766690001125,256.0310383000178,256.14766690001125,256.13093740004115,None,m,0,256.13093740004115,None,257.4986685999902,None,1.3475611999747343,,,,,,,,,,,,,,,,,,,,,,,,,,pw,2022_Apr_18_1143,training+cueing,2021.1.4,59.981957422495825,
Self.png,You,Self ,c,1,11,21,91,,,,,0,0,0,0,0,6,6,0,,,,,,,,,,,,,,,,,,,,,,,,,1.66,1.807,257.8990758000291,None,258.4310047000181,258.9330688000191,258.91636169998674,259.0164264999912,258.91636169998674,259.0164264999912,259.0164264999912,None,c,1,259.0164264999912,None,260.01579099998344,None,0.973840199992992,,,,,,,,,,,,,,,,,,,,,,,,,,pw,2022_Apr_18_1143,training+cueing,2021.1.4,59.981957422495825,
Friend.png,Stranger,Friend,m,3.2,19,29,99,,,,,0,0,0,0,0,7,7,5,,,,,,,,,,,,,,,,,,,,,,,,,1.619,1.892,260.4174312000396,None,260.9515982000157,261.4514932000311,261.4348408000078,261.55159270000877,261.4348408000078,261.55159270000877,261.55159270000877,None,m,1,261.55159270000877,None,263.15277280000737,None,1.5747237000032328,,,,,,,,,,,,,,,,,,,,,,,,,,pw,2022_Apr_18_1143,training+cueing,2021.1.4,59.981957422495825,
Friend.png,Friend,Friend,c,2,12,22,92,,,,,0,0,0,0,0,8,8,4,,,,,,,,,,,,,,,,,,,,,,,,,1.422,2.285,263.55321450001793,None,264.0979732000269,264.60382780001964,264.5871210999903,264.70386360003613,264.5871210999903,264.70386360003613,264.68715650000377,None,c,1,264.68715650000377,None,265.8213456000085,None,1.1110200000111945,,,,,,,,,,,,,,,,,,,,,,,,,,pw,2022_Apr_18_1143,training+cueing,2021.1.4,59.981957422495825,
Friend.png,You,Friend,m,1.2,14,24,94,,,,,0,0,0,0,0,9,9,3,,,,,,,,,,,,,,,,,,,,,,,,,1.78,2.451,266.2215980000328,None,266.754356999998,267.2557464999845,267.2390634000185,267.3392077999888,267.2390634000185,267.3392077999888,267.3392077999888,None,m,1,267.3392077999888,None,268.57334750000155,None,1.2110667999950238,,,,,,,,,,,,,,,,,,,,,,,,,,pw,2022_Apr_18_1143,training+cueing,2021.1.4,59.981957422495825,
Friend.png,Friend,Friend,c,2,12,22,92,,,,,0,0,0,0,0,10,10,10,,,,,,,,,,,,,,,,,,,,,,,,,1.631,1.48,268.97375910001574,None,269.5115394000313,270.0243833999848,270.00772749999305,270.12442649999866,270.00772749999305,270.12442649999866,270.10772910004016,None,None,0,270.10772910004016,None,271.75322720000986,None,,,,,,,,,,,,,,,,,,,,,,,,,,,pw,2022_Apr_18_1143,training+cueing,2021.1.4,59.981957422495825,
Stranger.png,Stranger,Stranger,c,3,13,23,93,,,,,0,0,0,0,0,11,11,11,,,,,,,,,,,,,,,,,,,,,,,,,1.663,1.78,272.15927440003725,None,272.69293060002383,273.1933337000082,273.17669260001276,273.29354250000324,273.17669260001276,273.29354250000324,273.29354250000324,None,c,1,273.29354250000324,None,274.41267380001955,None,1.0967630000086501,,,,,,,,,,,,,,,,,,,,,,,,,,pw,2022_Apr_18_1143,training+cueing,2021.1.4,59.981957422495825,
Stranger.png,Stranger,Stranger,c,3,13,23,93,,,,,0,0,0,0,,,,,0,0,0,8,,,,,,,,,,,,,,,,,,,357.12078240001574,None,1.639,1.845,360.63464440003736,None,,,,,,,,,,,,,,,,274.82801980001386,None,0.014298460038844496,None,361.26150960003724,361.7740632999921,0.5052811399800703,1.0054661399917677,361.7574580000364,361.8740696000168,361.7574580000364,361.8740696000168,361.85741300001973,None,c,1,1.1730402000248432,361.85741300001973,None,,,,,,,pw,2022_Apr_18_1143,training+cueing,2021.1.4,59.981957422495825,
Self.png,Friend,Self ,m,2.1,16,26,96,,,,,0,0,0,0,,,,,0,1,1,1,,,,,,,,,,,,,,,,,,,,,1.731,1.556,363.16554950003047,None,,,,,,,,,,,,,,,,,,,,363.70745149999857,364.209113000019,0.5030256800237112,1.0033788799773902,364.1924122000346,364.30915430001915,364.1924122000346,364.30915430001915,364.29245430004084,None,m,1,1.1858635999960825,364.29245430004084,None,,,,,,,pw,2022_Apr_18_1143,training+cueing,2021.1.4,59.981957422495825,
Friend.png,Friend,Friend,c,2,12,22,92,,,,,0,0,0,0,,,,,0,2,2,4,,,,,,,,,,,,,,,,,,,,,1.643,2.297,365.600144200027,None,,,,,,,,,,,,,,,,,,,,366.13622129999567,366.64422920002835,0.5148462800425477,1.0151373800472356,366.62753440003144,366.74426050001057,366.62753440003144,366.74426050001057,366.727591700037,None,None,0,,366.727591700037,None,,,,,,,pw,2022_Apr_18_1143,training+cueing,2021.1.4,59.981957422495825,
Self.png,Stranger,Self ,m,3.1,18,28,98,,,,,0,0,0,0,,,,,0,3,3,2,,,,,,,,,,,,,,,,,,,,,1.486,1.753,368.48336150002433,None,,,,,,,,,,,,,,,,,,,,369.0249893,369.529873099993,0.5063472800538875,1.0066347800311632,369.5131611000397,369.62991519999923,369.5131611000397,369.62991519999923,369.61320890003117,None,m,1,1.1768803000450134,369.61320890003117,None,,,,,,,pw,2022_Apr_18_1143,training+cueing,2021.1.4,59.981957422495825,
Stranger.png,You,Stranger,m,1.3,15,25,95,,,,,0,0,0,0,,,,,0,4,4,6,,,,,,,,,,,,,,,,,,,,,1.715,2.436,370.92107540002326,None,,,,,,,,,,,,,,,,,,,,371.46360300004017,371.96471969998674,0.5015502799651586,1.0018431799835525,371.94805440003984,372.0481011000229,371.94805440003984,372.0481011000229,372.0481011000229,None,m,1,0.9503655000007711,372.0481011000229,None,,,,,,,pw,2022_Apr_18_1143,training+cueing,2021.1.4,59.981957422495825,
Self.png,You,Self ,c,1,11,21,91,,,,,0,0,0,0,,,,,0,5,5,9,,,,,,,,,,,,,,,,,,,,,1.414,2.0,373.12558739999076,None,,,,,,,,,,,,,,,,,,,,373.67039700003807,374.1830021000351,0.5089643800165504,1.009157580032479,374.1664069000399,374.2663782000309,374.1664069000399,374.2663782000309,374.2663782000309,None,c,1,0.9397549999994226,374.2663782000309,None,,,,,,,pw,2022_Apr_18_1143,training+cueing,2021.1.4,59.981957422495825,
Friend.png,Stranger,Friend,m,3.2,19,29,99,,,,,0,0,0,0,,,,,0,6,6,5,,,,,,,,,,,,,,,,,,,,,1.446,2.267,375.33995180000784,None,,,,,,,,,,,,,,,,,,,,375.88062459998764,376.3845974000287,0.505516080011148,1.0058096800348721,376.36793609999586,376.48462529998505,376.36793609999586,376.48462529998505,376.4679438000312,None,None,0,,376.4679438000312,None,,,,,,,pw,2022_Apr_18_1143,training+cueing,2021.1.4,59.981957422495825,
Stranger.png,Friend,Stranger,m,2.3,17,27,97,,,,,0,0,0,0,,,,,0,7,7,7,,,,,,,,,,,,,,,,,,,,,1.439,1.672,378.0232284000376,None,,,,,,,,,,,,,,,,,,,,378.5673421000247,379.069856600021,0.5058118799934164,1.0060633799876086,379.05319479998434,379.1699263000046,379.05319479998434,379.1699263000046,379.1532063999912,None,m,1,1.2370340999914333,379.1532063999912,None,,,,,,,pw,2022_Apr_18_1143,training+cueing,2021.1.4,59.981957422495825,
Friend.png,You,Friend,m,1.2,14,24,94,,,,,0,0,0,0,,,,,0,8,8,3,,,,,,,,,,,,,,,,,,,,,1.787,2.154,380.52700440003537,None,,,,,,,,,,,,,,,,,,,,381.0672832999844,381.57167199999094,0.5070987799554132,1.0079932799562812,381.5549844999914,381.65504990000045,381.5549844999914,381.65504990000045,381.65504990000045,None,m,1,0.9751782999956049,381.65504990000045,None,,,,,,,pw,2022_Apr_18_1143,training+cueing,2021.1.4,59.981957422495825,
Stranger.png,Stranger,Stranger,c,3,13,23,93,,,,,0,0,0,0,,,,,0,9,9,11,,,,,,,,,,,,,,,,,,,,,1.619,2.157,382.7638158000191,None,,,,,,,,,,,,,,,,,,,,383.30535949999467,383.8066109000356,0.5033950800425373,1.0037022800534032,383.7899344000034,383.9066803000169,383.7899344000034,383.9066803000169,383.8899805000401,None,None,0,,383.8899805000401,None,,,,,,,pw,2022_Apr_18_1143,training+cueing,2021.1.4,59.981957422495825,
Self.png,You,Self ,c,1,11,21,91,,,,,0,0,0,0,,,,,0,10,10,0,,,,,,,,,,,,,,,,,,,,,1.778,1.62,385.614498800016,None,,,,,,,,,,,,,,,,,,,,386.1567204000312,386.6586978000123,0.5041846800013445,1.0044866800308228,386.64202259999,386.74203580000903,386.64202259999,386.74203580000903,386.74203580000903,None,c,1,0.7682170000043698,386.74203580000903,None,,,,,,,pw,2022_Apr_18_1143,training+cueing,2021.1.4,59.981957422495825,
Friend.png,Friend,Friend,c,2,12,22,92,,,,,0,0,0,0,,,,,0,11,11,10,,,,,,,,,,,,,,,,,,,,,1.436,1.484,387.6321489000111,None,,,,,,,,,,,,,,,,,,,,388.18574470002204,388.6934840999893,0.5134293399751186,1.013784639944788,388.67675829998916,388.7935567999957,388.67675829998916,388.7935567999957,388.7768402000074,None,None,0,,388.7768402000074,None,,,,,,,pw,2022_Apr_18_1143,training+cueing,2021.1.4,59.981957422495825,
Friend.png,You,Friend,m,1.2,14,24,94,,,,,0,0,0,0,,,,,1,0,12,3,,,,,,,,,,,,,,,,,,,,,1.663,2.422,390.3336309000151,None,,,,,,,,,,,,,,,,,,,,390.87482860003365,391.3787652000319,0.5079365800484084,1.0088782800012268,391.36209020001115,391.4621113000321,391.36209020001115,391.4621113000321,391.4621113000321,None,m,1,0.8642404999700375,391.4621113000321,None,,,,,,,pw,2022_Apr_18_1143,training+cueing,2021.1.4,59.981957422495825,
Stranger.png,Friend,Stranger,m,2.3,17,27,97,,,,,0,0,0,0,,,,,1,1,13,7,,,,,,,,,,,,,,,,,,,,,1.435,1.995,392.4519844999886,None,,,,,,,,,,,,,,,,,,,,392.99181320000207,393.49693780002417,0.5102952800225466,1.0108025799854659,393.4802714000107,393.5971456000116,393.4802714000107,393.5971456000116,393.58030830003554,None,m,1,0.9859292000182904,393.58030830003554,None,,,,,,,pw,2022_Apr_18_1143,training+cueing,2021.1.4,59.981957422495825,
Self.png,Friend,Self ,m,2.1,16,26,96,,,,,0,0,0,0,,,,,1,2,14,1,,,,,,,,,,,,,,,,,,,,,1.503,1.353,394.705105800007,None,,,,,,,,,,,,,,,,,,,,395.24357440002495,395.74860069999704,0.5077475799480453,1.0084316799766384,395.7320767000201,395.84864159999415,395.7320767000201,395.84864159999415,395.8319278000272,None,m,1,0.8143785999855027,395.8319278000272,None,,,,,,,pw,2022_Apr_18_1143,training+cueing,2021.1.4,59.981957422495825,
Stranger.png,You,Stranger,m,1.3,15,25,95,,,,,0,0,0,0,,,,,1,3,15,6,,,,,,,,,,,,,,,,,,,,,1.649,2.392,396.77622980001615,None,,,,,,,,,,,,,,,,,,,,397.31483410001965,397.8167470000335,0.5032421799842268,1.0054907799931243,397.7981086000218,397.9001123000053,397.7981086000218,397.9001123000053,397.9001123000053,None,m,1,0.7941313000046648,397.9001123000053,None,,,,,,,pw,2022_Apr_18_1143,training+cueing,2021.1.4,59.981957422495825,
Friend.png,Friend,Friend,c,2,12,22,92,,,,,0,0,0,0,,,,,1,4,16,10,,,,,,,,,,,,,,,,,,,,,1.514,2.409,398.8236309000058,None,,,,,,,,,,,,,,,,,,,,399.36361930001294,399.8681973000057,0.5059869800461456,1.0068478800239973,399.85154709999915,399.96880030003376,399.85154709999915,399.96880030003376,399.9515856000362,None,c,1,0.8547779999789782,399.9515856000362,None,,,,,,,pw,2022_Apr_18_1143,training+cueing,2021.1.4,59.981957422495825,
Self.png,Stranger,Self ,m,3.1,18,28,98,,,,,0,0,0,0,,,,,1,5,17,2,,,,,,,,,,,,,,,,,,,,,1.677,1.608,400.9430683000246,None,,,,,,,,,,,,,,,,,,,,401.4852581000305,401.9864305999945,0.5018321800162084,1.002131380024366,401.9697451000102,402.08647290000226,401.9697451000102,402.08647290000226,402.0697988999891,None,m,1,0.8321460000006482,402.0697988999891,None,,,,,,,pw,2022_Apr_18_1143,training+cueing,2021.1.4,59.981957422495825,
Stranger.png,Stranger,Stranger,c,3,13,23,93,,,,,0,0,0,0,,,,,1,6,18,8,,,,,,,,,,,,,,,,,,,,,1.755,1.388,403.0263976000133,None,,,,,,,,,,,,,,,,,,,,403.5637385000009,404.0712690000073,0.5136204800219275,1.0138833799865097,404.05457560002105,404.17133209999884,404.05457560002105,404.17133209999884,404.15464650001377,None,c,1,0.8595981000107713,404.15464650001377,None,,,,,,,pw,2022_Apr_18_1143,training+cueing,2021.1.4,59.981957422495825,
Self.png,You,Self ,c,1,11,21,91,,,,,0,0,0,0,,,,,1,7,19,9,,,,,,,,,,,,,,,,,,,,,1.74,1.8,405.1442881000112,None,,,,,,,,,,,,,,,,,,,,405.6859601000324,406.1895062000258,0.505258780089207,1.0055148800602183,406.1728207000415,406.27281230001245,406.1728207000415,406.27281230001245,406.27281230001245,None,c,1,0.7254438999807462,406.27281230001245,None,,,,,,,pw,2022_Apr_18_1143,training+cueing,2021.1.4,59.981957422495825,
Friend.png,Friend,Friend,c,2,12,22,92,,,,,0,0,0,0,,,,,1,8,20,4,,,,,,,,,,,,,,,,,,,,,1.581,2.407,407.12992079998367,None,,,,,,,,,,,,,,,,,,,,407.66863460000604,408.17421999998624,0.5100400800001808,1.0102883799700066,408.1575511000119,408.27426820003893,408.1575511000119,408.27426820003893,408.2575616000104,None,c,1,0.9165670000365935,408.2575616000104,None,,,,,,,pw,2022_Apr_18_1143,training+cueing,2021.1.4,59.981957422495825,
Self.png,You,Self ,c,1,11,21,91,,,,,0,0,0,0,,,,,1,9,21,0,,,,,,,,,,,,,,,,,,,,,1.468,1.32,409.29847069998505,None,,,,,,,,,,,,,,,,,,,,409.85639979998814,410.35917980002705,0.5051154399989173,1.0055968399974518,410.34245910000755,410.4425124999834,410.34245910000755,410.4425124999834,410.4425124999834,None,c,1,0.827489199989941,410.4425124999834,None,,,,,,,pw,2022_Apr_18_1143,training+cueing,2021.1.4,59.981957422495825,
Friend.png,Stranger,Friend,m,3.2,19,29,99,,,,,0,0,0,0,,,,,1,10,22,5,,,,,,,,,,,,,,,,,,,,,1.532,1.841,411.39895120001165,None,,,,,,,,,,,,,,,,,,,,411.93999680003617,412.4439657999901,0.5064782800036483,1.0068015800206922,412.4273044000147,412.5440130000352,412.4273044000147,412.5440130000352,412.52734540001256,None,c,0,0.7426025000168011,412.52734540001256,None,,,,,,,pw,2022_Apr_18_1143,training+cueing,2021.1.4,59.981957422495825,
Stranger.png,Stranger,Stranger,c,3,13,23,93,,,,,0,0,0,0,,,,,1,11,23,11,,,,,,,,,,,,,,,,,,,,,1.745,1.606,413.40088670002297,None,,,,,,,,,,,,,,,,,,,,413.93954099999974,414.44542210001964,0.5112501799594611,1.0115388800040819,414.4287590000313,414.5454608,414.4287590000313,414.5454608,414.52878530003363,None,c,1,0.9971972000203095,414.52878530003363,None,,,,,,,pw,2022_Apr_18_1143,training+cueing,2021.1.4,59.981957422495825,
Friend.png,Stranger,Friend,m,3.2,19,29,99,,,,,0,0,0,0,,,,,2,0,24,5,,,,,,,,,,,,,,,,,,,,,1.421,1.45,415.6530833999859,None,,,,,,,,,,,,,,,,,,,,416.209559000039,416.7137074000202,0.5091250400291756,1.0094346400001086,416.6970397999976,416.81380080000963,416.6970397999976,416.81380080000963,416.79709800001,None,m,1,0.8889737999998033,416.79709800001,None,,,,,,,pw,2022_Apr_18_1143,training+cueing,2021.1.4,59.981957422495825,
Stranger.png,Friend,Stranger,m,2.3,17,27,97,,,,,0,0,0,0,,,,,2,1,25,7,,,,,,,,,,,,,,,,,,,,,1.617,1.335,417.82070380001096,None,,,,,,,,,,,,,,,,,,,,418.3602945000166,418.8652499000309,0.5096505800029263,1.0099957800121047,418.8486060000141,418.9653286000248,418.8486060000141,418.9653286000248,418.94866059999913,None,m,1,0.9620376000530086,418.94866059999913,None,,,,,,,pw,2022_Apr_18_1143,training+cueing,2021.1.4,59.981957422495825,
Self.png,Stranger,Self ,m,3.1,18,28,98,,,,,0,0,0,0,,,,,2,2,26,2,,,,,,,,,,,,,,,,,,,,,1.721,2.145,420.0431290999986,None,,,,,,,,,,,,,,,,,,,,420.5821008000057,421.0835534000071,0.5030299799982458,1.0033084799651988,421.06689479999477,421.18360059999395,421.06689479999477,421.18360059999395,421.1669268000405,None,m,1,0.8070546999806538,421.1669268000405,None,,,,,,,pw,2022_Apr_18_1143,training+cueing,2021.1.4,59.981957422495825,
Self.png,You,Self ,c,1,11,21,91,,,,,0,0,0,0,,,,,2,3,27,9,,,,,,,,,,,,,,,,,,,,,1.73,2.161,422.10734049999155,None,,,,,,,,,,,,,,,,,,,,422.64738819998456,423.1517700999975,0.5069316800218076,1.00734867999563,423.1350231000106,423.2351017000037,423.1350231000106,423.2351017000037,423.2351017000037,None,c,1,0.6431622999953106,423.2351017000037,None,,,,,,,pw,2022_Apr_18_1143,training+cueing,2021.1.4,59.981957422495825,
Stranger.png,You,Stranger,m,1.3,15,25,95,,,,,0,0,0,0,,,,,2,4,28,6,,,,,,,,,,,,,,,,,,,,,1.704,1.641,424.0084063000395,None,,,,,,,,,,,,,,,,,,,,424.5470027999836,425.05310860002646,0.5108258799882606,1.0111287800245918,425.03638579999097,425.1364373000106,425.03638579999097,425.1364373000106,425.1364373000106,None,m,1,1.1255696000298485,425.1364373000106,None,,,,,,,pw,2022_Apr_18_1143,training+cueing,2021.1.4,59.981957422495825,
Stranger.png,Stranger,Stranger,c,3,13,23,93,,,,,0,0,0,0,,,,,2,5,29,8,,,,,,,,,,,,,,,,,,,,,1.448,2.101,426.3938997000223,None,,,,,,,,,,,,,,,,,,,,426.9479675000184,427.45481880003354,0.51385524001671,1.0141347400494851,427.4381628999836,427.55485860002227,427.4381628999836,427.55485860002227,427.53818790003425,None,c,1,0.7557480999967083,427.53818790003425,None,,,,,,,pw,2022_Apr_18_1143,training+cueing,2021.1.4,59.981957422495825,
Friend.png,Friend,Friend,c,2,12,22,92,,,,,0,0,0,0,,,,,2,6,30,4,,,,,,,,,,,,,,,,,,,,,1.711,2.32,428.4287175000063,None,,,,,,,,,,,,,,,,,,,,428.96802100003697,429.4729261000175,0.5075111800688319,1.007825680077076,429.45625520002795,429.5729936999851,429.45625520002795,429.5729936999851,429.5562549000024,None,c,1,0.8018359000561759,429.5562549000024,None,,,,,,,pw,2022_Apr_18_1143,training+cueing,2021.1.4,59.981957422495825,
Friend.png,Friend,Friend,c,2,12,22,92,,,,,0,0,0,0,,,,,2,7,31,10,,,,,,,,,,,,,,,,,,,,,1.512,1.817,430.47959750000155,None,,,,,,,,,,,,,,,,,,,,431.01907290000236,431.5244413000182,0.511430980055593,1.0117211800534278,431.50775079999585,431.6245023999945,431.50775079999585,431.6245023999945,431.6079993000021,None,m,0,1.0059908000403084,431.6079993000021,None,,,,,,,pw,2022_Apr_18_1143,training+cueing,2021.1.4,59.981957422495825,
Stranger.png,Stranger,Stranger,c,3,13,23,93,,,,,0,0,0,0,,,,,2,8,32,11,,,,,,,,,,,,,,,,,,,,,1.476,2.34,432.74850650003646,None,,,,,,,,,,,,,,,,,,,,433.28913660004037,433.7929427000345,0.5056708800257184,1.0059277800028212,433.7760752000031,433.89277279999806,433.7760752000031,433.89277279999806,433.8760709000053,None,c,1,1.0581313000293449,433.8760709000053,None,,,,,,,pw,2022_Apr_18_1143,training+cueing,2021.1.4,59.981957422495825,
Friend.png,You,Friend,m,1.2,14,24,94,,,,,0,0,0,0,,,,,2,9,33,3,,,,,,,,,,,,,,,,,,,,,1.657,1.393,435.06616320001194,None,,,,,,,,,,,,,,,,,,,,435.61831019999227,436.12775610003155,0.5010960799991153,1.001377879991196,436.11103490000824,436.21111329999985,436.11103490000824,436.21111329999985,436.21111329999985,None,m,1,0.6750128000276163,436.21111329999985,None,,,,,,,pw,2022_Apr_18_1143,training+cueing,2021.1.4,59.981957422495825,
Self.png,You,Self ,c,1,11,21,91,,,,,0,0,0,0,,,,,2,10,34,0,,,,,,,,,,,,,,,,,,,,,1.409,1.605,437.01720519998344,None,,,,,,,,,,,,,,,,,,,,437.55706449999707,438.0624848000007,0.5101622800575569,1.0104446800542064,438.04576670000097,438.145857000025,438.04576670000097,438.145857000025,438.145857000025,None,c,1,0.5321239000186324,438.145857000025,None,,,,,,,pw,2022_Apr_18_1143,training+cueing,2021.1.4,59.981957422495825,
Self.png,Friend,Self ,m,2.1,16,26,96,,,,,0,0,0,0,,,,,2,11,35,1,,,,,,,,,,,,,,,,,,,,,1.533,2.253,438.8028071000008,None,,,,,,,,,,,,,,,,,,,,439.3430445000413,439.847074099991,0.5062672800268047,1.0067570800310932,439.8304217000259,439.9477026000386,439.8304217000259,439.9477026000386,439.9310140000307,None,m,1,0.7150092999800108,439.9310140000307,None,,,,,,,pw,2022_Apr_18_1143,training+cueing,2021.1.4,59.981957422495825,
Self.png,Friend,Self ,m,2.1,16,26,96,,,,,0,0,0,0,,,,,3,0,36,1,,,,,,,,,,,,,,,,,,,,,1.61,2.286,440.7704120000126,None,,,,,,,,,,,,,,,,,,,,441.30903350003064,441.81520740000997,0.5114828800433315,1.011747380020097,441.7985523000243,441.9152498000185,441.7985523000243,441.9152498000185,441.89853669999866,None,m,1,0.7955371000571176,441.89853669999866,None,,,,,,,pw,2022_Apr_18_1143,training+cueing,2021.1.4,59.981957422495825,
Self.png,Stranger,Self ,m,3.1,18,28,98,,,,,0,0,0,0,,,,,3,1,37,2,,,,,,,,,,,,,,,,,,,,,1.684,2.27,442.82205509999767,None,,,,,,,,,,,,,,,,,,,,443.3638585000299,443.8666846000124,0.5056639799731784,1.0061239799833857,443.85002040001564,443.9670577000361,443.85002040001564,443.9670577000361,443.9500325000263,None,m,1,0.6961479000165127,443.9500325000263,None,,,,,,,pw,2022_Apr_18_1143,training+cueing,2021.1.4,59.981957422495825,
Stranger.png,Stranger,Stranger,c,3,13,23,93,,,,,0,0,0,0,,,,,3,2,38,11,,,,,,,,,,,,,,,,,,,,,1.706,2.361,444.7741963000153,None,,,,,,,,,,,,,,,,,,,,445.3117554000346,445.81805400003213,0.5096022799843922,1.009866480017081,445.80143779999344,445.9181513999938,445.80143779999344,445.9181513999938,445.9014426000067,None,c,1,0.7604604000225663,445.9014426000067,None,,,,,,,pw,2022_Apr_18_1143,training+cueing,2021.1.4,59.981957422495825,
Stranger.png,Stranger,Stranger,c,3,13,23,93,,,,,0,0,0,0,,,,,3,3,39,8,,,,,,,,,,,,,,,,,,,,,1.596,1.741,446.79179560003104,None,,,,,,,,,,,,,,,,,,,,447.3408420000342,447.85288419999415,0.5076226799865253,1.007895179965999,447.8362060000072,447.9529431000119,447.8362060000072,447.9529431000119,447.93624040001305,None,c,1,0.6460323000210337,447.93624040001305,None,,,,,,,pw,2022_Apr_18_1143,training+cueing,2021.1.4,59.981957422495825,
Friend.png,Friend,Friend,c,2,12,22,92,,,,,0,0,0,0,,,,,3,4,40,10,,,,,,,,,,,,,,,,,,,,,1.732,2.275,448.7139227000298,None,,,,,,,,,,,,,,,,,,,,449.2500693000038,449.7542652999982,0.5060356800095178,1.0063344800146297,449.73757639998803,449.8543250000221,449.73757639998803,449.8543250000221,449.8376136000152,None,c,1,0.5364125000196509,449.8376136000152,None,,,,,,,pw,2022_Apr_18_1143,training+cueing,2021.1.4,59.981957422495825,
Friend.png,Stranger,Friend,m,3.2,19,29,99,,,,,0,0,0,0,,,,,3,5,41,5,,,,,,,,,,,,,,,,,,,,,1.418,2.136,450.51172690000385,None,,,,,,,,,,,,,,,,,,,,451.05296609998913,451.55555460002506,0.5052307800506242,1.0056109800352715,451.5388529000338,451.65565319999587,451.5388529000338,451.65565319999587,451.63899280002806,None,m,1,1.2309711000416428,451.63899280002806,None,,,,,,,pw,2022_Apr_18_1143,training+cueing,2021.1.4,59.981957422495825,
Friend.png,Friend,Friend,c,2,12,22,92,,,,,0,0,0,0,,,,,3,6,42,4,,,,,,,,,,,,,,,,,,,,,1.591,1.421,452.9960621999926,None,,,,,,,,,,,,,,,,,,,,453.5365377999842,454.04071050003404,0.5072411800501868,1.0075677800923586,454.02401100000134,454.1407575000194,454.02401100000134,454.1407575000194,454.12402660003863,None,m,0,0.7779946000082418,454.12402660003863,None,,,,,,,pw,2022_Apr_18_1143,training+cueing,2021.1.4,59.981957422495825,
Stranger.png,Friend,Stranger,m,2.3,17,27,97,,,,,0,0,0,0,,,,,3,7,43,7,,,,,,,,,,,,,,,,,,,,,1.685,2.272,455.0313945999951,None,,,,,,,,,,,,,,,,,,,,455.5694494000054,456.075505100016,0.5104228800046258,1.0107213800074533,456.0588113000267,456.1755803000415,456.0588113000267,456.1755803000415,456.15891729999566,None,m,1,1.0472868999931961,456.15891729999566,None,,,,,,,pw,2022_Apr_18_1143,training+cueing,2021.1.4,59.981957422495825,
Friend.png,You,Friend,m,1.2,14,24,94,,,,,0,0,0,0,,,,,3,8,44,3,,,,,,,,,,,,,,,,,,,,,1.634,1.958,457.33286910003517,None,,,,,,,,,,,,,,,,,,,,457.8733246999909,458.3771513000247,0.5069767800159752,1.0071952800499275,458.3605136999977,458.46052439999767,458.3605136999977,458.46052439999767,458.46052439999767,None,m,1,0.7935893000103533,458.46052439999767,None,,,,,,,pw,2022_Apr_18_1143,training+cueing,2021.1.4,59.981957422495825,
Stranger.png,You,Stranger,m,1.3,15,25,95,,,,,0,0,0,0,,,,,3,9,45,6,,,,,,,,,,,,,,,,,,,,,1.512,1.973,459.3839816999971,None,,,,,,,,,,,,,,,,,,,,459.93873739999253,460.44548570003826,0.513491440040525,1.0142139400122687,460.428790200036,460.52885250002146,460.428790200036,460.52885250002146,460.52885250002146,None,m,1,0.9175731000141241,460.52885250002146,None,,,,,,,pw,2022_Apr_18_1143,training+cueing,2021.1.4,59.981957422495825,
Self.png,You,Self ,c,1,11,21,91,,,,,0,0,0,0,,,,,3,10,46,9,,,,,,,,,,,,,,,,,,,,,1.465,2.289,461.57277339999564,None,,,,,,,,,,,,,,,,,,,,462.10958910000045,462.61357530002715,0.5057594800018705,1.006013480015099,462.5968896999839,462.696939299989,462.5968896999839,462.696939299989,462.696939299989,None,c,1,0.4769279999891296,462.696939299989,None,,,,,,,pw,2022_Apr_18_1143,training+cueing,2021.1.4,59.981957422495825,
Self.png,You,Self ,c,1,11,21,91,,,,,0,0,0,0,,,,,3,11,47,0,,,,,,,,,,,,,,,,,,,,,1.558,2.168,463.3037517000339,None,,,,,,,,,,,,,,,,,,,,463.84124879998853,464.34820180002134,0.5146363800158724,1.014928879973013,464.3314488999895,464.431499600003,464.3314488999895,464.431499600003,464.431499600003,None,c,1,0.4550669000018388,464.431499600003,None,,,,,,,pw,2022_Apr_18_1143,training+cueing,2021.1.4,59.981957422495825,
Self.png,Stranger,Self ,m,3.1,18,28,98,,,,,0,0,0,0,,,,,4,0,48,2,,,,,,,,,,,,,,,,,,,,,1.744,1.909,465.0251877999981,None,,,,,,,,,,,,,,,,,,,,465.5644011000404,466.0660578000243,0.501837579999119,1.002185380028095,466.04935610003304,466.1661209000158,466.04935610003304,466.1661209000158,466.149414399988,None,m,1,0.5925325999851339,466.149414399988,None,,,,,,,pw,2022_Apr_18_1143,training+cueing,2021.1.4,59.981957422495825,
Friend.png,Friend,Friend,c,2,12,22,92,,,,,0,0,0,0,,,,,4,1,49,10,,,,,,,,,,,,,,,,,,,,,1.462,2.132,466.8728731999872,None,,,,,,,,,,,,,,,,,,,,467.4151542999898,467.91739940003026,0.5053160800016485,1.0057171800290234,467.90075010003056,468.01760100002866,467.90075010003056,468.01760100002866,468.0010034000152,None,c,1,0.917251100006979,468.0010034000152,None,,,,,,,pw,2022_Apr_18_1143,training+cueing,2021.1.4,59.981957422495825,
Friend.png,Friend,Friend,c,2,12,22,92,,,,,0,0,0,0,,,,,4,2,50,4,,,,,,,,,,,,,,,,,,,,,1.509,2.089,469.04201189999003,None,,,,,,,,,,,,,,,,,,,,469.5794525000383,470.085633300012,0.511521780048497,1.0119619800243527,470.0689354999922,470.1862279000343,470.0689354999922,470.1862279000343,470.1695278999978,None,m,0,0.7164116999483667,470.1695278999978,None,,,,,,,pw,2022_Apr_18_1143,training+cueing,2021.1.4,59.981957422495825,
Self.png,Friend,Self ,m,2.1,16,26,96,,,,,0,0,0,0,,,,,4,3,51,1,,,,,,,,,,,,,,,,,,,,,1.501,1.722,471.0101710000308,None,,,,,,,,,,,,,,,,,,,,471.5562154999934,472.0703955999925,0.5096546800341457,1.0101037800195627,472.0537480000057,472.17059799999697,472.0537480000057,472.17059799999697,472.15390320000006,None,c,0,0.6361038999748416,472.15390320000006,None,,,,,,,pw,2022_Apr_18_1143,training+cueing,2021.1.4,59.981957422495825,
Self.png,You,Self ,c,1,11,21,91,,,,,0,0,0,0,,,,,4,4,52,0,,,,,,,,,,,,,,,,,,,,,1.607,1.771,472.928417099989,None,,,,,,,,,,,,,,,,,,,,473.47010830004,473.9717438000371,0.504201780015137,1.0045025800354779,473.95510000002105,474.0551428000326,473.95510000002105,474.0551428000326,474.0551428000326,None,c,1,0.6550743999541737,474.0551428000326,None,,,,,,,pw,2022_Apr_18_1143,training+cueing,2021.1.4,59.981957422495825,
Stranger.png,Friend,Stranger,m,2.3,17,27,97,,,,,0,0,0,0,,,,,4,5,53,7,,,,,,,,,,,,,,,,,,,,,1.597,2.311,474.8486523000174,None,,,,,,,,,,,,,,,,,,,,475.38859620003495,475.8898676999961,0.5032913800096139,1.0035729800001718,475.8732001000317,475.9899508000235,475.8732001000317,475.9899508000235,475.97323180001695,None,m,1,0.7848374000168405,475.97323180001695,None,,,,,,,pw,2022_Apr_18_1143,training+cueing,2021.1.4,59.981957422495825,
Friend.png,You,Friend,m,1.2,14,24,94,,,,,0,0,0,0,,,,,4,6,54,3,,,,,,,,,,,,,,,,,,,,,1.59,1.476,476.8797945000115,None,,,,,,,,,,,,,,,,,,,,477.4200510000228,477.92462330003036,0.5071855800342746,1.0074969800189137,477.9079539999948,478.008012700011,477.9079539999948,478.008012700011,478.008012700011,None,m,1,0.7182005000067875,478.008012700011,None,,,,,,,pw,2022_Apr_18_1143,training+cueing,2021.1.4,59.981957422495825,
Self.png,You,Self ,c,1,11,21,91,,,,,0,0,0,0,,,,,4,7,55,9,,,,,,,,,,,,,,,,,,,,,1.474,2.417,478.8480383999995,None,,,,,,,,,,,,,,,,,,,,479.3878525000182,479.8927139000152,0.5106722800410353,1.0109621800365858,479.8760106000118,479.9760626000352,479.8760106000118,479.9760626000352,479.9760626000352,None,m,0,0.6861211999785155,479.9760626000352,None,,,,,,,pw,2022_Apr_18_1143,training+cueing,2021.1.4,59.981957422495825,
Stranger.png,Stranger,Stranger,c,3,13,23,93,,,,,0,0,0,0,,,,,4,8,56,8,,,,,,,,,,,,,,,,,,,,,1.656,1.775,480.79983209999045,None,,,,,,,,,,,,,,,,,,,,481.3402237999835,481.8441339000128,0.504819680005312,1.005110380006954,481.8274686000077,481.94418769999174,481.8274686000077,481.94418769999174,481.9274731000187,None,c,1,0.9903891999856569,481.9274731000187,None,,,,,,,pw,2022_Apr_18_1143,training+cueing,2021.1.4,59.981957422495825,
Stranger.png,Stranger,Stranger,c,3,13,23,93,,,,,0,0,0,0,,,,,4,9,57,11,,,,,,,,,,,,,,,,,,,,,1.798,2.093,483.05136139999377,None,,,,,,,,,,,,,,,,,,,,483.5900991000235,484.09574409999186,0.5116720799705945,1.0119854799704626,484.07906070002355,484.1958092999994,484.07906070002355,484.1958092999994,484.17909440002404,None,m,0,1.1388257999788038,484.17909440002404,None,,,,,,,pw,2022_Apr_18_1143,training+cueing,2021.1.4,59.981957422495825,
Friend.png,Stranger,Friend,m,3.2,19,29,99,,,,,0,0,0,0,,,,,4,10,58,5,,,,,,,,,,,,,,,,,,,,,1.642,2.439,485.4528971000109,None,,,,,,,,,,,,,,,,,,,,485.9902276000357,486.4974961000262,0.5140545800095424,1.0143836800125428,486.4807911000098,486.59754490002524,486.4807911000098,486.59754490002524,486.58081100002164,None,m,1,0.8810582000296563,486.58081100002164,None,,,,,,,pw,2022_Apr_18_1143,training+cueing,2021.1.4,59.981957422495825,
Stranger.png,You,Stranger,m,1.3,15,25,95,,,,,0,0,0,0,,,,,4,11,59,6,,,,,,,,,,,,,,,,,,,,,1.448,2.072,487.58761390001746,None,,,,,,,,,,,,,,,,,,,,488.12839020002866,488.6323676999891,0.5066505799768493,1.0070082799647935,488.61570700001903,488.71583579998696,488.61570700001903,488.71583579998696,488.71583579998696,None,m,1,0.9701340000028722,488.71583579998696,None,,,,,,,pw,2022_Apr_18_1143,training+cueing,2021.1.4,59.981957422495825,
Self.png,You,Self ,c,1,11,21,91,,,,,0,0,0,0,,,,,5,0,60,9,,,,,,,,,,,,,,,,,,,,,1.63,1.536,489.82315499999095,None,,,,,,,,,,,,,,,,,,,,490.36750870000105,490.8673124000197,0.500147279992234,1.0004486800171435,490.85061050002696,490.95069730002433,490.85061050002696,490.95069730002433,490.95069730002433,None,c,1,0.463277000002563,490.95069730002433,None,,,,,,,pw,2022_Apr_18_1143,training+cueing,2021.1.4,59.981957422495825,
Friend.png,You,Friend,m,1.2,14,24,94,,,,,0,0,0,0,,,,,5,1,61,3,,,,,,,,,,,,,,,,,,,,,1.49,1.279,491.54037000000244,None,,,,,,,,,,,,,,,,,,,,492.0800300000119,492.5852208000142,0.5106713800341822,1.0109153800294735,492.56855100003304,492.6685902000172,492.56855100003304,492.6685902000172,492.6685902000172,None,m,1,0.697453000000678,492.6685902000172,None,,,,,,,pw,2022_Apr_18_1143,training+cueing,2021.1.4,59.981957422495825,
Friend.png,Stranger,Friend,m,3.2,19,29,99,,,,,0,0,0,0,,,,,5,2,62,5,,,,,,,,,,,,,,,,,,,,,1.789,1.402,493.4919996000244,None,,,,,,,,,,,,,,,,,,,,494.0324598000152,494.536780000024,0.5059155800263397,1.0060546800377779,494.52009950001957,494.6367940999917,494.52009950001957,494.6367940999917,494.62014150002506,None,m,1,1.4021573000354692,494.62014150002506,None,,,,,,,pw,2022_Apr_18_1143,training+cueing,2021.1.4,59.981957422495825,
Friend.png,Friend,Friend,c,2,12,22,92,,,,,0,0,0,0,,,,,5,3,63,10,,,,,,,,,,,,,,,,,,,,,1.721,1.878,496.1619418000337,None,,,,,,,,,,,,,,,,,,,,496.7036453000037,497.2052635999862,0.5029733800329268,1.0034545800299384,497.1885592000326,497.3054567000363,497.1885592000326,497.3054567000363,497.2886037999997,None,m,0,0.7332692000200041,497.2886037999997,None,,,,,,,pw,2022_Apr_18_1143,training+cueing,2021.1.4,59.981957422495825,
Stranger.png,Stranger,Stranger,c,3,13,23,93,,,,,0,0,0,0,,,,,5,4,64,8,,,,,,,,,,,,,,,,,,,,,1.48,1.834,498.1448037000373,None,,,,,,,,,,,,,,,,,,,,498.68481740000425,499.18999350001104,0.5088972800294869,1.0092036800342612,499.1733196999994,499.29016610002145,499.1733196999994,499.29016610002145,499.27345420001075,None,c,1,0.6844859999837354,499.27345420001075,None,,,,,,,pw,2022_Apr_18_1143,training+cueing,2021.1.4,59.981957422495825,
Stranger.png,Friend,Stranger,m,2.3,17,27,97,,,,,0,0,0,0,,,,,5,5,65,7,,,,,,,,,,,,,,,,,,,,,1.716,2.463,500.0797592999879,None,,,,,,,,,,,,,,,,,,,,500.62199140002485,501.1248350000242,0.506181979959365,1.0064445799798705,501.10807610000484,501.2247883999953,501.10807610000484,501.2247883999953,501.2080844999873,None,m,1,0.6698155999765731,501.2080844999873,None,,,,,,,pw,2022_Apr_18_1143,training+cueing,2021.1.4,59.981957422495825,
Self.png,Friend,Self ,m,2.1,16,26,96,,,,,0,0,0,0,,,,,5,6,66,1,,,,,,,,,,,,,,,,,,,,,1.639,1.982,502.01521320000757,None,,,,,,,,,,,,,,,,,,,,502.5522263000021,503.05946580000455,0.5138276800280437,1.0141334800282493,503.0427657000255,503.1595149000059,503.0427657000255,503.1595149000059,503.1428090999834,None,m,1,0.5433465999667533,503.1428090999834,None,,,,,,,pw,2022_Apr_18_1143,training+cueing,2021.1.4,59.981957422495825,
Friend.png,Friend,Friend,c,2,12,22,92,,,,,0,0,0,0,,,,,5,7,67,4,,,,,,,,,,,,,,,,,,,,,1.538,1.642,503.81603200000245,None,,,,,,,,,,,,,,,,,,,,504.37008480000077,504.87760780000826,0.5131347400019877,1.013458739966154,504.8608942999854,504.9777441000333,504.8608942999854,504.9777441000333,504.96093170001404,None,c,1,1.1413295000093058,504.96093170001404,None,,,,,,,pw,2022_Apr_18_1143,training+cueing,2021.1.4,59.981957422495825,
Self.png,You,Self ,c,1,11,21,91,,,,,0,0,0,0,,,,,5,8,68,0,,,,,,,,,,,,,,,,,,,,,1.546,1.262,506.2360308000352,None,,,,,,,,,,,,,,,,,,,,506.7913612999837,507.2958738000016,0.5096466399845667,1.0099414400174282,507.2791850999929,507.37920309999026,507.2791850999929,507.37920309999026,507.37920309999026,None,c,1,0.5469814000534825,507.37920309999026,None,,,,,,,pw,2022_Apr_18_1143,training+cueing,2021.1.4,59.981957422495825,
Self.png,Stranger,Self ,m,3.1,18,28,98,,,,,0,0,0,0,,,,,5,9,69,2,,,,,,,,,,,,,,,,,,,,,1.6,2.488,508.0518197999918,None,,,,,,,,,,,,,,,,,,,,508.5948972000042,509.09713429998374,0.5055401800200343,1.0058519800077192,509.0804750000243,509.197370400012,509.0804750000243,509.197370400012,509.1805309000192,None,m,1,1.3374322000308894,509.1805309000192,None,,,,,,,pw,2022_Apr_18_1143,training+cueing,2021.1.4,59.981957422495825,
Stranger.png,Stranger,Stranger,c,3,13,23,93,,,,,0,0,0,0,,,,,5,10,70,11,,,,,,,,,,,,,,,,,,,,,1.419,1.897,510.6545388000086,None,,,,,,,,,,,,,,,,,,,,511.1923897000379,511.69903260003775,0.5112680800375529,1.0117544800741598,511.682368400041,511.7990995,511.682368400041,511.7990995,511.78238520002924,None,c,1,0.5757992999861017,511.78238520002924,None,,,,,,,pw,2022_Apr_18_1143,training+cueing,2021.1.4,59.981957422495825,
Stranger.png,You,Stranger,m,1.3,15,25,95,,,,,0,0,0,0,,,,,5,11,71,6,,,,,,,,,,,,,,,,,,,,,1.692,1.972,512.4903636000236,None,,,,,,,,,,,,,,,,,,,,513.0303201000206,513.5336940999841,0.5065790800144896,1.0068688800674863,513.517007699993,513.6170508000068,513.517007699993,513.6170508000068,513.6170508000068,None,m,1,1.2048412000294775,513.6170508000068,None,,,,,,,pw,2022_Apr_18_1143,training+cueing,2021.1.4,59.981957422495825,
Stranger.png,Stranger,Stranger,c,3,13,23,93,,,,,0,0,0,0,,,,,6,0,72,8,,,,,,,,,,,,,,,,,,,,,1.455,1.311,514.9571563000209,None,,,,,,,,,,,,,,,,,,,,515.4982200000086,516.002126300009,0.5045533800730482,1.0047996800858527,515.9854965999839,516.1022107999888,515.9854965999839,516.1022107999888,516.0854851999902,None,c,1,1.2164997999789193,516.0854851999902,None,,,,,,,pw,2022_Apr_18_1143,training+cueing,2021.1.4,59.981957422495825,
Friend.png,Friend,Friend,c,2,12,22,92,,,,,0,0,0,0,,,,,6,1,73,4,,,,,,,,,,,,,,,,,,,,,1.56,2.343,517.4260561999981,None,,,,,,,,,,,,,,,,,,,,517.9674554000376,518.4706341000274,0.5066938800155185,1.0066972800414078,518.4541630999884,518.5708351000212,518.4541630999884,518.5708351000212,518.5539538000012,None,c,1,1.1800935000064783,518.5539538000012,None,,,,,,,pw,2022_Apr_18_1143,training+cueing,2021.1.4,59.981957422495825,
Stranger.png,You,Stranger,m,1.3,15,25,95,,,,,0,0,0,0,,,,,6,2,74,6,,,,,,,,,,,,,,,,,,,,,1.575,1.797,519.8612664000248,None,,,,,,,,,,,,,,,,,,,,520.4015285000205,520.9056715000188,0.5076027800678276,1.0080117800389417,520.8889867000398,520.9890363999875,520.8889867000398,520.9890363999875,520.9890363999875,None,m,1,1.0168356000212952,520.9890363999875,None,,,,,,,pw,2022_Apr_18_1143,training+cueing,2021.1.4,59.981957422495825,
Self.png,Stranger,Self ,m,3.1,18,28,98,,,,,0,0,0,0,,,,,6,3,75,2,,,,,,,,,,,,,,,,,,,,,1.771,1.981,522.129334600002,None,,,,,,,,,,,,,,,,,,,,522.6690187000204,523.1740124000353,0.5082481800345704,1.0091391800087877,523.1573142000125,523.2740388000384,523.1573142000125,523.2740388000384,523.257345799997,None,m,1,0.7009237999445759,523.257345799997,None,,,,,,,pw,2022_Apr_18_1143,training+cueing,2021.1.4,59.981957422495825,
Self.png,You,Self ,c,1,11,21,91,,,,,0,0,0,0,,,,,6,4,76,0,,,,,,,,,,,,,,,,,,,,,1.713,1.437,524.0848091000225,None,,,,,,,,,,,,,,,,,,,,524.6231405999861,525.1253886999912,0.5049626800464466,1.0060300800250843,525.1086839000345,525.2087598000071,525.1086839000345,525.2087598000071,525.2087598000071,None,c,1,0.3973297000047751,525.2087598000071,None,,,,,,,pw,2022_Apr_18_1143,training+cueing,2021.1.4,59.981957422495825,
Stranger.png,Friend,Stranger,m,2.3,17,27,97,,,,,0,0,0,0,,,,,6,5,77,7,,,,,,,,,,,,,,,,,,,,,1.542,1.974,525.7354217999964,None,,,,,,,,,,,,,,,,,,,,526.2900665000197,526.7932986000087,0.5062856399454176,1.006559639936313,526.7766143000335,526.8933259000187,526.7766143000335,526.8933259000187,526.8766262999852,None,m,1,1.2571522999787703,526.8766262999852,None,,,,,,,pw,2022_Apr_18_1143,training+cueing,2021.1.4,59.981957422495825,
Self.png,Friend,Self ,m,2.1,16,26,96,,,,,0,0,0,0,,,,,6,6,78,1,,,,,,,,,,,,,,,,,,,,,1.655,1.68,528.2665876999963,None,,,,,,,,,,,,,,,,,,,,528.8053364999942,529.3117667000042,0.5106415799818933,1.0112346799578518,529.2950948000071,529.4118171000155,529.2950948000071,529.4118171000155,529.3950825000065,None,m,1,0.7226884000119753,529.3950825000065,None,,,,,,,pw,2022_Apr_18_1143,training+cueing,2021.1.4,59.981957422495825,
Friend.png,Stranger,Friend,m,3.2,19,29,99,,,,,0,0,0,0,,,,,6,7,79,5,,,,,,,,,,,,,,,,,,,,,1.475,2.107,530.2520054000197,None,,,,,,,,,,,,,,,,,,,,530.7921729999944,531.2965161000029,0.5072364800143987,1.0075304800411686,531.2798615000211,531.3965758000268,531.2798615000211,531.3965758000268,531.379896700033,None,m,1,1.1379876999999397,531.379896700033,None,,,,,,,pw,2022_Apr_18_1143,training+cueing,2021.1.4,59.981957422495825,
Self.png,You,Self ,c,1,11,21,91,,,,,0,0,0,0,,,,,6,8,80,9,,,,,,,,,,,,,,,,,,,,,1.459,2.323,532.6531762999948,None,,,,,,,,,,,,,,,,,,,,533.194198000012,533.6982554999995,0.5065062799840234,1.0067877799738199,533.681595400034,533.7816781000001,533.681595400034,533.7816781000001,533.7816781000001,None,c,1,0.720205600024201,533.7816781000001,None,,,,,,,pw,2022_Apr_18_1143,training+cueing,2021.1.4,59.981957422495825,
Stranger.png,Stranger,Stranger,c,3,13,23,93,,,,,0,0,0,0,,,,,6,9,81,11,,,,,,,,,,,,,,,,,,,,,1.401,2.122,534.6384121000301,None,,,,,,,,,,,,,,,,,,,,535.1888967999839,535.6996936000069,0.5047971800086088,1.0051027800072916,535.6830281000002,535.799776400032,535.6830281000002,535.799776400032,535.7832198000397,None,c,1,1.1511016000295058,535.7832198000397,None,,,,,,,pw,2022_Apr_18_1143,training+cueing,2021.1.4,59.981957422495825,
Friend.png,Friend,Friend,c,2,12,22,92,,,,,0,0,0,0,,,,,6,10,82,10,,,,,,,,,,,,,,,,,,,,,1.714,1.219,537.0609637000016,None,,,,,,,,,,,,,,,,,,,,537.5997572999913,538.1014309999882,0.5038687799824402,1.0044284799951129,538.084752099996,538.2015025999863,538.084752099996,538.2015025999863,538.1847993999836,None,c,1,1.261127799982205,538.1847993999836,None,,,,,,,pw,2022_Apr_18_1143,training+cueing,2021.1.4,59.981957422495825,
Friend.png,You,Friend,m,1.2,14,24,94,,,,,0,0,0,0,,,,,6,11,83,3,,,,,,,,,,,,,,,,,,,,,1.567,2.071,539.5765242000343,None,,,,,,,,,,,,,,,,,,,,540.1169390000287,540.6199273000238,0.5035994800273329,1.0041068799910136,540.6032645000378,540.7032925999956,540.6032645000378,540.7032925999956,540.7032925999956,None,c,0,0.5985116999945603,540.7032925999956,None,,,,,,,pw,2022_Apr_18_1143,training+cueing,2021.1.4,59.981957422495825,
Stranger.png,You,Stranger,m,1.3,15,25,95,,,,,0,0,0,0,,,,,7,0,84,6,,,,,,,,,,,,,,,,,,,,,1.792,1.361,541.4266689000069,None,,,,,,,,,,,,,,,,,,,,541.9657862000167,542.4712857000413,0.5106136800022796,1.0108895800076425,542.4545916999923,542.5546222000266,542.4545916999923,542.5546222000266,542.5546222000266,None,m,1,0.8431896999827586,542.5546222000266,None,,,,,,,pw,2022_Apr_18_1143,training+cueing,2021.1.4,59.981957422495825,
Stranger.png,Stranger,Stranger,c,3,13,23,93,,,,,0,0,0,0,,,,,7,1,85,8,,,,,,,,,,,,,,,,,,,,,1.602,1.466,543.5284352999879,None,,,,,,,,,,,,,,,,,,,,544.0696462999913,544.57277660002,0.5058475800324231,1.0061444800230674,544.5561226999853,544.6728264000267,544.5561226999853,544.6728264000267,544.6561691000243,None,c,1,0.6938546000164934,544.6561691000243,None,,,,,,,pw,2022_Apr_18_1143,training+cueing,2021.1.4,59.981957422495825,
Friend.png,Stranger,Friend,m,3.2,19,29,99,,,,,0,0,0,0,,,,,7,2,86,5,,,,,,,,,,,,,,,,,,,,,1.44,2.324,545.4796225000173,None,,,,,,,,,,,,,,,,,,,,546.0157412000117,546.5241593000246,0.5144025799818337,1.0147211799630895,546.507516600017,546.6242411999847,546.507516600017,546.6242411999847,546.6075511000236,None,c,0,0.6464717999915592,546.6075511000236,None,,,,,,,pw,2022_Apr_18_1143,training+cueing,2021.1.4,59.981957422495825,
Self.png,You,Self ,c,1,11,21,91,,,,,0,0,0,0,,,,,7,3,87,0,,,,,,,,,,,,,,,,,,,,,1.795,1.348,547.3849378000014,None,,,,,,,,,,,,,,,,,,,,547.9238277000259,548.4255642000353,0.505005480023101,1.005286880012136,548.40890520002,548.5089298000094,548.40890520002,548.5089298000094,548.5089298000094,None,c,1,0.6650057000224479,548.5089298000094,None,,,,,,,pw,2022_Apr_18_1143,training+cueing,2021.1.4,59.981957422495825,
Self.png,You,Self ,c,1,11,21,91,,,,,0,0,0,0,,,,,7,4,88,9,,,,,,,,,,,,,,,,,,,,,1.748,1.288,549.3016974999919,None,,,,,,,,,,,,,,,,,,,,549.839757400041,550.3436470000306,0.5062850800459273,1.0064367800368927,550.3270665000309,550.4270122000016,550.3270665000309,550.4270122000016,550.4270122000016,None,c,1,0.5707246999954805,550.4270122000016,None,,,,,,,pw,2022_Apr_18_1143,training+cueing,2021.1.4,59.981957422495825,
Self.png,Friend,Self ,m,2.1,16,26,96,,,,,0,0,0,0,,,,,7,5,89,1,,,,,,,,,,,,,,,,,,,,,1.421,1.205,551.133539900009,None,,,,,,,,,,,,,,,,,,,,551.6740445999894,552.1783071000245,0.5075641800067388,1.0078875800245441,552.161608800001,552.2783623000141,552.161608800001,552.2783623000141,552.2616682000225,None,m,1,0.656380700005684,552.2616682000225,None,,,,,,,pw,2022_Apr_18_1143,training+cueing,2021.1.4,59.981957422495825,
Friend.png,You,Friend,m,1.2,14,24,94,,,,,0,0,0,0,,,,,7,6,90,3,,,,,,,,,,,,,,,,,,,,,1.517,1.939,553.0515120000346,None,,,,,,,,,,,,,,,,,,,,553.5933439999935,554.0965379999834,0.5063448800356127,1.0066004800028168,554.0798507999862,554.1798843999859,554.0798507999862,554.1798843999859,554.1798843999859,None,m,1,1.0259954999783076,554.1798843999859,None,,,,,,,pw,2022_Apr_18_1143,training+cueing,2021.1.4,59.981957422495825,
Self.png,Stranger,Self ,m,3.1,18,28,98,,,,,0,0,0,0,,,,,7,7,91,2,,,,,,,,,,,,,,,,,,,,,1.555,1.807,555.3381640000152,None,,,,,,,,,,,,,,,,,,,,555.8785235999967,556.3813176000258,0.5045511799980886,1.0048335800529458,556.364681600011,556.4813627999974,556.364681600011,556.4813627999974,556.4646513999905,None,c,0,0.5972974000032991,556.4646513999905,None,,,,,,,pw,2022_Apr_18_1143,training+cueing,2021.1.4,59.981957422495825,
Stranger.png,Stranger,Stranger,c,3,13,23,93,,,,,0,0,0,0,,,,,7,8,92,11,,,,,,,,,,,,,,,,,,,,,1.549,2.199,557.1914661999908,None,,,,,,,,,,,,,,,,,,,,557.7425074999919,558.2493493999937,0.512937140010763,1.0131974400137551,558.2326903000358,558.3494286999921,558.2326903000358,558.3494286999921,558.3326961999992,None,c,1,0.7133733999799006,558.3326961999992,None,,,,,,,pw,2022_Apr_18_1143,training+cueing,2021.1.4,59.981957422495825,
Friend.png,Friend,Friend,c,2,12,22,92,,,,,0,0,0,0,,,,,7,9,93,10,,,,,,,,,,,,,,,,,,,,,1.411,1.244,559.1731618000194,None,,,,,,,,,,,,,,,,,,,,559.7135131999967,560.2174308000249,0.507065580051858,1.0073602800257504,560.2007372000371,560.3174710000167,560.2007372000371,560.3174710000167,560.300782700011,None,c,1,0.809287000040058,560.300782700011,None,,,,,,,pw,2022_Apr_18_1143,training+cueing,2021.1.4,59.981957422495825,
Stranger.png,Friend,Stranger,m,2.3,17,27,97,,,,,0,0,0,0,,,,,7,10,94,7,,,,,,,,,,,,,,,,,,,,,1.51,1.704,561.2412095000036,None,,,,,,,,,,,,,,,,,,,,561.7774176000385,562.2855993999983,0.5141195800388232,1.014348280034028,562.2689565999899,562.3856511000195,562.2689565999899,562.3856511000195,562.3689553000149,None,m,1,0.6288427000399679,562.3689553000149,None,,,,,,,pw,2022_Apr_18_1143,training+cueing,2021.1.4,59.981957422495825,
Friend.png,Friend,Friend,c,2,12,22,92,,,,,0,0,0,0,,,,,7,11,95,4,,,,,,,,,,,,,,,,,,,,,1.779,2.231,563.1252824999974,None,,,,,,,,,,,,,,,,,,,,563.6648132000118,564.1702958000242,0.5112227800418623,1.0115320800687186,564.1535991000128,564.270328100014,564.1535991000128,564.270328100014,564.2536223999923,None,c,1,0.6481117999646813,564.2536223999923,None,,,,,,,pw,2022_Apr_18_1143,training+cueing,2021.1.4,59.981957422495825,
Self.png,You,Self ,c,1,11,21,91,,,,,0,0,0,0,,,,,8,0,96,0,,,,,,,,,,,,,,,,,,,,,1.564,2.349,565.0272585999919,None,,,,,,,,,,,,,,,,,,,,565.5675216999953,566.0716613000259,0.5058719799853861,1.0061585799558088,566.0549652000191,566.1550451000221,566.0549652000191,566.1550451000221,566.1550451000221,None,c,1,0.49072369997156784,566.1550451000221,None,,,,,,,pw,2022_Apr_18_1143,training+cueing,2021.1.4,59.981957422495825,
Self.png,Stranger,Self ,m,3.1,18,28,98,,,,,0,0,0,0,,,,,8,1,97,2,,,,,,,,,,,,,,,,,,,,,1.715,1.362,566.7785172000295,None,,,,,,,,,,,,,,,,,,,,567.3253456000239,567.839601100015,0.5111427800147794,1.0114178800140508,567.8229346000007,567.9396062000305,567.8229346000007,567.9396062000305,567.9229241000139,None,m,1,0.5791448000236414,567.9229241000139,None,,,,,,,pw,2022_Apr_18_1143,training+cueing,2021.1.4,59.981957422495825,
Stranger.png,Stranger,Stranger,c,3,13,23,93,,,,,0,0,0,0,,,,,8,2,98,8,,,,,,,,,,,,,,,,,,,,,1.663,1.652,568.6294554999913,None,,,,,,,,,,,,,,,,,,,,569.168867600034,569.6742635000264,0.5109469799790531,1.011489079974126,569.6576023999951,569.7744348000269,569.6576023999951,569.7744348000269,569.7576300000073,None,c,1,0.6321885000215843,569.7576300000073,None,,,,,,,pw,2022_Apr_18_1143,training+cueing,2021.1.4,59.981957422495825,
Friend.png,You,Friend,m,1.2,14,24,94,,,,,0,0,0,0,,,,,8,3,99,3,,,,,,,,,,,,,,,,,,,,,1.477,1.275,570.5153530000243,None,,,,,,,,,,,,,,,,,,,,571.0550714000128,571.5589552000165,0.5053126800339669,1.005652280000504,571.5422901000129,571.6423693000106,571.5422901000129,571.6423693000106,571.6423693000106,None,m,1,0.5715567999868654,571.6423693000106,None,,,,,,,pw,2022_Apr_18_1143,training+cueing,2021.1.4,59.981957422495825,
Stranger.png,Stranger,Stranger,c,3,13,23,93,,,,,0,0,0,0,,,,,8,4,100,11,,,,,,,,,,,,,,,,,,,,,1.448,1.346,572.3490567000117,None,,,,,,,,,,,,,,,,,,,,572.9091070999857,573.4104357000324,0.5037075399886817,1.0041491400334053,573.3938107999857,573.5106586000184,573.3938107999857,573.5106586000184,573.493922499998,None,c,1,0.6238827999914065,573.493922499998,None,,,,,,,pw,2022_Apr_18_1143,training+cueing,2021.1.4,59.981957422495825,
Friend.png,Friend,Friend,c,2,12,22,92,,,,,0,0,0,0,,,,,8,5,101,4,,,,,,,,,,,,,,,,,,,,,1.411,1.803,574.2504571999889,None,,,,,,,,,,,,,,,,,,,,574.7910808000015,575.2950165999937,0.5082618800224736,1.0091522800503299,575.2783227000036,575.3952004000312,575.2783227000036,575.3952004000312,575.3783547999919,None,c,1,0.6275082999491133,575.3783547999919,None,,,,,,,pw,2022_Apr_18_1143,training+cueing,2021.1.4,59.981957422495825,
Friend.png,Stranger,Friend,m,3.2,19,29,99,,,,,0,0,0,0,,,,,8,6,102,5,,,,,,,,,,,,,,,,,,,,,1.675,1.684,576.1357281000237,None,,,,,,,,,,,,,,,,,,,,576.6780870000366,577.1797236999846,0.5014658800209872,1.001977980020456,577.1630157000036,577.2797487000353,577.1630157000036,577.2797487000353,577.2797487000353,None,c,0,0.6784736999543384,577.2797487000353,None,,,,,,,pw,2022_Apr_18_1143,training+cueing,2021.1.4,59.981957422495825,
Self.png,Friend,Self ,m,2.1,16,26,96,,,,,0,0,0,0,,,,,8,7,103,1,,,,,,,,,,,,,,,,,,,,,1.544,1.632,578.0882167000091,None,,,,,,,,,,,,,,,,,,,,578.642928700021,579.1477837000275,0.5098750399774872,1.0104057400021702,579.1311020000139,579.2483810000122,579.1311020000139,579.2483810000122,579.2311406999943,None,m,1,0.7913102000020444,579.2311406999943,None,,,,,,,pw,2022_Apr_18_1143,training+cueing,2021.1.4,59.981957422495825,
Friend.png,Friend,Friend,c,2,12,22,92,,,,,0,0,0,0,,,,,8,8,104,10,,,,,,,,,,,,,,,,,,,,,1.605,2.321,580.1556822999846,None,,,,,,,,,,,,,,,,,,,,580.6943113000016,581.1992692000349,0.5067349799792282,1.0070365800056607,581.1825891000335,581.2993181000347,581.1825891000335,581.2993181000347,581.2826354000135,None,c,1,0.7713486999855377,581.2826354000135,None,,,,,,,pw,2022_Apr_18_1143,training+cueing,2021.1.4,59.981957422495825,
Stranger.png,Friend,Stranger,m,2.3,17,27,97,,,,,0,0,0,0,,,,,8,9,105,7,,,,,,,,,,,,,,,,,,,,,1.548,2.484,582.1891940000351,None,,,,,,,,,,,,,,,,,,,,582.7277171000023,583.2340552000096,0.511502780020237,1.0118064800044522,583.2173745000036,583.3341157000395,583.2173745000036,583.3341157000395,583.317406999995,None,m,1,0.7044624999980442,583.317406999995,None,,,,,,,pw,2022_Apr_18_1143,training+cueing,2021.1.4,59.981957422495825,
Stranger.png,You,Stranger,m,1.3,15,25,95,,,,,0,0,0,0,,,,,8,10,106,6,,,,,,,,,,,,,,,,,,,,,1.425,2.345,584.1569802000304,None,,,,,,,,,,,,,,,,,,,,584.6984652000247,585.2021418000222,0.5067577800364234,1.0070545800263062,585.1854596000048,585.2855351000326,585.1854596000048,585.2855351000326,585.2855351000326,None,m,1,0.7203153999871574,585.2855351000326,None,,,,,,,pw,2022_Apr_18_1143,training+cueing,2021.1.4,59.981957422495825,
Self.png,You,Self ,c,1,11,21,91,,,,,0,0,0,0,,,,,8,11,107,9,,,,,,,,,,,,,,,,,,,,,1.766,1.468,586.1419354000245,None,,,,,,,,,,,,,,,,,,,,586.6859375000349,587.1870330999955,0.5008720800396986,1.001168980030343,587.1702897000359,587.2704101999989,587.1702897000359,587.2704101999989,587.2704101999989,None,c,1,0.5276712999911979,587.2704101999989,None,,,,,,,pw,2022_Apr_18_1143,training+cueing,2021.1.4,59.981957422495825,
Self.png,You,Self ,c,1,11,21,91,,,,,0,0,0,0,,,,,9,0,108,9,,,,,,,,,,,,,,,,,,,,,1.482,2.472,587.9269413999864,None,,,,,,,,,,,,,,,,,,,,588.4638015000382,588.9715452000382,0.5152239800081588,1.0155143800075166,588.9548518999945,589.0549335000105,588.9548518999945,589.0549335000105,589.0549335000105,None,c,1,0.48681590001797304,589.0549335000105,None,,,,,,,pw,2022_Apr_18_1143,training+cueing,2021.1.4,59.981957422495825,
Friend.png,You,Friend,m,1.2,14,24,94,,,,,0,0,0,0,,,,,9,1,109,3,,,,,,,,,,,,,,,,,,,,,1.426,1.747,589.6777530999971,None,,,,,,,,,,,,,,,,,,,,590.2168769999989,590.7227998999879,0.5116579800378531,1.0119617800228298,590.706103500037,590.8061642000102,590.706103500037,590.8061642000102,590.8061642000102,None,m,1,0.5756175999995321,590.8061642000102,None,,,,,,,pw,2022_Apr_18_1143,training+cueing,2021.1.4,59.981957422495825,
Stranger.png,You,Stranger,m,1.3,15,25,95,,,,,0,0,0,0,,,,,9,2,110,6,,,,,,,,,,,,,,,,,,,,,1.568,1.544,591.5128536000266,None,,,,,,,,,,,,,,,,,,,,592.0521231000312,592.5574607999879,0.5094438800006174,1.009749680000823,592.5407841000124,592.6408403000096,592.5407841000124,592.6408403000096,592.6408403000096,None,m,1,0.48489099997095764,592.6408403000096,None,,,,,,,pw,2022_Apr_18_1143,training+cueing,2021.1.4,59.981957422495825,
Friend.png,Stranger,Friend,m,3.2,19,29,99,,,,,0,0,0,0,,,,,9,3,111,5,,,,,,,,,,,,,,,,,,,,,1.532,1.449,593.2474946000148,None,,,,,,,,,,,,,,,,,,,,593.7953561000177,594.3086601000396,0.5050028800033033,1.0058518800069578,594.2753615000402,594.3759685000405,594.2753615000402,594.3759685000405,594.3759685000405,None,c,0,0.6704815000412054,594.3759685000405,None,,,,,,,pw,2022_Apr_18_1143,training+cueing,2021.1.4,59.981957422495825,
Self.png,Stranger,Self ,m,3.1,18,28,98,,,,,0,0,0,0,,,,,9,4,112,2,,,,,,,,,,,,,,,,,,,,,1.629,1.484,595.1858726000064,None,,,,,,,,,,,,,,,,,,,,595.7217179000145,596.2269435999915,0.5076609799871221,1.0085353800095618,596.2101175999851,596.3268514000229,596.2101175999851,596.3268514000229,596.3101599999936,None,m,1,0.7039284000056796,596.3101599999936,None,,,,,,,pw,2022_Apr_18_1143,training+cueing,2021.1.4,59.981957422495825,
Friend.png,Friend,Friend,c,2,12,22,92,,,,,0,0,0,0,,,,,9,5,113,10,,,,,,,,,,,,,,,,,,,,,1.456,1.518,597.153403400036,None,,,,,,,,,,,,,,,,,,,,597.6932031000033,598.1948343000258,0.5040093800053,1.0046683800173923,598.1782076000236,598.2949157000403,598.1782076000236,598.2949157000403,598.2782196000335,None,c,1,0.8958381999982521,598.2782196000335,None,,,,,,,pw,2022_Apr_18_1143,training+cueing,2021.1.4,59.981957422495825,
Stranger.png,Stranger,Stranger,c,3,13,23,93,,,,,0,0,0,0,,,,,9,6,114,8,,,,,,,,,,,,,,,,,,,,,1.772,2.379,599.3028795000282,None,,,,,,,,,,,,,,,,,,,,599.8550684000365,600.3631796999834,0.5152372400043532,1.0160524399834685,600.3465007999912,600.4632066999911,600.3465007999912,600.4632066999911,600.4465360000031,None,c,1,0.8237022000248544,600.4465360000031,None,,,,,,,pw,2022_Apr_18_1143,training+cueing,2021.1.4,59.981957422495825,
Stranger.png,Stranger,Stranger,c,3,13,23,93,,,,,0,0,0,0,,,,,9,7,115,11,,,,,,,,,,,,,,,,,,,,,1.783,2.372,601.4072476000292,None,,,,,,,,,,,,,,,,,,,,601.9423734000302,602.447930400027,0.5083096800372005,1.0085954800597392,602.4312711000093,602.5479630000191,602.4312711000093,602.5479630000191,602.5313140000217,None,c,1,0.49836000002687797,602.5313140000217,None,,,,,,,pw,2022_Apr_18_1143,training+cueing,2021.1.4,59.981957422495825,
Self.png,Friend,Self ,m,2.1,16,26,96,,,,,0,0,0,0,,,,,9,8,116,1,,,,,,,,,,,,,,,,,,,,,1.516,1.342,603.1541685999837,None,,,,,,,,,,,,,,,,,,,,603.6948863000143,604.1992421000032,0.5091188800870441,1.0094054800574668,604.1825365000404,604.2992705000215,604.1825365000404,604.2992705000215,604.2825667000143,None,m,1,0.555323300010059,604.2825667000143,None,,,,,,,pw,2022_Apr_18_1143,training+cueing,2021.1.4,59.981957422495825,
Stranger.png,Friend,Stranger,m,2.3,17,27,97,,,,,0,0,0,0,,,,,9,9,117,7,,,,,,,,,,,,,,,,,,,,,1.476,1.463,604.9725872999988,None,,,,,,,,,,,,,,,,,,,,605.5116387000307,606.0172009000089,0.5115306799998507,1.0117892800481059,606.0005400000373,606.117289900023,606.0005400000373,606.117289900023,606.1005377999973,None,c,0,0.8331779000000097,606.1005377999973,None,,,,,,,pw,2022_Apr_18_1143,training+cueing,2021.1.4,59.981957422495825,
Friend.png,Friend,Friend,c,2,12,22,92,,,,,0,0,0,0,,,,,9,10,118,4,,,,,,,,,,,,,,,,,,,,,1.643,1.802,607.0577092000167,None,,,,,,,,,,,,,,,,,,,,607.5935406000353,608.1020616000169,0.5143535800743848,1.0144815800595097,608.085512300022,608.2021062999847,608.085512300022,608.2021062999847,608.1854013000266,None,c,1,0.49265540001215413,608.1854013000266,None,,,,,,,pw,2022_Apr_18_1143,training+cueing,2021.1.4,59.981957422495825,
Self.png,You,Self ,c,1,11,21,91,,,,,0,0,0,0,,,,,9,11,119,0,,,,,,,,,,,,,,,,,,,,,1.639,2.484,608.8087002999964,None,,,,,,,,,,,,,,,,,,,,609.3494403000223,609.8532597000012,0.5081250799703412,1.0084583800053224,609.8365960000083,609.9366536000161,609.8365960000083,609.9366536000161,609.9366536000161,None,c,1,0.5011097000096925,609.9366536000161,None,,,,,,,pw,2022_Apr_18_1143,training+cueing,2021.1.4,59.981957422495825,
,,,,,,,,,,,,0,0,0,0,,,,,,,,,,,,,,,,,,,,,,,,,,,,,,,,,,,,,,,,,,,,,,,,,,,,,,,,,,,,,,,,,,,0.0009663199889473617,None,,,,,pw,2022_Apr_18_1143,training+cueing,2021.1.4,59.981957422495825,
Self.png,Friend,Self ,m,2.1,16,26,96,,,,,1,0,1,0,0,0,0,1,,,,,,,,,,,,,,,,,611.0710212999838,None,space,29.95816979999654,2.015784859948326,None,643.0440782000078,None,1.602,1.544,646.0533782999846,None,646.5917113000178,647.096881000034,647.0802087000338,647.1969230000395,647.0802087000338,647.1969230000395,647.1802315000095,None,None,0,647.1802315000095,None,648.7847666000016,None,,,,,,,,,,,,,,,,,,,,,,,,,,,pw,2022_Apr_18_1143,training+cueing,2021.1.4,59.981957422495825,
Friend.png,You,Friend,m,1.2,14,24,94,,,,,1,0,1,0,0,1,1,3,,,,,,,,,,,,,,,,,,,,,,,,,1.781,1.723,649.1985056999838,None,649.7356026000343,650.2493042999995,650.2326574000181,650.3326809999999,650.2326574000181,650.3326809999999,650.3326809999999,None,m,1,650.3326809999999,None,651.1513752000174,None,0.7929573999717832,,,,,,,,,,,,,,,,,,,,,,,,,,pw,2022_Apr_18_1143,training+cueing,2021.1.4,59.981957422495825,
Self.png,You,Self ,c,1,11,21,91,,,,,1,0,1,0,0,2,2,0,,,,,,,,,,,,,,,,,,,,,,,,,1.697,1.504,651.5506190999877,None,652.0830514000263,652.5841846000403,652.5675147000002,652.6675343000097,652.5675147000002,652.6675343000097,652.6675343000097,None,c,1,652.6675343000097,None,653.334699900006,None,0.6501145000220276,,,,,,,,,,,,,,,,,,,,,,,,,,pw,2022_Apr_18_1143,training+cueing,2021.1.4,59.981957422495825,
Stranger.png,Stranger,Stranger,c,3,13,23,93,,,,,1,0,1,0,0,3,3,8,,,,,,,,,,,,,,,,,,,,,,,,,1.6,2.108,653.7349600000307,None,654.2711408000323,654.7857593999943,654.7690964000067,654.8857902000309,654.7690964000067,654.8857902000309,654.8691396000213,None,c,1,654.8691396000213,None,655.5550723000197,None,0.6568119000294246,,,,,,,,,,,,,,,,,,,,,,,,,,pw,2022_Apr_18_1143,training+cueing,2021.1.4,59.981957422495825,
Self.png,Stranger,Self ,m,3.1,18,28,98,,,,,1,0,1,0,0,4,4,2,,,,,,,,,,,,,,,,,,,,,,,,,1.654,1.762,655.9700508000096,None,656.504753199988,657.0040203999961,657.0040203999961,657.1041003999999,657.0040203999961,657.1041003999999,657.1041003999999,None,m,1,657.1041003999999,None,658.1381786999991,None,1.0137771000154316,,,,,,,,,,,,,,,,,,,,,,,,,,pw,2022_Apr_18_1143,training+cueing,2021.1.4,59.981957422495825,
Self.png,You,Self ,c,1,11,21,91,,,,,1,0,1,0,0,5,5,9,,,,,,,,,,,,,,,,,,,,,,,,,1.764,1.78,658.5385080000269,None,659.0702903000056,659.5726515999995,659.5559693000396,659.6559269999852,659.5559693000396,659.6559269999852,659.6559269999852,None,c,1,659.6559269999852,None,660.356483999989,None,0.6697233999730088,,,,,,,,,,,,,,,,,,,,,,,,,,pw,2022_Apr_18_1143,training+cueing,2021.1.4,59.981957422495825,
Stranger.png,Stranger,Stranger,c,3,13,23,93,,,,,1,0,1,0,0,6,6,11,,,,,,,,,,,,,,,,,,,,,,,,,1.536,2.185,660.7566978000104,None,661.2905749999918,661.7907964999904,661.77416239999,661.8908640000154,661.77416239999,661.8908640000154,661.8908640000154,None,c,1,661.8908640000154,None,662.5413970000227,None,0.6268546999781393,,,,,,,,,,,,,,,,,,,,,,,,,,pw,2022_Apr_18_1143,training+cueing,2021.1.4,59.981957422495825,
Friend.png,Stranger,Friend,m,3.2,19,29,99,,,,,1,0,1,0,0,7,7,5,,,,,,,,,,,,,,,,,,,,,,,,,1.574,2.081,662.9416460000211,None,663.4741032000165,663.9757397000212,663.95905460004,664.0757947000093,663.95905460004,664.0757947000093,664.0590725000366,None,m,1,664.0590725000366,None,664.6762664000271,None,0.586566700018011,,,,,,,,,,,,,,,,,,,,,,,,,,pw,2022_Apr_18_1143,training+cueing,2021.1.4,59.981957422495825,
Stranger.png,You,Stranger,m,1.3,15,25,95,,,,,1,0,1,0,0,8,8,6,,,,,,,,,,,,,,,,,,,,,,,,,1.736,1.339,665.0765201000031,None,665.6092751999968,666.1106011000229,666.093931200041,666.1939979000017,666.093931200041,666.1939979000017,666.1939979000017,None,m,1,666.1939979000017,None,666.9133811999927,None,0.6922717000124976,,,,,,,,,,,,,,,,,,,,,,,,,,pw,2022_Apr_18_1143,training+cueing,2021.1.4,59.981957422495825,
Stranger.png,Friend,Stranger,m,2.3,17,27,97,,,,,1,0,1,0,0,9,9,7,,,,,,,,,,,,,,,,,,,,,,,,,1.659,2.19,667.3281892000232,None,667.8622333999956,668.3622378000291,668.3455585000338,668.4622960999841,668.3455585000338,668.4622960999841,668.4622960999841,None,m,1,668.4622960999841,None,669.4477408000384,None,0.9677640000008978,,,,,,,,,,,,,,,,,,,,,,,,,,pw,2022_Apr_18_1143,training+cueing,2021.1.4,59.981957422495825,
Friend.png,Friend,Friend,c,2,12,22,92,,,,,1,0,1,0,0,10,10,10,,,,,,,,,,,,,,,,,,,,,,,,,1.586,2.39,669.8467818000354,None,670.3797685999889,670.8807389999856,670.8640403000172,670.9807928000228,670.8640403000172,670.9807928000228,670.9807928000228,None,c,1,670.9807928000228,None,671.581359600008,None,0.577046699996572,,,,,,,,,,,,,,,,,,,,,,,,,,pw,2022_Apr_18_1143,training+cueing,2021.1.4,59.981957422495825,
Friend.png,Friend,Friend,c,2,12,22,92,,,,,1,0,1,0,0,11,11,4,,,,,,,,,,,,,,,,,,,,,,,,,1.783,1.877,671.9815556000103,None,672.5138685000129,673.015570699994,672.9989448999986,673.1161972000264,672.9989448999986,673.1161972000264,673.0989440000267,None,m,0,673.0989440000267,None,673.9854150000028,None,0.8586827000253834,,,,,,,,,,,,,,,,,,,,,,,,,,pw,2022_Apr_18_1143,training+cueing,2021.1.4,59.981957422495825,
Self.png,Stranger,Self ,m,3.1,18,28,98,,,,,1,0,1,0,,,,,0,0,0,2,,,,,,,,,,,,,,,,,,,677.4023721999838,None,1.688,1.949,680.9164985000389,None,,,,,,,,,,,,,,,,674.4000147000188,None,0.014050760015379637,0.5118045600247569,681.4564481999842,681.9720774000161,0.5138277799705975,1.0141116799786687,681.9553939999896,682.0721375999856,681.9553939999896,682.0721375999856,682.0554272999871,None,m,1,0.7821725999820046,682.0554272999871,None,,,,,,,pw,2022_Apr_18_1143,training+cueing,2021.1.4,59.981957422495825,
Friend.png,Friend,Friend,c,2,12,22,92,,,,,1,0,1,0,,,,,0,1,1,4,,,,,,,,,,,,,,,,,,,,,1.519,1.564,682.9635028000339,None,,,,,,,,,,,,,,,,,,,,683.5074884000351,684.0068915000302,0.4992576799704693,0.999533979978878,683.9901931000059,684.1069424999878,683.9901931000059,684.1069424999878,684.1069424999878,None,c,1,0.5386576999444515,684.1069424999878,None,,,,,,,pw,2022_Apr_18_1143,training+cueing,2021.1.4,59.981957422495825,
Stranger.png,Friend,Stranger,m,2.3,17,27,97,,,,,1,0,1,0,,,,,0,2,2,7,,,,,,,,,,,,,,,,,,,,,1.713,1.766,684.7796969999908,None,,,,,,,,,,,,,,,,,,,,685.3198663000367,685.8248422000324,0.5076208800310269,1.00793048000196,685.8081681000185,685.9248863999965,685.8081681000185,685.9248863999965,685.908224600018,None,m,1,0.561571600032039,685.908224600018,None,,,,,,,pw,2022_Apr_18_1143,training+cueing,2021.1.4,59.981957422495825,
Friend.png,Friend,Friend,c,2,12,22,92,,,,,1,0,1,0,,,,,0,3,3,10,,,,,,,,,,,,,,,,,,,,,1.67,2.1,686.5989992000395,None,,,,,,,,,,,,,,,,,,,,687.1392183999997,687.6430064000306,0.5056405799696222,1.0072128800093196,687.6249616999994,687.743008600024,687.6249616999994,687.743008600024,687.7262921000365,None,c,1,0.8552803000202402,687.7262921000365,None,,,,,,,pw,2022_Apr_18_1143,training+cueing,2021.1.4,59.981957422495825,
Friend.png,You,Friend,m,1.2,14,24,94,,,,,1,0,1,0,,,,,0,4,4,3,,,,,,,,,,,,,,,,,,,,,1.671,2.321,688.7165851999889,None,,,,,,,,,,,,,,,,,,,,689.257992000028,689.7610248000128,0.5030177800217643,1.0033295800094493,689.7443551000324,689.8443857000093,689.7443551000324,689.8443857000093,689.8443857000093,None,m,1,0.7372605000273325,689.8443857000093,None,,,,,,,pw,2022_Apr_18_1143,training+cueing,2021.1.4,59.981957422495825,
Stranger.png,Stranger,Stranger,c,3,13,23,93,,,,,1,0,1,0,,,,,0,5,5,11,,,,,,,,,,,,,,,,,,,,,1.725,1.562,690.71748630004,None,,,,,,,,,,,,,,,,,,,,691.261725999997,691.7625241000205,0.5015065800398588,1.0017687799991108,691.745828300016,691.8625789000071,691.745828300016,691.8625789000071,691.8625789000071,None,c,1,0.7672758999979123,691.8625789000071,None,,,,,,,pw,2022_Apr_18_1143,training+cueing,2021.1.4,59.981957422495825,
Self.png,You,Self ,c,1,11,21,91,,,,,1,0,1,0,,,,,0,6,6,9,,,,,,,,,,,,,,,,,,,,,1.717,2.055,692.7545687000384,None,,,,,,,,,,,,,,,,,,,,693.2975649000145,693.7985034000012,0.500206180033274,1.000550180033315,693.7805704000057,693.8806796999997,693.7805704000057,693.8806796999997,693.8806796999997,None,c,1,0.5089778000256047,693.8806796999997,None,,,,,,,pw,2022_Apr_18_1143,training+cueing,2021.1.4,59.981957422495825,
Friend.png,Stranger,Friend,m,3.2,19,29,99,,,,,1,0,1,0,,,,,0,7,7,5,,,,,,,,,,,,,,,,,,,,,1.483,2.148,694.5200791000389,None,,,,,,,,,,,,,,,,,,,,695.0639339000336,695.5652603000053,0.5010281800641678,1.0014112800708972,695.5485813000123,695.665834399988,695.5485813000123,695.665834399988,695.665834399988,None,m,1,0.9478514000074938,695.665834399988,None,,,,,,,pw,2022_Apr_18_1143,training+cueing,2021.1.4,59.981957422495825,
Self.png,You,Self ,c,1,11,21,91,,,,,1,0,1,0,,,,,0,8,8,0,,,,,,,,,,,,,,,,,,,,,1.785,2.278,696.74186010001,None,,,,,,,,,,,,,,,,,,,,697.2832418000326,697.7874830000219,0.5016106799594127,1.0184702799888328,697.766929400037,697.8668593000039,697.766929400037,697.8668593000039,697.8668593000039,None,c,1,0.5067303000250831,697.8668593000039,None,,,,,,,pw,2022_Apr_18_1143,training+cueing,2021.1.4,59.981957422495825,
Self.png,Friend,Self ,m,2.1,16,26,96,,,,,1,0,1,0,,,,,0,9,9,1,,,,,,,,,,,,,,,,,,,,,1.53,1.705,698.5066741000046,None,,,,,,,,,,,,,,,,,,,,699.04982439999,699.5514440000406,0.5039713800069876,1.0042696800082922,699.5347624000278,699.6515096999938,699.5347624000278,699.6515096999938,699.6347945000161,None,m,1,0.786799699999392,699.6347945000161,None,,,,,,,pw,2022_Apr_18_1143,training+cueing,2021.1.4,59.981957422495825,
Stranger.png,You,Stranger,m,1.3,15,25,95,,,,,1,0,1,0,,,,,0,10,10,6,,,,,,,,,,,,,,,,,,,,,1.631,1.926,700.5588263000245,None,,,,,,,,,,,,,,,,,,,,701.0990530999843,701.6029752999893,0.5058649799902923,1.0059156800271012,701.5864662000095,701.6863224999979,701.5864662000095,701.6863224999979,701.6863224999979,None,m,1,0.7513875000295229,701.6863224999979,None,,,,,,,pw,2022_Apr_18_1143,training+cueing,2021.1.4,59.981957422495825,
Stranger.png,Stranger,Stranger,c,3,13,23,93,,,,,1,0,1,0,,,,,0,11,11,8,,,,,,,,,,,,,,,,,,,,,1.659,1.999,702.559788500017,None,,,,,,,,,,,,,,,,,,,,703.1018790000235,703.6043750999961,0.5062222800333984,1.0064951800159179,703.5876923000324,703.7044236999936,703.5876923000324,703.7044236999936,703.6877114000381,None,c,1,0.8938670000061393,703.6877114000381,None,,,,,,,pw,2022_Apr_18_1143,training+cueing,2021.1.4,59.981957422495825,
Stranger.png,Stranger,Stranger,c,3,13,23,93,,,,,1,0,1,0,,,,,1,0,12,11,,,,,,,,,,,,,,,,,,,,,1.46,2.019,704.7113916000235,None,,,,,,,,,,,,,,,,,,,,705.2496435000212,705.7559311999939,0.5094449800089933,1.0097252799896523,705.7392260000343,705.8559782000375,705.7392260000343,705.8559782000375,705.8392799000139,None,c,1,0.5662956000305712,705.8392799000139,None,,,,,,,pw,2022_Apr_18_1143,training+cueing,2021.1.4,59.981957422495825,
Friend.png,Friend,Friend,c,2,12,22,92,,,,,1,0,1,0,,,,,1,1,13,10,,,,,,,,,,,,,,,,,,,,,1.455,1.813,706.5296026000287,None,,,,,,,,,,,,,,,,,,,,707.0813153000199,707.5905926999985,0.5026917800423689,1.0031599800568074,707.573904799996,707.6908084999886,707.573904799996,707.6908084999886,707.6740738000371,None,c,1,0.6356540000415407,707.6740738000371,None,,,,,,,pw,2022_Apr_18_1143,training+cueing,2021.1.4,59.981957422495825,
Self.png,You,Self ,c,1,11,21,91,,,,,1,0,1,0,,,,,1,2,14,0,,,,,,,,,,,,,,,,,,,,,1.51,1.645,708.4479426000034,None,,,,,,,,,,,,,,,,,,,,708.9898163999896,709.4919654999976,0.5059657800593413,1.006254380044993,709.4752622999949,709.5753246000386,709.4752622999949,709.5753246000386,709.5753246000386,None,c,1,0.5583124000113457,709.5753246000386,None,,,,,,,pw,2022_Apr_18_1143,training+cueing,2021.1.4,59.981957422495825,
Self.png,Friend,Self ,m,2.1,16,26,96,,,,,1,0,1,0,,,,,1,3,15,1,,,,,,,,,,,,,,,,,,,,,1.54,1.979,710.2649831000017,None,,,,,,,,,,,,,,,,,,,,710.8058740000124,711.3099640000146,0.5060566799947992,1.0069465799606405,711.293257399986,711.4100133000175,711.293257399986,711.4100133000175,711.3933028000174,None,c,0,0.5322748000035062,711.3933028000174,None,,,,,,,pw,2022_Apr_18_1143,training+cueing,2021.1.4,59.981957422495825,
Friend.png,You,Friend,m,1.2,14,24,94,,,,,1,0,1,0,,,,,1,4,16,3,,,,,,,,,,,,,,,,,,,,,1.759,1.454,712.0515337000252,None,,,,,,,,,,,,,,,,,,,,712.6028063999838,713.1112357000238,0.49969573999987915,1.0001547399442643,713.0779072000296,713.1779486000305,713.0779072000296,713.1779486000305,713.1779486000305,None,None,0,,713.1779486000305,None,,,,,,,pw,2022_Apr_18_1143,training+cueing,2021.1.4,59.981957422495825,
Self.png,Stranger,Self ,m,3.1,18,28,98,,,,,1,0,1,0,,,,,1,5,17,2,,,,,,,,,,,,,,,,,,,,,1.501,1.372,715.0506533000153,None,,,,,,,,,,,,,,,,,,,,715.5949585000053,716.0967529999907,0.5041114800842479,1.0043566800304689,716.0801026000408,716.1968010999844,716.0801026000408,716.1968010999844,716.1800793000148,None,m,1,0.6574936000397429,716.1800793000148,None,,,,,,,pw,2022_Apr_18_1143,training+cueing,2021.1.4,59.981957422495825,
Stranger.png,You,Stranger,m,1.3,15,25,95,,,,,1,0,1,0,,,,,1,6,18,6,,,,,,,,,,,,,,,,,,,,,1.605,1.929,716.9703588000266,None,,,,,,,,,,,,,,,,,,,,717.5102943000384,718.014771200018,0.5067607800010592,1.0070783800329082,717.9981144000194,718.098167499993,717.9981144000194,718.098167499993,718.098167499993,None,m,1,0.6274474000092596,718.098167499993,None,,,,,,,pw,2022_Apr_18_1143,training+cueing,2021.1.4,59.981957422495825,
Self.png,You,Self ,c,1,11,21,91,,,,,1,0,1,0,,,,,1,7,19,9,,,,,,,,,,,,,,,,,,,,,1.705,2.445,718.8543656000402,None,,,,,,,,,,,,,,,,,,,,719.3946131999837,719.8994861000101,0.5095170800341293,1.0097871800535358,719.8828224000172,719.9828515000409,719.8828224000172,719.9828515000409,719.9828515000409,None,c,1,0.534793599974364,719.9828515000409,None,,,,,,,pw,2022_Apr_18_1143,training+cueing,2021.1.4,59.981957422495825,
Friend.png,Friend,Friend,c,2,12,22,92,,,,,1,0,1,0,,,,,1,8,20,4,,,,,,,,,,,,,,,,,,,,,1.758,1.709,720.6390850000316,None,,,,,,,,,,,,,,,,,,,,721.179885599995,721.6841121999896,0.5065447799861431,1.0070229800185189,721.6674366000225,721.7847027000389,721.6674366000225,721.7847027000389,721.767634799995,None,c,1,0.5579074999550357,721.767634799995,None,,,,,,,pw,2022_Apr_18_1143,training+cueing,2021.1.4,59.981957422495825,
Friend.png,Stranger,Friend,m,3.2,19,29,99,,,,,1,0,1,0,,,,,1,9,21,5,,,,,,,,,,,,,,,,,,,,,1.787,2.42,722.4592785999994,None,,,,,,,,,,,,,,,,,,,,723.0013331000227,723.5020821000217,0.502201680035796,1.0025056800222956,723.485410400026,723.6021227000165,723.485410400026,723.6021227000165,723.5854535000399,None,m,1,0.8040942999650724,723.5854535000399,None,,,,,,,pw,2022_Apr_18_1143,training+cueing,2021.1.4,59.981957422495825,
Stranger.png,Stranger,Stranger,c,3,13,23,93,,,,,1,0,1,0,,,,,1,10,22,8,,,,,,,,,,,,,,,,,,,,,1.466,1.526,724.5252494000015,None,,,,,,,,,,,,,,,,,,,,725.064370600041,725.5702559000347,0.5115358800394461,1.0124483800609596,725.553562999994,725.6703107000212,725.553562999994,725.6703107000212,725.6536121999961,None,c,1,0.5926576999481767,725.6536121999961,None,,,,,,,pw,2022_Apr_18_1143,training+cueing,2021.1.4,59.981957422495825,
Stranger.png,Friend,Stranger,m,2.3,17,27,97,,,,,1,0,1,0,,,,,1,11,23,7,,,,,,,,,,,,,,,,,,,,,1.593,1.623,726.3807137000258,None,,,,,,,,,,,,,,,,,,,,726.9180973999901,727.421582000039,0.5041435799794272,1.0044341799803078,727.404919099994,727.5216473999899,727.404919099994,727.5216473999899,727.5049346000305,None,m,1,0.7246053999988362,727.5049346000305,None,,,,,,,pw,2022_Apr_18_1143,training+cueing,2021.1.4,59.981957422495825,
Stranger.png,Stranger,Stranger,c,3,13,23,93,,,,,1,0,1,0,,,,,2,0,24,8,,,,,,,,,,,,,,,,,,,,,1.789,2.482,728.361741700035,None,,,,,,,,,,,,,,,,,,,,728.9150867999997,729.4230340000358,0.49900663999142125,0.9999036400113255,729.4063422000036,729.5230860000011,729.4063422000036,729.5230860000011,729.4868919000146,None,m,0,0.5667259999900125,729.4868919000146,None,,,,,,,pw,2022_Apr_18_1143,training+cueing,2021.1.4,59.981957422495825,
Stranger.png,Friend,Stranger,m,2.3,17,27,97,,,,,1,0,1,0,,,,,2,1,25,7,,,,,,,,,,,,,,,,,,,,,1.568,1.617,730.1800539999967,None,,,,,,,,,,,,,,,,,,,,730.7208253000281,731.2243101000204,0.5070944800390862,1.0073801800026558,731.2076536000241,731.3244261000073,731.2076536000241,731.3244261000073,731.3076894000405,None,m,1,0.6338657999876887,731.3076894000405,None,,,,,,,pw,2022_Apr_18_1143,training+cueing,2021.1.4,59.981957422495825,
Stranger.png,Stranger,Stranger,c,3,13,23,93,,,,,1,0,1,0,,,,,2,2,26,11,,,,,,,,,,,,,,,,,,,,,1.668,1.939,732.0649962000316,None,,,,,,,,,,,,,,,,,,,,732.606679700024,733.1090516000404,0.5040634800097905,1.0043580800411291,733.0923575999914,733.2090666000149,733.0923575999914,733.2090666000149,733.1923821000382,None,m,0,0.6691373999929056,733.1923821000382,None,,,,,,,pw,2022_Apr_18_1143,training+cueing,2021.1.4,59.981957422495825,
Friend.png,Stranger,Friend,m,3.2,19,29,99,,,,,1,0,1,0,,,,,2,3,27,5,,,,,,,,,,,,,,,,,,,,,1.51,1.708,733.9985304999864,None,,,,,,,,,,,,,,,,,,,,734.5372835000162,735.0437503000139,0.5120187799911946,1.012329180026427,735.0270621000091,735.1438164000283,735.0270621000091,735.1438164000283,735.1271054000244,None,c,0,0.5744574000127614,735.1271054000244,None,,,,,,,pw,2022_Apr_18_1143,training+cueing,2021.1.4,59.981957422495825,
Friend.png,Friend,Friend,c,2,12,22,92,,,,,1,0,1,0,,,,,2,4,28,10,,,,,,,,,,,,,,,,,,,,,1.504,2.352,735.8332842999953,None,,,,,,,,,,,,,,,,,,,,736.3742839000188,736.8783956000116,0.5059941800427623,1.0063113800715655,736.8617596999975,736.9784809999983,736.8617596999975,736.9784809999983,736.9617940000026,None,c,1,0.7718228000449017,736.9617940000026,None,,,,,,,pw,2022_Apr_18_1143,training+cueing,2021.1.4,59.981957422495825,
Self.png,Friend,Self ,m,2.1,16,26,96,,,,,1,0,1,0,,,,,2,5,29,1,,,,,,,,,,,,,,,,,,,,,1.692,1.794,737.8697407,None,,,,,,,,,,,,,,,,,,,,738.408289199986,738.9132175000268,0.5094545800238848,1.009749980061315,738.8965485999943,739.01327580004,738.8965485999943,739.01327580004,738.9965240000165,None,m,1,0.6090740000363439,738.9965240000165,None,,,,,,,pw,2022_Apr_18_1143,training+cueing,2021.1.4,59.981957422495825,
Self.png,You,Self ,c,1,11,21,91,,,,,1,0,1,0,,,,,2,6,30,9,,,,,,,,,,,,,,,,,,,,,1.603,1.244,739.7361122000148,None,,,,,,,,,,,,,,,,,,,,740.2943291999982,740.7980570000364,0.507746440009214,1.0079947399790399,740.7813780999859,740.8813811999862,740.7813780999859,740.8813811999862,740.8813811999862,None,c,1,0.5002300000051036,740.8813811999862,None,,,,,,,pw,2022_Apr_18_1143,training+cueing,2021.1.4,59.981957422495825,
Friend.png,Friend,Friend,c,2,12,22,92,,,,,1,0,1,0,,,,,2,7,31,4,,,,,,,,,,,,,,,,,,,,,1.489,2.334,741.5045552999945,None,,,,,,,,,,,,,,,,,,,,742.0429234000039,742.5492139999988,0.5096856800373644,1.0101103800116107,742.5324995000265,742.6493464999949,742.5324995000265,742.6493464999949,742.6326370000024,None,c,1,0.7810106999822892,742.6326370000024,None,,,,,,,pw,2022_Apr_18_1143,training+cueing,2021.1.4,59.981957422495825,
Stranger.png,You,Stranger,m,1.3,15,25,95,,,,,1,0,1,0,,,,,2,8,32,6,,,,,,,,,,,,,,,,,,,,,1.639,1.66,743.5396881999914,None,,,,,,,,,,,,,,,,,,,,744.0809006000054,744.5840381000307,0.5069321800256148,1.0071877800510265,744.5673443000414,744.6673845000332,744.5673443000414,744.6673845000332,744.6673845000332,None,m,1,0.7141996999853291,744.6673845000332,None,,,,,,,pw,2022_Apr_18_1143,training+cueing,2021.1.4,59.981957422495825,
Self.png,You,Self ,c,1,11,21,91,,,,,1,0,1,0,,,,,2,9,33,0,,,,,,,,,,,,,,,,,,,,,1.707,2.207,745.5069834000315,None,,,,,,,,,,,,,,,,,,,,746.045752200007,746.5520679000183,0.5124451799783856,1.012751379981637,746.5354004999972,746.635426599998,746.5354004999972,746.635426599998,746.635426599998,None,c,1,0.6341779999784194,746.635426599998,None,,,,,,,pw,2022_Apr_18_1143,training+cueing,2021.1.4,59.981957422495825,
Friend.png,You,Friend,m,1.2,14,24,94,,,,,1,0,1,0,,,,,2,10,34,3,,,,,,,,,,,,,,,,,,,,,1.438,2.107,747.3929418000043,None,,,,,,,,,,,,,,,,,,,,747.9298191000125,748.4367977000074,0.5111264800070785,1.0114019800093956,748.4201070999843,748.5201600000146,748.4201070999843,748.5201600000146,748.5201600000146,None,m,1,0.7813054000143893,748.5201600000146,None,,,,,,,pw,2022_Apr_18_1143,training+cueing,2021.1.4,59.981957422495825,
Self.png,Stranger,Self ,m,3.1,18,28,98,,,,,1,0,1,0,,,,,2,11,35,2,,,,,,,,,,,,,,,,,,,,,1.548,2.47,749.4265901999897,None,,,,,,,,,,,,,,,,,,,,749.9685280999984,750.4715758000384,0.5066459800582379,1.0069612800725736,750.4548880000366,750.5716204000055,750.4548880000366,750.5716204000055,750.5549255000078,None,m,1,0.7307282999972813,750.5549255000078,None,,,,,,,pw,2022_Apr_18_1143,training+cueing,2021.1.4,59.981957422495825,
Stranger.png,Stranger,Stranger,c,3,13,23,93,,,,,1,0,1,0,,,,,3,0,36,8,,,,,,,,,,,,,,,,,,,,,1.437,2.053,751.4122020000359,None,,,,,,,,,,,,,,,,,,,,751.9497045000317,752.4563659999985,0.5111373799736612,1.0115433799801394,752.4396333000041,752.5570261999965,752.4396333000041,752.5570261999965,752.5397059000097,None,c,1,0.6178411000291817,752.5397059000097,None,,,,,,,pw,2022_Apr_18_1143,training+cueing,2021.1.4,59.981957422495825,
Friend.png,Stranger,Friend,m,3.2,19,29,99,,,,,1,0,1,0,,,,,3,1,37,5,,,,,,,,,,,,,,,,,,,,,1.613,1.984,753.2797864000313,None,,,,,,,,,,,,,,,,,,,,753.8180505000055,754.324353700038,0.5124685800401494,1.0131363800610416,754.3076868000207,754.4249518000288,754.3076868000207,754.4249518000288,754.4079982000403,None,m,1,1.1334910999867134,754.4079982000403,None,,,,,,,pw,2022_Apr_18_1143,training+cueing,2021.1.4,59.981957422495825,
Self.png,Stranger,Self ,m,3.1,18,28,98,,,,,1,0,1,0,,,,,3,2,38,2,,,,,,,,,,,,,,,,,,,,,1.635,1.787,755.6658610000159,None,,,,,,,,,,,,,,,,,,,,756.2022490000236,756.7094260000158,0.5134909800253808,1.0138947800151072,756.6927462000167,756.809597000014,756.6927462000167,756.809597000014,756.7928704000078,None,m,1,0.6527833999716677,756.7928704000078,None,,,,,,,pw,2022_Apr_18_1143,training+cueing,2021.1.4,59.981957422495825,
Stranger.png,Stranger,Stranger,c,3,13,23,93,,,,,1,0,1,0,,,,,3,3,39,11,,,,,,,,,,,,,,,,,,,,,1.553,1.409,757.5828951000003,None,,,,,,,,,,,,,,,,,,,,758.1258455000352,758.6274822000414,0.502071880036965,1.0023815800086595,758.6107994000195,758.7275443000253,758.6107994000195,758.7275443000253,758.7108342000283,None,c,1,0.6707452000118792,758.7108342000283,None,,,,,,,pw,2022_Apr_18_1143,training+cueing,2021.1.4,59.981957422495825,
Friend.png,Friend,Friend,c,2,12,22,92,,,,,1,0,1,0,,,,,3,4,40,4,,,,,,,,,,,,,,,,,,,,,1.57,1.739,759.5170341000194,None,,,,,,,,,,,,,,,,,,,,760.0585854999954,760.5622033000109,0.5060744800139219,1.006945880013518,760.5455541000119,760.6627763999859,760.5455541000119,760.6627763999859,760.6456944000092,None,c,1,0.46415660000639036,760.6456944000092,None,,,,,,,pw,2022_Apr_18_1143,training+cueing,2021.1.4,59.981957422495825,
Friend.png,You,Friend,m,1.2,14,24,94,,,,,1,0,1,0,,,,,3,5,41,3,,,,,,,,,,,,,,,,,,,,,1.627,1.418,761.2388614999945,None,,,,,,,,,,,,,,,,,,,,761.7785764000146,762.2801054000156,0.5048531800275669,1.0051420800155029,762.2634598999866,762.3635231000371,762.2634598999866,762.3635231000371,762.3635231000371,None,m,1,0.5859465000103228,762.3635231000371,None,,,,,,,pw,2022_Apr_18_1143,training+cueing,2021.1.4,59.981957422495825,
Self.png,You,Self ,c,1,11,21,91,,,,,1,0,1,0,,,,,3,6,42,0,,,,,,,,,,,,,,,,,,,,,1.463,2.317,763.0868040000205,None,,,,,,,,,,,,,,,,,,,,763.6423437999911,764.1482885000296,0.509395039989613,1.0096706399926916,764.1316294000135,764.2316722000251,764.1316294000135,764.2316722000251,764.2316722000251,None,c,1,0.765910400019493,764.2316722000251,None,,,,,,,pw,2022_Apr_18_1143,training+cueing,2021.1.4,59.981957422495825,
Self.png,Friend,Self ,m,2.1,16,26,96,,,,,1,0,1,0,,,,,3,7,43,1,,,,,,,,,,,,,,,,,,,,,1.742,1.874,765.1229352999944,None,,,,,,,,,,,,,,,,,,,,765.6757121999981,766.1829501999891,0.513921539997682,1.0141991400159895,766.1662614000379,766.2830052000354,766.1662614000379,766.2830052000354,766.2663114999887,None,m,1,0.8271473000058904,766.2663114999887,None,,,,,,,pw,2022_Apr_18_1143,training+cueing,2021.1.4,59.981957422495825,
Friend.png,Friend,Friend,c,2,12,22,92,,,,,1,0,1,0,,,,,3,8,44,10,,,,,,,,,,,,,,,,,,,,,1.414,1.343,767.2235183999874,None,,,,,,,,,,,,,,,,,,,,767.7607188000111,768.2679543000413,0.5114227800513618,1.0117174800252542,768.2513227000018,768.368039700028,768.2513227000018,768.368039700028,768.3513584000175,None,c,1,1.2062247999710962,768.3513584000175,None,,,,,,,pw,2022_Apr_18_1143,training+cueing,2021.1.4,59.981957422495825,
Stranger.png,Friend,Stranger,m,2.3,17,27,97,,,,,1,0,1,0,,,,,3,9,45,7,,,,,,,,,,,,,,,,,,,,,1.426,1.411,769.6928914000164,None,,,,,,,,,,,,,,,,,,,,770.2315388999996,770.7362109000096,0.5089842799934559,1.0092545800143853,770.7195440999931,770.8362845000229,770.7195440999931,770.8362845000229,770.8195864000008,None,m,1,0.5779778000432998,770.8195864000008,None,,,,,,,pw,2022_Apr_18_1143,training+cueing,2021.1.4,59.981957422495825,
Stranger.png,You,Stranger,m,1.3,15,25,95,,,,,1,0,1,0,,,,,3,10,46,6,,,,,,,,,,,,,,,,,,,,,1.772,1.254,771.5261328000342,None,,,,,,,,,,,,,,,,,,,,772.0753134000115,772.5875545000308,0.5082115800469182,1.0084844800294377,772.5709194000228,772.6709427000023,772.5709194000228,772.6709427000023,772.6709427000023,None,m,1,0.8866093000397086,772.6709427000023,None,,,,,,,pw,2022_Apr_18_1143,training+cueing,2021.1.4,59.981957422495825,
Self.png,You,Self ,c,1,11,21,91,,,,,1,0,1,0,,,,,3,11,47,9,,,,,,,,,,,,,,,,,,,,,1.566,2.306,773.6945671000285,None,,,,,,,,,,,,,,,,,,,,774.2313805000158,774.7391032000305,0.5132501799962483,1.0137852799962275,774.722430200025,774.822536599997,774.722430200025,774.822536599997,774.822536599997,None,c,1,0.5269439000403509,774.822536599997,None,,,,,,,pw,2022_Apr_18_1143,training+cueing,2021.1.4,59.981957422495825,
Self.png,You,Self ,c,1,11,21,91,,,,,1,0,1,0,,,,,4,0,48,0,,,,,,,,,,,,,,,,,,,,,1.411,1.502,775.4791886000312,None,,,,,,,,,,,,,,,,,,,,776.0181013999972,776.5237360000028,0.511457180022262,1.011766979994718,776.5070546999923,776.6071300000185,776.5070546999923,776.6071300000185,776.6071300000185,None,c,1,0.6303643999854103,776.6071300000185,None,,,,,,,pw,2022_Apr_18_1143,training+cueing,2021.1.4,59.981957422495825,
Friend.png,Friend,Friend,c,2,12,22,92,,,,,1,0,1,0,,,,,4,1,49,10,,,,,,,,,,,,,,,,,,,,,1.622,1.671,777.3643122999929,None,,,,,,,,,,,,,,,,,,,,777.9237030000077,778.4252490000217,0.5040980399935506,1.0043962399940938,778.408601400035,778.5253028000006,778.408601400035,778.5253028000006,778.5086279000388,None,c,1,1.0647956999600865,778.5086279000388,None,,,,,,,pw,2022_Apr_18_1143,training+cueing,2021.1.4,59.981957422495825,
Friend.png,Friend,Friend,c,2,12,22,92,,,,,1,0,1,0,,,,,4,2,50,4,,,,,,,,,,,,,,,,,,,,,1.507,2.129,779.6987476000213,None,,,,,,,,,,,,,,,,,,,,780.2491741999984,780.7601698000217,0.5032957800431177,1.003567980020307,780.7434609000338,780.8601984999841,780.7434609000338,780.8601984999841,780.843477300019,None,c,1,0.7623029000242241,780.843477300019,None,,,,,,,pw,2022_Apr_18_1143,training+cueing,2021.1.4,59.981957422495825,
Stranger.png,Stranger,Stranger,c,3,13,23,93,,,,,1,0,1,0,,,,,4,3,51,11,,,,,,,,,,,,,,,,,,,,,1.748,1.322,781.7367201999878,None,,,,,,,,,,,,,,,,,,,,782.2810982000083,782.7949746000231,0.512014280015137,1.0121133800130337,782.7784455000074,782.8949948000372,782.7784455000074,782.8949948000372,782.878291400033,None,m,0,0.5191452999715693,782.878291400033,None,,,,,,,pw,2022_Apr_18_1143,training+cueing,2021.1.4,59.981957422495825,
Stranger.png,Stranger,Stranger,c,3,13,23,93,,,,,1,0,1,0,,,,,4,4,52,8,,,,,,,,,,,,,,,,,,,,,1.46,1.438,783.5349486999912,None,,,,,,,,,,,,,,,,,,,,784.0724545000121,784.5795740000322,0.5111800800077617,1.0114603799884208,784.5628932000254,784.6796029999969,784.5628932000254,784.6796029999969,784.6631387000089,None,c,1,0.5103285000077449,784.6631387000089,None,,,,,,,pw,2022_Apr_18_1143,training+cueing,2021.1.4,59.981957422495825,
Stranger.png,Friend,Stranger,m,2.3,17,27,97,,,,,1,0,1,0,,,,,4,5,53,7,,,,,,,,,,,,,,,,,,,,,1.447,2.421,785.302837700001,None,,,,,,,,,,,,,,,,,,,,785.844903499994,786.3476226000348,0.5063343800138682,1.0066051799803972,786.3308525999892,786.4475554000237,786.3308525999892,786.4475554000237,786.4308488999959,None,m,1,0.6466259000007994,786.4308488999959,None,,,,,,,pw,2022_Apr_18_1143,training+cueing,2021.1.4,59.981957422495825,
Friend.png,You,Friend,m,1.2,14,24,94,,,,,1,0,1,0,,,,,4,6,54,3,,,,,,,,,,,,,,,,,,,,,1.658,2.079,787.2044095000019,None,,,,,,,,,,,,,,,,,,,,787.7451507000369,788.2488656000351,0.5075913799810223,1.007893280009739,788.2322054000106,788.3322599999956,788.2322054000106,788.3322599999956,788.3322599999956,None,m,1,0.8252666000043973,788.3322599999956,None,,,,,,,pw,2022_Apr_18_1143,training+cueing,2021.1.4,59.981957422495825,
Friend.png,Stranger,Friend,m,3.2,19,29,99,,,,,1,0,1,0,,,,,4,7,55,5,,,,,,,,,,,,,,,,,,,,,1.531,1.881,789.2889337000088,None,,,,,,,,,,,,,,,,,,,,789.8313860000344,790.3338541000267,0.505490780051332,1.0057599800056778,790.3171956000151,790.4338043000316,790.3171956000151,790.4338043000316,790.4170457000146,None,m,1,1.124511200003326,790.4170457000146,None,,,,,,,pw,2022_Apr_18_1143,training+cueing,2021.1.4,59.981957422495825,
Stranger.png,You,Stranger,m,1.3,15,25,95,,,,,1,0,1,0,,,,,4,8,56,6,,,,,,,,,,,,,,,,,,,,,1.643,1.689,791.6744116999907,None,,,,,,,,,,,,,,,,,,,,792.2136212000041,792.7187912000227,0.509291080001276,1.0096067800186574,792.7021044000285,792.8021826000186,792.7021044000285,792.8021826000186,792.8021826000186,None,m,1,1.0752755000139587,792.8021826000186,None,,,,,,,pw,2022_Apr_18_1143,training+cueing,2021.1.4,59.981957422495825,
Self.png,You,Self ,c,1,11,21,91,,,,,1,0,1,0,,,,,4,9,57,9,,,,,,,,,,,,,,,,,,,,,1.456,1.206,794.0086466000066,None,,,,,,,,,,,,,,,,,,,,794.5476519000367,795.0539574000286,0.5114389800000936,1.011764079972636,795.0372504999978,795.1373225999996,795.0372504999978,795.1373225999996,795.1373225999996,None,c,1,0.5803688999731094,795.1373225999996,None,,,,,,,pw,2022_Apr_18_1143,training+cueing,2021.1.4,59.981957422495825,
Self.png,Stranger,Self ,m,3.1,18,28,98,,,,,1,0,1,0,,,,,4,10,58,2,,,,,,,,,,,,,,,,,,,,,1.8,2.472,795.8451007000403,None,,,,,,,,,,,,,,,,,,,,796.3846598000382,796.8884639000171,0.5057745800004341,1.006056879996322,796.8718067000154,796.9885109000024,796.8718067000154,796.9885109000024,796.9718339000246,None,m,1,0.7296774999704212,796.9718339000246,None,,,,,,,pw,2022_Apr_18_1143,training+cueing,2021.1.4,59.981957422495825,
Self.png,Friend,Self ,m,2.1,16,26,96,,,,,1,0,1,0,,,,,4,11,59,1,,,,,,,,,,,,,,,,,,,,,1.735,1.429,797.8287347999867,None,,,,,,,,,,,,,,,,,,,,798.3700809000293,798.8731805999996,0.5060419799992815,1.00649187999079,798.8565447999863,798.9732634000247,798.8565447999863,798.9732634000247,798.9565636999905,None,m,1,0.9210173999890685,798.9565636999905,None,,,,,,,pw,2022_Apr_18_1143,training+cueing,2021.1.4,59.981957422495825,
Friend.png,Friend,Friend,c,2,12,22,92,,,,,1,0,1,0,,,,,5,0,60,4,,,,,,,,,,,,,,,,,,,,,1.401,1.585,800.015031900024,None,,,,,,,,,,,,,,,,,,,,800.5530166000244,801.0583192000049,0.5080665800487623,1.008300180081278,801.041655900015,801.1583809999865,801.041655900015,801.1583809999865,801.1416856999858,None,c,1,0.623917699966114,801.1416856999858,None,,,,,,,pw,2022_Apr_18_1143,training+cueing,2021.1.4,59.981957422495825,
Stranger.png,Friend,Stranger,m,2.3,17,27,97,,,,,1,0,1,0,,,,,5,1,61,7,,,,,,,,,,,,,,,,,,,,,1.698,1.722,801.9032180000213,None,,,,,,,,,,,,,,,,,,,,802.4461798000266,802.9595157000003,0.5095814800006337,1.0098721800022759,802.9428185999859,803.0595609000302,802.9428185999859,803.0595609000302,803.0428580000298,None,m,1,0.642604399996344,803.0428580000298,None,,,,,,,pw,2022_Apr_18_1143,training+cueing,2021.1.4,59.981957422495825,
Self.png,You,Self ,c,1,11,21,91,,,,,1,0,1,0,,,,,5,2,62,0,,,,,,,,,,,,,,,,,,,,,1.47,1.829,803.816678000032,None,,,,,,,,,,,,,,,,,,,,804.3568639000296,804.8608906000154,0.5076118800207041,1.0078956800280139,804.844213000033,804.9442367000156,804.844213000033,804.9442367000156,804.9442367000156,None,c,1,0.5651669999933802,804.9442367000156,None,,,,,,,pw,2022_Apr_18_1143,training+cueing,2021.1.4,59.981957422495825,
Friend.png,Stranger,Friend,m,3.2,19,29,99,,,,,1,0,1,0,,,,,5,3,63,5,,,,,,,,,,,,,,,,,,,,,1.672,1.331,805.6346629000036,None,,,,,,,,,,,,,,,,,,,,806.1750179000082,806.6788875000202,0.5052136800368316,1.0060474800411612,806.6622410999844,806.7789022999932,806.6622410999844,806.7789022999932,806.7622225999949,None,m,1,1.115160100045614,806.7622225999949,None,,,,,,,pw,2022_Apr_18_1143,training+cueing,2021.1.4,59.981957422495825,
Self.png,You,Self ,c,1,11,21,91,,,,,1,0,1,0,,,,,5,4,64,9,,,,,,,,,,,,,,,,,,,,,1.563,1.831,808.002582599991,None,,,,,,,,,,,,,,,,,,,,808.5435631999862,809.0472730000038,0.5072496800567023,1.0074867800576612,809.0306125000352,809.1306276000105,809.0306125000352,809.1306276000105,809.1306276000105,None,c,1,0.6028166000032797,809.1306276000105,None,,,,,,,pw,2022_Apr_18_1143,training+cueing,2021.1.4,59.981957422495825,
Stranger.png,Stranger,Stranger,c,3,13,23,93,,,,,1,0,1,0,,,,,5,5,65,8,,,,,,,,,,,,,,,,,,,,,1.741,1.702,809.8702962000389,None,,,,,,,,,,,,,,,,,,,,810.4110652999952,810.9152664000285,0.5076588800293393,1.0079269800335169,810.8985879000393,811.0153207000112,810.8985879000393,811.0153207000112,810.9985964000225,None,c,1,0.65474730002461,810.9985964000225,None,,,,,,,pw,2022_Apr_18_1143,training+cueing,2021.1.4,59.981957422495825,
Friend.png,Friend,Friend,c,2,12,22,92,,,,,1,0,1,0,,,,,5,6,66,10,,,,,,,,,,,,,,,,,,,,,1.425,1.414,811.7892794000218,None,,,,,,,,,,,,,,,,,,,,812.3294029000099,812.8332982999855,0.5060861800448038,1.0069798800395802,812.8166394000291,812.9333978000213,812.8166394000291,812.9333978000213,812.9166535999975,None,c,1,0.7689360999502242,812.9166535999975,None,,,,,,,pw,2022_Apr_18_1143,training+cueing,2021.1.4,59.981957422495825,
Self.png,Stranger,Self ,m,3.1,18,28,98,,,,,1,0,1,0,,,,,5,7,67,2,,,,,,,,,,,,,,,,,,,,,1.791,1.889,813.8243589000194,None,,,,,,,,,,,,,,,,,,,,814.3665819999878,814.8682974000112,0.5045256800367497,1.0048287800163962,814.8514420000138,814.9681738000363,814.8514420000138,814.9681738000363,814.9514708000352,None,m,1,0.6700112000107765,814.9514708000352,None,,,,,,,pw,2022_Apr_18_1143,training+cueing,2021.1.4,59.981957422495825,
Friend.png,You,Friend,m,1.2,14,24,94,,,,,1,0,1,0,,,,,5,8,68,3,,,,,,,,,,,,,,,,,,,,,1.634,1.473,815.7577888999949,None,,,,,,,,,,,,,,,,,,,,816.2977227999945,816.8028770000092,0.507466180017218,1.007721979985945,816.7862320999848,816.8862686000066,816.7862320999848,816.8862686000066,816.8862686000066,None,m,1,0.6071690999669954,816.8862686000066,None,,,,,,,pw,2022_Apr_18_1143,training+cueing,2021.1.4,59.981957422495825,
Self.png,Friend,Self ,m,2.1,16,26,96,,,,,1,0,1,0,,,,,5,9,69,1,,,,,,,,,,,,,,,,,,,,,1.467,1.221,817.626470600022,None,,,,,,,,,,,,,,,,,,,,818.1667741999845,818.6708746000077,0.5088755800388753,1.0090617800015025,818.6542994999909,818.77092119999,818.6542994999909,818.77092119999,818.754242199997,None,m,1,0.6911909999907948,818.754242199997,None,,,,,,,pw,2022_Apr_18_1143,training+cueing,2021.1.4,59.981957422495825,
Stranger.png,Stranger,Stranger,c,3,13,23,93,,,,,1,0,1,0,,,,,5,10,70,11,,,,,,,,,,,,,,,,,,,,,1.78,2.173,819.5779452000279,None,,,,,,,,,,,,,,,,,,,,820.1762683999841,820.6889853000175,0.5096163599519059,1.009929959953297,820.672318900004,820.7890196000226,820.672318900004,820.7890196000226,820.7723551000236,None,c,1,0.5610841999878176,820.7723551000236,None,,,,,,,pw,2022_Apr_18_1143,training+cueing,2021.1.4,59.981957422495825,
Stranger.png,You,Stranger,m,1.3,15,25,95,,,,,1,0,1,0,,,,,5,11,71,6,,,,,,,,,,,,,,,,,,,,,1.549,1.97,821.4620038000285,None,,,,,,,,,,,,,,,,,,,,822.0024105000193,822.506960400031,0.5069555799709633,1.007231879979372,822.4902961000334,822.5903455000371,822.4902961000334,822.5903455000371,822.5903455000371,None,m,1,0.599069399992004,822.5903455000371,None,,,,,,,pw,2022_Apr_18_1143,training+cueing,2021.1.4,59.981957422495825,
Stranger.png,Friend,Stranger,m,2.3,17,27,97,,,,,1,0,1,0,,,,,6,0,72,7,,,,,,,,,,,,,,,,,,,,,1.515,1.645,823.3136778000044,None,,,,,,,,,,,,,,,,,,,,823.8545962999924,824.3583155000233,0.5075796800083481,1.008125580032356,824.3416458999855,824.4588596000103,824.3416458999855,824.4588596000103,824.4421830000356,None,m,1,0.5396995000191964,824.4421830000356,None,,,,,,,pw,2022_Apr_18_1143,training+cueing,2021.1.4,59.981957422495825,
Stranger.png,Stranger,Stranger,c,3,13,23,93,,,,,1,0,1,0,,,,,6,1,73,8,,,,,,,,,,,,,,,,,,,,,1.467,1.211,825.1165382000036,None,,,,,,,,,,,,,,,,,,,,825.6582866000244,826.1596269999864,0.5028872800176032,1.003165380039718,826.1429561999976,826.259674800036,826.1429561999976,826.259674800036,826.2429551000241,None,c,1,0.5467855000169948,826.2429551000241,None,,,,,,,pw,2022_Apr_18_1143,training+cueing,2021.1.4,59.981957422495825,
Friend.png,Friend,Friend,c,2,12,22,92,,,,,1,0,1,0,,,,,6,2,74,10,,,,,,,,,,,,,,,,,,,,,1.68,1.642,826.9198558999924,None,,,,,,,,,,,,,,,,,,,,827.4575940000359,827.9609108000295,0.5049096799921244,1.005209980008658,827.9442301000236,828.0609643000062,827.9442301000236,828.0609643000062,828.0442543000099,None,c,1,0.4731827999930829,828.0442543000099,None,,,,,,,pw,2022_Apr_18_1143,training+cueing,2021.1.4,59.981957422495825,
Stranger.png,You,Stranger,m,1.3,15,25,95,,,,,1,0,1,0,,,,,6,3,75,6,,,,,,,,,,,,,,,,,,,,,1.586,1.882,828.6510186000378,None,,,,,,,,,,,,,,,,,,,,829.1920126000186,829.6954964000033,0.5075417800107971,1.0078559800167568,829.6788398000062,829.7788746000151,829.6788398000062,829.7788746000151,829.7788746000151,None,m,1,0.6745239999727346,829.7788746000151,None,,,,,,,pw,2022_Apr_18_1143,training+cueing,2021.1.4,59.981957422495825,
Self.png,Stranger,Self ,m,3.1,18,28,98,,,,,1,0,1,0,,,,,6,4,76,2,,,,,,,,,,,,,,,,,,,,,1.688,1.297,830.5858687,None,,,,,,,,,,,,,,,,,,,,831.1266229000175,831.6302265999839,0.5053669799817726,1.0056835799477994,831.6135676000267,831.7302911999868,831.6135676000267,831.7302911999868,831.7136068000109,None,m,1,0.6117986000026576,831.7136068000109,None,,,,,,,pw,2022_Apr_18_1143,training+cueing,2021.1.4,59.981957422495825,
Self.png,Friend,Self ,m,2.1,16,26,96,,,,,1,0,1,0,,,,,6,5,77,1,,,,,,,,,,,,,,,,,,,,,1.476,2.211,832.4535563000245,None,,,,,,,,,,,,,,,,,,,,832.9953686000081,833.4982518000179,0.5066768800606951,1.006933780037798,833.4816063999897,833.598313399998,833.4816063999897,833.598313399998,833.5816078000353,None,m,1,0.583814200013876,833.5816078000353,None,,,,,,,pw,2022_Apr_18_1143,training+cueing,2021.1.4,59.981957422495825,
Self.png,You,Self ,c,1,11,21,91,,,,,1,0,1,0,,,,,6,6,78,9,,,,,,,,,,,,,,,,,,,,,1.543,2.093,834.2882132999948,None,,,,,,,,,,,,,,,,,,,,834.8277136000106,835.3328893000144,0.5099482799996622,1.010239580005873,835.3162289999891,835.416278299992,835.3162289999891,835.416278299992,835.416278299992,None,c,1,0.6210934999980964,835.416278299992,None,,,,,,,pw,2022_Apr_18_1143,training+cueing,2021.1.4,59.981957422495825,
Friend.png,You,Friend,m,1.2,14,24,94,,,,,1,0,1,0,,,,,6,7,79,3,,,,,,,,,,,,,,,,,,,,,1.444,1.649,836.1727600999875,None,,,,,,,,,,,,,,,,,,,,836.7109903999954,837.2176289000199,0.5113267800188623,1.0116114800330251,837.2009576000273,837.300968000025,837.2009576000273,837.300968000025,837.300968000025,None,m,1,0.6726650999626145,837.300968000025,None,,,,,,,pw,2022_Apr_18_1143,training+cueing,2021.1.4,59.981957422495825,
Friend.png,Friend,Friend,c,2,12,22,92,,,,,1,0,1,0,,,,,6,8,80,4,,,,,,,,,,,,,,,,,,,,,1.491,1.912,838.1079711000202,None,,,,,,,,,,,,,,,,,,,,838.6481407000101,839.1523276999942,0.5084177800454199,1.0087017800542526,839.1356661000173,839.2523613999947,839.1356661000173,839.2523613999947,839.2356927000219,None,c,1,0.513719399983529,839.2356927000219,None,,,,,,,pw,2022_Apr_18_1143,training+cueing,2021.1.4,59.981957422495825,
Friend.png,Stranger,Friend,m,3.2,19,29,99,,,,,1,0,1,0,,,,,6,9,81,5,,,,,,,,,,,,,,,,,,,,,1.463,2.079,839.8758539999835,None,,,,,,,,,,,,,,,,,,,,840.4177149999887,840.9202513000346,0.5060637799906544,1.0064071799861267,840.9035922000185,841.020315700036,840.9035922000185,841.020315700036,841.0036509000347,None,m,1,0.6976911000092514,841.0036509000347,None,,,,,,,pw,2022_Apr_18_1143,training+cueing,2021.1.4,59.981957422495825,
Stranger.png,Stranger,Stranger,c,3,13,23,93,,,,,1,0,1,0,,,,,6,10,82,11,,,,,,,,,,,,,,,,,,,,,1.461,2.313,841.8267808000091,None,,,,,,,,,,,,,,,,,,,,842.36383690004,842.8716742999968,0.5146780800423585,1.0149396799970418,842.8550155000412,842.971719800029,842.8550155000412,842.971719800029,842.9550507999957,None,c,1,0.4903616999508813,842.9550507999957,None,,,,,,,pw,2022_Apr_18_1143,training+cueing,2021.1.4,59.981957422495825,
Self.png,You,Self ,c,1,11,21,91,,,,,1,0,1,0,,,,,6,11,83,0,,,,,,,,,,,,,,,,,,,,,1.588,1.431,843.5790449000197,None,,,,,,,,,,,,,,,,,,,,844.1192405000329,844.6229574999888,0.5077974799787626,1.0081365799997002,844.606263499998,844.7063184999861,844.606263499998,844.7063184999861,844.7063184999861,None,c,1,0.5630450999597088,844.7063184999861,None,,,,,,,pw,2022_Apr_18_1143,training+cueing,2021.1.4,59.981957422495825,
Stranger.png,Friend,Stranger,m,2.3,17,27,97,,,,,1,0,1,0,,,,,7,0,84,7,,,,,,,,,,,,,,,,,,,,,1.638,2.117,845.3958678999916,None,,,,,,,,,,,,,,,,,,,,845.9497988999938,846.4576379000209,0.5128982400055975,1.0131581400055438,846.440977899998,846.5576578000328,846.440977899998,846.5576578000328,846.5409863000386,None,m,1,0.7443818000028841,846.5409863000386,None,,,,,,,pw,2022_Apr_18_1143,training+cueing,2021.1.4,59.981957422495825,
Self.png,You,Self ,c,1,11,21,91,,,,,1,0,1,0,,,,,7,1,85,0,,,,,,,,,,,,,,,,,,,,,1.635,1.692,847.4148933000397,None,,,,,,,,,,,,,,,,,,,,847.9544034000137,848.4590409999946,0.5088032800122164,1.0091069799964316,848.4423901999835,848.5424370000255,848.4423901999835,848.5424370000255,848.5424370000255,None,c,1,1.4949888999690302,848.5424370000255,None,,,,,,,pw,2022_Apr_18_1143,training+cueing,2021.1.4,59.981957422495825,
