Image,Name,Face,CorrAns,Match,Face_onset,CResponse_onset,IResponse_onset,Match.thisRepN,Match.thisTrialN,Match.thisN,Match.thisIndex,Blocks.thisRepN,Blocks.thisTrialN,Blocks.thisN,Blocks.thisIndex,trials.thisRepN,trials.thisTrialN,trials.thisN,trials.thisIndex,trials_2.thisRepN,trials_2.thisTrialN,trials_2.thisN,trials_2.thisIndex,text.started,text.stopped,p1.started,p1.stopped,MatchInstructions.started,MatchInstructions.stopped,Name1.started,Name1.stopped,Face_Relevance.started,Face_Relevance.stopped,MismatchInstructions.started,MismatchInstructions.stopped,Rest_trainingInstruct.started,Rest_trainingInstruct.stopped,next8.keys,next8.rt,next8.started,next8.stopped,Ready.started,Ready.stopped,delay_one_picked,delay_two_picked,blank0.started,blank0.stopped,FixationCross1.started,FixationCross1.stopped,Name3.started,Name3.stopped,Face_Relevance3.started,Face_Relevance3.stopped,responseTime.started,responseTime.stopped,resp.keys,resp.corr,resp.rt,resp.started,resp.stopped,Accuracy.started,Accuracy.stopped,questions.started,questions.stopped,p2.started,p2.stopped,FixationCross3.started,FixationCross3.stopped,port_Face_onset.started,port_Face_onset.stopped,Name4.started,Name4.stopped,Face_Relevance4.started,Face_Relevance4.stopped,responseTime2.started,responseTime2.stopped,Response.keys,Response.corr,Response.rt,Response.started,Response.stopped,p3.started,p3.stopped,Finish.started,Finish.stopped,gender,age,participant,date,expName,psychopyVersion,frameRate,
Stranger.png,Stranger,,,,,,,0,0,0,2,,,,,,,,,,,,,10.552042600000277,None,0.013414400396868587,0.5391948004253209,23.938657000195235,None,26.092158100102097,None,26.092158100102097,None,,,,,,,,,,,,,,,,,,,,,,,,,,,,,,,,,,,,,,,,,,,,,,,,,,,,,,,py,2022_May_06_1748,training+cueing,2021.1.4,59.95085232182514,
Friend.png,Friend,,,,,,,0,1,1,1,,,,,,,,,,,,,,,,,,,45.99466450000182,None,45.99466450000182,None,,,,,,,,,,,,,,,,,,,,,,,,,,,,,,,,,,,,,,,,,,,,,,,,,,,,,,,py,2022_May_06_1748,training+cueing,2021.1.4,59.95085232182514,
Self.png,You,,,,,,,0,2,2,0,,,,,,,,,,,,,,,,,,,65.99615270015784,None,65.99615270015784,None,,,,,,,,,,,,,,,,,,,,,,,,,,,,,,,,,,,,,,,,,,,,,,,,,,,,,,,py,2022_May_06_1748,training+cueing,2021.1.4,59.95085232182514,
Stranger.png,Stranger,Stranger,c,3,13,23,93,,,,,0,0,0,0,0,0,0,8,,,,,,,,,,,,,,,85.95000470010564,None,111.46819830010645,None,space,-0.9618712000083178,2.0089161002542824,None,113.46850319998339,None,1.781,1.28,116.49532250012271,None,117.13335700007156,117.6397997001186,117.6231737001799,117.7398049000185,117.6231737001799,117.7398049000185,117.72309620003216,None,c,1,1.5363890998996794,117.72309620003216,None,119.29299550014548,None,,,,,,,,,,,,,,,,,,,,,,,,,,py,2022_May_06_1748,training+cueing,2021.1.4,59.95085232182514,
Stranger.png,You,Stranger,m,1.3,15,25,95,,,,,0,0,0,0,0,1,1,6,,,,,,,,,,,,,,,,,,,,,,,,,1.573,1.265,119.70773680019192,None,120.24095860007219,120.74181580008008,120.72513070004061,120.82518380018882,120.72513070004061,120.82518380018882,120.82518380018882,None,m,1,0.9465923998504877,120.82518380018882,None,121.79530550003983,None,,,,,,,,,,,,,,,,,,,,,,,,,,py,2022_May_06_1748,training+cueing,2021.1.4,59.95085232182514,
Friend.png,Stranger,Friend,m,3.2,19,29,99,,,,,0,0,0,0,0,2,2,5,,,,,,,,,,,,,,,,,,,,,,,,,1.603,2.15,122.20964550017379,None,122.74925490003079,123.26027379999869,123.24366120016202,123.36036900011823,123.24366120016202,123.36036900011823,123.34363740007393,None,m,1,1.5320373999420553,123.34363740007393,None,124.89783700020052,None,,,,,,,,,,,,,,,,,,,,,,,,,,py,2022_May_06_1748,training+cueing,2021.1.4,59.95085232182514,
Self.png,You,Self ,c,1,11,21,91,,,,,0,0,0,0,0,3,3,0,,,,,,,,,,,,,,,,,,,,,,,,,1.548,1.929,125.31184950005263,None,125.84681220003404,126.34584140009247,126.34584140009247,126.44595760013908,126.34584140009247,126.44595760013908,126.44595760013908,None,c,1,0.6696168000344187,126.44595760013908,None,127.14493579999544,None,,,,,,,,,,,,,,,,,,,,,,,,,,py,2022_May_06_1748,training+cueing,2021.1.4,59.95085232182514,
Friend.png,Friend,Friend,c,2,12,22,92,,,,,0,0,0,0,0,4,4,4,,,,,,,,,,,,,,,,,,,,,,,,,1.793,2.112,127.54687070008367,None,128.0895701001864,128.59744919999503,128.58079360006377,128.6981058001984,128.58079360006377,128.6981058001984,128.6808951999992,None,m,0,0.6107039998751134,128.6808951999992,None,129.3168210000731,None,,,,,,,,,,,,,,,,,,,,,,,,,,py,2022_May_06_1748,training+cueing,2021.1.4,59.95085232182514,
Stranger.png,Stranger,Stranger,c,3,13,23,93,,,,,0,0,0,0,0,5,5,11,,,,,,,,,,,,,,,,,,,,,,,,,1.768,1.755,129.73177130008116,None,130.2743925000541,130.78237050003372,130.7657177001238,130.882435800042,130.7657177001238,130.882435800042,130.882435800042,None,c,1,1.3213130000513047,130.882435800042,None,132.23942660004832,None,,,,,,,,,,,,,,,,,,,,,,,,,,py,2022_May_06_1748,training+cueing,2021.1.4,59.95085232182514,
Self.png,You,Self ,c,1,11,21,91,,,,,0,0,0,0,0,6,6,9,,,,,,,,,,,,,,,,,,,,,,,,,1.755,1.837,132.65089839999564,None,133.19052070006728,133.70121470000595,133.68457090016454,133.78457890008576,133.68457090016454,133.78457890008576,133.78457890008576,None,c,1,0.7710283999331295,133.78457890008576,None,134.58515090006404,None,,,,,,,,,,,,,,,,,,,,,,,,,,py,2022_May_06_1748,training+cueing,2021.1.4,59.95085232182514,
Stranger.png,Friend,Stranger,m,2.3,17,27,97,,,,,0,0,0,0,0,7,7,7,,,,,,,,,,,,,,,,,,,,,,,,,1.609,1.881,134.9892306001857,None,135.53592200018466,136.03621669998392,136.0195248001255,136.13636470003985,136.0195248001255,136.13636470003985,136.13636470003985,None,m,1,1.2832639999687672,136.13636470003985,None,137.43590530008078,None,,,,,,,,,,,,,,,,,,,,,,,,,,py,2022_May_06_1748,training+cueing,2021.1.4,59.95085232182514,
Self.png,Stranger,Self ,m,3.1,18,28,98,,,,,0,0,0,0,0,8,8,2,,,,,,,,,,,,,,,,,,,,,,,,,1.681,1.808,137.83774690004066,None,138.37969930004328,138.8883935001213,138.87176890019327,138.98642150009982,138.87176890019327,138.98642150009982,138.9755771001801,None,m,1,1.004008400021121,138.9755771001801,None,140.00441840011626,None,,,,,,,,,,,,,,,,,,,,,,,,,,py,2022_May_06_1748,training+cueing,2021.1.4,59.95085232182514,
Self.png,Friend,Self ,m,2.1,16,26,96,,,,,0,0,0,0,0,9,9,1,,,,,,,,,,,,,,,,,,,,,,,,,1.546,1.321,140.4062552000396,None,140.95339320017956,141.4567635001149,141.4401228001807,141.5568409000989,141.4401228001807,141.5568409000989,141.54017500020564,None,m,1,0.9833382999058813,141.54017500020564,None,142.54095480008982,None,,,,,,,,,,,,,,,,,,,,,,,,,,py,2022_May_06_1748,training+cueing,2021.1.4,59.95085232182514,
Friend.png,You,Friend,m,1.2,14,24,94,,,,,0,0,0,0,0,10,10,3,,,,,,,,,,,,,,,,,,,,,,,,,1.789,2.444,142.94130970002152,None,143.4796742000617,143.99199700006284,143.9752658000216,144.07531960005872,143.9752658000216,144.07531960005872,144.07531960005872,None,m,1,0.84806999983266,144.07531960005872,None,144.94269210007042,None,,,,,,,,,,,,,,,,,,,,,,,,,,py,2022_May_06_1748,training+cueing,2021.1.4,59.95085232182514,
Friend.png,Friend,Friend,c,2,12,22,92,,,,,0,0,0,0,0,11,11,10,,,,,,,,,,,,,,,,,,,,,,,,,1.638,1.607,145.3430877001956,None,145.8891542002093,146.39369430020452,146.37703690002672,146.49431950016879,146.37703690002672,146.49431950016879,146.4770967999939,None,c,1,1.1664552001748234,146.4770967999939,None,147.65971400006674,None,,,,,,,,,,,,,,,,,,,,,,,,,,py,2022_May_06_1748,training+cueing,2021.1.4,59.95085232182514,
Friend.png,You,Friend,m,1.2,14,24,94,,,,,0,0,0,0,,,,,0,0,0,3,,,,,,,,,,,,,,,,,,,151.0640511000529,None,1.688,1.216,154.58159650000744,None,,,,,,,,,,,,,,,,148.06174829998054,None,0.014806800056248903,0.513188200071454,155.20571080013178,155.71709460020065,0.5032778999302536,1.0035783001221716,155.7004321999848,155.80049120006151,155.7004321999848,155.80049120006151,155.80049120006151,None,m,1,0.946975399972871,155.80049120006151,None,,,,,,,py,2022_May_06_1748,training+cueing,2021.1.4,59.95085232182514,
Self.png,Friend,Self ,m,2.1,16,26,96,,,,,0,0,0,0,,,,,0,1,1,1,,,,,,,,,,,,,,,,,,,,,1.792,2.17,156.87538770004176,None,,,,,,,,,,,,,,,,,,,,157.41639250004664,157.91873330017552,0.5052368000615388,1.0055070000234991,157.90205240016803,158.01878600008786,157.90205240016803,158.01878600008786,158.00230490020476,None,m,1,0.8253827001899481,158.00230490020476,None,,,,,,,py,2022_May_06_1748,training+cueing,2021.1.4,59.95085232182514,
Stranger.png,You,Stranger,m,1.3,15,25,95,,,,,0,0,0,0,,,,,0,2,2,6,,,,,,,,,,,,,,,,,,,,,1.614,1.519,158.96231700014323,None,,,,,,,,,,,,,,,,,,,,159.50982190016657,160.02021019998938,0.5046157999895513,1.0046055999118835,160.00378460017964,160.10356140020303,160.00378460017964,160.10356140020303,160.10356140020303,None,m,1,1.5402251998893917,160.10356140020303,None,,,,,,,py,2022_May_06_1748,training+cueing,2021.1.4,59.95085232182514,
Stranger.png,Friend,Stranger,m,2.3,17,27,97,,,,,0,0,0,0,,,,,0,3,3,7,,,,,,,,,,,,,,,,,,,,,1.705,1.233,161.77802720014006,None,,,,,,,,,,,,,,,,,,,,162.32121230009943,162.82220910000615,0.5004990000743419,1.0007639001123607,162.80560050019994,162.92232020013034,162.80560050019994,162.92232020013034,162.92232020013034,None,m,1,1.2650263998657465,162.92232020013034,None,,,,,,,py,2022_May_06_1748,training+cueing,2021.1.4,59.95085232182514,
Stranger.png,Stranger,Stranger,c,3,13,23,93,,,,,0,0,0,0,,,,,0,4,4,8,,,,,,,,,,,,,,,,,,,,,1.761,1.81,164.31272929999977,None,,,,,,,,,,,,,,,,,,,,164.85620270017534,165.35745890019462,0.502010399941355,1.0021659000776708,165.34083170001395,165.45746280020103,165.34083170001395,165.45746280020103,165.44075700012036,None,c,1,0.9228205000981688,165.44075700012036,None,,,,,,,py,2022_May_06_1748,training+cueing,2021.1.4,59.95085232182514,
Self.png,You,Self ,c,1,11,21,91,,,,,0,0,0,0,,,,,0,5,5,9,,,,,,,,,,,,,,,,,,,,,1.602,2.46,166.49924450018443,None,,,,,,,,,,,,,,,,,,,,167.04249830008484,167.54232090013102,0.5010115001350641,1.0013329000212252,167.5256584000308,167.62570290011354,167.5256584000308,167.62570290011354,167.62570290011354,None,c,1,0.7060751998797059,167.62570290011354,None,,,,,,,py,2022_May_06_1748,training+cueing,2021.1.4,59.95085232182514,
Stranger.png,Stranger,Stranger,c,3,13,23,93,,,,,0,0,0,0,,,,,0,6,6,11,,,,,,,,,,,,,,,,,,,,,1.675,1.347,168.46579840010963,None,,,,,,,,,,,,,,,,,,,,169.00907970010303,169.51039250008762,0.5007089998107404,1.0009244997054338,169.49380569998175,169.61045500007458,169.49380569998175,169.61045500007458,169.61045500007458,None,c,1,1.248886600136757,169.61045500007458,None,,,,,,,py,2022_May_06_1748,training+cueing,2021.1.4,59.95085232182514,
Friend.png,Friend,Friend,c,2,12,22,92,,,,,0,0,0,0,,,,,0,7,7,4,,,,,,,,,,,,,,,,,,,,,1.767,1.421,170.98988320003264,None,,,,,,,,,,,,,,,,,,,,171.53025260008872,172.04556650016457,0.5133007001131773,1.0141978999599814,172.02888440014794,172.14565500011668,172.02888440014794,172.14565500011668,172.12893680017442,None,c,1,0.5226937001571059,172.12893680017442,None,,,,,,,py,2022_May_06_1748,training+cueing,2021.1.4,59.95085232182514,
Friend.png,Friend,Friend,c,2,12,22,92,,,,,0,0,0,0,,,,,0,8,8,10,,,,,,,,,,,,,,,,,,,,,1.429,1.397,172.78860930004157,None,,,,,,,,,,,,,,,,,,,,173.32613250007853,173.83019830007106,0.5067799999378622,1.0070597999729216,173.8135559000075,173.93023180007003,173.8135559000075,173.93023180007003,173.9135334000457,None,c,1,0.9459651000797749,173.9135334000457,None,,,,,,,py,2022_May_06_1748,training+cueing,2021.1.4,59.95085232182514,
Friend.png,Stranger,Friend,m,3.2,19,29,99,,,,,0,0,0,0,,,,,0,9,9,5,,,,,,,,,,,,,,,,,,,,,1.631,1.761,174.99123869999312,None,,,,,,,,,,,,,,,,,,,,175.53024990018457,176.03177990019321,0.5036507998593152,1.0039287998806685,176.01510160020553,176.13184770010412,176.01510160020553,176.13184770010412,176.11513490020297,None,c,0,0.8562370999716222,176.11513490020297,None,,,,,,,py,2022_May_06_1748,training+cueing,2021.1.4,59.95085232182514,
Self.png,Stranger,Self ,m,3.1,18,28,98,,,,,0,0,0,0,,,,,0,10,10,2,,,,,,,,,,,,,,,,,,,,,1.582,1.345,177.10595790017396,None,,,,,,,,,,,,,,,,,,,,177.64503490016796,178.14999850001186,0.5102830999530852,1.01055429992266,178.13332310016267,178.25003690016456,178.13332310016267,178.25003690016456,178.23333720001392,None,m,1,1.1700307000428438,178.23333720001392,None,,,,,,,py,2022_May_06_1748,training+cueing,2021.1.4,59.95085232182514,
Self.png,You,Self ,c,1,11,21,91,,,,,0,0,0,0,,,,,0,11,11,0,,,,,,,,,,,,,,,,,,,,,1.425,2.245,179.5407128999941,None,,,,,,,,,,,,,,,,,,,,180.0986464000307,180.60174580011517,0.504507599864155,1.0045910999178886,180.5852571001742,180.6851447999943,180.5852571001742,180.6851447999943,180.6851447999943,None,c,1,0.5742832000833005,180.6851447999943,None,,,,,,,py,2022_May_06_1748,training+cueing,2021.1.4,59.95085232182514,
Friend.png,Friend,Friend,c,2,12,22,92,,,,,0,0,0,0,,,,,1,0,12,10,,,,,,,,,,,,,,,,,,,,,1.519,1.259,181.3920530001633,None,,,,,,,,,,,,,,,,,,,,181.93465539999306,182.43643690017052,0.5050514000467956,1.0053562999237329,182.41974070016295,182.5365583000239,182.41974070016295,182.5365583000239,182.5197658999823,None,c,1,0.8997072998899966,182.5197658999823,None,,,,,,,py,2022_May_06_1748,training+cueing,2021.1.4,59.95085232182514,
Self.png,You,Self ,c,1,11,21,91,,,,,0,0,0,0,,,,,1,1,13,9,,,,,,,,,,,,,,,,,,,,,1.72,2.286,183.5471234000288,None,,,,,,,,,,,,,,,,,,,,184.08709130017087,184.5879515002016,0.5026197000406682,1.002931300085038,184.5712983000558,184.67134480015375,184.5712983000558,184.67134480015375,184.67134480015375,None,c,1,0.7479910000693053,184.67134480015375,None,,,,,,,py,2022_May_06_1748,training+cueing,2021.1.4,59.95085232182514,
Friend.png,Stranger,Friend,m,3.2,19,29,99,,,,,0,0,0,0,,,,,1,2,14,5,,,,,,,,,,,,,,,,,,,,,1.737,1.32,185.54506830009632,None,,,,,,,,,,,,,,,,,,,,186.11164260003716,186.6227716000285,0.5050471997819841,1.0053446998354048,186.606089200126,186.72282120003365,186.606089200126,186.72282120003365,186.70613010018133,None,m,1,1.3533011998515576,186.70613010018133,None,,,,,,,py,2022_May_06_1748,training+cueing,2021.1.4,59.95085232182514,
Self.png,Friend,Self ,m,2.1,16,26,96,,,,,0,0,0,0,,,,,1,3,15,1,,,,,,,,,,,,,,,,,,,,,1.491,2.12,188.19671649998054,None,,,,,,,,,,,,,,,,,,,,188.73959360015579,189.24134870013222,0.5048890998587012,1.0051734996959567,189.2246640000958,189.34140989999287,189.2246640000958,189.34140989999287,189.32469110004604,None,m,1,0.7986577998381108,189.32469110004604,None,,,,,,,py,2022_May_06_1748,training+cueing,2021.1.4,59.95085232182514,
Stranger.png,Stranger,Stranger,c,3,13,23,93,,,,,0,0,0,0,,,,,1,4,16,8,,,,,,,,,,,,,,,,,,,,,1.772,2.365,190.24846899998374,None,,,,,,,,,,,,,,,,,,,,190.7892134001013,191.29279280011542,0.5054983000736684,1.0057298999745399,191.27618660009466,191.392866600072,191.27618660009466,191.392866600072,191.37618230003864,None,c,1,0.7311858001630753,191.37618230003864,None,,,,,,,py,2022_May_06_1748,training+cueing,2021.1.4,59.95085232182514,
Self.png,Stranger,Self ,m,3.1,18,28,98,,,,,0,0,0,0,,,,,1,5,17,2,,,,,,,,,,,,,,,,,,,,,1.548,1.289,192.23303390014917,None,,,,,,,,,,,,,,,,,,,,192.7764328001067,193.2776744000148,0.5035579996183515,1.003813499584794,193.26100070006214,193.37766760005616,193.26100070006214,193.37766760005616,193.36102499999106,None,m,1,0.7463678000494838,193.36102499999106,None,,,,,,,py,2022_May_06_1748,training+cueing,2021.1.4,59.95085232182514,
Stranger.png,Friend,Stranger,m,2.3,17,27,97,,,,,0,0,0,0,,,,,1,6,18,7,,,,,,,,,,,,,,,,,,,,,1.558,1.524,194.23434170009568,None,,,,,,,,,,,,,,,,,,,,194.79138030018657,195.29574259999208,0.5105453999713063,1.0108721998985857,195.27906570001505,195.39579370012507,195.27906570001505,195.39579370012507,195.37913540005684,None,m,1,1.1442823999095708,195.37913540005684,None,,,,,,,py,2022_May_06_1748,training+cueing,2021.1.4,59.95085232182514,
Stranger.png,Stranger,Stranger,c,3,13,23,93,,,,,0,0,0,0,,,,,1,7,19,11,,,,,,,,,,,,,,,,,,,,,1.531,2.306,196.65240980009548,None,,,,,,,,,,,,,,,,,,,,197.19305130001158,197.69759390014224,0.5066510997712612,1.0069052998442203,197.6809721000027,197.79763779998757,197.6809721000027,197.79763779998757,197.78095620009117,None,c,1,0.5665514001157135,197.78095620009117,None,,,,,,,py,2022_May_06_1748,training+cueing,2021.1.4,59.95085232182514,
Friend.png,You,Friend,m,1.2,14,24,94,,,,,0,0,0,0,,,,,1,8,20,3,,,,,,,,,,,,,,,,,,,,,1.734,2.277,198.47227750020102,None,,,,,,,,,,,,,,,,,,,,199.0149836000055,199.51544950017706,0.5011429998558015,1.0013884999789298,199.49878700007685,199.59879459999502,199.49878700007685,199.59879459999502,199.59879459999502,None,m,1,0.9086087001487613,199.59879459999502,None,,,,,,,py,2022_May_06_1748,training+cueing,2021.1.4,59.95085232182514,
Friend.png,Friend,Friend,c,2,12,22,92,,,,,0,0,0,0,,,,,1,9,21,4,,,,,,,,,,,,,,,,,,,,,1.435,1.433,200.63829700020142,None,,,,,,,,,,,,,,,,,,,,201.18051249999553,201.68366100010462,0.5071748998016119,1.0074947997927666,201.66698139999062,201.78371109999716,201.66698139999062,201.78371109999716,201.76700890017673,None,c,1,0.7884276998229325,201.76700890017673,None,,,,,,,py,2022_May_06_1748,training+cueing,2021.1.4,59.95085232182514,
Stranger.png,You,Stranger,m,1.3,15,25,95,,,,,0,0,0,0,,,,,1,10,22,6,,,,,,,,,,,,,,,,,,,,,1.793,1.7,202.690585100092,None,,,,,,,,,,,,,,,,,,,,203.23414600011893,203.7351308001671,0.5006004001479596,1.0009266000706702,203.71845440007746,203.81856530020013,203.71845440007746,203.81856530020013,203.81856530020013,None,m,1,0.7848410001024604,203.81856530020013,None,,,,,,,py,2022_May_06_1748,training+cueing,2021.1.4,59.95085232182514,
Self.png,You,Self ,c,1,11,21,91,,,,,0,0,0,0,,,,,1,11,23,0,,,,,,,,,,,,,,,,,,,,,1.588,2.076,204.72562790010124,None,,,,,,,,,,,,,,,,,,,,205.26624420005828,205.76993860001676,0.5066035999916494,1.006946199806407,205.75326400017366,205.8533529001288,205.75326400017366,205.8533529001288,205.8533529001288,None,c,1,0.47803210001438856,205.8533529001288,None,,,,,,,py,2022_May_06_1748,training+cueing,2021.1.4,59.95085232182514,
Stranger.png,Stranger,Stranger,c,3,13,23,93,,,,,0,0,0,0,,,,,2,0,24,8,,,,,,,,,,,,,,,,,,,,,1.798,2.003,206.46033540018834,None,,,,,,,,,,,,,,,,,,,,207.0046825001482,207.50455519999377,0.5154439997859299,1.01571449986659,207.50455519999377,207.60460680001415,207.50455519999377,207.60460680001415,207.60460680001415,None,c,1,0.6788725000806153,207.60460680001415,None,,,,,,,py,2022_May_06_1748,training+cueing,2021.1.4,59.95085232182514,
Friend.png,Stranger,Friend,m,3.2,19,29,99,,,,,0,0,0,0,,,,,2,1,25,5,,,,,,,,,,,,,,,,,,,,,1.43,1.841,208.41151840006933,None,,,,,,,,,,,,,,,,,,,,208.95115880016237,209.45597860007547,0.5096511996816844,1.009944699704647,209.439248500159,209.55602160003036,209.439248500159,209.55602160003036,209.5392990000546,None,m,1,1.1761000999249518,209.5392990000546,None,,,,,,,py,2022_May_06_1748,training+cueing,2021.1.4,59.95085232182514,
Stranger.png,You,Stranger,m,1.3,15,25,95,,,,,0,0,0,0,,,,,2,2,26,6,,,,,,,,,,,,,,,,,,,,,1.781,1.882,210.84634520020336,None,,,,,,,,,,,,,,,,,,,,211.4062094001565,211.90768840000965,0.5039723999798298,1.0048764999955893,211.8910486001987,211.99110560002737,211.8910486001987,211.99110560002737,211.99110560002737,None,m,1,0.8523929000366479,211.99110560002737,None,,,,,,,py,2022_May_06_1748,training+cueing,2021.1.4,59.95085232182514,
Stranger.png,Stranger,Stranger,c,3,13,23,93,,,,,0,0,0,0,,,,,2,3,27,11,,,,,,,,,,,,,,,,,,,,,1.79,1.748,212.98216130002402,None,,,,,,,,,,,,,,,,,,,,213.52990470011719,214.0426487000659,0.5073062998708338,1.0076320997904986,214.0259327001404,214.1426431001164,214.0259327001404,214.1426431001164,214.12594420020469,None,c,1,0.8775192000903189,214.12594420020469,None,,,,,,,py,2022_May_06_1748,training+cueing,2021.1.4,59.95085232182514,
Self.png,You,Self ,c,1,11,21,91,,,,,0,0,0,0,,,,,2,4,28,9,,,,,,,,,,,,,,,,,,,,,1.539,1.95,215.13244340009987,None,,,,,,,,,,,,,,,,,,,,215.67520719999447,216.17748310021125,0.504770299885422,1.005064999917522,216.16080740001053,216.26082660001703,216.16080740001053,216.26082660001703,216.26082660001703,None,c,1,0.534621600061655,216.26082660001703,None,,,,,,,py,2022_May_06_1748,training+cueing,2021.1.4,59.95085232182514,
Self.png,Friend,Self ,m,2.1,16,26,96,,,,,0,0,0,0,,,,,2,5,29,1,,,,,,,,,,,,,,,,,,,,,1.479,1.701,216.91706910007633,None,,,,,,,,,,,,,,,,,,,,217.45941150002182,217.96212100004777,0.5063328000251204,1.006644699955359,217.94542830018327,218.06216930015944,217.94542830018327,218.06216930015944,218.04545560013503,None,m,1,0.6379122999496758,218.04545560013503,None,,,,,,,py,2022_May_06_1748,training+cueing,2021.1.4,59.95085232182514,
Stranger.png,Friend,Stranger,m,2.3,17,27,97,,,,,0,0,0,0,,,,,2,6,30,7,,,,,,,,,,,,,,,,,,,,,1.54,1.496,218.81903620017692,None,,,,,,,,,,,,,,,,,,,,219.35806340002455,219.86344119999558,0.5085629001259804,1.008786200080067,219.84685180010274,219.96350369998254,219.84685180010274,219.96350369998254,219.94683260004967,None,m,1,1.2166300001554191,219.94683260004967,None,,,,,,,py,2022_May_06_1748,training+cueing,2021.1.4,59.95085232182514,
Self.png,Stranger,Self ,m,3.1,18,28,98,,,,,0,0,0,0,,,,,2,7,31,2,,,,,,,,,,,,,,,,,,,,,1.503,1.585,221.28888680017553,None,,,,,,,,,,,,,,,,,,,,221.84276100015268,222.34860930009745,0.5126394000835717,1.0129374000243843,222.33193230000325,222.4486459000036,222.33193230000325,222.4486459000036,222.4319563000463,None,m,1,0.7153682999778539,222.4319563000463,None,,,,,,,py,2022_May_06_1748,training+cueing,2021.1.4,59.95085232182514,
Friend.png,You,Friend,m,1.2,14,24,94,,,,,0,0,0,0,,,,,2,8,32,3,,,,,,,,,,,,,,,,,,,,,1.512,1.925,223.27230910002254,None,,,,,,,,,,,,,,,,,,,,223.812885500025,224.3166986000724,0.5047003999352455,1.0055414999369532,224.30005980003625,224.40014060004614,224.30005980003625,224.40014060004614,224.40014060004614,None,m,1,0.971313500078395,224.40014060004614,None,,,,,,,py,2022_May_06_1748,training+cueing,2021.1.4,59.95085232182514,
Friend.png,Friend,Friend,c,2,12,22,92,,,,,0,0,0,0,,,,,2,9,33,10,,,,,,,,,,,,,,,,,,,,,1.411,2.097,225.50827650004067,None,,,,,,,,,,,,,,,,,,,,226.05064230016433,226.55165650020353,0.503063099924475,1.0033769998699427,226.5349506000057,226.65169520000927,226.5349506000057,226.65169520000927,226.63497170014307,None,m,0,1.2963689998723567,226.63497170014307,None,,,,,,,py,2022_May_06_1748,training+cueing,2021.1.4,59.95085232182514,
Self.png,You,Self ,c,1,11,21,91,,,,,0,0,0,0,,,,,2,10,34,0,,,,,,,,,,,,,,,,,,,,,1.48,1.329,228.0592981001828,None,,,,,,,,,,,,,,,,,,,,228.5989767999854,229.1035012002103,0.5095754996873438,1.010447499807924,229.08682220010087,229.18686430016533,229.08682220010087,229.18686430016533,229.18686430016533,None,c,1,0.6966620001476258,229.18686430016533,None,,,,,,,py,2022_May_06_1748,training+cueing,2021.1.4,59.95085232182514,
Friend.png,Friend,Friend,c,2,12,22,92,,,,,0,0,0,0,,,,,2,11,35,4,,,,,,,,,,,,,,,,,,,,,1.661,1.791,230.01187600009143,None,,,,,,,,,,,,,,,,,,,,230.56411620019935,231.0715767000802,0.5127474998589605,1.013202599948272,231.05490009998903,231.17181930015795,231.05490009998903,231.17181930015795,231.15498520014808,None,c,1,1.0804365000221878,231.15498520014808,None,,,,,,,py,2022_May_06_1748,training+cueing,2021.1.4,59.95085232182514,
Stranger.png,Friend,Stranger,m,2.3,17,27,97,,,,,0,0,0,0,,,,,3,0,36,7,,,,,,,,,,,,,,,,,,,,,1.475,2.253,232.36344640003517,None,,,,,,,,,,,,,,,,,,,,232.902654300211,233.40661630011164,0.5080536000896245,1.0083433000836521,233.3899161000736,233.50664789997973,233.3899161000736,233.50664789997973,233.48996990011074,None,m,1,0.9693754999898374,233.48996990011074,None,,,,,,,py,2022_May_06_1748,training+cueing,2021.1.4,59.95085232182514,
Friend.png,Stranger,Friend,m,3.2,19,29,99,,,,,0,0,0,0,,,,,3,1,37,5,,,,,,,,,,,,,,,,,,,,,1.767,2.162,234.59724640008062,None,,,,,,,,,,,,,,,,,,,,235.13975189998746,235.64155740011483,0.5060266000218689,1.0063516998197883,235.6248539001681,235.74160340009257,235.6248539001681,235.74160340009257,235.72486439999193,None,m,1,1.4065161000471562,235.72486439999193,None,,,,,,,py,2022_May_06_1748,training+cueing,2021.1.4,59.95085232182514,
Self.png,You,Self ,c,1,11,21,91,,,,,0,0,0,0,,,,,3,2,38,9,,,,,,,,,,,,,,,,,,,,,1.624,1.489,237.27221880014986,None,,,,,,,,,,,,,,,,,,,,237.80834059999324,238.3103451000061,0.503338199807331,1.0034212998580188,238.29362970008515,238.39352410007268,238.29362970008515,238.39352410007268,238.39352410007268,None,c,1,0.6417708999942988,238.39352410007268,None,,,,,,,py,2022_May_06_1748,training+cueing,2021.1.4,59.95085232182514,
Stranger.png,Stranger,Stranger,c,3,13,23,93,,,,,0,0,0,0,,,,,3,3,39,8,,,,,,,,,,,,,,,,,,,,,1.747,2.367,239.16720740008168,None,,,,,,,,,,,,,,,,,,,,239.70997550012544,240.21150250011124,0.5042803999967873,1.0045207999646664,240.1948724000249,240.31155810016207,240.1948724000249,240.31155810016207,240.29484330001287,None,None,0,,240.29484330001287,None,,,,,,,py,2022_May_06_1748,training+cueing,2021.1.4,59.95085232182514,
Stranger.png,You,Stranger,m,1.3,15,25,95,,,,,0,0,0,0,,,,,3,4,40,6,,,,,,,,,,,,,,,,,,,,,1.465,1.792,242.1504234999884,None,,,,,,,,,,,,,,,,,,,,242.69203480007127,243.19703690009192,0.5084464999381453,1.0086683998815715,243.18042220012285,243.28041080012918,243.18042220012285,243.28041080012918,243.28041080012918,None,m,1,1.114886499941349,243.28041080012918,None,,,,,,,py,2022_May_06_1748,training+cueing,2021.1.4,59.95085232182514,
Self.png,Friend,Self ,m,2.1,16,26,96,,,,,0,0,0,0,,,,,3,5,41,1,,,,,,,,,,,,,,,,,,,,,1.6,1.658,244.52206970006227,None,,,,,,,,,,,,,,,,,,,,245.0615964999888,245.56539240013808,0.5076656001619995,1.0080562001094222,245.54875760013238,245.665962100029,245.54875760013238,245.665962100029,245.6487382000778,None,m,1,0.8267182998824865,245.6487382000778,None,,,,,,,py,2022_May_06_1748,training+cueing,2021.1.4,59.95085232182514,
Friend.png,Friend,Friend,c,2,12,22,92,,,,,0,0,0,0,,,,,3,6,42,10,,,,,,,,,,,,,,,,,,,,,1.409,1.764,246.6069301001262,None,,,,,,,,,,,,,,,,,,,,247.14766790019348,247.6502212001942,0.5064547997899354,1.0067391998600215,247.63356670015492,247.75027259998024,247.63356670015492,247.75027259998024,247.73357959999703,None,c,1,1.0616564000956714,247.73357959999703,None,,,,,,,py,2022_May_06_1748,training+cueing,2021.1.4,59.95085232182514,
Friend.png,You,Friend,m,1.2,14,24,94,,,,,0,0,0,0,,,,,3,7,43,3,,,,,,,,,,,,,,,,,,,,,1.726,1.923,248.9241842001211,None,,,,,,,,,,,,,,,,,,,,249.4643320001196,249.96857989998534,0.5068041996564716,1.0070952996611595,249.95189320016652,250.05193429999053,249.95189320016652,250.05193429999053,250.05193429999053,None,m,1,0.7434731000103056,250.05193429999053,None,,,,,,,py,2022_May_06_1748,training+cueing,2021.1.4,59.95085232182514,
Stranger.png,Stranger,Stranger,c,3,13,23,93,,,,,0,0,0,0,,,,,3,8,44,11,,,,,,,,,,,,,,,,,,,,,1.585,1.917,250.9247777001001,None,,,,,,,,,,,,,,,,,,,,251.46774170012213,251.97001240006648,0.5059443998616189,1.0064468998461962,251.95335309999064,252.07007540017366,251.95335309999064,252.07007540017366,252.05336190015078,None,c,1,0.5819717000704259,252.05336190015078,None,,,,,,,py,2022_May_06_1748,training+cueing,2021.1.4,59.95085232182514,
Self.png,You,Self ,c,1,11,21,91,,,,,0,0,0,0,,,,,3,9,45,0,,,,,,,,,,,,,,,,,,,,,1.589,1.804,252.76057490007952,None,,,,,,,,,,,,,,,,,,,,253.30238130013458,253.80470480001532,0.5058989999815822,1.0066048000007868,253.78801400004886,253.8880321001634,253.78801400004886,253.8880321001634,253.8880321001634,None,c,1,1.0832966000307351,253.8880321001634,None,,,,,,,py,2022_May_06_1748,training+cueing,2021.1.4,59.95085232182514,
Self.png,Stranger,Self ,m,3.1,18,28,98,,,,,0,0,0,0,,,,,3,10,46,2,,,,,,,,,,,,,,,,,,,,,1.65,2.498,255.10052249999717,None,,,,,,,,,,,,,,,,,,,,255.65592930000275,256.1563929000404,0.5002699000760913,1.0005626000929624,256.1397143001668,256.2564602000639,256.1397143001668,256.2564602000639,256.2564602000639,None,m,1,0.6828003998380154,256.2564602000639,None,,,,,,,py,2022_May_06_1748,training+cueing,2021.1.4,59.95085232182514,
Friend.png,Friend,Friend,c,2,12,22,92,,,,,0,0,0,0,,,,,3,11,47,4,,,,,,,,,,,,,,,,,,,,,1.671,2.25,257.0634405000601,None,,,,,,,,,,,,,,,,,,,,257.602916700067,258.1078062001616,0.5092913000844419,1.0098494000267237,258.091120300116,258.20843210001476,258.091120300116,258.20843210001476,258.1911936001852,None,c,1,0.9241672998759896,258.1911936001852,None,,,,,,,py,2022_May_06_1748,training+cueing,2021.1.4,59.95085232182514,
Friend.png,You,Friend,m,1.2,14,24,94,,,,,0,0,0,0,,,,,4,0,48,3,,,,,,,,,,,,,,,,,,,,,1.612,1.705,259.24760460015386,None,,,,,,,,,,,,,,,,,,,,259.78964109998196,260.2927008001134,0.5048298998735845,1.005095699802041,260.2760542000178,260.37607470015064,260.2760542000178,260.37607470015064,260.37607470015064,None,m,1,0.8992101999465376,260.37607470015064,None,,,,,,,py,2022_May_06_1748,training+cueing,2021.1.4,59.95085232182514,
Self.png,Stranger,Self ,m,3.1,18,28,98,,,,,0,0,0,0,,,,,4,1,49,2,,,,,,,,,,,,,,,,,,,,,1.56,2.43,261.3996751999948,None,,,,,,,,,,,,,,,,,,,,261.9425493001472,262.4442576000001,0.5049940999597311,1.0053036999888718,262.4275864001829,262.5443194000982,262.4275864001829,262.5443194000982,262.5276235002093,None,m,1,0.9559246997814626,262.5276235002093,None,,,,,,,py,2022_May_06_1748,training+cueing,2021.1.4,59.95085232182514,
Friend.png,Stranger,Friend,m,3.2,19,29,99,,,,,0,0,0,0,,,,,4,2,50,5,,,,,,,,,,,,,,,,,,,,,1.413,1.765,263.6210674000904,None,,,,,,,,,,,,,,,,,,,,264.1569300000556,264.6625283001922,0.511018400080502,1.011441099923104,264.6458472001832,264.76254860009067,264.6458472001832,264.76254860009067,264.7458925000392,None,None,0,,264.7458925000392,None,,,,,,,py,2022_May_06_1748,training+cueing,2021.1.4,59.95085232182514,
Self.png,You,Self ,c,1,11,21,91,,,,,0,0,0,0,,,,,4,3,51,9,,,,,,,,,,,,,,,,,,,,,1.624,1.94,266.26829929999076,None,,,,,,,,,,,,,,,,,,,,266.81468300009146,267.314450400183,0.514224800048396,1.0145229001063854,267.314450400183,267.41451620007865,267.314450400183,267.41451620007865,267.41451620007865,None,c,1,0.5646792999468744,267.41451620007865,None,,,,,,,py,2022_May_06_1748,training+cueing,2021.1.4,59.95085232182514,
Stranger.png,You,Stranger,m,1.3,15,25,95,,,,,0,0,0,0,,,,,4,4,52,6,,,,,,,,,,,,,,,,,,,,,1.725,1.689,268.10464330017567,None,,,,,,,,,,,,,,,,,,,,268.6444813001435,269.14917740016244,0.5088537998963147,1.0091321000363678,269.1324263000861,269.23246209998615,269.1324263000861,269.23246209998615,269.23246209998615,None,m,1,1.3388353001791984,269.23246209998615,None,,,,,,,py,2022_May_06_1748,training+cueing,2021.1.4,59.95085232182514,
Friend.png,Friend,Friend,c,2,12,22,92,,,,,0,0,0,0,,,,,4,5,53,10,,,,,,,,,,,,,,,,,,,,,1.444,2.048,270.7063099001534,None,,,,,,,,,,,,,,,,,,,,271.25684450007975,271.76767159998417,0.5056648997124285,1.0059199996758252,271.75098100001924,271.8677308000624,271.75098100001924,271.8677308000624,271.8510018000379,None,c,1,0.9442682999651879,271.8510018000379,None,,,,,,,py,2022_May_06_1748,training+cueing,2021.1.4,59.95085232182514,
Self.png,Friend,Self ,m,2.1,16,26,96,,,,,0,0,0,0,,,,,4,6,54,1,,,,,,,,,,,,,,,,,,,,,1.73,2.409,272.9242333001457,None,,,,,,,,,,,,,,,,,,,,273.46347369998693,273.9692708000075,0.5095165998209268,1.0098612997680902,273.9525520000607,274.06934200017713,273.9525520000607,274.06934200017713,274.05262840003707,None,m,1,1.0145762001629919,274.05262840003707,None,,,,,,,py,2022_May_06_1748,training+cueing,2021.1.4,59.95085232182514,
Stranger.png,Friend,Stranger,m,2.3,17,27,97,,,,,0,0,0,0,,,,,4,7,55,7,,,,,,,,,,,,,,,,,,,,,1.787,2.462,275.192790400004,None,,,,,,,,,,,,,,,,,,,,275.7514411001466,276.2543578001205,0.5057258000597358,1.0060095000080764,276.23765920009464,276.354433900211,276.23765920009464,276.354433900211,276.33769240020774,None,m,1,1.4815493000205606,276.33769240020774,None,,,,,,,py,2022_May_06_1748,training+cueing,2021.1.4,59.95085232182514,
Self.png,You,Self ,c,1,11,21,91,,,,,0,0,0,0,,,,,4,8,56,0,,,,,,,,,,,,,,,,,,,,,1.432,1.261,277.9451692001894,None,,,,,,,,,,,,,,,,,,,,278.4853360999841,278.98955640010536,0.5071186998393387,1.0074075998272747,278.9728945000097,279.072923600208,278.9728945000097,279.072923600208,279.072923600208,None,c,1,0.906807699939236,279.072923600208,None,,,,,,,py,2022_May_06_1748,training+cueing,2021.1.4,59.95085232182514,
Stranger.png,Stranger,Stranger,c,3,13,23,93,,,,,0,0,0,0,,,,,4,9,57,11,,,,,,,,,,,,,,,,,,,,,1.685,2.324,280.1136308000423,None,,,,,,,,,,,,,,,,,,,,280.6540997000411,281.15777670009993,0.5069718998856843,1.0074950999114662,281.1411131999921,281.25784129998647,281.1411131999921,281.25784129998647,281.2411421001889,None,c,1,0.8821537999901921,281.2411421001889,None,,,,,,,py,2022_May_06_1748,training+cueing,2021.1.4,59.95085232182514,
Stranger.png,Stranger,Stranger,c,3,13,23,93,,,,,0,0,0,0,,,,,4,10,58,8,,,,,,,,,,,,,,,,,,,,,1.772,2.274,282.2491861002054,None,,,,,,,,,,,,,,,,,,,,282.7905851001851,283.29270740016364,0.5065860997419804,1.0068335998803377,283.27599700004794,283.3927569000516,283.27599700004794,283.3927569000516,283.37602650001645,None,c,1,1.1792455001268536,283.37602650001645,None,,,,,,,py,2022_May_06_1748,training+cueing,2021.1.4,59.95085232182514,
Friend.png,Friend,Friend,c,2,12,22,92,,,,,0,0,0,0,,,,,4,11,59,4,,,,,,,,,,,,,,,,,,,,,1.534,2.119,284.68239470012486,None,,,,,,,,,,,,,,,,,,,,285.23270410019904,285.744460800197,0.5050416998565197,1.005867299856618,285.727810600074,285.8450398000423,285.727810600074,285.8450398000423,285.82778900000267,None,c,1,0.9834306000266224,285.82778900000267,None,,,,,,,py,2022_May_06_1748,training+cueing,2021.1.4,59.95085232182514,
Self.png,You,Self ,c,1,11,21,91,,,,,0,0,0,0,,,,,5,0,60,9,,,,,,,,,,,,,,,,,,,,,1.728,1.386,286.9339211001061,None,,,,,,,,,,,,,,,,,,,,287.4750875001773,287.97941880021244,0.5076961999293417,1.0079961998853832,287.962726400001,288.06273040012456,287.962726400001,288.06273040012456,288.06273040012456,None,c,1,0.6845869000535458,288.06273040012456,None,,,,,,,py,2022_May_06_1748,training+cueing,2021.1.4,59.95085232182514,
Self.png,You,Self ,c,1,11,21,91,,,,,0,0,0,0,,,,,5,1,61,0,,,,,,,,,,,,,,,,,,,,,1.736,1.763,288.8696173001081,None,,,,,,,,,,,,,,,,,,,,289.40840970003046,289.9141542001162,0.5101917996071279,1.0104626996908337,289.89743850007653,289.9974750999827,289.89743850007653,289.9974750999827,289.9974750999827,None,c,1,0.5418041001539677,289.9974750999827,None,,,,,,,py,2022_May_06_1748,training+cueing,2021.1.4,59.95085232182514,
Stranger.png,Friend,Stranger,m,2.3,17,27,97,,,,,0,0,0,0,,,,,5,2,62,7,,,,,,,,,,,,,,,,,,,,,1.627,1.527,290.6707635000348,None,,,,,,,,,,,,,,,,,,,,291.2104315001052,291.7154169001151,0.5081106999423355,1.0083909998647869,291.698748400202,291.81545990007,291.698748400202,291.81545990007,291.79877710016444,None,m,1,1.0445624000858516,291.79877710016444,None,,,,,,,py,2022_May_06_1748,training+cueing,2021.1.4,59.95085232182514,
Self.png,Stranger,Self ,m,3.1,18,28,98,,,,,0,0,0,0,,,,,5,3,63,2,,,,,,,,,,,,,,,,,,,,,1.568,1.498,292.9721168000251,None,,,,,,,,,,,,,,,,,,,,293.51316180010326,294.0171295001637,0.5089349998161197,1.0094198998995125,294.00040660006925,294.11713310005143,294.00040660006925,294.11713310005143,294.1004436002113,None,m,1,0.9188417000696063,294.1004436002113,None,,,,,,,py,2022_May_06_1748,training+cueing,2021.1.4,59.95085232182514,
Self.png,Friend,Self ,m,2.1,16,26,96,,,,,0,0,0,0,,,,,5,4,64,1,,,,,,,,,,,,,,,,,,,,,1.796,2.178,295.14109760010615,None,,,,,,,,,,,,,,,,,,,,295.69807850010693,296.2021242000628,0.5053206998854876,1.0055704999249429,296.1854656001087,296.30222350009717,296.1854656001087,296.30222350009717,296.2854815002065,None,m,1,1.1817423000466079,296.2854815002065,None,,,,,,,py,2022_May_06_1748,training+cueing,2021.1.4,59.95085232182514,
Friend.png,Friend,Friend,c,2,12,22,92,,,,,0,0,0,0,,,,,5,5,65,4,,,,,,,,,,,,,,,,,,,,,1.554,1.71,297.59232900012285,None,,,,,,,,,,,,,,,,,,,,298.1325284000486,298.6371504000854,0.5101048999931663,1.0104668999556452,298.6204566000961,298.737287200056,298.6204566000961,298.737287200056,298.72057310002856,None,c,1,0.8426692001521587,298.72057310002856,None,,,,,,,py,2022_May_06_1748,training+cueing,2021.1.4,59.95085232182514,
Stranger.png,Stranger,Stranger,c,3,13,23,93,,,,,0,0,0,0,,,,,5,6,66,8,,,,,,,,,,,,,,,,,,,,,1.564,1.211,299.69559410004877,None,,,,,,,,,,,,,,,,,,,,300.2369173001498,300.73860250017606,0.5047981000971049,1.0050260999705642,300.7220107000321,300.83869130001403,300.7220107000321,300.83869130001403,300.8221042000223,None,c,1,1.2211273000575602,300.8221042000223,None,,,,,,,py,2022_May_06_1748,training+cueing,2021.1.4,59.95085232182514,
Friend.png,Friend,Friend,c,2,12,22,92,,,,,0,0,0,0,,,,,5,7,67,10,,,,,,,,,,,,,,,,,,,,,1.696,1.643,302.1791429000441,None,,,,,,,,,,,,,,,,,,,,302.7201418001205,303.2238012000453,0.5059480997733772,1.0062950998544693,303.2071314000059,303.3239649999887,303.2071314000059,303.3239649999887,303.30711610009894,None,c,1,1.0241429000161588,303.30711610009894,None,,,,,,,py,2022_May_06_1748,training+cueing,2021.1.4,59.95085232182514,
Stranger.png,You,Stranger,m,1.3,15,25,95,,,,,0,0,0,0,,,,,5,8,68,6,,,,,,,,,,,,,,,,,,,,,1.682,2.304,304.46537690004334,None,,,,,,,,,,,,,,,,,,,,305.0049906000495,305.5087835001759,0.5074280998669565,1.0082155999261886,305.4921149001457,305.59212670009583,305.4921149001457,305.59212670009583,305.59212670009583,None,m,1,0.7232246999628842,305.59212670009583,None,,,,,,,py,2022_May_06_1748,training+cueing,2021.1.4,59.95085232182514,
Friend.png,You,Friend,m,1.2,14,24,94,,,,,0,0,0,0,,,,,5,9,69,3,,,,,,,,,,,,,,,,,,,,,1.405,1.531,306.45069750002585,None,,,,,,,,,,,,,,,,,,,,306.99756809999235,307.5101639002096,0.5080132000148296,1.0083027998916805,307.4935012999922,307.59354290016927,307.4935012999922,307.59354290016927,307.59354290016927,None,m,1,1.0256732001435012,307.59354290016927,None,,,,,,,py,2022_May_06_1748,training+cueing,2021.1.4,59.95085232182514,
Stranger.png,Stranger,Stranger,c,3,13,23,93,,,,,0,0,0,0,,,,,5,10,70,11,,,,,,,,,,,,,,,,,,,,,1.448,2.383,308.7499437001534,None,,,,,,,,,,,,,,,,,,,,309.2931196000427,309.79516890016384,0.5036230999976397,1.0044996999204159,309.7785065001808,309.89576610014774,309.7785065001808,309.89576610014774,309.87854350009,None,c,1,1.0607674999628216,309.87854350009,None,,,,,,,py,2022_May_06_1748,training+cueing,2021.1.4,59.95085232182514,
Friend.png,Stranger,Friend,m,3.2,19,29,99,,,,,0,0,0,0,,,,,5,11,71,5,,,,,,,,,,,,,,,,,,,,,1.444,2.458,311.0704948999919,None,,,,,,,,,,,,,,,,,,,,311.60932930000126,312.1134939000476,0.5076182002667338,1.0079221001360565,312.09683500020765,312.2135683000088,312.09683500020765,312.2135683000088,312.1968351001851,None,c,0,1.0943895000964403,312.1968351001851,None,,,,,,,py,2022_May_06_1748,training+cueing,2021.1.4,59.95085232182514,
Stranger.png,Stranger,Stranger,c,3,13,23,93,,,,,0,0,0,0,,,,,6,0,72,8,,,,,,,,,,,,,,,,,,,,,1.469,1.476,313.4204510001,None,,,,,,,,,,,,,,,,,,,,313.9743781001307,314.48200580012053,0.5138731999322772,1.014164499938488,314.4653421000112,314.58206300018355,314.4653421000112,314.58206300018355,314.5653621000238,None,c,1,0.9179387001786381,314.5653621000238,None,,,,,,,py,2022_May_06_1748,training+cueing,2021.1.4,59.95085232182514,
Stranger.png,Stranger,Stranger,c,3,13,23,93,,,,,0,0,0,0,,,,,6,1,73,11,,,,,,,,,,,,,,,,,,,,,1.429,1.247,315.6055017001927,None,,,,,,,,,,,,,,,,,,,,316.143700200133,316.65018590004183,0.5128382998518646,1.01310779992491,316.63346570008434,316.7501847001258,316.63346570008434,316.7501847001258,316.73346990020946,None,c,1,0.6059574999380857,316.73346990020946,None,,,,,,,py,2022_May_06_1748,training+cueing,2021.1.4,59.95085232182514,
Self.png,You,Self ,c,1,11,21,91,,,,,0,0,0,0,,,,,6,2,74,9,,,,,,,,,,,,,,,,,,,,,1.46,1.585,317.4739864000585,None,,,,,,,,,,,,,,,,,,,,318.01561690005474,318.51817880012095,0.5062866997905076,1.0065642998088151,318.5015219000634,318.6015071000438,318.5015219000634,318.6015071000438,318.6015071000438,None,c,1,0.6258310000412166,318.6015071000438,None,,,,,,,py,2022_May_06_1748,training+cueing,2021.1.4,59.95085232182514,
Stranger.png,Friend,Stranger,m,2.3,17,27,97,,,,,0,0,0,0,,,,,6,3,75,7,,,,,,,,,,,,,,,,,,,,,1.725,1.688,319.3583182001021,None,,,,,,,,,,,,,,,,,,,,319.89782569999807,320.4028459000401,0.5083901998586953,1.0086484998464584,320.386178500019,320.5028874001,320.386178500019,320.5028874001,320.4861675000284,None,m,1,1.061083200154826,320.4861675000284,None,,,,,,,py,2022_May_06_1748,training+cueing,2021.1.4,59.95085232182514,
Friend.png,Friend,Friend,c,2,12,22,92,,,,,0,0,0,0,,,,,6,4,76,4,,,,,,,,,,,,,,,,,,,,,1.754,1.901,321.6763911000453,None,,,,,,,,,,,,,,,,,,,,322.2160398000851,322.72119459998794,0.51013970002532,1.010463299928233,322.704521200154,322.82126660016365,322.704521200154,322.82126660016365,322.8045996001456,None,c,1,0.6786552998237312,322.8045996001456,None,,,,,,,py,2022_May_06_1748,training+cueing,2021.1.4,59.95085232182514,
Self.png,You,Self ,c,1,11,21,91,,,,,0,0,0,0,,,,,6,5,77,0,,,,,,,,,,,,,,,,,,,,,1.483,1.379,323.611967000179,None,,,,,,,,,,,,,,,,,,,,324.15403700014576,324.6559249002021,0.5043711001053452,1.0046656001359224,324.63925260002725,324.7392904001754,324.63925260002725,324.7392904001754,324.7392904001754,None,c,1,0.6959507998544723,324.7392904001754,None,,,,,,,py,2022_May_06_1748,training+cueing,2021.1.4,59.95085232182514,
Friend.png,You,Friend,m,1.2,14,24,94,,,,,0,0,0,0,,,,,6,6,78,3,,,,,,,,,,,,,,,,,,,,,1.418,2.159,325.5621148000937,None,,,,,,,,,,,,,,,,,,,,326.0993090001866,326.6072895000689,0.5146753001026809,1.0149806002154946,326.59064190019853,326.6907313000411,326.59064190019853,326.6907313000411,326.6907313000411,None,m,1,1.0486397999338806,326.6907313000411,None,,,,,,,py,2022_May_06_1748,training+cueing,2021.1.4,59.95085232182514,
Friend.png,Friend,Friend,c,2,12,22,92,,,,,0,0,0,0,,,,,6,7,79,10,,,,,,,,,,,,,,,,,,,,,1.661,2.333,327.86817470006645,None,,,,,,,,,,,,,,,,,,,,328.4230965001043,328.9257389002014,0.5053306000772864,1.00564319989644,328.90897760004736,329.0257423000876,328.90897760004736,329.0257423000876,329.00900150020607,None,c,1,1.2422692999243736,329.00900150020607,None,,,,,,,py,2022_May_06_1748,training+cueing,2021.1.4,59.95085232182514,
Friend.png,Stranger,Friend,m,3.2,19,29,99,,,,,0,0,0,0,,,,,6,8,80,5,,,,,,,,,,,,,,,,,,,,,1.431,1.262,330.38309180014767,None,,,,,,,,,,,,,,,,,,,,330.92333000013605,331.4274865000043,0.5051605999469757,1.0056081998627633,331.4108188999817,331.52770139998756,331.4108188999817,331.52770139998756,331.51099650003016,None,m,1,0.8842136999592185,331.51099650003016,None,,,,,,,py,2022_May_06_1748,training+cueing,2021.1.4,59.95085232182514,
Stranger.png,You,Stranger,m,1.3,15,25,95,,,,,0,0,0,0,,,,,6,9,81,6,,,,,,,,,,,,,,,,,,,,,1.473,2.039,332.5186180002056,None,,,,,,,,,,,,,,,,,,,,333.05825340002775,333.56237470009364,0.5085795999038965,1.008885599905625,333.54567860020325,333.645711600082,333.54567860020325,333.645711600082,333.645711600082,None,m,1,1.1494142001029104,333.645711600082,None,,,,,,,py,2022_May_06_1748,training+cueing,2021.1.4,59.95085232182514,
Self.png,Friend,Self ,m,2.1,16,26,96,,,,,0,0,0,0,,,,,6,10,82,1,,,,,,,,,,,,,,,,,,,,,1.498,1.667,334.9187426001299,None,,,,,,,,,,,,,,,,,,,,335.459961600136,335.9641093001701,0.5084258997812867,1.0088650998659432,335.947417500196,336.06424270011485,335.947417500196,336.06424270011485,336.0475591002032,None,m,1,1.1156625000294298,336.0475591002032,None,,,,,,,py,2022_May_06_1748,training+cueing,2021.1.4,59.95085232182514,
Self.png,Stranger,Self ,m,3.1,18,28,98,,,,,0,0,0,0,,,,,6,11,83,2,,,,,,,,,,,,,,,,,,,,,1.728,1.717,337.2878947001882,None,,,,,,,,,,,,,,,,,,,,337.82987700006925,338.3324889000505,0.5031493999995291,1.0040229000151157,338.3158078000415,338.43259260011837,338.3158078000415,338.43259260011837,338.4158677000087,None,c,0,1.595457100076601,338.4158677000087,None,,,,,,,py,2022_May_06_1748,training+cueing,2021.1.4,59.95085232182514,
Friend.png,Friend,Friend,c,2,12,22,92,,,,,0,0,0,0,,,,,7,0,84,4,,,,,,,,,,,,,,,,,,,,,1.63,1.885,340.1410938000772,None,,,,,,,,,,,,,,,,,,,,340.69333050004207,341.20138780004345,0.5001657998654991,1.0004702999722213,341.1846957001835,341.3014366000425,341.1846957001835,341.3014366000425,341.3014366000425,None,c,1,0.837911200011149,341.3014366000425,None,,,,,,,py,2022_May_06_1748,training+cueing,2021.1.4,59.95085232182514,
Self.png,You,Self ,c,1,11,21,91,,,,,0,0,0,0,,,,,7,1,85,9,,,,,,,,,,,,,,,,,,,,,1.5,1.89,342.2759549000766,None,,,,,,,,,,,,,,,,,,,,342.8167396001518,343.31948220008053,0.5061443999875337,1.0064308000728488,343.30274080019444,343.4028224002104,343.30274080019444,343.4028224002104,343.4028224002104,None,c,1,1.0563368001021445,343.4028224002104,None,,,,,,,py,2022_May_06_1748,training+cueing,2021.1.4,59.95085232182514,
Stranger.png,Stranger,Stranger,c,3,13,23,93,,,,,0,0,0,0,,,,,7,2,86,11,,,,,,,,,,,,,,,,,,,,,1.53,1.877,344.59380090003833,None,,,,,,,,,,,,,,,,,,,,345.1415815001819,345.6546281001065,0.506749999942258,1.0070382000412792,345.63790230010636,345.75466860015877,345.63790230010636,345.75466860015877,345.73795650014654,None,c,1,0.897241499973461,345.73795650014654,None,,,,,,,py,2022_May_06_1748,training+cueing,2021.1.4,59.95085232182514,
Stranger.png,Stranger,Stranger,c,3,13,23,93,,,,,0,0,0,0,,,,,7,3,87,8,,,,,,,,,,,,,,,,,,,,,1.67,1.723,346.7607911999803,None,,,,,,,,,,,,,,,,,,,,347.3142612001393,347.82288540014997,0.5012580000329763,1.0015328999143094,347.8061728000175,347.92292380006984,347.8061728000175,347.92292380006984,347.92292380006984,None,c,1,1.0803400001022965,347.92292380006984,None,,,,,,,py,2022_May_06_1748,training+cueing,2021.1.4,59.95085232182514,
Friend.png,Friend,Friend,c,2,12,22,92,,,,,0,0,0,0,,,,,7,4,88,10,,,,,,,,,,,,,,,,,,,,,1.479,1.458,349.1307355000172,None,,,,,,,,,,,,,,,,,,,,349.6699167001061,350.17436700011604,0.5062220001127571,1.0065299002453685,350.15767930005677,350.27529430016875,350.15767930005677,350.27529430016875,350.25771230016835,None,c,1,0.7294985000044107,350.25771230016835,None,,,,,,,py,2022_May_06_1748,training+cueing,2021.1.4,59.95085232182514,
Self.png,Stranger,Self ,m,3.1,18,28,98,,,,,0,0,0,0,,,,,7,5,89,2,,,,,,,,,,,,,,,,,,,,,1.445,2.344,351.1145945000462,None,,,,,,,,,,,,,,,,,,,,351.6552842000965,352.15913240006194,0.5079032997600734,1.0081430997233838,352.1424635001458,352.25920590013266,352.1424635001458,352.25920590013266,352.24248890019953,None,None,0,,352.24248890019953,None,,,,,,,py,2022_May_06_1748,training+cueing,2021.1.4,59.95085232182514,
Stranger.png,Friend,Stranger,m,2.3,17,27,97,,,,,0,0,0,0,,,,,7,6,90,7,,,,,,,,,,,,,,,,,,,,,1.406,1.77,353.79805290000513,None,,,,,,,,,,,,,,,,,,,,354.3430732002016,354.844390100101,0.5047887000255287,1.005060700001195,354.8277530001942,354.944476300152,354.8277530001942,354.944476300152,354.92772760009393,None,None,0,,354.92772760009393,None,,,,,,,py,2022_May_06_1748,training+cueing,2021.1.4,59.95085232182514,
Friend.png,You,Friend,m,1.2,14,24,94,,,,,0,0,0,0,,,,,7,7,91,3,,,,,,,,,,,,,,,,,,,,,1.587,2.145,356.4495593002066,None,,,,,,,,,,,,,,,,,,,,356.991144800093,357.4964503000956,0.5092027999926358,1.009465100010857,357.4797734001186,357.5797967000399,357.4797734001186,357.5797967000399,357.5797967000399,None,m,1,1.0395603000652045,357.5797967000399,None,,,,,,,py,2022_May_06_1748,training+cueing,2021.1.4,59.95085232182514,
Self.png,You,Self ,c,1,11,21,91,,,,,0,0,0,0,,,,,7,8,92,0,,,,,,,,,,,,,,,,,,,,,1.565,1.792,358.7530710999854,None,,,,,,,,,,,,,,,,,,,,359.29092600010335,359.7980005000718,0.5136501998640597,1.0139520997181535,359.78130730008706,359.88135240017436,359.78130730008706,359.88135240017436,359.88135240017436,None,None,0,,359.88135240017436,None,,,,,,,py,2022_May_06_1748,training+cueing,2021.1.4,59.95085232182514,
Stranger.png,You,Stranger,m,1.3,15,25,95,,,,,0,0,0,0,,,,,7,9,93,6,,,,,,,,,,,,,,,,,,,,,1.763,2.405,361.5563431000337,None,,,,,,,,,,,,,,,,,,,,362.09622080018744,362.6000128001906,0.5081902998499572,1.0085926000028849,362.5833136001602,362.6834072000347,362.5833136001602,362.6834072000347,362.6834072000347,None,m,1,0.8637944001238793,362.6834072000347,None,,,,,,,py,2022_May_06_1748,training+cueing,2021.1.4,59.95085232182514,
Self.png,Friend,Self ,m,2.1,16,26,96,,,,,0,0,0,0,,,,,7,10,94,1,,,,,,,,,,,,,,,,,,,,,1.758,2.247,363.6728484001942,None,,,,,,,,,,,,,,,,,,,,364.2153186001815,364.7182616000064,0.5040797998663038,1.004301599925384,364.70157720008865,364.81828270014375,364.70157720008865,364.81828270014375,364.80153110018,None,m,1,0.8735783998854458,364.80153110018,None,,,,,,,py,2022_May_06_1748,training+cueing,2021.1.4,59.95085232182514,
Friend.png,Stranger,Friend,m,3.2,19,29,99,,,,,0,0,0,0,,,,,7,11,95,5,,,,,,,,,,,,,,,,,,,,,1.704,2.499,365.8090944001451,None,,,,,,,,,,,,,,,,,,,,366.3516932001803,366.85309840017,0.5026213997043669,1.0028658998198807,366.83645310020074,366.9531496001873,366.83645310020074,366.9531496001873,366.93646240001544,None,m,1,1.4426550001371652,366.93646240001544,None,,,,,,,py,2022_May_06_1748,training+cueing,2021.1.4,59.95085232182514,
Self.png,You,Self ,c,1,11,21,91,,,,,0,0,0,0,,,,,8,0,96,9,,,,,,,,,,,,,,,,,,,,,1.451,2.409,368.51075180014595,None,,,,,,,,,,,,,,,,,,,,369.05076770018786,369.55503600020893,0.5057861998211592,1.0066363997757435,369.53840419999324,369.63841440016404,369.53840419999324,369.63841440016404,369.63841440016404,None,c,1,1.140851799864322,369.63841440016404,None,,,,,,,py,2022_May_06_1748,training+cueing,2021.1.4,59.95085232182514,
Friend.png,Friend,Friend,c,2,12,22,92,,,,,0,0,0,0,,,,,8,1,97,10,,,,,,,,,,,,,,,,,,,,,1.569,1.4,370.91320940013975,None,,,,,,,,,,,,,,,,,,,,371.4551431001164,371.9567749002017,0.5049958997406065,1.005891699809581,371.940114099998,372.05741800018586,371.940114099998,372.05741800018586,372.04072370007634,None,c,1,1.170454400125891,372.04072370007634,None,,,,,,,py,2022_May_06_1748,training+cueing,2021.1.4,59.95085232182514,
Stranger.png,Stranger,Stranger,c,3,13,23,93,,,,,0,0,0,0,,,,,8,2,98,8,,,,,,,,,,,,,,,,,,,,,1.438,1.537,373.3479479001835,None,,,,,,,,,,,,,,,,,,,,373.889551400207,374.39190460019745,0.5046444998588413,1.0048581999726593,374.37527110008523,374.49197189998813,374.37527110008523,374.49197189998813,374.475249200128,None,c,1,1.1519456000532955,374.475249200128,None,,,,,,,py,2022_May_06_1748,training+cueing,2021.1.4,59.95085232182514,
Stranger.png,Stranger,Stranger,c,3,13,23,93,,,,,0,0,0,0,,,,,8,3,99,11,,,,,,,,,,,,,,,,,,,,,1.664,2.483,375.75055670016445,None,,,,,,,,,,,,,,,,,,,,376.28849370009266,376.7936221000273,0.5075002999510616,1.0077983001247048,376.776926800143,376.8936775000766,376.776926800143,376.8936775000766,376.8769669001922,None,c,1,0.606089600129053,376.8769669001922,None,,,,,,,py,2022_May_06_1748,training+cueing,2021.1.4,59.95085232182514,
Self.png,Friend,Self ,m,2.1,16,26,96,,,,,0,0,0,0,,,,,8,4,100,1,,,,,,,,,,,,,,,,,,,,,1.508,2.41,377.6172180001158,None,,,,,,,,,,,,,,,,,,,,378.1600759001449,378.6616517000366,0.5046382998116314,1.0049105999059975,378.64497670019045,378.7617618001532,378.64497670019045,378.7617618001532,378.74499200005084,None,m,1,0.946134899975732,378.74499200005084,None,,,,,,,py,2022_May_06_1748,training+cueing,2021.1.4,59.95085232182514,
Self.png,You,Self ,c,1,11,21,91,,,,,0,0,0,0,,,,,8,5,101,0,,,,,,,,,,,,,,,,,,,,,1.505,1.556,379.81868890020996,None,,,,,,,,,,,,,,,,,,,,380.36014930019155,380.8632350000553,0.5069114998914301,1.0071914000436664,380.84656580002047,380.9465855001472,380.84656580002047,380.9465855001472,380.9465855001472,None,c,1,0.8246224999893457,380.9465855001472,None,,,,,,,py,2022_May_06_1748,training+cueing,2021.1.4,59.95085232182514,
Friend.png,Stranger,Friend,m,3.2,19,29,99,,,,,0,0,0,0,,,,,8,6,102,5,,,,,,,,,,,,,,,,,,,,,1.534,1.306,381.90358550008386,None,,,,,,,,,,,,,,,,,,,,382.45306070009246,382.96477430011146,0.5058657999616116,1.006765600061044,382.94808670016937,383.0653215001803,382.94808670016937,383.0653215001803,383.0481353001669,None,None,0,,383.0481353001669,None,,,,,,,py,2022_May_06_1748,training+cueing,2021.1.4,59.95085232182514,
Stranger.png,Friend,Stranger,m,2.3,17,27,97,,,,,0,0,0,0,,,,,8,7,103,7,,,,,,,,,,,,,,,,,,,,,1.695,1.274,384.68683600006625,None,,,,,,,,,,,,,,,,,,,,385.23040140001103,385.7334167000372,0.5058184997178614,1.0061276997439563,385.7167317001149,385.83346890006214,385.7167317001149,385.83346890006214,385.8167938000988,None,None,0,,385.8167938000988,None,,,,,,,py,2022_May_06_1748,training+cueing,2021.1.4,59.95085232182514,
Friend.png,Friend,Friend,c,2,12,22,92,,,,,0,0,0,0,,,,,8,8,104,4,,,,,,,,,,,,,,,,,,,,,1.681,2.15,387.62254150002263,None,,,,,,,,,,,,,,,,,,,,388.16282050008886,388.66889590001665,0.5097322000656277,1.010322199901566,388.65220240014605,388.76909260009415,388.65220240014605,388.76909260009415,388.7524077000562,None,c,1,1.3868366000242531,388.7524077000562,None,,,,,,,py,2022_May_06_1748,training+cueing,2021.1.4,59.95085232182514,
Friend.png,You,Friend,m,1.2,14,24,94,,,,,0,0,0,0,,,,,8,9,105,3,,,,,,,,,,,,,,,,,,,,,1.403,1.547,390.2772731001023,None,,,,,,,,,,,,,,,,,,,,390.83573090005666,391.3374586000573,0.504543999908492,1.005455399863422,391.3207930000499,391.4208580001723,391.3207930000499,391.4208580001723,391.4208580001723,None,m,1,1.3422071000095457,391.4208580001723,None,,,,,,,py,2022_May_06_1748,training+cueing,2021.1.4,59.95085232182514,
Stranger.png,You,Stranger,m,1.3,15,25,95,,,,,0,0,0,0,,,,,8,10,106,6,,,,,,,,,,,,,,,,,,,,,1.488,2.076,392.89377050008625,None,,,,,,,,,,,,,,,,,,,,393.4322427001316,393.93938290001824,0.5140812997706234,1.014370899880305,393.9226668002084,394.02279830002226,393.9226668002084,394.02279830002226,394.02279830002226,None,None,0,,394.02279830002226,None,,,,,,,py,2022_May_06_1748,training+cueing,2021.1.4,59.95085232182514,
Self.png,Stranger,Self ,m,3.1,18,28,98,,,,,0,0,0,0,,,,,8,11,107,2,,,,,,,,,,,,,,,,,,,,,1.405,2.404,395.6306268000044,None,,,,,,,,,,,,,,,,,,,,396.1706135000568,396.67465990013443,0.5055088999215513,1.0057959998957813,396.65796890016645,396.77471420005895,396.65796890016645,396.77471420005895,396.7580037000589,None,m,1,1.38116760016419,396.7580037000589,None,,,,,,,py,2022_May_06_1748,training+cueing,2021.1.4,59.95085232182514,
Friend.png,You,Friend,m,1.2,14,24,94,,,,,0,0,0,0,,,,,9,0,108,3,,,,,,,,,,,,,,,,,,,,,1.503,1.534,398.2657718001865,None,,,,,,,,,,,,,,,,,,,,398.8062686000485,399.3099376000464,0.5068959000054747,1.0071884000208229,399.2932407001499,399.393324600067,399.2932407001499,399.393324600067,399.393324600067,None,m,1,0.9537866997998208,399.393324600067,None,,,,,,,py,2022_May_06_1748,training+cueing,2021.1.4,59.95085232182514,
Stranger.png,Stranger,Stranger,c,3,13,23,93,,,,,0,0,0,0,,,,,9,1,109,8,,,,,,,,,,,,,,,,,,,,,1.474,1.791,400.48383420007303,None,,,,,,,,,,,,,,,,,,,,401.02660270011984,401.52814770000987,0.5053013002034277,1.005561700090766,401.5115294000134,401.6282387000974,401.5115294000134,401.6282387000974,401.6115738002118,None,None,0,,401.6115738002118,None,,,,,,,py,2022_May_06_1748,training+cueing,2021.1.4,59.95085232182514,
Self.png,Friend,Self ,m,2.1,16,26,96,,,,,0,0,0,0,,,,,9,2,110,1,,,,,,,,,,,,,,,,,,,,,1.439,1.799,403.1996708000079,None,,,,,,,,,,,,,,,,,,,,403.74328850000165,404.24682820006274,0.5053854996804148,1.0057299996260554,404.2301482001785,404.34686080017127,404.2301482001785,404.34686080017127,404.33018720010296,None,m,1,0.8648347000125796,404.33018720010296,None,,,,,,,py,2022_May_06_1748,training+cueing,2021.1.4,59.95085232182514,
Friend.png,Stranger,Friend,m,3.2,19,29,99,,,,,0,0,0,0,,,,,9,3,111,5,,,,,,,,,,,,,,,,,,,,,1.662,1.606,405.3211115000304,None,,,,,,,,,,,,,,,,,,,,405.8743442001287,406.3816968000028,0.5147362998686731,1.0149794998578727,406.3650649001356,406.481706000166,406.3650649001356,406.481706000166,406.4650463000871,None,m,1,1.5620365999639034,406.4650463000871,None,,,,,,,py,2022_May_06_1748,training+cueing,2021.1.4,59.95085232182514,
Stranger.png,Stranger,Stranger,c,3,13,23,93,,,,,0,0,0,0,,,,,9,4,112,11,,,,,,,,,,,,,,,,,,,,,1.795,2.021,408.1563121001236,None,,,,,,,,,,,,,,,,,,,,408.6943322001025,409.2004301000852,0.5106384996324778,1.0115330996923149,409.18373650009744,409.30046170018613,409.18373650009744,409.30046170018613,409.2837198001798,None,c,1,0.935588400112465,409.2837198001798,None,,,,,,,py,2022_May_06_1748,training+cueing,2021.1.4,59.95085232182514,
Self.png,Stranger,Self ,m,3.1,18,28,98,,,,,0,0,0,0,,,,,9,5,113,2,,,,,,,,,,,,,,,,,,,,,1.579,1.657,410.34393310011365,None,,,,,,,,,,,,,,,,,,,,410.8826264999807,411.38530370010994,0.506175999995321,1.0070602998603135,411.36864740005694,411.48590319999494,411.36864740005694,411.48590319999494,411.4686594000086,None,m,1,0.8465565000660717,411.4686594000086,None,,,,,,,py,2022_May_06_1748,training+cueing,2021.1.4,59.95085232182514,
Stranger.png,You,Stranger,m,1.3,15,25,95,,,,,0,0,0,0,,,,,9,6,114,6,,,,,,,,,,,,,,,,,,,,,1.731,1.257,412.44341310020536,None,,,,,,,,,,,,,,,,,,,,412.98528510006145,413.4868065000046,0.5036989999935031,1.0039794999174774,413.47017760016024,413.5701951000374,413.47017760016024,413.5701951000374,413.5701951000374,None,m,1,0.7449064999818802,413.5701951000374,None,,,,,,,py,2022_May_06_1748,training+cueing,2021.1.4,59.95085232182514,
Friend.png,Friend,Friend,c,2,12,22,92,,,,,0,0,0,0,,,,,9,7,115,10,,,,,,,,,,,,,,,,,,,,,1.469,1.802,414.4435005001724,None,,,,,,,,,,,,,,,,,,,,414.99163840012625,415.5049554000143,0.5091165998019278,1.0098630997817963,415.4882927001454,415.6050095001701,415.4882927001454,415.6050095001701,415.58830610010773,None,c,1,0.9028489999473095,415.58830610010773,None,,,,,,,py,2022_May_06_1748,training+cueing,2021.1.4,59.95085232182514,
Self.png,You,Self ,c,1,11,21,91,,,,,0,0,0,0,,,,,9,8,116,9,,,,,,,,,,,,,,,,,,,,,1.548,1.417,416.6293624001555,None,,,,,,,,,,,,,,,,,,,,417.17497729999013,417.6900636001956,0.5120835998095572,1.012709999922663,417.67274680011906,417.77322060009465,417.67274680011906,417.77322060009465,417.77322060009465,None,c,1,1.2939444000367075,417.77322060009465,None,,,,,,,py,2022_May_06_1748,training+cueing,2021.1.4,59.95085232182514,
Stranger.png,Friend,Stranger,m,2.3,17,27,97,,,,,0,0,0,0,,,,,9,9,117,7,,,,,,,,,,,,,,,,,,,,,1.489,2.462,419.1969283001963,None,,,,,,,,,,,,,,,,,,,,419.74054890009575,420.2416968999896,0.5031432998366654,1.003398799803108,420.22505380003713,420.3417307001073,420.22505380003713,420.3417307001073,420.3250845000148,None,None,0,,420.3250845000148,None,,,,,,,py,2022_May_06_1748,training+cueing,2021.1.4,59.95085232182514,
Friend.png,Friend,Friend,c,2,12,22,92,,,,,0,0,0,0,,,,,9,10,118,4,,,,,,,,,,,,,,,,,,,,,1.632,1.223,421.93010340002365,None,,,,,,,,,,,,,,,,,,,,422.4731360001024,422.97704800008796,0.5056113000027835,1.0059707998298109,422.9603271000087,423.07709020003676,422.9603271000087,423.07709020003676,423.0604266000446,None,c,1,1.1425530000124127,423.0604266000446,None,,,,,,,py,2022_May_06_1748,training+cueing,2021.1.4,59.95085232182514,
Self.png,You,Self ,c,1,11,21,91,,,,,0,0,0,0,,,,,9,11,119,0,,,,,,,,,,,,,,,,,,,,,1.696,1.862,424.3347766001243,None,,,,,,,,,,,,,,,,,,,,424.8775927000679,425.3787829000503,0.502087599830702,1.0023089998867363,425.3621209000703,425.46212630020455,425.3621209000703,425.46212630020455,425.46212630020455,None,c,1,0.6930181998759508,425.46212630020455,None,,,,,,,py,2022_May_06_1748,training+cueing,2021.1.4,59.95085232182514,
,,,,,,,,,,,,0,0,0,0,,,,,,,,,,,,,,,,,,,,,,,,,,,,,,,,,,,,,,,,,,,,,,,,,,,,,,,,,,,,,,,,,,,0.001579000148922205,None,,,,,py,2022_May_06_1748,training+cueing,2021.1.4,59.95085232182514,
Self.png,Friend,Self ,m,2.1,16,26,96,,,,,1,0,1,0,0,0,0,1,,,,,,,,,,,,,,,,,426.79703480005264,None,space,0.7018067999742925,2.013861699961126,None,429.49859079997987,None,1.623,1.907,432.5102132000029,None,433.0479774000123,433.55130070005544,433.53466040012427,433.65160260000266,433.53466040012427,433.65160260000266,433.63467060006224,None,m,1,0.8083910001441836,433.63467060006224,None,434.46774580003694,None,,,,,,,,,,,,,,,,,,,,,,,,,,py,2022_May_06_1748,training+cueing,2021.1.4,59.95085232182514,
Self.png,Stranger,Self ,m,3.1,18,28,98,,,,,1,0,1,0,0,1,1,2,,,,,,,,,,,,,,,,,,,,,,,,,1.696,1.556,434.86909699998796,None,435.4122973000631,435.9197147001978,435.90302520012483,436.01975780003704,435.90302520012483,436.01975780003704,436.0030579001177,None,m,1,0.8080335999839008,436.0030579001177,None,436.83705170010217,None,,,,,,,,,,,,,,,,,,,,,,,,,,py,2022_May_06_1748,training+cueing,2021.1.4,59.95085232182514,
Friend.png,Friend,Friend,c,2,12,22,92,,,,,1,0,1,0,0,2,2,4,,,,,,,,,,,,,,,,,,,,,,,,,1.493,1.866,437.2378816001583,None,437.78021140000783,438.288102600025,438.27139320014976,438.38815980008803,438.27139320014976,438.38815980008803,438.371482900111,None,c,1,0.8234483001288027,438.371482900111,None,439.22213090001605,None,,,,,,,,,,,,,,,,,,,,,,,,,,py,2022_May_06_1748,training+cueing,2021.1.4,59.95085232182514,
Friend.png,Friend,Friend,c,2,12,22,92,,,,,1,0,1,0,0,3,3,10,,,,,,,,,,,,,,,,,,,,,,,,,1.565,1.567,439.6224379001651,None,440.1570338001475,440.65647090016864,440.65647090016864,440.75653460016474,440.65647090016864,440.75653460016474,440.75653460016474,None,None,0,,440.75653460016474,None,442.3233053002041,None,,,,,,,,,,,,,,,,,,,,,,,,,,py,2022_May_06_1748,training+cueing,2021.1.4,59.95085232182514,
Friend.png,You,Friend,m,1.2,14,24,94,,,,,1,0,1,0,0,4,4,3,,,,,,,,,,,,,,,,,,,,,,,,,1.471,1.856,442.7248184001073,None,443.2682423000224,443.7754062002059,443.7587541001849,443.85880540008657,443.7587541001849,443.85880540008657,443.85880540008657,None,m,1,1.2082514998037368,443.85880540008657,None,445.09208370000124,None,,,,,,,,,,,,,,,,,,,,,,,,,,py,2022_May_06_1748,training+cueing,2021.1.4,59.95085232182514,
Self.png,You,Self ,c,1,11,21,91,,,,,1,0,1,0,0,5,5,0,,,,,,,,,,,,,,,,,,,,,,,,,1.458,1.221,445.493368400028,None,446.0290674001444,446.5440784001257,446.5273996000178,446.6274577002041,446.5273996000178,446.6274577002041,446.6274577002041,None,c,1,1.3036509999074042,446.6274577002041,None,447.9602144001983,None,,,,,,,,,,,,,,,,,,,,,,,,,,py,2022_May_06_1748,training+cueing,2021.1.4,59.95085232182514,
Stranger.png,Stranger,Stranger,c,3,13,23,93,,,,,1,0,1,0,0,6,6,8,,,,,,,,,,,,,,,,,,,,,,,,,1.617,2.004,448.3621739000082,None,448.90412389999256,449.41280160006136,449.396175700007,449.5128650001716,449.396175700007,449.5128650001716,449.49615000002086,None,None,0,,449.49615000002086,None,451.11213530017994,None,,,,,,,,,,,,,,,,,,,,,,,,,,py,2022_May_06_1748,training+cueing,2021.1.4,59.95085232182514,
Friend.png,Stranger,Friend,m,3.2,19,29,99,,,,,1,0,1,0,0,7,7,5,,,,,,,,,,,,,,,,,,,,,,,,,1.572,1.584,451.5143254001159,None,452.0470352000557,452.54845930007286,452.53189910016954,452.64843450021,452.53189910016954,452.64843450021,452.63181450008415,None,m,1,1.315134899923578,452.63181450008415,None,453.9647100002039,None,,,,,,,,,,,,,,,,,,,,,,,,,,py,2022_May_06_1748,training+cueing,2021.1.4,59.95085232182514,
Self.png,You,Self ,c,1,11,21,91,,,,,1,0,1,0,0,8,8,9,,,,,,,,,,,,,,,,,,,,,,,,,1.407,1.827,454.3664106000215,None,454.90036620013416,455.4004975000862,455.4004975000862,455.50053090020083,455.4004975000862,455.50053090020083,455.50053090020083,None,c,1,0.7826487000565976,455.50053090020083,None,456.3064049000386,None,,,,,,,,,,,,,,,,,,,,,,,,,,py,2022_May_06_1748,training+cueing,2021.1.4,59.95085232182514,
Stranger.png,Stranger,Stranger,c,3,13,23,93,,,,,1,0,1,0,0,9,9,11,,,,,,,,,,,,,,,,,,,,,,,,,1.667,2.381,456.71819719998166,None,457.2563773000147,457.76885980018415,457.7522990000434,457.8694602001924,457.7522990000434,457.8694602001924,457.8527507002,None,c,1,0.8462763000279665,457.8527507002,None,458.7180533001665,None,,,,,,,,,,,,,,,,,,,,,,,,,,py,2022_May_06_1748,training+cueing,2021.1.4,59.95085232182514,
Stranger.png,Friend,Stranger,m,2.3,17,27,97,,,,,1,0,1,0,0,10,10,7,,,,,,,,,,,,,,,,,,,,,,,,,1.563,1.448,459.1203567001503,None,459.6601379001513,460.17060170019977,460.1539021001663,460.2706365000922,460.1539021001663,460.2706365000922,460.25393850007094,None,m,1,1.1810516000259668,460.25393850007094,None,461.4548712000251,None,,,,,,,,,,,,,,,,,,,,,,,,,,py,2022_May_06_1748,training+cueing,2021.1.4,59.95085232182514,
Stranger.png,You,Stranger,m,1.3,15,25,95,,,,,1,0,1,0,0,11,11,6,,,,,,,,,,,,,,,,,,,,,,,,,1.705,2.405,461.85512430011295,None,462.38964330009185,462.88922600005753,462.88922600005753,462.98927650018595,462.88922600005753,462.98927650018595,462.98927650018595,None,m,1,0.8457570997998118,462.98927650018595,None,463.85675070015714,None,,,,,,,,,,,,,,,,,,,,,,,,,,py,2022_May_06_1748,training+cueing,2021.1.4,59.95085232182514,
Stranger.png,Friend,Stranger,m,2.3,17,27,97,,,,,1,0,1,0,,,,,0,0,0,7,,,,,,,,,,,,,,,,,,,477.8328962000087,None,1.573,1.926,481.3560874001123,None,,,,,,,,,,,,,,,,464.25742180016823,None,0.01464460021816194,0.5132483001798391,481.90194860007614,482.40349890012294,0.5047254997771233,1.0048821999225765,482.3868135001976,482.5035319000017,482.3868135001976,482.5035319000017,482.4868368001189,None,m,1,1.0924112999346107,482.4868368001189,None,,,,,,,py,2022_May_06_1748,training+cueing,2021.1.4,59.95085232182514,
Self.png,Stranger,Self ,m,3.1,18,28,98,,,,,1,0,1,0,,,,,0,1,1,2,,,,,,,,,,,,,,,,,,,,,1.479,1.475,483.71681520016864,None,,,,,,,,,,,,,,,,,,,,484.27017770009115,484.77175700012594,0.5045483999419957,1.0047953999601305,484.7550522000529,484.8717734001111,484.7550522000529,484.8717734001111,484.8550592001993,None,m,1,0.7399114998988807,484.8550592001993,None,,,,,,,py,2022_May_06_1748,training+cueing,2021.1.4,59.95085232182514,
Self.png,You,Self ,c,1,11,21,91,,,,,1,0,1,0,,,,,0,2,2,9,,,,,,,,,,,,,,,,,,,,,1.476,1.551,485.7285348000005,None,,,,,,,,,,,,,,,,,,,,486.2702095999848,486.77319240011275,0.5033867999445647,1.0036615000572056,486.7565068001859,486.8565474001225,486.7565068001859,486.8565474001225,486.8565474001225,None,c,1,0.5464413000736386,486.8565474001225,None,,,,,,,py,2022_May_06_1748,training+cueing,2021.1.4,59.95085232182514,
Self.png,You,Self ,c,1,11,21,91,,,,,1,0,1,0,,,,,0,3,3,0,,,,,,,,,,,,,,,,,,,,,1.792,2.194,487.52969650016166,None,,,,,,,,,,,,,,,,,,,,488.07117400015704,488.57449440006167,0.5067692999728024,1.0070819000247866,488.55777090019546,488.65783200017177,488.55777090019546,488.65783200017177,488.65783200017177,None,c,1,0.47314220014959574,488.65783200017177,None,,,,,,,py,2022_May_06_1748,training+cueing,2021.1.4,59.95085232182514,
Stranger.png,You,Stranger,m,1.3,15,25,95,,,,,1,0,1,0,,,,,0,4,4,6,,,,,,,,,,,,,,,,,,,,,1.535,1.207,489.2640750000719,None,,,,,,,,,,,,,,,,,,,,489.80205200007185,490.3090698001906,0.5119018000550568,1.0119606999214739,490.2925681001507,490.3924193000421,490.2925681001507,490.3924193000421,490.3924193000421,None,m,1,0.7868145999964327,490.3924193000421,None,,,,,,,py,2022_May_06_1748,training+cueing,2021.1.4,59.95085232182514,
Stranger.png,Stranger,Stranger,c,3,13,23,93,,,,,1,0,1,0,,,,,0,5,5,11,,,,,,,,,,,,,,,,,,,,,1.497,2.314,491.32013940019533,None,,,,,,,,,,,,,,,,,,,,491.86189180007204,492.3771876001265,0.5144768997561187,1.014734799740836,492.36056040017866,492.47726460010745,492.36056040017866,492.47726460010745,492.4605807000771,None,c,1,0.7185220001265407,492.4605807000771,None,,,,,,,py,2022_May_06_1748,training+cueing,2021.1.4,59.95085232182514,
Friend.png,Friend,Friend,c,2,12,22,92,,,,,1,0,1,0,,,,,0,6,6,4,,,,,,,,,,,,,,,,,,,,,1.625,1.245,493.30377250001766,None,,,,,,,,,,,,,,,,,,,,493.8453930001706,494.3452892000787,0.5011972000356764,1.001561500132084,494.3286447999999,494.4453479000367,494.3286447999999,494.4453479000367,494.4453479000367,None,c,1,0.9576332999859005,494.4453479000367,None,,,,,,,py,2022_May_06_1748,training+cueing,2021.1.4,59.95085232182514,
Stranger.png,Stranger,Stranger,c,3,13,23,93,,,,,1,0,1,0,,,,,0,7,7,8,,,,,,,,,,,,,,,,,,,,,1.547,2.148,495.53569840011187,None,,,,,,,,,,,,,,,,,,,,496.07618930004537,496.58025730005465,0.5071567001286894,1.0074537000618875,496.5636060000397,496.68028400000185,496.5636060000397,496.68028400000185,496.66360760014504,None,c,1,1.1396357000339776,496.66360760014504,None,,,,,,,py,2022_May_06_1748,training+cueing,2021.1.4,59.95085232182514,
Friend.png,You,Friend,m,1.2,14,24,94,,,,,1,0,1,0,,,,,0,8,8,3,,,,,,,,,,,,,,,,,,,,,1.685,1.419,497.9379642000422,None,,,,,,,,,,,,,,,,,,,,498.5089491000399,499.0153793999925,0.5002781001385301,0.9970901003107429,498.9987095000688,499.09873890015297,498.9987095000688,499.09873890015297,499.09873890015297,None,m,1,1.200167200062424,499.09873890015297,None,,,,,,,py,2022_May_06_1748,training+cueing,2021.1.4,59.95085232182514,
Friend.png,Friend,Friend,c,2,12,22,92,,,,,1,0,1,0,,,,,0,9,9,10,,,,,,,,,,,,,,,,,,,,,1.617,1.281,500.4221606000792,None,,,,,,,,,,,,,,,,,,,,500.96573030017316,501.4671273001004,0.5022420999594033,1.0031363999005407,501.45043990015984,501.5672023000661,501.45043990015984,501.5672023000661,501.55047170002945,None,c,1,0.7005557999946177,501.55047170002945,None,,,,,,,py,2022_May_06_1748,training+cueing,2021.1.4,59.95085232182514,
Friend.png,Stranger,Friend,m,3.2,19,29,99,,,,,1,0,1,0,,,,,0,10,10,5,,,,,,,,,,,,,,,,,,,,,1.411,1.729,502.3753067001235,None,,,,,,,,,,,,,,,,,,,,502.9151302999817,503.41871250001714,0.5047188000753522,1.0050616001244634,503.40199510008097,503.51886880001985,503.40199510008097,503.51886880001985,503.50221300008707,None,m,1,0.7807092999573797,503.50221300008707,None,,,,,,,py,2022_May_06_1748,training+cueing,2021.1.4,59.95085232182514,
Self.png,Friend,Self ,m,2.1,16,26,96,,,,,1,0,1,0,,,,,0,11,11,1,,,,,,,,,,,,,,,,,,,,,1.433,1.496,504.40978330001235,None,,,,,,,,,,,,,,,,,,,,504.95238990010694,505.45338190020993,0.5026954999193549,1.002945200074464,505.4366790000349,505.5534006000962,505.4366790000349,505.5534006000962,505.536698800046,None,m,1,1.3383781998418272,505.536698800046,None,,,,,,,py,2022_May_06_1748,training+cueing,2021.1.4,59.95085232182514,
Friend.png,You,Friend,m,1.2,14,24,94,,,,,1,0,1,0,,,,,1,0,12,3,,,,,,,,,,,,,,,,,,,,,1.713,1.681,507.0117883000057,None,,,,,,,,,,,,,,,,,,,,507.553413100075,508.05521490005776,0.503006000071764,1.0032858001068234,508.0385650000535,508.13858310016803,508.0385650000535,508.13858310016803,508.13858310016803,None,m,1,0.7044208999723196,508.13858310016803,None,,,,,,,py,2022_May_06_1748,training+cueing,2021.1.4,59.95085232182514,
Friend.png,Stranger,Friend,m,3.2,19,29,99,,,,,1,0,1,0,,,,,1,1,13,5,,,,,,,,,,,,,,,,,,,,,1.555,1.842,508.9792329000775,None,,,,,,,,,,,,,,,,,,,,509.5221167001873,510.0233032000251,0.5017839998472482,1.0021987999789417,510.00664660008624,510.1234490000643,510.00664660008624,510.1234490000643,510.10677570011467,None,m,1,1.1042372998781502,510.10677570011467,None,,,,,,,py,2022_May_06_1748,training+cueing,2021.1.4,59.95085232182514,
Stranger.png,You,Stranger,m,1.3,15,25,95,,,,,1,0,1,0,,,,,1,2,14,6,,,,,,,,,,,,,,,,,,,,,1.693,1.367,511.3471150000114,None,,,,,,,,,,,,,,,,,,,,511.89001150010154,512.3917718001176,0.5041938002686948,1.0044537002686411,512.3750601001084,512.4750722001772,512.3750601001084,512.4750722001772,512.4750722001772,None,m,1,0.767889800015837,512.4750722001772,None,,,,,,,py,2022_May_06_1748,training+cueing,2021.1.4,59.95085232182514,
Stranger.png,Friend,Stranger,m,2.3,17,27,97,,,,,1,0,1,0,,,,,1,3,15,7,,,,,,,,,,,,,,,,,,,,,1.589,2.311,513.3653820001055,None,,,,,,,,,,,,,,,,,,,,513.9042301001027,514.4098233000841,0.5085038999095559,1.0087772000115365,514.3931529000401,514.5098914001137,514.3931529000401,514.5098914001137,514.493195099989,None,m,1,0.9897445000242442,514.493195099989,None,,,,,,,py,2022_May_06_1748,training+cueing,2021.1.4,59.95085232182514,
Stranger.png,Stranger,Stranger,c,3,13,23,93,,,,,1,0,1,0,,,,,1,4,16,8,,,,,,,,,,,,,,,,,,,,,1.559,1.48,515.6168214001227,None,,,,,,,,,,,,,,,,,,,,516.1612572001759,516.6614375000354,0.5017348998226225,1.0020442998502403,516.6447819999885,516.7614937000908,516.6447819999885,516.7614937000908,516.7448079001624,None,m,0,0.8342459001578391,516.7448079001624,None,,,,,,,py,2022_May_06_1748,training+cueing,2021.1.4,59.95085232182514,
Self.png,You,Self ,c,1,11,21,91,,,,,1,0,1,0,,,,,1,5,17,9,,,,,,,,,,,,,,,,,,,,,1.411,2.452,517.7011659001,None,,,,,,,,,,,,,,,,,,,,518.2618317001034,518.7631864000577,0.5054084998555481,1.0056244998704642,518.7464471000712,518.8464655000716,518.7464471000712,518.8464655000716,518.8464655000716,None,c,1,0.8605416000355035,518.8464655000716,None,,,,,,,py,2022_May_06_1748,training+cueing,2021.1.4,59.95085232182514,
Self.png,Friend,Self ,m,2.1,16,26,96,,,,,1,0,1,0,,,,,1,6,18,1,,,,,,,,,,,,,,,,,,,,,1.6,1.897,519.8364874001127,None,,,,,,,,,,,,,,,,,,,,520.399723400129,520.9145913000684,0.5135733000934124,1.0138583001680672,520.8979782999959,521.0147096000146,520.8979782999959,521.0147096000146,520.9980305000208,None,m,1,0.9489643000997603,520.9980305000208,None,,,,,,,py,2022_May_06_1748,training+cueing,2021.1.4,59.95085232182514,
Friend.png,Friend,Friend,c,2,12,22,92,,,,,1,0,1,0,,,,,1,7,19,10,,,,,,,,,,,,,,,,,,,,,1.753,1.433,522.071647600038,None,,,,,,,,,,,,,,,,,,,,522.6128648000304,523.1167180000339,0.5067383998539299,1.007170599885285,523.099463700084,523.2163750000764,523.099463700084,523.2163750000764,523.1996053000912,None,c,1,0.907508899923414,523.1996053000912,None,,,,,,,py,2022_May_06_1748,training+cueing,2021.1.4,59.95085232182514,
Self.png,Stranger,Self ,m,3.1,18,28,98,,,,,1,0,1,0,,,,,1,8,20,2,,,,,,,,,,,,,,,,,,,,,1.775,1.245,524.2409190000035,None,,,,,,,,,,,,,,,,,,,,524.7829434000887,525.2845184002072,0.5010618998203427,1.0013549998402596,525.2676812000573,525.3844127000775,525.2676812000573,525.3844127000775,525.3844127000775,None,m,1,0.9144227998331189,525.3844127000775,None,,,,,,,py,2022_May_06_1748,training+cueing,2021.1.4,59.95085232182514,
Friend.png,Friend,Friend,c,2,12,22,92,,,,,1,0,1,0,,,,,1,9,21,4,,,,,,,,,,,,,,,,,,,,,1.48,1.712,526.4244827001821,None,,,,,,,,,,,,,,,,,,,,526.9677819001954,527.4692540999968,0.5034295998048037,1.0037101998459548,527.452602900099,527.569313300075,527.452602900099,527.569313300075,527.5526403000113,None,c,1,1.130207700189203,527.5526403000113,None,,,,,,,py,2022_May_06_1748,training+cueing,2021.1.4,59.95085232182514,
Stranger.png,Stranger,Stranger,c,3,13,23,93,,,,,1,0,1,0,,,,,1,10,22,11,,,,,,,,,,,,,,,,,,,,,1.651,1.474,528.8097231001593,None,,,,,,,,,,,,,,,,,,,,529.390229600016,529.9043875001371,0.512370000127703,1.0126694000791758,529.8876792001538,530.0043747001328,529.8876792001538,530.0043747001328,529.9877028001938,None,c,1,0.5673066999297589,529.9877028001938,None,,,,,,,py,2022_May_06_1748,training+cueing,2021.1.4,59.95085232182514,
Self.png,You,Self ,c,1,11,21,91,,,,,1,0,1,0,,,,,1,11,23,0,,,,,,,,,,,,,,,,,,,,,1.788,1.892,530.6777161001228,None,,,,,,,,,,,,,,,,,,,,531.2209178002086,531.7223436001223,0.5023267997894436,1.002661599777639,531.705650200136,531.805695499992,531.705650200136,531.805695499992,531.805695499992,None,c,1,1.0212822000030428,531.805695499992,None,,,,,,,py,2022_May_06_1748,training+cueing,2021.1.4,59.95085232182514,
Stranger.png,You,Stranger,m,1.3,15,25,95,,,,,1,0,1,0,,,,,2,0,24,6,,,,,,,,,,,,,,,,,,,,,1.696,1.519,532.9630671001505,None,,,,,,,,,,,,,,,,,,,,533.5043946001679,534.0073534999974,0.5072866000700742,1.007768000010401,533.9906727999914,534.0907459000591,533.9906727999914,534.0907459000591,534.0907459000591,None,m,1,1.1202327001374215,534.0907459000591,None,,,,,,,py,2022_May_06_1748,training+cueing,2021.1.4,59.95085232182514,
Self.png,You,Self ,c,1,11,21,91,,,,,1,0,1,0,,,,,2,1,25,0,,,,,,,,,,,,,,,,,,,,,1.723,1.795,535.348948800005,None,,,,,,,,,,,,,,,,,,,,535.8998722000979,536.4091059002094,0.5020124998409301,1.0021176999434829,536.3925409000367,536.4924455001019,536.3925409000367,536.4924455001019,536.4924455001019,None,c,1,0.8464971000794321,536.4924455001019,None,,,,,,,py,2022_May_06_1748,training+cueing,2021.1.4,59.95085232182514,
Friend.png,Friend,Friend,c,2,12,22,92,,,,,1,0,1,0,,,,,2,2,26,4,,,,,,,,,,,,,,,,,,,,,1.455,2.264,537.4659496999811,None,,,,,,,,,,,,,,,,,,,,538.0077145001851,538.5105985000264,0.5043464000336826,1.0046256000641733,538.4939332001377,538.6106478001457,538.4939332001377,538.6106478001457,538.5939573000651,None,c,1,0.904938800027594,538.5939573000651,None,,,,,,,py,2022_May_06_1748,training+cueing,2021.1.4,59.95085232182514,
Stranger.png,Stranger,Stranger,c,3,13,23,93,,,,,1,0,1,0,,,,,2,3,27,11,,,,,,,,,,,,,,,,,,,,,1.664,1.215,539.6339136001188,None,,,,,,,,,,,,,,,,,,,,540.1792543001939,540.6788245001808,0.49933780007995665,0.9996207999065518,540.6621472002007,540.7788551000413,540.6621472002007,540.7788551000413,540.7788551000413,None,c,1,0.7680466000456363,540.7788551000413,None,,,,,,,py,2022_May_06_1748,training+cueing,2021.1.4,59.95085232182514,
Friend.png,Friend,Friend,c,2,12,22,92,,,,,1,0,1,0,,,,,2,4,28,10,,,,,,,,,,,,,,,,,,,,,1.543,2.298,541.6692284999881,None,,,,,,,,,,,,,,,,,,,,542.2255085001234,542.7303251000121,0.5075872000306845,1.0078666999470443,542.7136737001128,542.8303706999868,542.7136737001128,542.8303706999868,542.8136911001056,None,m,0,1.46935010002926,542.8136911001056,None,,,,,,,py,2022_May_06_1748,training+cueing,2021.1.4,59.95085232182514,
Self.png,Friend,Self ,m,2.1,16,26,96,,,,,1,0,1,0,,,,,2,5,29,1,,,,,,,,,,,,,,,,,,,,,1.657,2.285,544.4221736001782,None,,,,,,,,,,,,,,,,,,,,544.964453099994,545.4655911000445,0.5024917998816818,1.0029608998447657,545.4489651001059,545.5656648001168,545.4489651001059,545.5656648001168,545.5489900000393,None,m,1,0.8459181999787688,545.5489900000393,None,,,,,,,py,2022_May_06_1748,training+cueing,2021.1.4,59.95085232182514,
Stranger.png,Friend,Stranger,m,2.3,17,27,97,,,,,1,0,1,0,,,,,2,6,30,7,,,,,,,,,,,,,,,,,,,,,1.736,2.187,546.5233629001305,None,,,,,,,,,,,,,,,,,,,,547.0652140001766,547.5671450002119,0.5047271999064833,1.005066999932751,547.550468100002,547.6671601000708,547.550468100002,547.6671601000708,547.6504975000862,None,c,0,0.6804400000255555,547.6504975000862,None,,,,,,,py,2022_May_06_1748,training+cueing,2021.1.4,59.95085232182514,
Stranger.png,Stranger,Stranger,c,3,13,23,93,,,,,1,0,1,0,,,,,2,7,31,8,,,,,,,,,,,,,,,,,,,,,1.756,1.869,548.457590200007,None,,,,,,,,,,,,,,,,,,,,549.0133488001302,549.5185722000897,0.5118100999388844,1.0120543001685292,549.5019035001751,549.6186719001271,549.5019035001751,549.6186719001271,549.6018974999897,None,c,1,1.0969066999386996,549.6018974999897,None,,,,,,,py,2022_May_06_1748,training+cueing,2021.1.4,59.95085232182514,
Self.png,You,Self ,c,1,11,21,91,,,,,1,0,1,0,,,,,2,8,32,9,,,,,,,,,,,,,,,,,,,,,1.535,1.608,550.8256733000744,None,,,,,,,,,,,,,,,,,,,,551.3688364999834,551.8702499000356,0.502281799679622,1.0027479997370392,551.8535835000221,551.953631500015,551.8535835000221,551.953631500015,551.953631500015,None,c,1,1.0174781000241637,551.953631500015,None,,,,,,,py,2022_May_06_1748,training+cueing,2021.1.4,59.95085232182514,
Friend.png,Stranger,Friend,m,3.2,19,29,99,,,,,1,0,1,0,,,,,2,9,33,5,,,,,,,,,,,,,,,,,,,,,1.566,1.559,553.094977900153,None,,,,,,,,,,,,,,,,,,,,553.6512510001194,554.1552995999809,0.5079119997099042,1.0083924997597933,554.1385522000492,554.255307600135,554.1385522000492,554.255307600135,554.2385956000071,None,None,0,,554.2385956000071,None,,,,,,,py,2022_May_06_1748,training+cueing,2021.1.4,59.95085232182514,
Friend.png,You,Friend,m,1.2,14,24,94,,,,,1,0,1,0,,,,,2,10,34,3,,,,,,,,,,,,,,,,,,,,,1.707,2.428,555.9102455000393,None,,,,,,,,,,,,,,,,,,,,556.4553123000078,556.9572486001998,0.5030830001924187,1.0034084001090378,556.9405840002,557.040648400085,556.9405840002,557.040648400085,557.040648400085,None,m,1,0.8582665999419987,557.040648400085,None,,,,,,,py,2022_May_06_1748,training+cueing,2021.1.4,59.95085232182514,
Self.png,Stranger,Self ,m,3.1,18,28,98,,,,,1,0,1,0,,,,,2,11,35,2,,,,,,,,,,,,,,,,,,,,,1.738,2.267,558.0310017000884,None,,,,,,,,,,,,,,,,,,,,558.5745759001002,559.0755214001983,0.5027487000916153,1.0029873000457883,559.0588238001801,559.1754992001224,559.0588238001801,559.1754992001224,559.1588259001728,None,m,1,0.8203209999483079,559.1588259001728,None,,,,,,,py,2022_May_06_1748,training+cueing,2021.1.4,59.95085232182514,
Stranger.png,Friend,Stranger,m,2.3,17,27,97,,,,,1,0,1,0,,,,,3,0,36,7,,,,,,,,,,,,,,,,,,,,,1.656,1.706,560.1187572001945,None,,,,,,,,,,,,,,,,,,,,560.6603469001129,561.1603248000611,0.5144094000570476,1.0146882000844926,561.1603248000611,561.2603711001575,561.1603248000611,561.2603711001575,561.2603711001575,None,m,1,1.390740199945867,561.2603711001575,None,,,,,,,py,2022_May_06_1748,training+cueing,2021.1.4,59.95085232182514,
Stranger.png,Stranger,Stranger,c,3,13,23,93,,,,,1,0,1,0,,,,,3,1,37,8,,,,,,,,,,,,,,,,,,,,,1.795,2.182,562.7879167001229,None,,,,,,,,,,,,,,,,,,,,563.3307406001259,563.8455920000561,0.5124532000627369,1.0126816001720726,563.8289608000778,563.9456702000462,563.8289608000778,563.9456702000462,563.929121500114,None,c,1,0.8017964998725802,563.929121500114,None,,,,,,,py,2022_May_06_1748,training+cueing,2021.1.4,59.95085232182514,
Friend.png,Friend,Friend,c,2,12,22,92,,,,,1,0,1,0,,,,,3,2,38,10,,,,,,,,,,,,,,,,,,,,,1.506,2.478,564.8690483001992,None,,,,,,,,,,,,,,,,,,,,565.4121277001686,565.9137479001656,0.50338269979693,1.0036656998563558,565.8970820000395,566.013799900189,565.8970820000395,566.013799900189,565.9970907000825,None,c,1,0.7337442000862211,565.9970907000825,None,,,,,,,py,2022_May_06_1748,training+cueing,2021.1.4,59.95085232182514,
Stranger.png,Stranger,Stranger,c,3,13,23,93,,,,,1,0,1,0,,,,,3,3,39,11,,,,,,,,,,,,,,,,,,,,,1.536,1.748,566.8539819000289,None,,,,,,,,,,,,,,,,,,,,567.3975130000617,567.8985349000432,0.5010495998430997,1.0015471000224352,567.8818281001877,567.9991202000529,567.8818281001877,567.9991202000529,567.9991202000529,None,c,1,0.7638537001330405,567.9991202000529,None,,,,,,,py,2022_May_06_1748,training+cueing,2021.1.4,59.95085232182514,
Friend.png,Stranger,Friend,m,3.2,19,29,99,,,,,1,0,1,0,,,,,3,4,40,5,,,,,,,,,,,,,,,,,,,,,1.621,2.254,568.8903470002115,None,,,,,,,,,,,,,,,,,,,,569.4301273000892,569.9333306001499,0.5063348000403494,1.0066134999506176,569.9166254000738,570.0333785000257,569.9166254000738,570.0333785000257,570.0166649001185,None,m,1,0.9862104000058025,570.0166649001185,None,,,,,,,py,2022_May_06_1748,training+cueing,2021.1.4,59.95085232182514,
Self.png,You,Self ,c,1,11,21,91,,,,,1,0,1,0,,,,,3,5,41,0,,,,,,,,,,,,,,,,,,,,,1.75,1.258,571.1403704001568,None,,,,,,,,,,,,,,,,,,,,571.6918833001982,572.2016624000389,0.5018518997821957,1.0021528997458518,572.1849372000434,572.2849692001473,572.1849372000434,572.2849692001473,572.2849692001473,None,c,1,1.2458730000071228,572.2849692001473,None,,,,,,,py,2022_May_06_1748,training+cueing,2021.1.4,59.95085232182514,
Friend.png,You,Friend,m,1.2,14,24,94,,,,,1,0,1,0,,,,,3,6,42,3,,,,,,,,,,,,,,,,,,,,,1.708,2.244,573.6581135999877,None,,,,,,,,,,,,,,,,,,,,574.1984200000297,574.7034654000308,0.5082251001149416,1.0083333002403378,574.6868655001745,574.7867859001271,574.6868655001745,574.7867859001271,574.7867859001271,None,None,0,,574.7867859001271,None,,,,,,,py,2022_May_06_1748,training+cueing,2021.1.4,59.95085232182514,
Self.png,You,Self ,c,1,11,21,91,,,,,1,0,1,0,,,,,3,7,43,9,,,,,,,,,,,,,,,,,,,,,1.566,1.247,576.6089014001191,None,,,,,,,,,,,,,,,,,,,,577.1504666002002,577.6555977000389,0.5100843000691384,1.010363999987021,577.6389050001744,577.738921500044,577.6389050001744,577.738921500044,577.738921500044,None,None,0,,577.738921500044,None,,,,,,,py,2022_May_06_1748,training+cueing,2021.1.4,59.95085232182514,
Stranger.png,You,Stranger,m,1.3,15,25,95,,,,,1,0,1,0,,,,,3,8,44,6,,,,,,,,,,,,,,,,,,,,,1.405,2.361,579.4110257001594,None,,,,,,,,,,,,,,,,,,,,579.9514748000074,580.4576160002034,0.5091633000411093,1.0094936999958009,580.4408991001546,580.5409779001493,580.4408991001546,580.5409779001493,580.5409779001493,None,None,0,,580.5409779001493,None,,,,,,,py,2022_May_06_1748,training+cueing,2021.1.4,59.95085232182514,
Friend.png,Friend,Friend,c,2,12,22,92,,,,,1,0,1,0,,,,,3,9,45,4,,,,,,,,,,,,,,,,,,,,,1.78,1.984,582.0624968002085,None,,,,,,,,,,,,,,,,,,,,582.6083848001435,583.1096191999968,0.5021520999725908,1.0024192000273615,583.092956900131,583.2096357000992,583.092956900131,583.2096357000992,583.1929674001876,None,None,0,,583.1929674001876,None,,,,,,,py,2022_May_06_1748,training+cueing,2021.1.4,59.95085232182514,
Self.png,Friend,Self ,m,2.1,16,26,96,,,,,1,0,1,0,,,,,3,10,46,1,,,,,,,,,,,,,,,,,,,,,1.759,2.015,585.0814007001463,None,,,,,,,,,,,,,,,,,,,,585.6244812000077,586.1283953001257,0.5082779999356717,1.0087899998761714,586.1117014000192,586.2291453999933,586.1117014000192,586.2291453999933,586.2123795000371,None,None,0,,586.2123795000371,None,,,,,,,py,2022_May_06_1748,training+cueing,2021.1.4,59.95085232182514,
Self.png,Stranger,Self ,m,3.1,18,28,98,,,,,1,0,1,0,,,,,3,11,47,2,,,,,,,,,,,,,,,,,,,,,1.717,1.58,588.0839164000936,None,,,,,,,,,,,,,,,,,,,,588.6277428001631,589.1305610002019,0.5043764000292867,1.004710900131613,589.1138562001288,589.2306074001826,589.1138562001288,589.2306074001826,589.2139457000885,None,None,0,,589.2139457000885,None,,,,,,,py,2022_May_06_1748,training+cueing,2021.1.4,59.95085232182514,
Self.png,You,Self ,c,1,11,21,91,,,,,1,0,1,0,,,,,4,0,48,9,,,,,,,,,,,,,,,,,,,,,1.424,1.548,591.0359526001848,None,,,,,,,,,,,,,,,,,,,,591.5804401000496,592.0826837001368,0.5046182998921722,1.0049672999884933,592.0659447000362,592.1660550001543,592.0659447000362,592.1660550001543,592.1660550001543,None,c,1,0.9008945999667048,592.1660550001543,None,,,,,,,py,2022_May_06_1748,training+cueing,2021.1.4,59.95085232182514,
Stranger.png,Stranger,Stranger,c,3,13,23,93,,,,,1,0,1,0,,,,,4,1,49,8,,,,,,,,,,,,,,,,,,,,,1.59,1.734,593.1893202001229,None,,,,,,,,,,,,,,,,,,,,593.7451183001976,594.2510890001431,0.5125516997650266,1.0128358998335898,594.234394100029,594.3511384001467,594.234394100029,594.3511384001467,594.334442500025,None,c,1,0.6844191998243332,594.334442500025,None,,,,,,,py,2022_May_06_1748,training+cueing,2021.1.4,59.95085232182514,
Friend.png,Friend,Friend,c,2,12,22,92,,,,,1,0,1,0,,,,,4,2,50,4,,,,,,,,,,,,,,,,,,,,,1.445,2.304,595.141271200031,None,,,,,,,,,,,,,,,,,,,,595.6840181001462,596.1856778000947,0.5023967998567969,1.0026649998035282,596.1690188001376,596.2857315000147,596.1690188001376,596.2857315000147,596.2690461000893,None,c,1,0.8778065999504179,596.2690461000893,None,,,,,,,py,2022_May_06_1748,training+cueing,2021.1.4,59.95085232182514,
Friend.png,You,Friend,m,1.2,14,24,94,,,,,1,0,1,0,,,,,4,3,51,3,,,,,,,,,,,,,,,,,,,,,1.474,1.203,597.3322934000753,None,,,,,,,,,,,,,,,,,,,,597.8192734001204,598.3206798001193,0.5031246999278665,1.003241099882871,598.3040385001805,598.4040626999922,598.3040385001805,598.4040626999922,598.4040626999922,None,m,1,1.0787925000768155,598.4040626999922,None,,,,,,,py,2022_May_06_1748,training+cueing,2021.1.4,59.95085232182514,
Stranger.png,Friend,Stranger,m,2.3,17,27,97,,,,,1,0,1,0,,,,,4,4,52,7,,,,,,,,,,,,,,,,,,,,,1.668,1.404,599.6110573001206,None,,,,,,,,,,,,,,,,,,,,600.1912947001401,600.7055961000733,0.5109984001610428,1.011231800308451,600.6889481001999,600.8056489999872,600.6889481001999,600.8056489999872,600.7889594000299,None,m,1,1.4298564000055194,600.7889594000299,None,,,,,,,py,2022_May_06_1748,training+cueing,2021.1.4,59.95085232182514,
Self.png,Stranger,Self ,m,3.1,18,28,98,,,,,1,0,1,0,,,,,4,5,53,2,,,,,,,,,,,,,,,,,,,,,1.541,2.317,602.346343900077,None,,,,,,,,,,,,,,,,,,,,602.9087014000397,603.4242191000376,0.4992639000993222,0.9995369000826031,603.3908644001931,603.4909314000979,603.3908644001931,603.4909314000979,603.4909314000979,None,m,1,1.2239250000566244,603.4909314000979,None,,,,,,,py,2022_May_06_1748,training+cueing,2021.1.4,59.95085232182514,
Friend.png,Stranger,Friend,m,3.2,19,29,99,,,,,1,0,1,0,,,,,4,6,54,5,,,,,,,,,,,,,,,,,,,,,1.529,1.844,604.8483051001094,None,,,,,,,,,,,,,,,,,,,,605.387523500016,605.8926783001516,0.5093064999673516,1.0095795998349786,605.8760215002112,605.9927323001903,605.8760215002112,605.9927323001903,605.9760005001444,None,m,1,1.2508733000140637,605.9760005001444,None,,,,,,,py,2022_May_06_1748,training+cueing,2021.1.4,59.95085232182514,
Stranger.png,Stranger,Stranger,c,3,13,23,93,,,,,1,0,1,0,,,,,4,7,55,11,,,,,,,,,,,,,,,,,,,,,1.555,2.116,607.3500016999897,None,,,,,,,,,,,,,,,,,,,,607.8891853000969,608.3946476001292,0.5080699999816716,1.0082598999142647,608.3778603000101,608.4945421000011,608.3778603000101,608.4945421000011,608.4778360000346,None,c,1,0.9410035000182688,608.4778360000346,None,,,,,,,py,2022_May_06_1748,training+cueing,2021.1.4,59.95085232182514,
Friend.png,Friend,Friend,c,2,12,22,92,,,,,1,0,1,0,,,,,4,8,56,10,,,,,,,,,,,,,,,,,,,,,1.593,2.047,609.5509843002073,None,,,,,,,,,,,,,,,,,,,,610.0943835000508,610.596088899998,0.5054356998298317,1.0057110998313874,610.5794020001777,610.6961088001262,610.5794020001777,610.6961088001262,610.6794271001127,None,c,1,0.7394811999984086,610.6794271001127,None,,,,,,,py,2022_May_06_1748,training+cueing,2021.1.4,59.95085232182514,
Stranger.png,You,Stranger,m,1.3,15,25,95,,,,,1,0,1,0,,,,,4,9,57,6,,,,,,,,,,,,,,,,,,,,,1.409,1.625,611.5538598001003,None,,,,,,,,,,,,,,,,,,,,612.09802520019,612.5975211001933,0.4996946998871863,1.0001999998930842,612.5808526000474,612.6809277001303,612.5808526000474,612.6809277001303,612.6809277001303,None,m,1,0.9460477000102401,612.6809277001303,None,,,,,,,py,2022_May_06_1748,training+cueing,2021.1.4,59.95085232182514,
Self.png,Friend,Self ,m,2.1,16,26,96,,,,,1,0,1,0,,,,,4,10,58,1,,,,,,,,,,,,,,,,,,,,,1.407,1.348,613.7555961001199,None,,,,,,,,,,,,,,,,,,,,614.2962098000571,614.79910630011,0.5045070997439325,1.004776899702847,614.7824566999916,614.8993532001041,614.7824566999916,614.8993532001041,614.8824993001763,None,None,0,,614.8824993001763,None,,,,,,,py,2022_May_06_1748,training+cueing,2021.1.4,59.95085232182514,
Self.png,You,Self ,c,1,11,21,91,,,,,1,0,1,0,,,,,4,11,59,0,,,,,,,,,,,,,,,,,,,,,1.522,1.83,616.4040922001004,None,,,,,,,,,,,,,,,,,,,,616.9496518999804,617.4510009000078,0.5028561998624355,1.0031443999614567,617.4343166002072,617.5343908001669,617.4343166002072,617.5343908001669,617.5343908001669,None,c,1,0.6362791999708861,617.5343908001669,None,,,,,,,py,2022_May_06_1748,training+cueing,2021.1.4,59.95085232182514,
Friend.png,You,Friend,m,1.2,14,24,94,,,,,1,0,1,0,,,,,5,0,60,3,,,,,,,,,,,,,,,,,,,,,1.417,2.289,618.3078563001473,None,,,,,,,,,,,,,,,,,,,,618.847124400083,619.3524267000612,0.5092187998816371,1.0095114998985082,619.3357373999897,619.4357950000558,619.3357373999897,619.4357950000558,619.4357950000558,None,m,1,0.9589793998748064,619.4357950000558,None,,,,,,,py,2022_May_06_1748,training+cueing,2021.1.4,59.95085232182514,
Stranger.png,Stranger,Stranger,c,3,13,23,93,,,,,1,0,1,0,,,,,5,1,61,11,,,,,,,,,,,,,,,,,,,,,1.674,1.853,620.5260701000225,None,,,,,,,,,,,,,,,,,,,,621.0669085001573,621.5707012000494,0.5078907001297921,1.0081902001984417,621.5539818999823,621.6707367000636,621.5539818999823,621.6707367000636,621.6540345000103,None,c,1,0.8527454000432044,621.6540345000103,None,,,,,,,py,2022_May_06_1748,training+cueing,2021.1.4,59.95085232182514,
Stranger.png,You,Stranger,m,1.3,15,25,95,,,,,1,0,1,0,,,,,5,2,62,6,,,,,,,,,,,,,,,,,,,,,1.651,1.807,622.6439861999825,None,,,,,,,,,,,,,,,,,,,,623.1875423002057,623.6888596999925,0.5030809000600129,1.0033853999339044,623.672173100058,623.7722785000224,623.672173100058,623.7722785000224,623.7722785000224,None,m,1,1.1025175000540912,623.7722785000224,None,,,,,,,py,2022_May_06_1748,training+cueing,2021.1.4,59.95085232182514,
Self.png,You,Self ,c,1,11,21,91,,,,,1,0,1,0,,,,,5,3,63,9,,,,,,,,,,,,,,,,,,,,,1.614,2.03,625.0126773000229,None,,,,,,,,,,,,,,,,,,,,625.5517554001417,626.0572649000678,0.5083460998721421,1.0086475999560207,626.0405831001699,626.1406362000853,626.0405831001699,626.1406362000853,626.1406362000853,None,c,1,1.0541391000151634,626.1406362000853,None,,,,,,,py,2022_May_06_1748,training+cueing,2021.1.4,59.95085232182514,
Friend.png,Friend,Friend,c,2,12,22,92,,,,,1,0,1,0,,,,,5,4,64,10,,,,,,,,,,,,,,,,,,,,,1.636,1.81,627.330907800002,None,,,,,,,,,,,,,,,,,,,,627.8732912000269,628.3756233002059,0.5058275999035686,1.0061109999660403,628.3589465001132,628.4756577000953,628.3589465001132,628.4756577000953,628.4589800001122,None,c,1,1.2477539000101388,628.4589800001122,None,,,,,,,py,2022_May_06_1748,training+cueing,2021.1.4,59.95085232182514,
Self.png,Stranger,Self ,m,3.1,18,28,98,,,,,1,0,1,0,,,,,5,5,65,2,,,,,,,,,,,,,,,,,,,,,1.485,1.259,629.8327417999972,None,,,,,,,,,,,,,,,,,,,,630.3749122000299,630.8774147999939,0.5048032999038696,1.0052677998319268,630.860732300207,630.9776339000091,630.860732300207,630.9776339000091,630.9609205001034,None,None,0,,630.9609205001034,None,,,,,,,py,2022_May_06_1748,training+cueing,2021.1.4,59.95085232182514,
Self.png,Friend,Self ,m,2.1,16,26,96,,,,,1,0,1,0,,,,,5,6,66,1,,,,,,,,,,,,,,,,,,,,,1.609,2.018,632.5491820999887,None,,,,,,,,,,,,,,,,,,,,633.094380200142,633.5960936001502,0.5029286998324096,1.0034439999144524,633.5793678001501,633.6961261001416,633.5793678001501,633.6961261001416,633.6793804001063,None,None,0,,633.6793804001063,None,,,,,,,py,2022_May_06_1748,training+cueing,2021.1.4,59.95085232182514,
Stranger.png,Stranger,Stranger,c,3,13,23,93,,,,,1,0,1,0,,,,,5,7,67,8,,,,,,,,,,,,,,,,,,,,,1.596,1.492,635.4024563001003,None,,,,,,,,,,,,,,,,,,,,635.9469467001036,636.4481322001666,0.5022546998225152,1.0025053997524083,636.4314678001683,636.5481458001304,636.4314678001683,636.5481458001304,636.5314613000955,None,c,1,0.8873620999511331,636.5314613000955,None,,,,,,,py,2022_May_06_1748,training+cueing,2021.1.4,59.95085232182514,
Friend.png,Stranger,Friend,m,3.2,19,29,99,,,,,1,0,1,0,,,,,5,8,68,5,,,,,,,,,,,,,,,,,,,,,1.719,1.503,637.555398600176,None,,,,,,,,,,,,,,,,,,,,638.0946725001559,638.5996501001064,0.5084310998208821,1.0087946997955441,638.5829708001111,638.6997319001239,638.5829708001111,638.6997319001239,638.6830804001074,None,m,1,0.9117234998848289,638.6830804001074,None,,,,,,,py,2022_May_06_1748,training+cueing,2021.1.4,59.95085232182514,
Stranger.png,Friend,Stranger,m,2.3,17,27,97,,,,,1,0,1,0,,,,,5,9,69,7,,,,,,,,,,,,,,,,,,,,,1.493,1.377,639.7229218001012,None,,,,,,,,,,,,,,,,,,,,640.2746949000284,640.7845868000295,0.503582299919799,1.0038862000219524,640.7678954000585,640.8846538001671,640.7678954000585,640.8846538001671,640.8679190999828,None,m,1,0.8548456998541951,640.8679190999828,None,,,,,,,py,2022_May_06_1748,training+cueing,2021.1.4,59.95085232182514,
Self.png,You,Self ,c,1,11,21,91,,,,,1,0,1,0,,,,,5,10,70,0,,,,,,,,,,,,,,,,,,,,,1.781,1.795,641.8579487001989,None,,,,,,,,,,,,,,,,,,,,642.4011866000947,642.9028076000977,0.5039205998182297,1.004109899746254,642.8861535000615,642.9861425000709,642.8861535000615,642.9861425000709,642.9861425000709,None,c,1,0.6086409001145512,642.9861425000709,None,,,,,,,py,2022_May_06_1748,training+cueing,2021.1.4,59.95085232182514,
Friend.png,Friend,Friend,c,2,12,22,92,,,,,1,0,1,0,,,,,5,11,71,4,,,,,,,,,,,,,,,,,,,,,1.403,2.438,643.7262634001672,None,,,,,,,,,,,,,,,,,,,,644.269134900067,644.7708201000933,0.5028969999402761,1.0031854999251664,644.7541269001085,644.8708626001608,644.7541269001085,644.8708626001608,644.8541441000998,None,c,1,0.8206007999833673,644.8541441000998,None,,,,,,,py,2022_May_06_1748,training+cueing,2021.1.4,59.95085232182514,
Stranger.png,Friend,Stranger,m,2.3,17,27,97,,,,,1,0,1,0,,,,,6,0,72,7,,,,,,,,,,,,,,,,,,,,,1.517,1.892,645.81488550012,None,,,,,,,,,,,,,,,,,,,,646.3737858000677,646.8891987001989,0.500855800230056,1.0010209002066404,646.855872400105,646.9559076000005,646.855872400105,646.9559076000005,646.9559076000005,None,m,1,1.1987683998886496,646.9559076000005,None,,,,,,,py,2022_May_06_1748,training+cueing,2021.1.4,59.95085232182514,
Friend.png,Stranger,Friend,m,3.2,19,29,99,,,,,1,0,1,0,,,,,6,1,73,5,,,,,,,,,,,,,,,,,,,,,1.546,2.157,648.2804843999911,None,,,,,,,,,,,,,,,,,,,,648.8232988000382,649.324110200163,0.5017766999080777,1.002622599946335,649.3074286000337,649.4241268001497,649.3074286000337,649.4241268001497,649.4241268001497,None,None,0,,649.4241268001497,None,,,,,,,py,2022_May_06_1748,training+cueing,2021.1.4,59.95085232182514,
Stranger.png,Stranger,Stranger,c,3,13,23,93,,,,,1,0,1,0,,,,,6,2,74,8,,,,,,,,,,,,,,,,,,,,,1.698,2.168,651.0833621001802,None,,,,,,,,,,,,,,,,,,,,651.646365800174,652.1596366001759,0.5090296999551356,1.009281100006774,652.1429675000254,652.2596950000152,652.1429675000254,652.2596950000152,652.2429797002114,None,c,1,0.7598552000708878,652.2429797002114,None,,,,,,,py,2022_May_06_1748,training+cueing,2021.1.4,59.95085232182514,
Stranger.png,You,Stranger,m,1.3,15,25,95,,,,,1,0,1,0,,,,,6,3,75,6,,,,,,,,,,,,,,,,,,,,,1.798,1.63,653.1339164001402,None,,,,,,,,,,,,,,,,,,,,653.6760069001466,654.1777247001883,0.5051761998329312,1.0054758000187576,654.160926700104,654.2609724001959,654.160926700104,654.2609724001959,654.2609724001959,None,None,0,,654.2609724001959,None,,,,,,,py,2022_May_06_1748,training+cueing,2021.1.4,59.95085232182514,
Self.png,Friend,Self ,m,2.1,16,26,96,,,,,1,0,1,0,,,,,6,4,76,1,,,,,,,,,,,,,,,,,,,,,1.602,1.723,656.1663933000527,None,,,,,,,,,,,,,,,,,,,,656.7105147000402,657.213133700192,0.5032834997400641,1.0041054997127503,657.1965288000647,657.3137364001013,657.1965288000647,657.3137364001013,657.2970484001562,None,c,0,0.8099290998652577,657.2970484001562,None,,,,,,,py,2022_May_06_1748,training+cueing,2021.1.4,59.95085232182514,
Friend.png,You,Friend,m,1.2,14,24,94,,,,,1,0,1,0,,,,,6,5,77,3,,,,,,,,,,,,,,,,,,,,,1.581,1.288,658.2408609001432,None,,,,,,,,,,,,,,,,,,,,658.7863531000912,659.2979681000579,0.5072051999159157,1.0075036999769509,659.2812906000763,659.381364100147,659.2812906000763,659.381364100147,659.381364100147,None,m,1,1.2534139000345021,659.381364100147,None,,,,,,,py,2022_May_06_1748,training+cueing,2021.1.4,59.95085232182514,
Friend.png,Friend,Friend,c,2,12,22,92,,,,,1,0,1,0,,,,,6,6,78,10,,,,,,,,,,,,,,,,,,,,,1.438,2.022,660.7716277001891,None,,,,,,,,,,,,,,,,,,,,661.3135683999863,661.8164598001167,0.5055424999445677,1.00583630008623,661.7997842000332,661.9164911999833,661.7997842000332,661.9164911999833,661.8998141000047,None,c,1,1.2148621999658644,661.8998141000047,None,,,,,,,py,2022_May_06_1748,training+cueing,2021.1.4,59.95085232182514,
Self.png,You,Self ,c,1,11,21,91,,,,,1,0,1,0,,,,,6,7,79,0,,,,,,,,,,,,,,,,,,,,,1.426,1.944,663.2404122999869,None,,,,,,,,,,,,,,,,,,,,663.781107700197,664.2849421000574,0.505454600090161,1.0063704000785947,664.2682210002095,664.3682823001873,664.2682210002095,664.3682823001873,664.3682823001873,None,None,0,,664.3682823001873,None,,,,,,,py,2022_May_06_1748,training+cueing,2021.1.4,59.95085232182514,
Self.png,Stranger,Self ,m,3.1,18,28,98,,,,,1,0,1,0,,,,,6,8,80,2,,,,,,,,,,,,,,,,,,,,,1.642,1.958,665.9081099000759,None,,,,,,,,,,,,,,,,,,,,666.4518115001265,666.9535268000327,0.5036646001972258,1.0039601002354175,666.9368257001042,667.0537367002107,666.9368257001042,667.0537367002107,667.03687060019,None,None,0,,667.03687060019,None,,,,,,,py,2022_May_06_1748,training+cueing,2021.1.4,59.95085232182514,
Self.png,You,Self ,c,1,11,21,91,,,,,1,0,1,0,,,,,6,9,81,9,,,,,,,,,,,,,,,,,,,,,1.494,2.305,668.7924334001727,None,,,,,,,,,,,,,,,,,,,,669.3373877999838,669.8389393000398,0.503830699948594,1.0041495999321342,669.8222321001813,669.9223054000176,669.8222321001813,669.9223054000176,669.9223054000176,None,None,0,,669.9223054000176,None,,,,,,,py,2022_May_06_1748,training+cueing,2021.1.4,59.95085232182514,
Friend.png,Friend,Friend,c,2,12,22,92,,,,,1,0,1,0,,,,,6,10,82,4,,,,,,,,,,,,,,,,,,,,,1.528,1.578,671.5270983001683,None,,,,,,,,,,,,,,,,,,,,672.071656400105,672.5744029001798,0.504208599915728,1.0045188998337835,672.5577544001862,672.6744668001775,672.5577544001862,672.6744668001775,672.6577665000223,None,None,0,,672.6577665000223,None,,,,,,,py,2022_May_06_1748,training+cueing,2021.1.4,59.95085232182514,
Stranger.png,Stranger,Stranger,c,3,13,23,93,,,,,1,0,1,0,,,,,6,11,83,11,,,,,,,,,,,,,,,,,,,,,1.585,2.206,674.2966561000794,None,,,,,,,,,,,,,,,,,,,,674.839833999984,675.3429118001368,0.506881499895826,1.0070987998042256,675.3263244000264,675.4429466000292,675.3263244000264,675.4429466000292,675.4262785001192,None,c,1,1.5445121000520885,675.4262785001192,None,,,,,,,py,2022_May_06_1748,training+cueing,2021.1.4,59.95085232182514,
Stranger.png,Friend,Stranger,m,2.3,17,27,97,,,,,1,0,1,0,,,,,7,0,84,7,,,,,,,,,,,,,,,,,,,,,1.792,1.469,677.1015312999953,None,,,,,,,,,,,,,,,,,,,,677.6418229001574,678.1450043001678,0.5038060999941081,1.0040718000382185,678.1282992002089,678.2450053000357,678.1282992002089,678.2450053000357,678.2283128001727,None,m,1,1.030391100095585,678.2283128001727,None,,,,,,,py,2022_May_06_1748,training+cueing,2021.1.4,59.95085232182514,
Friend.png,Stranger,Friend,m,3.2,19,29,99,,,,,1,0,1,0,,,,,7,1,85,5,,,,,,,,,,,,,,,,,,,,,1.648,1.238,679.3855324999895,None,,,,,,,,,,,,,,,,,,,,679.9286674000323,680.4299781001173,0.5029504999984056,1.003105000127107,680.4133435999975,680.5299752000719,680.4133435999975,680.5299752000719,680.5132854001131,None,None,0,,680.5132854001131,None,,,,,,,py,2022_May_06_1748,training+cueing,2021.1.4,59.95085232182514,
