Image,Name,Face,CorrAns,Match,Face_onset,CResponse_onset,IResponse_onset,Match.thisRepN,Match.thisTrialN,Match.thisN,Match.thisIndex,Blocks.thisRepN,Blocks.thisTrialN,Blocks.thisN,Blocks.thisIndex,trials.thisRepN,trials.thisTrialN,trials.thisN,trials.thisIndex,trials_2.thisRepN,trials_2.thisTrialN,trials_2.thisN,trials_2.thisIndex,text.started,text.stopped,p1.started,p1.stopped,MatchInstructions.started,MatchInstructions.stopped,Name1.started,Name1.stopped,Face_Relevance.started,Face_Relevance.stopped,MismatchInstructions.started,MismatchInstructions.stopped,Rest_trainingInstruct.started,Rest_trainingInstruct.stopped,next8.keys,next8.rt,next8.started,next8.stopped,Ready.started,Ready.stopped,delay_one_picked,delay_two_picked,blank0.started,blank0.stopped,FixationCross1.started,FixationCross1.stopped,Name3.started,Name3.stopped,Face_Relevance3.started,Face_Relevance3.stopped,responseTime.started,responseTime.stopped,resp.keys,resp.corr,resp.rt,resp.started,resp.stopped,Accuracy.started,Accuracy.stopped,questions.started,questions.stopped,p2.started,p2.stopped,FixationCross3.started,FixationCross3.stopped,port_Face_onset.started,port_Face_onset.stopped,Name4.started,Name4.stopped,Face_Relevance4.started,Face_Relevance4.stopped,responseTime2.started,responseTime2.stopped,Response.keys,Response.corr,Response.started,Response.stopped,Response.rt,p3.started,p3.stopped,Finish.started,Finish.stopped,gender,age,participant,date,expName,psychopyVersion,frameRate,
Stranger.png,Stranger,,,,,,,0,0,0,2,,,,,,,,,,,,,12.854731999803334,None,0.0033149197697639465,0.5183238200843334,14.83965600002557,None,17.003633100073785,None,17.003633100073785,None,,,,,,,,,,,,,,,,,,,,,,,,,,,,,,,,,,,,,,,,,,,,,,,,,,,,,,,pz2,2022_May_09_1441,training+cueing,2021.1.4,59.9213233590678,
Self.png,You,,,,,,,0,1,1,0,,,,,,,,,,,,,,,,,,,36.89627439994365,None,36.89627439994365,None,,,,,,,,,,,,,,,,,,,,,,,,,,,,,,,,,,,,,,,,,,,,,,,,,,,,,,,pz2,2022_May_09_1441,training+cueing,2021.1.4,59.9213233590678,
Friend.png,Friend,,,,,,,0,2,2,1,,,,,,,,,,,,,,,,,,,56.89202729985118,None,56.89202729985118,None,,,,,,,,,,,,,,,,,,,,,,,,,,,,,,,,,,,,,,,,,,,,,,,,,,,,,,,pz2,2022_May_09_1441,training+cueing,2021.1.4,59.9213233590678,
Stranger.png,Stranger,Stranger,c,3,13,23,93,,,,,0,0,0,0,0,0,0,11,,,,,,,,,,,,,,,76.85127570014447,None,95.2476474000141,None,space,0.2701697996817529,2.009355659596622,None,97.51613269979134,None,1.723,1.304,100.52565390011296,None,101.16194619983435,101.6689582997933,101.65223369980231,101.76902809971943,101.65223369980231,101.76902809971943,101.75224569998682,None,m,0,0.8362543000839651,101.75224569998682,None,102.62006919970736,None,,,,,,,,,,,,,,,,,,,,,,,,,,pz2,2022_May_09_1441,training+cueing,2021.1.4,59.9213233590678,
Self.png,Stranger,Self ,m,3.1,18,28,98,,,,,0,0,0,0,0,1,1,2,,,,,,,,,,,,,,,,,,,,,,,,,1.678,1.614,103.02003129990771,None,103.56039190012962,104.07059849984944,104.05402049981058,104.17069529974833,104.05402049981058,104.17069529974833,104.15401439974084,None,m,1,1.250434400048107,104.15401439974084,None,105.4205346996896,None,,,,,,,,,,,,,,,,,,,,,,,,,,pz2,2022_May_09_1441,training+cueing,2021.1.4,59.9213233590678,
Self.png,Friend,Self ,m,2.1,16,26,96,,,,,0,0,0,0,0,2,2,1,,,,,,,,,,,,,,,,,,,,,,,,,1.671,2.337,105.82195780007169,None,106.37095829984173,106.87271220004186,106.8560096998699,106.97277959994972,106.8560096998699,106.97277959994972,106.9560477999039,None,c,0,1.2806331999599934,106.9560477999039,None,108.27089700009674,None,,,,,,,,,,,,,,,,,,,,,,,,,,pz2,2022_May_09_1441,training+cueing,2021.1.4,59.9213233590678,
Stranger.png,Stranger,Stranger,c,3,13,23,93,,,,,0,0,0,0,0,3,3,8,,,,,,,,,,,,,,,,,,,,,,,,,1.554,2.282,108.67402559984475,None,109.20865930011496,109.70807950012386,109.70807950012386,109.80815719999373,109.70807950012386,109.80815719999373,109.80815719999373,None,None,0,,109.80815719999373,None,111.37594879977405,None,,,,,,,,,,,,,,,,,,,,,,,,,,pz2,2022_May_09_1441,training+cueing,2021.1.4,59.9213233590678,
Self.png,You,Self ,c,1,11,21,91,,,,,0,0,0,0,0,4,4,9,,,,,,,,,,,,,,,,,,,,,,,,,1.592,1.464,111.77619950007647,None,112.31149909971282,112.81032499996945,112.81032499996945,112.91035739984363,112.81032499996945,112.91035739984363,112.91035739984363,None,c,1,1.2300344998948276,112.91035739984363,None,114.15966300014406,None,,,,,,,,,,,,,,,,,,,,,,,,,,pz2,2022_May_09_1441,training+cueing,2021.1.4,59.9213233590678,
Friend.png,Friend,Friend,c,2,12,22,92,,,,,0,0,0,0,0,5,5,4,,,,,,,,,,,,,,,,,,,,,,,,,1.724,1.717,114.56175530003384,None,115.10056569986045,115.61236899998039,115.59561209985986,115.71240160008892,115.59561209985986,115.71240160008892,115.69564880011603,None,c,1,1.612897700164467,115.69564880011603,None,117.3474237001501,None,,,,,,,,,,,,,,,,,,,,,,,,,,pz2,2022_May_09_1441,training+cueing,2021.1.4,59.9213233590678,
Stranger.png,You,Stranger,m,1.3,15,25,95,,,,,0,0,0,0,0,6,6,6,,,,,,,,,,,,,,,,,,,,,,,,,1.522,2.155,117.74740679981187,None,118.28476289985701,118.79797239974141,118.78135540010408,118.88135919999331,118.78135540010408,118.88135919999331,118.88135919999331,None,None,0,,118.88135919999331,None,120.41727249976248,None,,,,,,,,,,,,,,,,,,,,,,,,,,pz2,2022_May_09_1441,training+cueing,2021.1.4,59.9213233590678,
Friend.png,You,Friend,m,1.2,14,24,94,,,,,0,0,0,0,0,7,7,3,,,,,,,,,,,,,,,,,,,,,,,,,1.539,1.722,120.81623389991,None,121.35852869972587,121.8668531998992,121.83354629995301,121.93350729998201,121.83354629995301,121.93350729998201,121.93350729998201,None,c,0,0.718947000335902,121.93350729998201,None,122.66750629991293,None,,,,,,,,,,,,,,,,,,,,,,,,,,pz2,2022_May_09_1441,training+cueing,2021.1.4,59.9213233590678,
Stranger.png,Friend,Stranger,m,2.3,17,27,97,,,,,0,0,0,0,0,8,8,7,,,,,,,,,,,,,,,,,,,,,,,,,1.722,2.214,123.06777149997652,None,123.6061935997568,124.11847419990227,124.10186959989369,124.21851880010217,124.10186959989369,124.21851880010217,124.20185599988326,None,m,1,1.6025358997285366,124.20185599988326,None,125.83507889974862,None,,,,,,,,,,,,,,,,,,,,,,,,,,pz2,2022_May_09_1441,training+cueing,2021.1.4,59.9213233590678,
Friend.png,Stranger,Friend,m,3.2,19,29,99,,,,,0,0,0,0,0,9,9,5,,,,,,,,,,,,,,,,,,,,,,,,,1.722,1.29,126.23664940008894,None,126.77209089975804,127.28748880000785,127.27088940003887,127.38757220003754,127.27088940003887,127.38757220003754,127.37089869985357,None,c,0,1.2656169002875686,127.37089869985357,None,128.66404379997402,None,,,,,,,,,,,,,,,,,,,,,,,,,,pz2,2022_May_09_1441,training+cueing,2021.1.4,59.9213233590678,
Self.png,You,Self ,c,1,11,21,91,,,,,0,0,0,0,0,10,10,0,,,,,,,,,,,,,,,,,,,,,,,,,1.566,2.392,129.0719902999699,None,129.60445019975305,130.1061535999179,130.0895178001374,130.18954910011962,130.0895178001374,130.18954910011962,130.18954910011962,None,c,1,1.3747901995666325,130.18954910011962,None,131.58941720006987,None,,,,,,,,,,,,,,,,,,,,,,,,,,pz2,2022_May_09_1441,training+cueing,2021.1.4,59.9213233590678,
Friend.png,Friend,Friend,c,2,12,22,92,,,,,0,0,0,0,0,11,11,10,,,,,,,,,,,,,,,,,,,,,,,,,1.737,2.015,131.9907995997928,None,132.52596319979057,133.02488959999755,133.02488959999755,133.12494699982926,133.02488959999755,133.12494699982926,133.12494699982926,None,c,1,1.1915115001611412,133.12494699982926,None,134.34244889998809,None,,,,,,,,,,,,,,,,,,,,,,,,,,pz2,2022_May_09_1441,training+cueing,2021.1.4,59.9213233590678,
Friend.png,Stranger,Friend,m,3.2,19,29,99,,,,,0,0,0,0,,,,,0,0,0,5,,,,,,,,,,,,,,,,,,,179.84221210004762,None,1.444,2.084,183.35645639989525,None,,,,,,,,,,,,,,,,134.7429542997852,None,0.014795159921050072,0.5131388599984348,183.98617319995537,184.49543529981747,0.4995384798385203,1.0000187796540558,184.47875709971413,184.59543519979343,184.47875709971413,184.59543519979343,184.59543519979343,None,None,0,184.59543519979343,None,,,,,,,,pz2,2022_May_09_1441,training+cueing,2021.1.4,59.9213233590678,
Friend.png,Friend,Friend,c,2,12,22,92,,,,,0,0,0,0,,,,,0,1,1,10,,,,,,,,,,,,,,,,,,,,,1.451,1.239,186.1541777998209,None,,,,,,,,,,,,,,,,,,,,186.72854000004008,187.23091229982674,0.5072494000196457,1.0075106997974217,187.21418999973685,187.3308313000016,187.21418999973685,187.3308313000016,187.31420180015266,None,None,0,187.31420180015266,None,,,,,,,,pz2,2022_May_09_1441,training+cueing,2021.1.4,59.9213233590678,
Stranger.png,Stranger,Stranger,c,3,13,23,93,,,,,0,0,0,0,,,,,0,2,2,8,,,,,,,,,,,,,,,,,,,,,1.53,2.181,188.87272049998865,None,,,,,,,,,,,,,,,,,,,,189.41578919999301,189.91599839972332,0.5015980801545084,1.0019155801273882,189.89924139995128,190.01620730012655,189.89924139995128,190.01620730012655,189.9992780997418,None,None,0,189.9992780997418,None,,,,,,,,pz2,2022_May_09_1441,training+cueing,2021.1.4,59.9213233590678,
Stranger.png,You,Stranger,m,1.3,15,25,95,,,,,0,0,0,0,,,,,0,3,3,6,,,,,,,,,,,,,,,,,,,,,1.747,1.919,191.6387728000991,None,,,,,,,,,,,,,,,,,,,,192.18152680015191,192.68467779969797,0.5049894796684384,1.0054845795966685,192.66794590000063,192.76795809995383,192.66794590000063,192.76795809995383,192.76795809995383,None,m,1,192.76795809995383,None,0.8123955000191927,,,,,,,pz2,2022_May_09_1441,training+cueing,2021.1.4,59.9213233590678,
Self.png,Stranger,Self ,m,3.1,18,28,98,,,,,0,0,0,0,,,,,0,4,4,2,,,,,,,,,,,,,,,,,,,,,1.573,1.671,193.71024309983477,None,,,,,,,,,,,,,,,,,,,,194.25289219990373,194.7530435998924,0.5010315799154341,1.001166079659015,194.73622289998457,194.85285140015185,194.73622289998457,194.85285140015185,194.85285140015185,None,m,1,194.85285140015185,None,0.9354824000038207,,,,,,,pz2,2022_May_09_1441,training+cueing,2021.1.4,59.9213233590678,
Self.png,You,Self ,c,1,11,21,91,,,,,0,0,0,0,,,,,0,5,5,0,,,,,,,,,,,,,,,,,,,,,1.548,2.095,195.9261679998599,None,,,,,,,,,,,,,,,,,,,,196.46732980012894,196.97104359976947,0.5073159798048437,1.0079800798557699,196.95440430007875,197.05445729987696,196.95440430007875,197.05445729987696,197.05445729987696,None,c,1,197.05445729987696,None,0.8779333001002669,,,,,,,pz2,2022_May_09_1441,training+cueing,2021.1.4,59.9213233590678,
Self.png,You,Self ,c,1,11,21,91,,,,,0,0,0,0,,,,,0,6,6,9,,,,,,,,,,,,,,,,,,,,,1.519,1.74,198.0626437999308,None,,,,,,,,,,,,,,,,,,,,198.6009864001535,199.1059258999303,0.5093479794450104,1.0096215792000294,199.08924759970978,199.1892669997178,199.08924759970978,199.1892669997178,199.1892669997178,None,c,1,199.1892669997178,None,0.8710694001056254,,,,,,,pz2,2022_May_09_1441,training+cueing,2021.1.4,59.9213233590678,
Stranger.png,Friend,Stranger,m,2.3,17,27,97,,,,,0,0,0,0,,,,,0,7,7,7,,,,,,,,,,,,,,,,,,,,,1.658,2.497,200.19653679989278,None,,,,,,,,,,,,,,,,,,,,200.73929090006277,201.24079609988257,0.5020315800793469,1.0025136796757579,201.22418459970504,201.34112640004605,201.22418459970504,201.34112640004605,201.32436560001224,None,c,0,201.32436560001224,None,1.1519248001277447,,,,,,,pz2,2022_May_09_1441,training+cueing,2021.1.4,59.9213233590678,
Stranger.png,Stranger,Stranger,c,3,13,23,93,,,,,0,0,0,0,,,,,0,8,8,11,,,,,,,,,,,,,,,,,,,,,1.775,1.942,202.59953190013766,None,,,,,,,,,,,,,,,,,,,,203.14164329972118,203.64254559995607,0.49940948002040386,0.9999073799699545,203.6258378997445,203.74260739982128,203.6258378997445,203.74260739982128,203.74260739982128,None,m,0,203.74260739982128,None,1.4857646999880672,,,,,,,pz2,2022_May_09_1441,training+cueing,2021.1.4,59.9213233590678,
Friend.png,You,Friend,m,1.2,14,24,94,,,,,0,0,0,0,,,,,0,9,9,3,,,,,,,,,,,,,,,,,,,,,1.587,1.221,205.35162029974163,None,,,,,,,,,,,,,,,,,,,,205.89355609985068,206.39448319980875,0.5012606801465154,1.0014877798967063,206.37793219974265,206.4779268000275,206.37793219974265,206.4779268000275,206.4779268000275,None,m,1,206.4779268000275,None,1.3744147000834346,,,,,,,pz2,2022_May_09_1441,training+cueing,2021.1.4,59.9213233590678,
Self.png,Friend,Self ,m,2.1,16,26,96,,,,,0,0,0,0,,,,,0,10,10,1,,,,,,,,,,,,,,,,,,,,,1.508,1.909,207.98549999995157,None,,,,,,,,,,,,,,,,,,,,208.54668750008568,209.04648389993235,0.5001841401681304,1.0004401402547956,209.02975849993527,209.14650829974562,209.02975849993527,209.14650829974562,209.14650829974562,None,m,1,209.14650829974562,None,0.9778805002570152,,,,,,,pz2,2022_May_09_1441,training+cueing,2021.1.4,59.9213233590678,
Friend.png,Friend,Friend,c,2,12,22,92,,,,,0,0,0,0,,,,,0,11,11,4,,,,,,,,,,,,,,,,,,,,,1.766,2.252,210.2541721998714,None,,,,,,,,,,,,,,,,,,,,210.79282790003344,211.29806170007214,0.5093931797891855,1.0097208796069026,211.2813455001451,211.39814790012315,211.2813455001451,211.39814790012315,211.3813748997636,None,c,1,211.3813748997636,None,1.0148037001490593,,,,,,,pz2,2022_May_09_1441,training+cueing,2021.1.4,59.9213233590678,
Self.png,You,Self ,c,1,11,21,91,,,,,0,0,0,0,,,,,1,0,12,0,,,,,,,,,,,,,,,,,,,,,1.472,2.248,212.52183800004423,None,,,,,,,,,,,,,,,,,,,,213.0634416998364,213.56638780003414,0.5062637799419463,1.0066996798850596,213.54967139987275,213.64970130007714,213.54967139987275,213.64970130007714,213.64970130007714,None,c,1,213.64970130007714,None,1.2746542999520898,,,,,,,pz2,2022_May_09_1441,training+cueing,2021.1.4,59.9213233590678,
Friend.png,Friend,Friend,c,2,12,22,92,,,,,0,0,0,0,,,,,1,1,13,10,,,,,,,,,,,,,,,,,,,,,1.505,1.565,215.05868649994954,None,,,,,,,,,,,,,,,,,,,,215.59870619978756,216.10156899970025,0.5056776800192893,1.0059854802675545,216.0849211998284,216.20161119988188,216.0849211998284,216.20161119988188,216.18494309997186,None,c,1,216.18494309997186,None,1.0433625997975469,,,,,,,pz2,2022_May_09_1441,training+cueing,2021.1.4,59.9213233590678,
Stranger.png,Friend,Stranger,m,2.3,17,27,97,,,,,0,0,0,0,,,,,1,2,14,7,,,,,,,,,,,,,,,,,,,,,1.8,2.067,217.3592881001532,None,,,,,,,,,,,,,,,,,,,,217.8974661999382,218.40326680010185,0.5098396795801818,1.010068479925394,218.38659729994833,218.50324869994074,218.38659729994833,218.50324869994074,218.48655280005187,None,c,0,218.48655280005187,None,0.9496507002040744,,,,,,,pz2,2022_May_09_1441,training+cueing,2021.1.4,59.9213233590678,
Self.png,You,Self ,c,1,11,21,91,,,,,0,0,0,0,,,,,1,3,15,9,,,,,,,,,,,,,,,,,,,,,1.49,1.995,219.55997559987009,None,,,,,,,,,,,,,,,,,,,,220.13542030006647,220.63818709971383,0.5065331999212503,1.0067585995420814,220.6214923998341,220.72148909978569,220.6214923998341,220.72148909978569,220.72148909978569,None,None,0,220.72148909978569,None,,,,,,,,pz2,2022_May_09_1441,training+cueing,2021.1.4,59.9213233590678,
Stranger.png,Stranger,Stranger,c,3,13,23,93,,,,,0,0,0,0,,,,,1,4,16,8,,,,,,,,,,,,,,,,,,,,,1.742,1.586,222.32659940002486,None,,,,,,,,,,,,,,,,,,,,222.8880960997194,223.3902847999707,0.5038026398979127,1.0040916400030255,223.37359499977902,223.49030969990417,223.37359499977902,223.49030969990417,223.4736196999438,None,m,0,223.4736196999438,None,0.730774600058794,,,,,,,pz2,2022_May_09_1441,training+cueing,2021.1.4,59.9213233590678,
Stranger.png,Stranger,Stranger,c,3,13,23,93,,,,,0,0,0,0,,,,,1,5,17,11,,,,,,,,,,,,,,,,,,,,,1.584,1.474,224.33033489994705,None,,,,,,,,,,,,,,,,,,,,224.8689826996997,225.37555920006707,0.5131080797873437,1.014368579722941,225.35796369984746,225.47495249984786,225.35796369984746,225.47495249984786,225.45830969978124,None,m,0,225.45830969978124,None,1.3860279000364244,,,,,,,pz2,2022_May_09_1441,training+cueing,2021.1.4,59.9213233590678,
Friend.png,You,Friend,m,1.2,14,24,94,,,,,0,0,0,0,,,,,1,6,18,3,,,,,,,,,,,,,,,,,,,,,1.552,1.795,226.96572519978508,None,,,,,,,,,,,,,,,,,,,,227.50565999979153,228.01015330012888,0.5095026800408959,1.0097741801291704,227.9934271001257,228.09346280014142,227.9934271001257,228.09346280014142,228.09346280014142,None,None,0,228.09346280014142,None,,,,,,,,pz2,2022_May_09_1441,training+cueing,2021.1.4,59.9213233590678,
Friend.png,Friend,Friend,c,2,12,22,92,,,,,0,0,0,0,,,,,1,7,19,4,,,,,,,,,,,,,,,,,,,,,1.424,2.011,229.75404360005632,None,,,,,,,,,,,,,,,,,,,,230.292324999813,230.7954661999829,0.5050413799472153,1.0054951799102128,230.77885699970648,230.89552359981462,230.77885699970648,230.89552359981462,230.8788732998073,None,c,1,230.8788732998073,None,1.085478300228715,,,,,,,pz2,2022_May_09_1441,training+cueing,2021.1.4,59.9213233590678,
Stranger.png,You,Stranger,m,1.3,15,25,95,,,,,0,0,0,0,,,,,1,8,20,6,,,,,,,,,,,,,,,,,,,,,1.766,2.017,232.08676770003513,None,,,,,,,,,,,,,,,,,,,,232.62813389999792,233.1304473998025,0.5057206796482205,1.006038979627192,233.11383209982887,233.21385199995711,233.11383209982887,233.21385199995711,233.21385199995711,None,m,1,233.21385199995711,None,0.8144338000565767,,,,,,,pz2,2022_May_09_1441,training+cueing,2021.1.4,59.9213233590678,
Friend.png,Stranger,Friend,m,3.2,19,29,99,,,,,0,0,0,0,,,,,1,9,21,5,,,,,,,,,,,,,,,,,,,,,1.462,2.22,234.15336559992284,None,,,,,,,,,,,,,,,,,,,,234.72823400003836,235.2320461999625,0.5089625003747642,1.0092494003474712,235.21534369979054,235.33218119991943,235.21534369979054,235.33218119991943,235.31532459985465,None,None,0,235.31532459985465,None,,,,,,,,pz2,2022_May_09_1441,training+cueing,2021.1.4,59.9213233590678,
Self.png,Stranger,Self ,m,3.1,18,28,98,,,,,0,0,0,0,,,,,1,10,22,2,,,,,,,,,,,,,,,,,,,,,1.678,1.382,236.88998039998114,None,,,,,,,,,,,,,,,,,,,,237.43016560003161,237.93404969992116,0.505883080419153,1.006089880131185,237.91731319995597,238.03405159991235,237.91731319995597,238.03405159991235,238.01727959979326,None,m,1,238.01727959979326,None,1.3388986997306347,,,,,,,pz2,2022_May_09_1441,training+cueing,2021.1.4,59.9213233590678,
Self.png,Friend,Self ,m,2.1,16,26,96,,,,,0,0,0,0,,,,,1,11,23,1,,,,,,,,,,,,,,,,,,,,,1.537,1.304,239.49098709970713,None,,,,,,,,,,,,,,,,,,,,240.03283709986135,240.53580940002576,0.5051980796270072,1.0055240793153644,240.51919090002775,240.635882999748,240.51919090002775,240.635882999748,240.61918919999152,None,m,1,240.61918919999152,None,0.9929999001324177,,,,,,,pz2,2022_May_09_1441,training+cueing,2021.1.4,59.9213233590678,
Self.png,Stranger,Self ,m,3.1,18,28,98,,,,,0,0,0,0,,,,,2,0,24,2,,,,,,,,,,,,,,,,,,,,,1.676,2.017,241.7466405001469,None,,,,,,,,,,,,,,,,,,,,242.28349770000204,242.787392700091,0.5054827802814543,1.005813280120492,242.77079109987244,242.8874842999503,242.77079109987244,242.8874842999503,242.87082100007683,None,m,1,242.87082100007683,None,0.9014069000259042,,,,,,,pz2,2022_May_09_1441,training+cueing,2021.1.4,59.9213233590678,
Self.png,Friend,Self ,m,2.1,16,26,96,,,,,0,0,0,0,,,,,2,1,25,1,,,,,,,,,,,,,,,,,,,,,1.407,2.46,243.8946597999893,None,,,,,,,,,,,,,,,,,,,,244.43665389996022,244.9390333001502,0.5049226800911129,1.0051434799097478,244.92243549972773,245.03906469978392,244.92243549972773,245.03906469978392,245.02239769976586,None,m,1,245.02239769976586,None,0.8298629997298121,,,,,,,pz2,2022_May_09_1441,training+cueing,2021.1.4,59.9213233590678,
Friend.png,Friend,Friend,c,2,12,22,92,,,,,0,0,0,0,,,,,2,2,26,10,,,,,,,,,,,,,,,,,,,,,1.691,2.416,245.9810481998138,None,,,,,,,,,,,,,,,,,,,,246.5208491999656,247.0238334001042,0.5063340798951685,1.0066100801341236,247.00721109984443,247.12384800007567,247.00721109984443,247.12384800007567,247.10732599999756,None,None,0,247.10732599999756,None,,,,,,,,pz2,2022_May_09_1441,training+cueing,2021.1.4,59.9213233590678,
Friend.png,Stranger,Friend,m,3.2,19,29,99,,,,,0,0,0,0,,,,,2,3,27,5,,,,,,,,,,,,,,,,,,,,,1.611,2.085,248.91292600007728,None,,,,,,,,,,,,,,,,,,,,249.4685979001224,249.9760182998143,0.5140321403741837,1.0143157402053475,249.9593635997735,250.07604339998215,249.9593635997735,250.07604339998215,250.0594446999021,None,m,1,250.0594446999021,None,0.7529629999771714,,,,,,,pz2,2022_May_09_1441,training+cueing,2021.1.4,59.9213233590678,
Friend.png,Friend,Friend,c,2,12,22,92,,,,,0,0,0,0,,,,,2,4,28,4,,,,,,,,,,,,,,,,,,,,,1.47,2.329,250.95030110003427,None,,,,,,,,,,,,,,,,,,,,251.5073388000019,252.01094319997355,0.5098071401007473,1.0098944399505854,251.99434820003808,252.11102369986475,251.99434820003808,252.11102369986475,252.09431259986013,None,m,0,252.09431259986013,None,0.8461368000134826,,,,,,,pz2,2022_May_09_1441,training+cueing,2021.1.4,59.9213233590678,
Stranger.png,Stranger,Stranger,c,3,13,23,93,,,,,0,0,0,0,,,,,2,5,29,11,,,,,,,,,,,,,,,,,,,,,1.672,1.452,253.07187799969688,None,,,,,,,,,,,,,,,,,,,,253.61239219969139,254.11230059992522,0.5008724802173674,1.0011861799284816,254.09561609989032,254.21238669985905,254.09561609989032,254.21238669985905,254.21238669985905,None,m,0,254.21238669985905,None,0.807818700093776,,,,,,,pz2,2022_May_09_1441,training+cueing,2021.1.4,59.9213233590678,
Stranger.png,You,Stranger,m,1.3,15,25,95,,,,,0,0,0,0,,,,,2,6,30,6,,,,,,,,,,,,,,,,,,,,,1.594,1.658,255.1526696998626,None,,,,,,,,,,,,,,,,,,,,255.6918048998341,256.1971736997366,0.5098160798661411,1.0099393799901009,256.18064979976043,256.2805264997296,256.18064979976043,256.2805264997296,256.2805264997296,None,m,1,256.2805264997296,None,0.9959292002022266,,,,,,,pz2,2022_May_09_1441,training+cueing,2021.1.4,59.9213233590678,
Self.png,You,Self ,c,1,11,21,91,,,,,0,0,0,0,,,,,2,7,31,0,,,,,,,,,,,,,,,,,,,,,1.534,1.675,257.4081160998903,None,,,,,,,,,,,,,,,,,,,,257.94601870002225,258.44876419985667,0.5056234798394144,1.0059256795793772,258.43213470000774,258.53217419981956,258.43213470000774,258.53217419981956,258.53217419981956,None,c,1,258.53217419981956,None,0.7120869001373649,,,,,,,pz2,2022_May_09_1441,training+cueing,2021.1.4,59.9213233590678,
Friend.png,You,Friend,m,1.2,14,24,94,,,,,0,0,0,0,,,,,2,8,32,3,,,,,,,,,,,,,,,,,,,,,1.619,2.14,259.37643270008266,None,,,,,,,,,,,,,,,,,,,,259.9128911998123,260.4168592998758,0.5060185799375176,1.006329680327326,260.40020259981975,260.50019169971347,260.40020259981975,260.50019169971347,260.50019169971347,None,c,0,260.50019169971347,None,0.5359125998802483,,,,,,,pz2,2022_May_09_1441,training+cueing,2021.1.4,59.9213233590678,
Self.png,You,Self ,c,1,11,21,91,,,,,0,0,0,0,,,,,2,9,33,9,,,,,,,,,,,,,,,,,,,,,1.719,1.678,261.17404939979315,None,,,,,,,,,,,,,,,,,,,,261.7135784998536,262.2181456000544,0.5093513797037303,1.009632379282266,262.20151129970327,262.30152710014954,262.20151129970327,262.30152710014954,262.30152710014954,None,c,1,262.30152710014954,None,0.622970400378108,,,,,,,pz2,2022_May_09_1441,training+cueing,2021.1.4,59.9213233590678,
Stranger.png,Friend,Stranger,m,2.3,17,27,97,,,,,0,0,0,0,,,,,2,10,34,7,,,,,,,,,,,,,,,,,,,,,1.752,1.706,263.0587307000533,None,,,,,,,,,,,,,,,,,,,,263.61733689997345,264.1196439997293,0.5055544399656355,1.0060340403579175,264.10282910009846,264.2196210999973,264.10282910009846,264.2196210999973,264.20283559989184,None,m,1,264.20283559989184,None,0.673698800150305,,,,,,,pz2,2022_May_09_1441,training+cueing,2021.1.4,59.9213233590678,
Stranger.png,Stranger,Stranger,c,3,13,23,93,,,,,0,0,0,0,,,,,2,11,35,8,,,,,,,,,,,,,,,,,,,,,1.794,1.623,265.0092954998836,None,,,,,,,,,,,,,,,,,,,,265.5507621001452,266.05426169978455,0.5043456801213324,1.004671280272305,266.0376454000361,266.15431399969384,266.0376454000361,266.15431399969384,266.1376694999635,None,c,1,266.1376694999635,None,1.5385880996473134,,,,,,,pz2,2022_May_09_1441,training+cueing,2021.1.4,59.9213233590678,
Self.png,Friend,Self ,m,2.1,16,26,96,,,,,0,0,0,0,,,,,3,0,36,1,,,,,,,,,,,,,,,,,,,,,1.463,1.793,267.811380200088,None,,,,,,,,,,,,,,,,,,,,268.3538342998363,268.85631279973313,0.5052315802313387,1.0055231801234186,268.8395883999765,268.9563696999103,268.8395883999765,268.9563696999103,268.93960969988257,None,m,1,268.93960969988257,None,0.8325710999779403,,,,,,,pz2,2022_May_09_1441,training+cueing,2021.1.4,59.9213233590678,
Self.png,You,Self ,c,1,11,21,91,,,,,0,0,0,0,,,,,3,1,37,9,,,,,,,,,,,,,,,,,,,,,1.552,1.646,269.89849720010534,None,,,,,,,,,,,,,,,,,,,,270.4406472998671,270.9411352998577,0.5020180800929666,1.0025111800059676,270.92452380014583,271.0245075998828,270.92452380014583,271.0245075998828,271.0245075998828,None,c,1,271.0245075998828,None,0.6838199999183416,,,,,,,pz2,2022_May_09_1441,training+cueing,2021.1.4,59.9213233590678,
Friend.png,You,Friend,m,1.2,14,24,94,,,,,0,0,0,0,,,,,3,2,38,3,,,,,,,,,,,,,,,,,,,,,1.53,1.974,271.8322251997888,None,,,,,,,,,,,,,,,,,,,,272.36871969979256,272.87587590003386,0.5127035798504949,1.0137914796359837,272.8591607999988,272.95920589985326,272.8591607999988,272.95920589985326,272.95920589985326,None,c,0,272.95920589985326,None,0.6690911999903619,,,,,,,pz2,2022_May_09_1441,training+cueing,2021.1.4,59.9213233590678,
Self.png,Stranger,Self ,m,3.1,18,28,98,,,,,0,0,0,0,,,,,3,3,39,2,,,,,,,,,,,,,,,,,,,,,1.483,1.395,273.76826069969684,None,,,,,,,,,,,,,,,,,,,,274.32875509979203,274.84415220003575,0.5146179399453104,1.0147753399796784,274.82754339976236,274.94410579977557,274.82754339976236,274.94410579977557,274.9277264997363,None,m,1,274.9277264997363,None,0.8124966998584569,,,,,,,pz2,2022_May_09_1441,training+cueing,2021.1.4,59.9213233590678,
Friend.png,Friend,Friend,c,2,12,22,92,,,,,0,0,0,0,,,,,3,4,40,4,,,,,,,,,,,,,,,,,,,,,1.417,1.342,275.86813100008294,None,,,,,,,,,,,,,,,,,,,,276.4087093998678,276.9120686999522,0.504834879655391,1.0051803798414767,276.89547129999846,277.0121565000154,276.89547129999846,277.0121565000154,276.9955067001283,None,c,1,276.9955067001283,None,1.2407885999418795,,,,,,,pz2,2022_May_09_1441,training+cueing,2021.1.4,59.9213233590678,
Stranger.png,Stranger,Stranger,c,3,13,23,93,,,,,0,0,0,0,,,,,3,5,41,11,,,,,,,,,,,,,,,,,,,,,1.526,1.226,278.37067630002275,None,,,,,,,,,,,,,,,,,,,,278.9179342999123,279.4305489999242,0.5087134796194732,1.0089889797382057,279.41394290002063,279.5306087001227,279.41394290002063,279.5306087001227,279.5139508000575,None,c,1,279.5139508000575,None,1.4582922998815775,,,,,,,pz2,2022_May_09_1441,training+cueing,2021.1.4,59.9213233590678,
Friend.png,Friend,Friend,c,2,12,22,92,,,,,0,0,0,0,,,,,3,6,42,10,,,,,,,,,,,,,,,,,,,,,1.791,1.4,281.1042919997126,None,,,,,,,,,,,,,,,,,,,,281.6462348997593,282.1491880998947,0.5064575797878206,1.0067540798336267,282.13257799996063,282.249248099979,282.13257799996063,282.249248099979,282.2325971997343,None,m,0,282.2325971997343,None,1.6835174998268485,,,,,,,pz2,2022_May_09_1441,training+cueing,2021.1.4,59.9213233590678,
Stranger.png,Friend,Stranger,m,2.3,17,27,97,,,,,0,0,0,0,,,,,3,7,43,7,,,,,,,,,,,,,,,,,,,,,1.584,1.469,284.04054059972987,None,,,,,,,,,,,,,,,,,,,,284.5795426000841,285.0847134999931,0.5087734796106815,1.0090669798664749,285.06805239990354,285.18477199971676,285.06805239990354,285.18477199971676,285.16811429988593,None,m,1,285.16811429988593,None,1.212101399898529,,,,,,,pz2,2022_May_09_1441,training+cueing,2021.1.4,59.9213233590678,
Self.png,You,Self ,c,1,11,21,91,,,,,0,0,0,0,,,,,3,8,44,0,,,,,,,,,,,,,,,,,,,,,1.476,1.399,286.51323710009456,None,,,,,,,,,,,,,,,,,,,,287.05331399990246,287.5531246997416,0.5005651800893247,1.000950280111283,287.5364822000265,287.636525799986,287.5364822000265,287.636525799986,287.636525799986,None,c,1,287.636525799986,None,0.4715828001499176,,,,,,,pz2,2022_May_09_1441,training+cueing,2021.1.4,59.9213233590678,
Stranger.png,Stranger,Stranger,c,3,13,23,93,,,,,0,0,0,0,,,,,3,9,45,8,,,,,,,,,,,,,,,,,,,,,1.53,1.603,288.24290499975905,None,,,,,,,,,,,,,,,,,,,,288.78653099993244,289.2876709997654,0.5030845799483359,1.003393679857254,289.2710500000976,289.3877357998863,289.2710500000976,289.3877357998863,289.3710598000325,None,m,0,289.3710598000325,None,0.6253531998954713,,,,,,,pz2,2022_May_09_1441,training+cueing,2021.1.4,59.9213233590678,
Stranger.png,You,Stranger,m,1.3,15,25,95,,,,,0,0,0,0,,,,,3,10,46,6,,,,,,,,,,,,,,,,,,,,,1.438,1.6,290.1319733001292,None,,,,,,,,,,,,,,,,,,,,290.6797914998606,291.18933319998905,0.5011278800666332,1.0012782798148692,291.1726800999604,291.2726620999165,291.1726800999604,291.2726620999165,291.2726620999165,None,c,0,291.2726620999165,None,0.8675204003229737,,,,,,,pz2,2022_May_09_1441,training+cueing,2021.1.4,59.9213233590678,
Friend.png,Stranger,Friend,m,3.2,19,29,99,,,,,0,0,0,0,,,,,3,11,47,5,,,,,,,,,,,,,,,,,,,,,1.545,2.154,292.2623080997728,None,,,,,,,,,,,,,,,,,,,,292.8055810998194,293.3072647000663,0.5033068796619773,1.0036182799376547,293.29063279973343,293.40733279986307,293.29063279973343,293.40733279986307,293.3906724001281,None,m,1,293.3906724001281,None,0.6695077996701002,,,,,,,pz2,2022_May_09_1441,training+cueing,2021.1.4,59.9213233590678,
Stranger.png,You,Stranger,m,1.3,15,25,95,,,,,0,0,0,0,,,,,4,0,48,6,,,,,,,,,,,,,,,,,,,,,1.415,1.921,294.1975464001298,None,,,,,,,,,,,,,,,,,,,,294.7365186000243,295.24203650001436,0.5097765792161226,1.0108299795538187,295.2252843999304,295.3253506999463,295.2252843999304,295.3253506999463,295.3253506999463,None,m,1,295.3253506999463,None,0.7511340999044478,,,,,,,pz2,2022_May_09_1441,training+cueing,2021.1.4,59.9213233590678,
Self.png,You,Self ,c,1,11,21,91,,,,,0,0,0,0,,,,,4,1,49,9,,,,,,,,,,,,,,,,,,,,,1.576,1.349,296.20073439972475,None,,,,,,,,,,,,,,,,,,,,296.73992720013484,297.2434175997041,0.5065427795052528,1.0068736798129976,297.22680020006374,297.3268335000612,297.22680020006374,297.3268335000612,297.3268335000612,None,c,1,297.3268335000612,None,0.6374412002041936,,,,,,,pz2,2022_May_09_1441,training+cueing,2021.1.4,59.9213233590678,
Self.png,Stranger,Self ,m,3.1,18,28,98,,,,,0,0,0,0,,,,,4,2,50,2,,,,,,,,,,,,,,,,,,,,,1.749,1.814,298.10206269985065,None,,,,,,,,,,,,,,,,,,,,298.64394380012527,299.14481149986386,0.5012601795606315,1.0015985793434083,299.1281709000468,299.24488479970023,299.1281709000468,299.24488479970023,299.24488479970023,None,m,1,299.24488479970023,None,0.7033042004331946,,,,,,,pz2,2022_May_09_1441,training+cueing,2021.1.4,59.9213233590678,
Stranger.png,Stranger,Stranger,c,3,13,23,93,,,,,0,0,0,0,,,,,4,3,51,11,,,,,,,,,,,,,,,,,,,,,1.408,1.986,300.0850410000421,None,,,,,,,,,,,,,,,,,,,,300.62441179994494,301.1296497997828,0.5083197802305222,1.0086494805291295,301.1128805000335,301.2296841000207,301.1128805000335,301.2296841000207,301.2129166997038,None,c,1,301.2129166997038,None,0.8792125000618398,,,,,,,pz2,2022_May_09_1441,training+cueing,2021.1.4,59.9213233590678,
Friend.png,Friend,Friend,c,2,12,22,92,,,,,0,0,0,0,,,,,4,4,52,4,,,,,,,,,,,,,,,,,,,,,1.792,1.926,302.2202471997589,None,,,,,,,,,,,,,,,,,,,,302.76152670010924,303.2644625999965,0.5056406799703836,1.0066550797782838,303.24784209998325,303.3653472997248,303.24784209998325,303.3653472997248,303.34847320010886,None,c,1,303.34847320010886,None,1.2399381003342569,,,,,,,pz2,2022_May_09_1441,training+cueing,2021.1.4,59.9213233590678,
Self.png,Friend,Self ,m,2.1,16,26,96,,,,,0,0,0,0,,,,,4,5,53,1,,,,,,,,,,,,,,,,,,,,,1.639,2.397,304.72540850006044,None,,,,,,,,,,,,,,,,,,,,305.2633493999019,305.7662840001285,0.5051042796112597,1.0053835795260966,305.7496202001348,305.8663763999939,305.7496202001348,305.8663763999939,305.8496532998979,None,m,1,305.8496532998979,None,0.6745593999512494,,,,,,,pz2,2022_May_09_1441,training+cueing,2021.1.4,59.9213233590678,
Friend.png,You,Friend,m,1.2,14,24,94,,,,,0,0,0,0,,,,,4,6,54,3,,,,,,,,,,,,,,,,,,,,,1.749,1.442,306.65635069971904,None,,,,,,,,,,,,,,,,,,,,307.19754320010543,307.70099369995296,0.5051576802507043,1.0056541804224253,307.6843814998865,307.7844278998673,307.6843814998865,307.7844278998673,307.7844278998673,None,m,1,307.7844278998673,None,0.8678998998366296,,,,,,,pz2,2022_May_09_1441,training+cueing,2021.1.4,59.9213233590678,
Friend.png,Friend,Friend,c,2,12,22,92,,,,,0,0,0,0,,,,,4,7,55,10,,,,,,,,,,,,,,,,,,,,,1.539,1.738,308.7755938000046,None,,,,,,,,,,,,,,,,,,,,309.3156775999814,309.81923339981586,0.5061624799855053,1.0064449799247086,309.80259410012513,309.91925149969757,309.80259410012513,309.91925149969757,309.9025932997465,None,c,1,309.9025932997465,None,0.9898098004050553,,,,,,,pz2,2022_May_09_1441,training+cueing,2021.1.4,59.9213233590678,
Stranger.png,Stranger,Stranger,c,3,13,23,93,,,,,0,0,0,0,,,,,4,8,56,8,,,,,,,,,,,,,,,,,,,,,1.537,2.432,311.02852959977463,None,,,,,,,,,,,,,,,,,,,,311.5915815997869,312.10419229976833,0.507190840318799,1.0077163404785097,312.0875581,312.2049615997821,312.0875581,312.2049615997821,312.18756840005517,None,m,0,312.18756840005517,None,0.6886745002120733,,,,,,,pz2,2022_May_09_1441,training+cueing,2021.1.4,59.9213233590678,
Self.png,You,Self ,c,1,11,21,91,,,,,0,0,0,0,,,,,4,9,57,0,,,,,,,,,,,,,,,,,,,,,1.678,1.334,313.0123759000562,None,,,,,,,,,,,,,,,,,,,,313.5540408999659,314.05565680004656,0.5037062801420689,1.0039538801647723,314.0389438001439,314.13893119990826,314.0389438001439,314.13893119990826,314.13893119990826,None,c,1,314.13893119990826,None,0.99310929980129,,,,,,,pz2,2022_May_09_1441,training+cueing,2021.1.4,59.9213233590678,
Stranger.png,Friend,Stranger,m,2.3,17,27,97,,,,,0,0,0,0,,,,,4,10,58,7,,,,,,,,,,,,,,,,,,,,,1.483,2.314,315.2628580997698,None,,,,,,,,,,,,,,,,,,,,315.8148925998248,316.3240240998566,0.5027121799066663,1.0031030802056193,316.30732070002705,316.4240776998922,316.30732070002705,316.4240776998922,316.4073326997459,None,m,1,316.4073326997459,None,1.4288808000274003,,,,,,,pz2,2022_May_09_1441,training+cueing,2021.1.4,59.9213233590678,
Friend.png,Stranger,Friend,m,3.2,19,29,99,,,,,0,0,0,0,,,,,4,11,59,5,,,,,,,,,,,,,,,,,,,,,1.75,2.304,317.9649894000031,None,,,,,,,,,,,,,,,,,,,,318.50725159980357,319.00915999989957,0.5037894798442721,1.0041037797927856,318.99252979969606,319.10919089987874,318.99252979969606,319.10919089987874,319.09257009997964,None,m,1,319.09257009997964,None,1.0315515999682248,,,,,,,pz2,2022_May_09_1441,training+cueing,2021.1.4,59.9213233590678,
Self.png,You,Self ,c,1,11,21,91,,,,,0,0,0,0,,,,,5,0,60,9,,,,,,,,,,,,,,,,,,,,,1.708,1.279,320.25153449969366,None,,,,,,,,,,,,,,,,,,,,320.8002855000086,321.3109348998405,0.5039661801420152,1.0042441803961992,321.29416129970923,321.3941772999242,321.29416129970923,321.3941772999242,321.3941772999242,None,c,1,321.3941772999242,None,0.7459340998902917,,,,,,,pz2,2022_May_09_1441,training+cueing,2021.1.4,59.9213233590678,
Friend.png,Stranger,Friend,m,3.2,19,29,99,,,,,0,0,0,0,,,,,5,1,61,5,,,,,,,,,,,,,,,,,,,,,1.578,1.711,322.2682948000729,None,,,,,,,,,,,,,,,,,,,,322.8107123998925,323.3122338000685,0.5038781799376011,1.0041403798386455,323.2956330999732,323.41230269987136,323.2956330999732,323.41230269987136,323.3956836001016,None,m,1,323.3956836001016,None,0.9043596000410616,,,,,,,pz2,2022_May_09_1441,training+cueing,2021.1.4,59.9213233590678,
Friend.png,Friend,Friend,c,2,12,22,92,,,,,0,0,0,0,,,,,5,2,62,10,,,,,,,,,,,,,,,,,,,,,1.648,1.987,324.43540209997445,None,,,,,,,,,,,,,,,,,,,,324.99127169977874,325.4972493997775,0.5117879398167133,1.012818539980799,325.48054389981553,325.59729019971564,325.48054389981553,325.59729019971564,325.5804988001473,None,m,0,325.5804988001473,None,0.7355996002443135,,,,,,,pz2,2022_May_09_1441,training+cueing,2021.1.4,59.9213233590678,
Friend.png,Friend,Friend,c,2,12,22,92,,,,,0,0,0,0,,,,,5,3,63,4,,,,,,,,,,,,,,,,,,,,,1.784,2.04,326.43751969980076,None,,,,,,,,,,,,,,,,,,,,326.97753180004656,327.4819348999299,0.5099930795840919,1.0103302798233926,327.46530500007793,327.58200779976323,327.46530500007793,327.58200779976323,327.5653309999034,None,c,1,327.5653309999034,None,0.7188197001814842,,,,,,,pz2,2022_May_09_1441,training+cueing,2021.1.4,59.9213233590678,
Self.png,You,Self ,c,1,11,21,91,,,,,0,0,0,0,,,,,5,4,64,0,,,,,,,,,,,,,,,,,,,,,1.747,1.413,328.42255159979686,None,,,,,,,,,,,,,,,,,,,,328.9629007000476,329.4667548998259,0.5055974796414375,1.0058986796066165,329.45005790004507,329.5500525999814,329.45005790004507,329.5500525999814,329.5500525999814,None,c,1,329.5500525999814,None,0.5581340999342501,,,,,,,pz2,2022_May_09_1441,training+cueing,2021.1.4,59.9213233590678,
Self.png,Friend,Self ,m,2.1,16,26,96,,,,,0,0,0,0,,,,,5,5,65,1,,,,,,,,,,,,,,,,,,,,,1.579,2.393,330.24021059973165,None,,,,,,,,,,,,,,,,,,,,330.78214599983767,331.2847599997185,0.5065449797548354,1.0076634800061584,331.26797639997676,331.38479029992595,331.26797639997676,331.38479029992595,331.36802709987387,None,m,1,331.36802709987387,None,0.9481863998807967,,,,,,,pz2,2022_May_09_1441,training+cueing,2021.1.4,59.9213233590678,
Stranger.png,Stranger,Stranger,c,3,13,23,93,,,,,0,0,0,0,,,,,5,6,66,11,,,,,,,,,,,,,,,,,,,,,1.512,1.841,332.4435450998135,None,,,,,,,,,,,,,,,,,,,,332.98451429978013,333.48624899983406,0.5055290795862675,1.0059876795858145,333.4696160997264,333.58654349995777,333.4696160997264,333.58654349995777,333.56965909991413,None,c,1,333.56965909991413,None,1.002474999986589,,,,,,,pz2,2022_May_09_1441,training+cueing,2021.1.4,59.9213233590678,
Stranger.png,Stranger,Stranger,c,3,13,23,93,,,,,0,0,0,0,,,,,5,7,67,8,,,,,,,,,,,,,,,,,,,,,1.658,2.458,334.69365879986435,None,,,,,,,,,,,,,,,,,,,,335.2320046997629,335.737963499967,0.509948680177331,1.0102143799886107,335.7213089996949,335.8379788999446,335.7213089996949,335.8379788999446,335.8213273999281,None,c,1,335.8213273999281,None,0.6386834997683764,,,,,,,pz2,2022_May_09_1441,training+cueing,2021.1.4,59.9213233590678,
Friend.png,You,Friend,m,1.2,14,24,94,,,,,0,0,0,0,,,,,5,8,68,3,,,,,,,,,,,,,,,,,,,,,1.742,1.943,336.59467120002955,None,,,,,,,,,,,,,,,,,,,,337.1455072998069,337.65595909999683,0.5058461795561016,1.0061631794087589,337.63930659973994,337.73937840014696,337.63930659973994,337.73937840014696,337.73937840014696,None,m,1,337.73937840014696,None,0.9128252002410591,,,,,,,pz2,2022_May_09_1441,training+cueing,2021.1.4,59.9213233590678,
Self.png,Stranger,Self ,m,3.1,18,28,98,,,,,0,0,0,0,,,,,5,9,69,2,,,,,,,,,,,,,,,,,,,,,1.728,1.437,338.78089299984276,None,,,,,,,,,,,,,,,,,,,,339.3244046997279,339.8242138000205,0.5002869800664485,1.0006525800563395,339.8075612997636,339.924298199825,339.8075612997636,339.924298199825,339.924298199825,None,m,1,339.924298199825,None,0.983890799805522,,,,,,,pz2,2022_May_09_1441,training+cueing,2021.1.4,59.9213233590678,
Stranger.png,Friend,Stranger,m,2.3,17,27,97,,,,,0,0,0,0,,,,,5,10,70,7,,,,,,,,,,,,,,,,,,,,,1.575,1.859,341.0316224996932,None,,,,,,,,,,,,,,,,,,,,341.5727623999119,342.0758881000802,0.5050149797461927,1.0052927797660232,342.0591370998882,342.1759123997763,342.0591370998882,342.1759123997763,342.1591631998308,None,None,0,342.1591631998308,None,,,,,,,,pz2,2022_May_09_1441,training+cueing,2021.1.4,59.9213233590678,
Stranger.png,You,Stranger,m,1.3,15,25,95,,,,,0,0,0,0,,,,,5,11,71,6,,,,,,,,,,,,,,,,,,,,,1.427,1.514,343.84892110014334,None,,,,,,,,,,,,,,,,,,,,344.391231500078,344.8947525997646,0.5056143798865378,1.0059209801256657,344.8778447001241,344.97790639987215,344.8778447001241,344.97790639987215,344.97790639987215,None,m,1,344.97790639987215,None,1.2423829999752343,,,,,,,pz2,2022_May_09_1441,training+cueing,2021.1.4,59.9213233590678,
Friend.png,Friend,Friend,c,2,12,22,92,,,,,0,0,0,0,,,,,6,0,72,4,,,,,,,,,,,,,,,,,,,,,1.406,1.961,346.35555840004236,None,,,,,,,,,,,,,,,,,,,,346.9090712997131,347.41300279973075,0.5054529402405024,1.00579444039613,347.39628330012783,347.51308899978176,347.39628330012783,347.51308899978176,347.49634059984237,None,c,1,347.49634059984237,None,1.2197162001393735,,,,,,,pz2,2022_May_09_1441,training+cueing,2021.1.4,59.9213233590678,
Friend.png,You,Friend,m,1.2,14,24,94,,,,,0,0,0,0,,,,,6,1,73,3,,,,,,,,,,,,,,,,,,,,,1.634,2.484,348.85417439974844,None,,,,,,,,,,,,,,,,,,,,349.4116748999804,349.9149914998561,0.5067498404532671,1.0070913401432335,349.89835219969973,349.9984030998312,349.89835219969973,349.9984030998312,349.9984030998312,None,m,1,349.9984030998312,None,0.9258129000663757,,,,,,,pz2,2022_May_09_1441,training+cueing,2021.1.4,59.9213233590678,
Stranger.png,Friend,Stranger,m,2.3,17,27,97,,,,,0,0,0,0,,,,,6,2,74,7,,,,,,,,,,,,,,,,,,,,,1.668,2.463,351.05525879980996,None,,,,,,,,,,,,,,,,,,,,351.59535029996186,352.0999202998355,0.5088966800831258,1.0091428798623383,352.08318269997835,352.1998731000349,352.08318269997835,352.1998731000349,352.1832775999792,None,m,1,352.1832775999792,None,1.2848528996109962,,,,,,,pz2,2022_May_09_1441,training+cueing,2021.1.4,59.9213233590678,
Self.png,Friend,Self ,m,2.1,16,26,96,,,,,0,0,0,0,,,,,6,3,75,1,,,,,,,,,,,,,,,,,,,,,1.465,1.951,353.59064299985766,None,,,,,,,,,,,,,,,,,,,,354.1293616001494,354.63486839970574,0.5084010795690119,1.0089568798430264,354.6182351000607,354.7350801997818,354.6182351000607,354.7350801997818,354.7182517000474,None,m,1,354.7182517000474,None,1.1979336999356747,,,,,,,pz2,2022_May_09_1441,training+cueing,2021.1.4,59.9213233590678,
Friend.png,Stranger,Friend,m,3.2,19,29,99,,,,,0,0,0,0,,,,,6,4,76,5,,,,,,,,,,,,,,,,,,,,,1.764,1.908,356.0430026999675,None,,,,,,,,,,,,,,,,,,,,356.5868671000935,357.08667120011523,0.49926607962697744,0.9995580799877644,357.0699877999723,357.18675549980253,357.0699877999723,357.18675549980253,357.18675549980253,None,None,0,357.18675549980253,None,,,,,,,,pz2,2022_May_09_1441,training+cueing,2021.1.4,59.9213233590678,
Self.png,You,Self ,c,1,11,21,91,,,,,0,0,0,0,,,,,6,5,77,9,,,,,,,,,,,,,,,,,,,,,1.777,1.94,359.06059509981424,None,,,,,,,,,,,,,,,,,,,,359.6041065999307,360.10553919989616,0.5037991795688868,1.00425507966429,360.0888741998933,360.18888329993933,360.0888741998933,360.18888329993933,360.18888329993933,None,c,1,360.18888329993933,None,0.543223399668932,,,,,,,pz2,2022_May_09_1441,training+cueing,2021.1.4,59.9213233590678,
Stranger.png,Stranger,Stranger,c,3,13,23,93,,,,,0,0,0,0,,,,,6,6,78,11,,,,,,,,,,,,,,,,,,,,,1.542,1.441,360.8631007997319,None,,,,,,,,,,,,,,,,,,,,361.4040079000406,361.9069678001106,0.5046237800270319,1.004934179596603,361.89015140011907,362.00687419995666,361.89015140011907,362.00687419995666,361.9901677998714,None,m,0,361.9901677998714,None,0.6298950002528727,,,,,,,pz2,2022_May_09_1441,training+cueing,2021.1.4,59.9213233590678,
Self.png,You,Self ,c,1,11,21,91,,,,,0,0,0,0,,,,,6,7,79,0,,,,,,,,,,,,,,,,,,,,,1.528,2.496,362.74727699998766,None,,,,,,,,,,,,,,,,,,,,363.29003429971635,363.7917657997459,0.5033975797705352,1.0037082796916366,363.77478889981285,363.87483510002494,363.77478889981285,363.87483510002494,363.87483510002494,None,c,1,363.87483510002494,None,0.5852103997021914,,,,,,,pz2,2022_May_09_1441,training+cueing,2021.1.4,59.9213233590678,
Self.png,Stranger,Self ,m,3.1,18,28,98,,,,,0,0,0,0,,,,,6,8,80,2,,,,,,,,,,,,,,,,,,,,,1.582,2.077,364.5818670997396,None,,,,,,,,,,,,,,,,,,,,365.1247398997657,365.6262027998455,0.500397979747504,1.0006942795589566,365.60953760007396,365.7262451001443,365.60953760007396,365.7262451001443,365.7262451001443,None,m,1,365.7262451001443,None,0.8297398001886904,,,,,,,pz2,2022_May_09_1441,training+cueing,2021.1.4,59.9213233590678,
Friend.png,Friend,Friend,c,2,12,22,92,,,,,0,0,0,0,,,,,6,9,81,10,,,,,,,,,,,,,,,,,,,,,1.571,1.498,366.68356489995494,None,,,,,,,,,,,,,,,,,,,,367.226594499778,367.7276939000003,0.5028553800657392,1.0031550801359117,367.7109916997142,367.8277513999492,367.7109916997142,367.8277513999492,367.81099459994584,None,m,0,367.81099459994584,None,0.9212072999216616,,,,,,,pz2,2022_May_09_1441,training+cueing,2021.1.4,59.9213233590678,
Stranger.png,Stranger,Stranger,c,3,13,23,93,,,,,0,0,0,0,,,,,6,10,82,8,,,,,,,,,,,,,,,,,,,,,1.491,2.292,368.87115619983524,None,,,,,,,,,,,,,,,,,,,,369.4116062000394,369.91261269990355,0.5018738796934485,1.0023341798223555,369.8959836997092,370.01267720013857,369.8959836997092,370.01267720013857,369.9959867997095,None,m,0,369.9959867997095,None,0.7521401001140475,,,,,,,pz2,2022_May_09_1441,training+cueing,2021.1.4,59.9213233590678,
Stranger.png,You,Stranger,m,1.3,15,25,95,,,,,0,0,0,0,,,,,6,11,83,6,,,,,,,,,,,,,,,,,,,,,1.766,1.525,370.88759719999507,None,,,,,,,,,,,,,,,,,,,,371.4418552001007,371.9474013997242,0.5103925401344895,1.010674939956516,371.93074679980054,372.0308082997799,371.93074679980054,372.0308082997799,372.0308082997799,None,m,1,372.0308082997799,None,0.7972293999046087,,,,,,,pz2,2022_May_09_1441,training+cueing,2021.1.4,59.9213233590678,
Friend.png,You,Friend,m,1.2,14,24,94,,,,,0,0,0,0,,,,,7,0,84,3,,,,,,,,,,,,,,,,,,,,,1.636,1.363,372.9538984997198,None,,,,,,,,,,,,,,,,,,,,373.49493269994855,373.99883869988844,0.5086521795019507,1.0089307795278728,373.9822301999666,374.0822453997098,373.9822301999666,374.0822453997098,374.0822453997098,None,c,0,374.0822453997098,None,0.7458165003918111,,,,,,,pz2,2022_May_09_1441,training+cueing,2021.1.4,59.9213233590678,
Stranger.png,You,Stranger,m,1.3,15,25,95,,,,,0,0,0,0,,,,,7,1,85,6,,,,,,,,,,,,,,,,,,,,,1.791,2.33,374.9557133000344,None,,,,,,,,,,,,,,,,,,,,375.49638219969347,376.00031010014936,0.5080323801375926,1.0082943802699447,375.9837060999125,376.08370970003307,375.9837060999125,376.08370970003307,376.08370970003307,None,m,1,376.08370970003307,None,0.8883061003871262,,,,,,,pz2,2022_May_09_1441,training+cueing,2021.1.4,59.9213233590678,
Stranger.png,Stranger,Stranger,c,3,13,23,93,,,,,0,0,0,0,,,,,7,2,86,8,,,,,,,,,,,,,,,,,,,,,1.402,1.992,377.1079263999127,None,,,,,,,,,,,,,,,,,,,,377.6502680997364,378.1530816000886,0.5024983799085021,1.002615679986775,378.1354014999233,378.2520737000741,378.1354014999233,378.2520737000741,378.2352884998545,None,None,0,378.2352884998545,None,,,,,,,,pz2,2022_May_09_1441,training+cueing,2021.1.4,59.9213233590678,
Friend.png,Stranger,Friend,m,3.2,19,29,99,,,,,0,0,0,0,,,,,7,3,87,5,,,,,,,,,,,,,,,,,,,,,1.632,1.789,379.74031260004267,None,,,,,,,,,,,,,,,,,,,,380.2831561998464,380.78726870007813,0.5087139797396958,1.0089907799847424,380.7704850998707,380.887173099909,380.7704850998707,380.887173099909,380.8704476999119,None,m,1,380.8704476999119,None,1.5096867997199297,,,,,,,pz2,2022_May_09_1441,training+cueing,2021.1.4,59.9213233590678,
Self.png,Friend,Self ,m,2.1,16,26,96,,,,,0,0,0,0,,,,,7,4,88,1,,,,,,,,,,,,,,,,,,,,,1.681,1.81,382.5121645000763,None,,,,,,,,,,,,,,,,,,,,383.05381299974397,383.5557862999849,0.5028719799593091,1.0031525800004601,383.5391532997601,383.65581060014665,383.5391532997601,383.65581060014665,383.63915599975735,None,m,1,383.63915599975735,None,0.788808099925518,,,,,,,pz2,2022_May_09_1441,training+cueing,2021.1.4,59.9213233590678,
Self.png,You,Self ,c,1,11,21,91,,,,,0,0,0,0,,,,,7,5,89,9,,,,,,,,,,,,,,,,,,,,,1.669,2.423,384.5632063001394,None,,,,,,,,,,,,,,,,,,,,385.11727399984375,385.62414789991453,0.5150018404237926,1.0151141402311623,385.6076215999201,385.7075394000858,385.6076215999201,385.7075394000858,385.7075394000858,None,m,0,385.7075394000858,None,1.1204770999029279,,,,,,,pz2,2022_May_09_1441,training+cueing,2021.1.4,59.9213233590678,
Stranger.png,Stranger,Stranger,c,3,13,23,93,,,,,0,0,0,0,,,,,7,6,90,11,,,,,,,,,,,,,,,,,,,,,1.546,1.399,386.96536879986525,None,,,,,,,,,,,,,,,,,,,,387.50795909995213,388.00894809979945,0.5018439800478518,1.002127779647708,387.9923388999887,388.1090154000558,387.9923388999887,388.1090154000558,388.0923643000424,None,c,1,388.0923643000424,None,1.103741199709475,,,,,,,pz2,2022_May_09_1441,training+cueing,2021.1.4,59.9213233590678,
Friend.png,Friend,Friend,c,2,12,22,92,,,,,0,0,0,0,,,,,7,7,91,4,,,,,,,,,,,,,,,,,,,,,1.667,1.985,389.3325928999111,None,,,,,,,,,,,,,,,,,,,,389.87531929975376,390.37736340006813,0.5024346802383661,1.0026884800754488,390.360758099705,390.477390400134,390.360758099705,390.477390400134,390.4607363999821,None,c,1,390.4607363999821,None,1.0873262998647988,,,,,,,pz2,2022_May_09_1441,training+cueing,2021.1.4,59.9213233590678,
Stranger.png,Friend,Stranger,m,2.3,17,27,97,,,,,0,0,0,0,,,,,7,8,92,7,,,,,,,,,,,,,,,,,,,,,1.785,1.89,391.68447159975767,None,,,,,,,,,,,,,,,,,,,,392.2253221999854,392.7291605998762,0.5079369796440005,1.0082395798526704,392.7125773001462,392.8292666999623,392.7125773001462,392.8292666999623,392.8125853999518,None,m,1,392.8125853999518,None,0.8955259001813829,,,,,,,pz2,2022_May_09_1441,training+cueing,2021.1.4,59.9213233590678,
Self.png,You,Self ,c,1,11,21,91,,,,,0,0,0,0,,,,,7,9,93,0,,,,,,,,,,,,,,,,,,,,,1.553,2.354,393.8366626999341,None,,,,,,,,,,,,,,,,,,,,394.38779019983485,394.89723980007693,0.502244679722935,1.0028173793107271,394.8806408997625,394.98069480014965,394.8806408997625,394.98069480014965,394.98069480014965,None,c,1,394.98069480014965,None,0.8393757003359497,,,,,,,pz2,2022_May_09_1441,training+cueing,2021.1.4,59.9213233590678,
Self.png,Stranger,Self ,m,3.1,18,28,98,,,,,0,0,0,0,,,,,7,10,94,2,,,,,,,,,,,,,,,,,,,,,1.481,2.408,395.9559833998792,None,,,,,,,,,,,,,,,,,,,,396.4991668998264,396.998865199741,0.5139305796474218,1.0141592798754573,396.998865199741,397.0988794998266,396.998865199741,397.0988794998266,397.0988794998266,None,m,1,397.0988794998266,None,0.849110699724406,,,,,,,pz2,2022_May_09_1441,training+cueing,2021.1.4,59.9213233590678,
Friend.png,Friend,Friend,c,2,12,22,92,,,,,0,0,0,0,,,,,7,11,95,10,,,,,,,,,,,,,,,,,,,,,1.765,1.764,398.07248539989814,None,,,,,,,,,,,,,,,,,,,,398.61571990000084,399.1170014999807,0.5026741796173155,1.0029584793373942,399.1003954997286,399.21707039978355,399.1003954997286,399.21707039978355,399.2004120997153,None,c,1,399.2004120997153,None,0.7475874000228941,,,,,,,pz2,2022_May_09_1441,training+cueing,2021.1.4,59.9213233590678,
Stranger.png,Friend,Stranger,m,2.3,17,27,97,,,,,0,0,0,0,,,,,8,0,96,7,,,,,,,,,,,,,,,,,,,,,1.629,1.246,400.0733797997236,None,,,,,,,,,,,,,,,,,,,,400.6236076997593,401.13516080006957,0.5040866802446544,1.004489980172366,401.1185495001264,401.23518500011414,401.1185495001264,401.23518500011414,401.21853299997747,None,m,1,401.21853299997747,None,0.7775511001236737,,,,,,,pz2,2022_May_09_1441,training+cueing,2021.1.4,59.9213233590678,
Friend.png,You,Friend,m,1.2,14,24,94,,,,,0,0,0,0,,,,,8,1,97,3,,,,,,,,,,,,,,,,,,,,,1.74,1.908,402.1269380999729,None,,,,,,,,,,,,,,,,,,,,402.6719887997024,403.18658829992637,0.51349887996912,1.0137965800240636,403.16994709987193,403.26999679999426,403.16994709987193,403.26999679999426,403.26999679999426,None,m,1,403.26999679999426,None,1.3818838996812701,,,,,,,pz2,2022_May_09_1441,training+cueing,2021.1.4,59.9213233590678,
Stranger.png,You,Stranger,m,1.3,15,25,95,,,,,0,0,0,0,,,,,8,2,98,6,,,,,,,,,,,,,,,,,,,,,1.452,1.649,404.77786780009046,None,,,,,,,,,,,,,,,,,,,,405.3188875997439,405.8219042997807,0.507594479713589,1.007887679617852,405.80525969993323,405.90526570007205,405.80525969993323,405.90526570007205,405.90526570007205,None,m,1,405.90526570007205,None,0.7467029998078942,,,,,,,pz2,2022_May_09_1441,training+cueing,2021.1.4,59.9213233590678,
Friend.png,Stranger,Friend,m,3.2,19,29,99,,,,,0,0,0,0,,,,,8,3,99,5,,,,,,,,,,,,,,,,,,,,,1.588,2.359,406.77900999970734,None,,,,,,,,,,,,,,,,,,,,407.3216375000775,407.82333419984207,0.5020601800642908,1.002350380178541,407.8066182001494,407.92338069994,407.8066182001494,407.92338069994,407.906607999932,None,m,1,407.906607999932,None,1.2414306001737714,,,,,,,pz2,2022_May_09_1441,training+cueing,2021.1.4,59.9213233590678,
Self.png,Stranger,Self ,m,3.1,18,28,98,,,,,0,0,0,0,,,,,8,4,100,2,,,,,,,,,,,,,,,,,,,,,1.661,1.768,409.2812672997825,None,,,,,,,,,,,,,,,,,,,,409.8329301001504,410.3418184998445,0.5027861800044775,1.0030833804048598,410.3250830997713,410.44188300007954,410.3250830997713,410.44188300007954,410.42509010015056,None,m,1,410.42509010015056,None,0.8829402001574636,,,,,,,pz2,2022_May_09_1441,training+cueing,2021.1.4,59.9213233590678,
Stranger.png,Stranger,Stranger,c,3,13,23,93,,,,,0,0,0,0,,,,,8,5,101,8,,,,,,,,,,,,,,,,,,,,,1.535,1.93,411.4324380001053,None,,,,,,,,,,,,,,,,,,,,411.973699899856,412.476686200127,0.5073085795156658,1.0075594796799123,412.4600684000179,412.5767012001015,412.4600684000179,412.5767012001015,412.56003509974107,None,c,1,412.56003509974107,None,0.8599484004080296,,,,,,,pz2,2022_May_09_1441,training+cueing,2021.1.4,59.9213233590678,
Friend.png,Friend,Friend,c,2,12,22,92,,,,,0,0,0,0,,,,,8,6,102,10,,,,,,,,,,,,,,,,,,,,,1.543,1.334,413.5505325999111,None,,,,,,,,,,,,,,,,,,,,414.1094615999609,414.61149589996785,0.5033102403394878,1.0036109401844442,414.59490939974785,414.711595099885,414.59490939974785,414.711595099885,414.69491539988667,None,m,0,414.69491539988667,None,1.1730015999637544,,,,,,,pz2,2022_May_09_1441,training+cueing,2021.1.4,59.9213233590678,
Self.png,You,Self ,c,1,11,21,91,,,,,0,0,0,0,,,,,8,7,103,9,,,,,,,,,,,,,,,,,,,,,1.721,1.863,416.002528199926,None,,,,,,,,,,,,,,,,,,,,416.5650661000982,417.0800763000734,0.5132110398262739,1.0136575396172702,417.063321699854,417.16334600001574,417.063321699854,417.16334600001574,417.16334600001574,None,c,1,417.16334600001574,None,1.0567195997573435,,,,,,,pz2,2022_May_09_1441,training+cueing,2021.1.4,59.9213233590678,
Stranger.png,Stranger,Stranger,c,3,13,23,93,,,,,0,0,0,0,,,,,8,8,104,11,,,,,,,,,,,,,,,,,,,,,1.584,2.413,418.35471029998735,None,,,,,,,,,,,,,,,,,,,,418.8950996999629,419.3983077998273,0.5039772796444595,1.0042602797038853,419.3816271000542,419.49839599989355,419.3816271000542,419.49839599989355,419.4816672001034,None,m,0,419.4816672001034,None,1.3624515999108553,,,,,,,pz2,2022_May_09_1441,training+cueing,2021.1.4,59.9213233590678,
Friend.png,Friend,Friend,c,2,12,22,92,,,,,0,0,0,0,,,,,8,9,105,4,,,,,,,,,,,,,,,,,,,,,1.47,1.502,420.97426219983026,None,,,,,,,,,,,,,,,,,,,,421.5157695999369,422.0168854999356,0.5017494801431894,1.002034580335021,422.0002482999116,422.11701299995184,422.0002482999116,422.11701299995184,422.1002126997337,None,c,1,422.1002126997337,None,0.9679201999679208,,,,,,,pz2,2022_May_09_1441,training+cueing,2021.1.4,59.9213233590678,
Self.png,You,Self ,c,1,11,21,91,,,,,0,0,0,0,,,,,8,10,106,0,,,,,,,,,,,,,,,,,,,,,1.494,2.097,423.190586599987,None,,,,,,,,,,,,,,,,,,,,423.7336404998787,424.2351417001337,0.5040476801805198,1.004189379978925,424.21860220003873,424.3185167000629,424.21860220003873,424.3185167000629,424.3185167000629,None,c,1,424.3185167000629,None,0.5735049000941217,,,,,,,pz2,2022_May_09_1441,training+cueing,2021.1.4,59.9213233590678,
Self.png,Friend,Self ,m,2.1,16,26,96,,,,,0,0,0,0,,,,,8,11,107,1,,,,,,,,,,,,,,,,,,,,,1.575,1.993,425.02530949981883,None,,,,,,,,,,,,,,,,,,,,425.57740469975397,426.0865171998739,0.5002561802975833,1.0012566801160574,426.0698500997387,426.18655799981207,426.0698500997387,426.18655799981207,426.18655799981207,None,m,1,426.18655799981207,None,0.6736508002504706,,,,,,,pz2,2022_May_09_1441,training+cueing,2021.1.4,59.9213233590678,
Friend.png,Friend,Friend,c,2,12,22,92,,,,,0,0,0,0,,,,,9,0,108,4,,,,,,,,,,,,,,,,,,,,,1.442,1.395,426.9944432997145,None,,,,,,,,,,,,,,,,,,,,427.54151999996975,428.0545474998653,0.509885779581964,1.0101648792624474,428.03792320005596,428.15459549985826,428.03792320005596,428.15459549985826,428.1379186999984,None,None,0,428.1379186999984,None,,,,,,,,pz2,2022_May_09_1441,training+cueing,2021.1.4,59.9213233590678,
Self.png,You,Self ,c,1,11,21,91,,,,,0,0,0,0,,,,,9,1,109,0,,,,,,,,,,,,,,,,,,,,,1.722,2.239,429.6935346997343,None,,,,,,,,,,,,,,,,,,,,430.23812170000747,430.73992360010743,0.5040431804955006,1.0050304802134633,430.7232208997011,430.8231886997819,430.7232208997011,430.8231886997819,430.8231886997819,None,c,1,430.8231886997819,None,0.7569820997305214,,,,,,,pz2,2022_May_09_1441,training+cueing,2021.1.4,59.9213233590678,
Friend.png,Friend,Friend,c,2,12,22,92,,,,,0,0,0,0,,,,,9,2,110,10,,,,,,,,,,,,,,,,,,,,,1.636,2.33,431.71723920013756,None,,,,,,,,,,,,,,,,,,,,432.2566114999354,432.7579466998577,0.5014781798236072,1.0017620795406401,432.74129580007866,432.8580522998236,432.74129580007866,432.8580522998236,432.8412715001032,None,None,0,432.8412715001032,None,,,,,,,,pz2,2022_May_09_1441,training+cueing,2021.1.4,59.9213233590678,
Friend.png,You,Friend,m,1.2,14,24,94,,,,,0,0,0,0,,,,,9,3,111,3,,,,,,,,,,,,,,,,,,,,,1.54,1.688,434.5970048001036,None,,,,,,,,,,,,,,,,,,,,435.14244859991595,435.6434038998559,0.5025531803257763,1.0028187800198793,435.6267988998443,435.72682699980214,435.6267988998443,435.72682699980214,435.72682699980214,None,c,0,435.72682699980214,None,0.6370900999754667,,,,,,,pz2,2022_May_09_1441,training+cueing,2021.1.4,59.9213233590678,
Friend.png,Stranger,Friend,m,3.2,19,29,99,,,,,0,0,0,0,,,,,9,4,112,5,,,,,,,,,,,,,,,,,,,,,1.62,1.826,436.50035559991375,None,,,,,,,,,,,,,,,,,,,,437.0409185998142,437.5447729998268,0.5053528798744082,1.0055467798374593,437.52819709992036,437.64482320006937,437.52819709992036,437.64482320006937,437.62814990011975,None,m,1,437.62814990011975,None,0.6239221999421716,,,,,,,pz2,2022_May_09_1441,training+cueing,2021.1.4,59.9213233590678,
Stranger.png,Friend,Stranger,m,2.3,17,27,97,,,,,0,0,0,0,,,,,9,5,113,7,,,,,,,,,,,,,,,,,,,,,1.744,2.373,438.3844886999577,None,,,,,,,,,,,,,,,,,,,,438.9476072997786,439.46286860015243,0.5148734399117529,1.0151320397853851,439.44616900011897,439.5629011001438,439.44616900011897,439.5629011001438,439.546189900022,None,m,1,439.546189900022,None,0.7859398000873625,,,,,,,pz2,2022_May_09_1441,training+cueing,2021.1.4,59.9213233590678,
Stranger.png,Stranger,Stranger,c,3,13,23,93,,,,,0,0,0,0,,,,,9,6,114,8,,,,,,,,,,,,,,,,,,,,,1.53,1.449,440.4566974998452,None,,,,,,,,,,,,,,,,,,,,440.99705450003967,441.4976539998315,0.5010650800541043,1.001537480391562,441.4809984997846,441.5984632000327,441.4809984997846,441.5984632000327,441.5984632000327,None,c,1,441.5984632000327,None,0.9895363999530673,,,,,,,pz2,2022_May_09_1441,training+cueing,2021.1.4,59.9213233590678,
Stranger.png,You,Stranger,m,1.3,15,25,95,,,,,0,0,0,0,,,,,9,7,115,6,,,,,,,,,,,,,,,,,,,,,1.458,1.846,442.72262219991535,None,,,,,,,,,,,,,,,,,,,,443.2624555998482,443.76593239977956,0.5048925802111626,1.0059250802733004,443.7493014000356,443.84932669997215,443.7493014000356,443.84932669997215,443.84932669997215,None,m,1,443.84932669997215,None,0.9627546002157032,,,,,,,pz2,2022_May_09_1441,training+cueing,2021.1.4,59.9213233590678,
Stranger.png,Stranger,Stranger,c,3,13,23,93,,,,,0,0,0,0,,,,,9,8,116,11,,,,,,,,,,,,,,,,,,,,,1.564,1.477,444.94084439985454,None,,,,,,,,,,,,,,,,,,,,445.4853165000677,445.98427779972553,0.5135497795417905,1.0140475798398256,445.98427779972553,446.08428680012,445.98427779972553,446.08428680012,446.08428680012,None,c,1,446.08428680012,None,0.7117125997319818,,,,,,,pz2,2022_May_09_1441,training+cueing,2021.1.4,59.9213233590678,
Self.png,Stranger,Self ,m,3.1,18,28,98,,,,,0,0,0,0,,,,,9,9,117,2,,,,,,,,,,,,,,,,,,,,,1.552,1.838,446.9260434997268,None,,,,,,,,,,,,,,,,,,,,447.4658709997311,447.96894329972565,0.5056165801361203,1.0059465798549354,447.9523319997825,448.0690215998329,447.9523319997825,448.0690215998329,448.05235459981486,None,m,1,448.05235459981486,None,0.8076263000257313,,,,,,,pz2,2022_May_09_1441,training+cueing,2021.1.4,59.9213233590678,
Self.png,Friend,Self ,m,2.1,16,26,96,,,,,0,0,0,0,,,,,9,10,118,1,,,,,,,,,,,,,,,,,,,,,1.741,1.218,448.992228299845,None,,,,,,,,,,,,,,,,,,,,449.5330080999993,450.0371332000941,0.5061776796355844,1.0065402798354626,450.02057169983163,450.1377690997906,450.02057169983163,450.1377690997906,450.1204890999943,None,m,1,450.1204890999943,None,1.1237546000629663,,,,,,,pz2,2022_May_09_1441,training+cueing,2021.1.4,59.9213233590678,
Self.png,You,Self ,c,1,11,21,91,,,,,0,0,0,0,,,,,9,11,119,9,,,,,,,,,,,,,,,,,,,,,1.672,1.826,451.3791009001434,None,,,,,,,,,,,,,,,,,,,,451.92246129969135,452.4222292001359,0.4991819802671671,0.9994870806112885,452.4055099999532,452.5055335997604,452.4055099999532,452.5055335997604,452.5055335997604,None,c,1,452.5055335997604,None,0.6424520998261869,,,,,,,pz2,2022_May_09_1441,training+cueing,2021.1.4,59.9213233590678,
,,,,,,,,,,,,0,0,0,0,,,,,,,,,,,,,,,,,,,,,,,,,,,,,,,,,,,,,,,,,,,,,,,,,,,,,,,,,,,,,,,,,,,0.001446019858121872,None,,,,,pz2,2022_May_09_1441,training+cueing,2021.1.4,59.9213233590678,
Stranger.png,Stranger,Stranger,c,3,13,23,93,,,,,1,0,1,0,0,0,0,8,,,,,,,,,,,,,,,,,453.7905536000617,None,space,1.1812625997699797,2.0137986596673727,None,456.9757070001215,None,1.465,2.094,459.9839181001298,None,460.50889539998025,461.0117667000741,460.9951140000485,461.11178459972143,460.9951140000485,461.11178459972143,461.09509079996496,None,c,1,0.8048447002656758,461.09509079996496,None,461.9459866997786,None,,,,,,,,,,,,,,,,,,,,,,,,,,pz2,2022_May_09_1441,training+cueing,2021.1.4,59.9213233590678,
Stranger.png,Friend,Stranger,m,2.3,17,27,97,,,,,1,0,1,0,0,1,1,7,,,,,,,,,,,,,,,,,,,,,,,,,1.421,2.367,462.3460328998044,None,462.87845409987494,463.38013139972463,463.36341249989346,463.48016869975254,463.36341249989346,463.48016869975254,463.4634078000672,None,m,1,1.1885104002431035,463.4634078000672,None,464.6812125998549,None,,,,,,,,,,,,,,,,,,,,,,,,,,pz2,2022_May_09_1441,training+cueing,2021.1.4,59.9213233590678,
Stranger.png,You,Stranger,m,1.3,15,25,95,,,,,1,0,1,0,0,2,2,6,,,,,,,,,,,,,,,,,,,,,,,,,1.638,1.786,465.0814518998377,None,465.61795309977606,466.13204699987546,466.1154837999493,466.2154542999342,466.1154837999493,466.2154542999342,466.2154542999342,None,m,1,1.0925412001088262,466.2154542999342,None,467.3319272999652,None,,,,,,,,,,,,,,,,,,,,,,,,,,pz2,2022_May_09_1441,training+cueing,2021.1.4,59.9213233590678,
Friend.png,Friend,Friend,c,2,12,22,92,,,,,1,0,1,0,0,3,3,4,,,,,,,,,,,,,,,,,,,,,,,,,1.444,1.767,467.73348509985954,None,468.27692259987816,468.78398999990895,468.76737509993836,468.88405789993703,468.76737509993836,468.88405789993703,468.8673863997683,None,None,0,,468.8673863997683,None,470.31947429990396,None,,,,,,,,,,,,,,,,,,,,,,,,,,pz2,2022_May_09_1441,training+cueing,2021.1.4,59.9213233590678,
Self.png,You,Self ,c,1,11,21,91,,,,,1,0,1,0,0,4,4,9,,,,,,,,,,,,,,,,,,,,,,,,,1.467,2.382,470.7186960000545,None,471.2516443999484,471.7528165001422,471.7362035000697,471.83622559998184,471.7362035000697,471.83622559998184,471.83622559998184,None,c,1,0.5276597002521157,471.83622559998184,None,472.38544879993424,None,,,,,,,,,,,,,,,,,,,,,,,,,,pz2,2022_May_09_1441,training+cueing,2021.1.4,59.9213233590678,
Friend.png,Friend,Friend,c,2,12,22,92,,,,,1,0,1,0,0,5,5,10,,,,,,,,,,,,,,,,,,,,,,,,,1.612,2.081,472.78761920006946,None,473.325640599709,473.8376167998649,473.82099429983646,473.9376781000756,473.82099429983646,473.9376781000756,473.92101070005447,None,c,1,1.0828280998393893,473.92101070005447,None,475.02192830014974,None,,,,,,,,,,,,,,,,,,,,,,,,,,pz2,2022_May_09_1441,training+cueing,2021.1.4,59.9213233590678,
Friend.png,You,Friend,m,1.2,14,24,94,,,,,1,0,1,0,0,6,6,3,,,,,,,,,,,,,,,,,,,,,,,,,1.723,2.349,475.42221509991214,None,475.95689760008827,476.45624769991264,476.45624769991264,476.55629219999537,476.45624769991264,476.55629219999537,476.55629219999537,None,c,0,0.6075162999331951,476.55629219999537,None,477.1903789001517,None,,,,,,,,,,,,,,,,,,,,,,,,,,pz2,2022_May_09_1441,training+cueing,2021.1.4,59.9213233590678,
Stranger.png,Stranger,Stranger,c,3,13,23,93,,,,,1,0,1,0,0,7,7,11,,,,,,,,,,,,,,,,,,,,,,,,,1.663,1.983,477.5904358997941,None,478.12532729981467,478.62449820013717,478.62449820013717,478.72471809992567,478.62449820013717,478.72471809992567,478.72471809992567,None,m,0,0.6791751002892852,478.72471809992567,None,479.42372530000284,None,,,,,,,,,,,,,,,,,,,,,,,,,,pz2,2022_May_09_1441,training+cueing,2021.1.4,59.9213233590678,
Self.png,Stranger,Self ,m,3.1,18,28,98,,,,,1,0,1,0,0,8,8,2,,,,,,,,,,,,,,,,,,,,,,,,,1.669,1.535,479.8253725999966,None,480.3633749000728,480.8760719001293,480.85949559975415,480.9767495999113,480.85949559975415,480.9767495999113,480.95942390011624,None,m,1,0.7324468996375799,480.95942390011624,None,481.71252179984003,None,,,,,,,,,,,,,,,,,,,,,,,,,,pz2,2022_May_09_1441,training+cueing,2021.1.4,59.9213233590678,
Self.png,You,Self ,c,1,11,21,91,,,,,1,0,1,0,0,9,9,0,,,,,,,,,,,,,,,,,,,,,,,,,1.497,1.287,482.1269898000173,None,482.65708959987387,483.161053000018,483.1443930999376,483.24447300005704,483.1443930999376,483.24447300005704,483.24447300005704,None,c,1,0.7194348997436464,483.24447300005704,None,483.99503210000694,None,,,,,,,,,,,,,,,,,,,,,,,,,,pz2,2022_May_09_1441,training+cueing,2021.1.4,59.9213233590678,
Friend.png,Stranger,Friend,m,3.2,19,29,99,,,,,1,0,1,0,0,10,10,5,,,,,,,,,,,,,,,,,,,,,,,,,1.491,2.188,484.3954747999087,None,484.94427260011435,485.44604999991134,485.42941819969565,485.5460506998934,485.42941819969565,485.5460506998934,485.5294054998085,None,m,1,0.9783764998428524,485.5294054998085,None,486.53029399970546,None,,,,,,,,,,,,,,,,,,,,,,,,,,pz2,2022_May_09_1441,training+cueing,2021.1.4,59.9213233590678,
Self.png,Friend,Self ,m,2.1,16,26,96,,,,,1,0,1,0,0,11,11,1,,,,,,,,,,,,,,,,,,,,,,,,,1.667,1.429,486.9304446997121,None,487.4647869998589,487.96459079999477,487.96459079999477,488.0647450997494,487.96459079999477,488.0647450997494,488.0647450997494,None,m,1,0.7791225998662412,488.0647450997494,None,488.86532109975815,None,,,,,,,,,,,,,,,,,,,,,,,,,,pz2,2022_May_09_1441,training+cueing,2021.1.4,59.9213233590678,
Self.png,You,Self ,c,1,11,21,91,,,,,1,0,1,0,,,,,0,0,0,9,,,,,,,,,,,,,,,,,,,495.4868218000047,None,1.791,1.986,499.01302819978446,None,,,,,,,,,,,,,,,,489.26574569987133,None,0.014795859809964895,0.5137090599164367,499.53749090014026,500.0398818999529,0.5053447801619768,1.0065699801780283,500.02325339987874,500.12329429993406,500.02325339987874,500.12329429993406,500.12329429993406,None,c,1,500.12329429993406,None,0.7206874997355044,,,,,,,pz2,2022_May_09_1441,training+cueing,2021.1.4,59.9213233590678,
Stranger.png,You,Stranger,m,1.3,15,25,95,,,,,1,0,1,0,,,,,0,1,1,6,,,,,,,,,,,,,,,,,,,,,1.482,2.055,500.98390580015257,None,,,,,,,,,,,,,,,,,,,,501.52265199972317,502.0247253999114,0.5053929798305035,1.005588979460299,502.00802790001035,502.10803030012175,502.00802790001035,502.10803030012175,502.10803030012175,None,m,1,502.10803030012175,None,0.6397915999405086,,,,,,,pz2,2022_May_09_1441,training+cueing,2021.1.4,59.9213233590678,
Friend.png,Stranger,Friend,m,3.2,19,29,99,,,,,1,0,1,0,,,,,0,2,2,5,,,,,,,,,,,,,,,,,,,,,1.696,1.484,502.8818974001333,None,,,,,,,,,,,,,,,,,,,,503.4253058000468,503.92601240007207,0.5007653799839318,1.0012333798222244,503.90944249974564,504.02606339985505,503.90944249974564,504.02606339985505,504.02606339985505,None,m,1,504.02606339985505,None,0.8021006002090871,,,,,,,pz2,2022_May_09_1441,training+cueing,2021.1.4,59.9213233590678,
Stranger.png,Stranger,Stranger,c,3,13,23,93,,,,,1,0,1,0,,,,,0,3,3,11,,,,,,,,,,,,,,,,,,,,,1.697,2.038,504.95346509991214,None,,,,,,,,,,,,,,,,,,,,505.5005664001219,506.01106789987534,0.5043779797852039,1.0046592797152698,505.9942119996995,506.1109922998585,505.9942119996995,506.1109922998585,506.0942110000178,None,c,1,506.0942110000178,None,0.7815271001309156,,,,,,,pz2,2022_May_09_1441,training+cueing,2021.1.4,59.9213233590678,
Friend.png,You,Friend,m,1.2,14,24,94,,,,,1,0,1,0,,,,,0,4,4,3,,,,,,,,,,,,,,,,,,,,,1.517,2.499,507.0012992997654,None,,,,,,,,,,,,,,,,,,,,507.54254620010033,508.0456444998272,0.5042931800708175,1.0046098800376058,508.0290422998369,508.12903599999845,508.0290422998369,508.12903599999845,508.12903599999845,None,m,1,508.12903599999845,None,0.8108789999969304,,,,,,,pz2,2022_May_09_1441,training+cueing,2021.1.4,59.9213233590678,
Self.png,You,Self ,c,1,11,21,91,,,,,1,0,1,0,,,,,0,5,5,0,,,,,,,,,,,,,,,,,,,,,1.443,1.465,509.068980100099,None,,,,,,,,,,,,,,,,,,,,509.6109734000638,510.1138697997667,0.5054605798795819,1.0057221800088882,510.0972579997033,510.1972552998923,510.0972579997033,510.1972552998923,510.1972552998923,None,c,1,510.1972552998923,None,0.5664957999251783,,,,,,,pz2,2022_May_09_1441,training+cueing,2021.1.4,59.9213233590678,
Stranger.png,Friend,Stranger,m,2.3,17,27,97,,,,,1,0,1,0,,,,,0,6,6,7,,,,,,,,,,,,,,,,,,,,,1.693,1.776,510.8871276001446,None,,,,,,,,,,,,,,,,,,,,511.4284180998802,511.9318309999071,0.5058333803899586,1.0061593800783157,511.9152103001252,512.0318916998804,511.9152103001252,512.0318916998804,512.0152432001196,None,m,1,512.0152432001196,None,0.9885960002429783,,,,,,,pz2,2022_May_09_1441,training+cueing,2021.1.4,59.9213233590678,
Friend.png,Friend,Friend,c,2,12,22,92,,,,,1,0,1,0,,,,,0,7,7,10,,,,,,,,,,,,,,,,,,,,,1.697,1.845,513.1405977001414,None,,,,,,,,,,,,,,,,,,,,513.6933297999203,514.2001322000287,0.5113356397487223,1.0115797398611903,514.1835503000766,514.3001846997067,514.1835503000766,514.3001846997067,514.2835150999017,None,c,1,514.2835150999017,None,0.8642740999348462,,,,,,,pz2,2022_May_09_1441,training+cueing,2021.1.4,59.9213233590678,
Self.png,Stranger,Self ,m,3.1,18,28,98,,,,,1,0,1,0,,,,,0,8,8,2,,,,,,,,,,,,,,,,,,,,,1.612,1.701,515.2738204998896,None,,,,,,,,,,,,,,,,,,,,515.8177533000708,516.3182990001515,0.5020515802316368,1.0025228802114725,516.3017333997414,516.4191752998158,516.3017333997414,516.4191752998158,516.4017237997614,None,m,1,516.4017237997614,None,0.7619618000462651,,,,,,,pz2,2022_May_09_1441,training+cueing,2021.1.4,59.9213233590678,
Self.png,Friend,Self ,m,2.1,16,26,96,,,,,1,0,1,0,,,,,0,9,9,1,,,,,,,,,,,,,,,,,,,,,1.792,1.4,517.2926847999915,None,,,,,,,,,,,,,,,,,,,,517.835897800047,518.3364559998736,0.5012830798514187,1.0017325798980892,518.3198330998421,518.4365240000188,518.3198330998421,518.4365240000188,518.4365240000188,None,m,1,518.4365240000188,None,0.9674231000244617,,,,,,,pz2,2022_May_09_1441,training+cueing,2021.1.4,59.9213233590678,
Stranger.png,Stranger,Stranger,c,3,13,23,93,,,,,1,0,1,0,,,,,0,10,10,8,,,,,,,,,,,,,,,,,,,,,1.642,1.212,519.5285589001141,None,,,,,,,,,,,,,,,,,,,,520.0721585000865,520.571442199871,0.5142319798469543,1.0144650796428323,520.571442199871,520.6714475001208,520.571442199871,520.6714475001208,520.6714475001208,None,c,1,520.6714475001208,None,0.7483107997104526,,,,,,,pz2,2022_May_09_1441,training+cueing,2021.1.4,59.9213233590678,
Friend.png,Friend,Friend,c,2,12,22,92,,,,,1,0,1,0,,,,,0,11,11,4,,,,,,,,,,,,,,,,,,,,,1.697,1.429,521.545315799769,None,,,,,,,,,,,,,,,,,,,,522.1103666997515,522.6229159999639,0.5108441403135657,1.0117032402195036,522.6063751997426,522.7237138999626,522.6063751997426,522.7237138999626,522.7063794997521,None,m,0,522.7063794997521,None,1.0174946002662182,,,,,,,pz2,2022_May_09_1441,training+cueing,2021.1.4,59.9213233590678,
Self.png,You,Self ,c,1,11,21,91,,,,,1,0,1,0,,,,,1,0,12,0,,,,,,,,,,,,,,,,,,,,,1.528,1.532,523.8479108000174,None,,,,,,,,,,,,,,,,,,,,524.389523500111,524.8912156997249,0.5020355796441436,1.0023672794923186,524.8744914000854,524.9745294000022,524.8744914000854,524.9745294000022,524.9745294000022,None,c,1,524.9745294000022,None,0.47731339978054166,,,,,,,pz2,2022_May_09_1441,training+cueing,2021.1.4,59.9213233590678,
Friend.png,Friend,Friend,c,2,12,22,92,,,,,1,0,1,0,,,,,1,1,13,10,,,,,,,,,,,,,,,,,,,,,1.469,2.296,525.5820621000603,None,,,,,,,,,,,,,,,,,,,,526.1256129001267,526.6257939999923,0.5009069805964828,1.0019108802080154,526.6091863000765,526.7258434998803,526.6091863000765,526.7258434998803,526.7258434998803,None,c,1,526.7258434998803,None,0.9179270998574793,,,,,,,pz2,2022_May_09_1441,training+cueing,2021.1.4,59.9213233590678,
Friend.png,Stranger,Friend,m,3.2,19,29,99,,,,,1,0,1,0,,,,,1,2,14,5,,,,,,,,,,,,,,,,,,,,,1.461,1.421,527.767179499846,None,,,,,,,,,,,,,,,,,,,,528.3120264001191,528.8273749998771,0.514573180116713,1.0148957800120115,528.810659499839,528.9274532999843,528.810659499839,528.9274532999843,528.9106922997162,None,m,1,528.9106922997162,None,0.9576224000193179,,,,,,,pz2,2022_May_09_1441,training+cueing,2021.1.4,59.9213233590678,
Self.png,You,Self ,c,1,11,21,91,,,,,1,0,1,0,,,,,1,3,15,9,,,,,,,,,,,,,,,,,,,,,1.715,2.269,530.0031163999811,None,,,,,,,,,,,,,,,,,,,,530.5667046997696,531.0791032998823,0.507042639888823,1.0076683396473527,531.0619767000899,531.1623970000073,531.0619767000899,531.1623970000073,531.1623970000073,None,c,1,531.1623970000073,None,0.609408600255847,,,,,,,pz2,2022_May_09_1441,training+cueing,2021.1.4,59.9213233590678,
Friend.png,You,Friend,m,1.2,14,24,94,,,,,1,0,1,0,,,,,1,4,16,3,,,,,,,,,,,,,,,,,,,,,1.587,2.311,531.9026575000025,None,,,,,,,,,,,,,,,,,,,,532.4441470997408,532.9477091999725,0.5060169799253345,1.00656567979604,532.9303504996933,533.0305588999763,532.9303504996933,533.0305588999763,533.0305588999763,None,m,1,533.0305588999763,None,0.8053403003141284,,,,,,,pz2,2022_May_09_1441,training+cueing,2021.1.4,59.9213233590678,
Self.png,Friend,Self ,m,2.1,16,26,96,,,,,1,0,1,0,,,,,1,5,17,1,,,,,,,,,,,,,,,,,,,,,1.538,1.857,533.9718172000721,None,,,,,,,,,,,,,,,,,,,,534.5165416998789,535.0318728000857,0.5142302797175944,1.014638879802078,535.01516539976,535.1320528001525,535.01516539976,535.1320528001525,535.1153126996942,None,m,1,535.1153126996942,None,1.2004293003119528,,,,,,,pz2,2022_May_09_1441,training+cueing,2021.1.4,59.9213233590678,
Stranger.png,Stranger,Stranger,c,3,13,23,93,,,,,1,0,1,0,,,,,1,6,18,8,,,,,,,,,,,,,,,,,,,,,1.766,1.555,536.4393540001474,None,,,,,,,,,,,,,,,,,,,,536.982919299975,537.483730299864,0.4994569798000157,0.9997390797361732,537.466976699885,537.5836539999582,537.466976699885,537.5836539999582,537.5836539999582,None,c,1,537.5836539999582,None,0.8121629003435373,,,,,,,pz2,2022_May_09_1441,training+cueing,2021.1.4,59.9213233590678,
Friend.png,Friend,Friend,c,2,12,22,92,,,,,1,0,1,0,,,,,1,7,19,4,,,,,,,,,,,,,,,,,,,,,1.772,2.407,538.5236967997625,None,,,,,,,,,,,,,,,,,,,,539.0674634999596,539.5684679998085,0.5019387798383832,1.0022219801321626,539.5517862997949,539.6685437001288,539.5517862997949,539.6685437001288,539.6517765000463,None,m,0,539.6517765000463,None,0.7599523002281785,,,,,,,pz2,2022_May_09_1441,training+cueing,2021.1.4,59.9213233590678,
Stranger.png,Stranger,Stranger,c,3,13,23,93,,,,,1,0,1,0,,,,,1,8,20,11,,,,,,,,,,,,,,,,,,,,,1.68,1.514,540.5426174998283,None,,,,,,,,,,,,,,,,,,,,541.0986592001282,541.6032869997434,0.5084448400884867,1.0095311403274536,541.5866505997255,541.7033281000331,541.5866505997255,541.7033281000331,541.6866892999969,None,m,0,541.6866892999969,None,1.317306499928236,,,,,,,pz2,2022_May_09_1441,training+cueing,2021.1.4,59.9213233590678,
Stranger.png,Friend,Stranger,m,2.3,17,27,97,,,,,1,0,1,0,,,,,1,9,21,7,,,,,,,,,,,,,,,,,,,,,1.74,1.748,543.1309889997356,None,,,,,,,,,,,,,,,,,,,,543.689575899858,544.1884864997119,0.5147423399612308,1.0158255398273468,544.1884864997119,544.2892561000772,544.1884864997119,544.2892561000772,544.2892561000772,None,m,1,544.2892561000772,None,0.87460309965536,,,,,,,pz2,2022_May_09_1441,training+cueing,2021.1.4,59.9213233590678,
Self.png,Stranger,Self ,m,3.1,18,28,98,,,,,1,0,1,0,,,,,1,10,22,2,,,,,,,,,,,,,,,,,,,,,1.583,1.645,545.2968385997228,None,,,,,,,,,,,,,,,,,,,,545.8421104997396,546.3567372998223,0.5116521795280278,1.0120448796078563,546.3401176999323,546.4567816001363,546.3401176999323,546.4567816001363,546.4400869999081,None,m,1,546.4400869999081,None,0.675844400189817,,,,,,,pz2,2022_May_09_1441,training+cueing,2021.1.4,59.9213233590678,
Stranger.png,You,Stranger,m,1.3,15,25,95,,,,,1,0,1,0,,,,,1,11,23,6,,,,,,,,,,,,,,,,,,,,,1.588,1.994,547.2481128000654,None,,,,,,,,,,,,,,,,,,,,547.7898174999282,548.2913770996965,0.5026150797493756,1.0028554797172546,548.2747704000212,548.3748031998985,548.2747704000212,548.3748031998985,548.3748031998985,None,m,1,548.3748031998985,None,1.108995999675244,,,,,,,pz2,2022_May_09_1441,training+cueing,2021.1.4,59.9213233590678,
Friend.png,You,Friend,m,1.2,14,24,94,,,,,1,0,1,0,,,,,2,0,24,3,,,,,,,,,,,,,,,,,,,,,1.547,1.345,549.6155131999403,None,,,,,,,,,,,,,,,,,,,,550.1700774999335,550.6765453000553,0.5140180396847427,1.0142243397422135,550.6598347998224,550.7598534999415,550.6598347998224,550.7598534999415,550.7598534999415,None,m,1,550.7598534999415,None,0.8518640999682248,,,,,,,pz2,2022_May_09_1441,training+cueing,2021.1.4,59.9213233590678,
Self.png,You,Self ,c,1,11,21,91,,,,,1,0,1,0,,,,,2,1,25,0,,,,,,,,,,,,,,,,,,,,,1.705,2.067,551.7338143996894,None,,,,,,,,,,,,,,,,,,,,552.2737921997905,552.7781664999202,0.5095937801524997,1.0097529799677432,552.7615284998901,552.861452399753,552.7615284998901,552.861452399753,552.861452399753,None,c,1,552.861452399753,None,0.5743804997764528,,,,,,,pz2,2022_May_09_1441,training+cueing,2021.1.4,59.9213233590678,
Stranger.png,Friend,Stranger,m,2.3,17,27,97,,,,,1,0,1,0,,,,,2,2,26,7,,,,,,,,,,,,,,,,,,,,,1.796,2.346,553.5679578999989,None,,,,,,,,,,,,,,,,,,,,554.1153456997126,554.6293075000867,0.5098211797885597,1.0101048797369003,554.6126946997829,554.7295737997629,554.6126946997829,554.7295737997629,554.7126949997619,None,m,1,554.7126949997619,None,1.2992210001684725,,,,,,,pz2,2022_May_09_1441,training+cueing,2021.1.4,59.9213233590678,
Friend.png,Friend,Friend,c,2,12,22,92,,,,,1,0,1,0,,,,,2,3,27,10,,,,,,,,,,,,,,,,,,,,,1.747,2.485,556.1400553998537,None,,,,,,,,,,,,,,,,,,,,556.6797573999502,557.1811772999354,0.5022624800913036,1.002537980210036,557.1645617997274,557.2812497001141,557.1645617997274,557.2812497001141,557.2645783997141,None,c,1,557.2645783997141,None,0.7952561001293361,,,,,,,pz2,2022_May_09_1441,training+cueing,2021.1.4,59.9213233590678,
Stranger.png,Stranger,Stranger,c,3,13,23,93,,,,,1,0,1,0,,,,,2,4,28,11,,,,,,,,,,,,,,,,,,,,,1.503,1.329,558.1883519999683,None,,,,,,,,,,,,,,,,,,,,558.7577240997925,559.2662053997628,0.4997201398946345,0.9999672397971153,559.2495796000585,559.3662509997375,559.2495796000585,559.3662509997375,559.3662509997375,None,m,0,559.3662509997375,None,1.0296058002859354,,,,,,,pz2,2022_May_09_1441,training+cueing,2021.1.4,59.9213233590678,
Self.png,Friend,Self ,m,2.1,16,26,96,,,,,1,0,1,0,,,,,2,5,29,1,,,,,,,,,,,,,,,,,,,,,1.631,1.224,560.5245030000806,None,,,,,,,,,,,,,,,,,,,,561.0678074001335,561.5677291997708,0.4990614796988666,0.999674379825592,561.5510080000386,561.6677731997333,561.5510080000386,561.6677731997333,561.6677731997333,None,m,1,561.6677731997333,None,0.6640341002494097,,,,,,,pz2,2022_May_09_1441,training+cueing,2021.1.4,59.9213233590678,
Self.png,Stranger,Self ,m,3.1,18,28,98,,,,,1,0,1,0,,,,,2,6,30,2,,,,,,,,,,,,,,,,,,,,,1.573,1.726,562.4587783999741,None,,,,,,,,,,,,,,,,,,,,563.0178021998145,563.5190957998857,0.5031842403113842,1.0034713400527835,563.5024564997293,563.6191592998803,563.5024564997293,563.6191592998803,563.6024977001362,None,m,1,563.6024977001362,None,1.0172990998253226,,,,,,,pz2,2022_May_09_1441,training+cueing,2021.1.4,59.9213233590678,
Stranger.png,Stranger,Stranger,c,3,13,23,93,,,,,1,0,1,0,,,,,2,7,31,8,,,,,,,,,,,,,,,,,,,,,1.747,2.141,564.7430873000994,None,,,,,,,,,,,,,,,,,,,,565.3070712997578,565.8208587998524,0.5132380402646959,1.0117645403370261,565.8057824997231,565.9207973000593,565.8057824997231,565.9207973000593,565.9041327997111,None,c,1,565.9041327997111,None,0.6038864003494382,,,,,,,pz2,2022_May_09_1441,training+cueing,2021.1.4,59.9213233590678,
Friend.png,Friend,Friend,c,2,12,22,92,,,,,1,0,1,0,,,,,2,8,32,4,,,,,,,,,,,,,,,,,,,,,1.746,1.617,566.6484269001521,None,,,,,,,,,,,,,,,,,,,,567.1891586999409,567.6888708998449,0.5001655798405409,1.000449480023235,567.6721254996955,567.7888007997535,567.6721254996955,567.7888007997535,567.7888007997535,None,c,1,567.7888007997535,None,0.7988422000780702,,,,,,,pz2,2022_May_09_1441,training+cueing,2021.1.4,59.9213233590678,
Friend.png,Stranger,Friend,m,3.2,19,29,99,,,,,1,0,1,0,,,,,2,9,33,5,,,,,,,,,,,,,,,,,,,,,1.755,1.652,568.7128952997737,None,,,,,,,,,,,,,,,,,,,,569.2699064998887,569.7736212001182,0.5094117396511137,1.0097132395021617,569.7569077997468,569.8737142998725,569.7569077997468,569.8737142998725,569.8569342996925,None,m,1,569.8569342996925,None,0.5707399998791516,,,,,,,pz2,2022_May_09_1441,training+cueing,2021.1.4,59.9213233590678,
Stranger.png,You,Stranger,m,1.3,15,25,95,,,,,1,0,1,0,,,,,2,10,34,6,,,,,,,,,,,,,,,,,,,,,1.568,1.679,570.5641704001464,None,,,,,,,,,,,,,,,,,,,,571.1057536001317,571.60826849984,0.503716079518199,1.0039884797297418,571.5916790999472,571.6916859000921,571.5916790999472,571.6916859000921,571.6916859000921,None,m,1,571.6916859000921,None,0.9440174996852875,,,,,,,pz2,2022_May_09_1441,training+cueing,2021.1.4,59.9213233590678,
Self.png,You,Self ,c,1,11,21,91,,,,,1,0,1,0,,,,,2,11,35,9,,,,,,,,,,,,,,,,,,,,,1.773,2.357,572.7657876997255,None,,,,,,,,,,,,,,,,,,,,573.3057355000637,573.8098764996976,0.5093612796626985,1.009732079692185,573.793270399794,573.8933524996974,573.793270399794,573.8933524996974,573.8933524996974,None,c,1,573.8933524996974,None,0.3906837999820709,,,,,,,pz2,2022_May_09_1441,training+cueing,2021.1.4,59.9213233590678,
Friend.png,Friend,Friend,c,2,12,22,92,,,,,1,0,1,0,,,,,3,0,36,4,,,,,,,,,,,,,,,,,,,,,1.583,1.901,574.4165698001161,None,,,,,,,,,,,,,,,,,,,,574.9582691998221,575.461170699913,0.5031708795577288,1.0042690797708929,575.4443752998486,575.5611391998827,575.4443752998486,575.5611391998827,575.5443608998321,None,c,1,575.5443608998321,None,1.2355083003640175,,,,,,,pz2,2022_May_09_1441,training+cueing,2021.1.4,59.9213233590678,
Stranger.png,Stranger,Stranger,c,3,13,23,93,,,,,1,0,1,0,,,,,3,1,37,11,,,,,,,,,,,,,,,,,,,,,1.714,1.576,576.9018878000788,None,,,,,,,,,,,,,,,,,,,,577.4451923999004,577.946219000034,0.5018456797115505,1.0021035796962678,577.9295887998305,578.04622810008,577.9295887998305,578.04622810008,578.0295774997212,None,c,1,578.0295774997212,None,1.1502311998046935,,,,,,,pz2,2022_May_09_1441,training+cueing,2021.1.4,59.9213233590678,
Self.png,Friend,Self ,m,2.1,16,26,96,,,,,1,0,1,0,,,,,3,2,38,1,,,,,,,,,,,,,,,,,,,,,1.689,2.343,579.3049558997154,None,,,,,,,,,,,,,,,,,,,,579.8456470998935,580.3479673997499,0.5048663802444935,1.0058123799972236,580.331287200097,580.4479958000593,580.331287200097,580.4479958000593,580.4312395998277,None,m,1,580.4312395998277,None,0.6525868996977806,,,,,,,pz2,2022_May_09_1441,training+cueing,2021.1.4,59.9213233590678,
Stranger.png,You,Stranger,m,1.3,15,25,95,,,,,1,0,1,0,,,,,3,3,39,6,,,,,,,,,,,,,,,,,,,,,1.443,2.245,581.2226795000024,None,,,,,,,,,,,,,,,,,,,,581.7705961000174,582.2826831997372,0.50629797950387,1.0065967794507742,582.2660146998242,582.3660579998977,582.2660146998242,582.3660579998977,582.3660579998977,None,c,0,582.3660579998977,None,0.9898451003246009,,,,,,,pz2,2022_May_09_1441,training+cueing,2021.1.4,59.9213233590678,
Stranger.png,Stranger,Stranger,c,3,13,23,93,,,,,1,0,1,0,,,,,3,4,40,8,,,,,,,,,,,,,,,,,,,,,1.52,1.801,583.4893239000812,None,,,,,,,,,,,,,,,,,,,,584.0298230000772,584.5342494999059,0.5085726799443364,1.0088735800236464,584.5176431997679,584.6343228998594,584.5176431997679,584.6343228998594,584.6176611999981,None,m,0,584.6176611999981,None,1.2660671002231538,,,,,,,pz2,2022_May_09_1441,training+cueing,2021.1.4,59.9213233590678,
Self.png,Stranger,Self ,m,3.1,18,28,98,,,,,1,0,1,0,,,,,3,5,41,2,,,,,,,,,,,,,,,,,,,,,1.748,1.328,586.0078779999167,None,,,,,,,,,,,,,,,,,,,,586.5457359999418,587.0527269998565,0.5137482797726989,1.0142995794303715,587.0361119001172,587.1527819000185,587.0361119001172,587.1527819000185,587.1361385998316,None,m,1,587.1361385998316,None,0.6676214002072811,,,,,,,pz2,2022_May_09_1441,training+cueing,2021.1.4,59.9213233590678,
Self.png,You,Self ,c,1,11,21,91,,,,,1,0,1,0,,,,,3,6,42,9,,,,,,,,,,,,,,,,,,,,,1.465,1.389,587.9278234997764,None,,,,,,,,,,,,,,,,,,,,588.4701227000915,588.970783600118,0.49987527960911393,1.0001536798663437,588.9541784999892,589.0541817001067,588.9541784999892,589.0541817001067,589.0541817001067,None,c,1,589.0541817001067,None,1.1336944997310638,,,,,,,pz2,2022_May_09_1441,training+cueing,2021.1.4,59.9213233590678,
Self.png,You,Self ,c,1,11,21,91,,,,,1,0,1,0,,,,,3,7,43,0,,,,,,,,,,,,,,,,,,,,,1.533,2.409,590.3726769997738,None,,,,,,,,,,,,,,,,,,,,590.8674504999071,591.3725712001324,0.5104119800962508,1.0107342801056802,591.3559101000428,591.4559980998747,591.3559101000428,591.4559980998747,591.4559980998747,None,c,1,591.4559980998747,None,0.6197532997466624,,,,,,,pz2,2022_May_09_1441,training+cueing,2021.1.4,59.9213233590678,
Friend.png,You,Friend,m,1.2,14,24,94,,,,,1,0,1,0,,,,,3,8,44,3,,,,,,,,,,,,,,,,,,,,,1.546,2.096,592.2122002998367,None,,,,,,,,,,,,,,,,,,,,592.7523163999431,593.2573134996928,0.5081216800026596,1.0086296796798706,593.2405735999346,593.340588899795,593.2405735999346,593.340588899795,593.340588899795,None,c,0,593.340588899795,None,1.023357099853456,,,,,,,pz2,2022_May_09_1441,training+cueing,2021.1.4,59.9213233590678,
Stranger.png,Friend,Stranger,m,2.3,17,27,97,,,,,1,0,1,0,,,,,3,9,45,7,,,,,,,,,,,,,,,,,,,,,1.716,2.07,594.4974508997984,None,,,,,,,,,,,,,,,,,,,,595.0410929997452,595.5422459999099,0.5034374799579382,1.00391507986933,595.5256304000504,595.6422899998724,595.5256304000504,595.6422899998724,595.6256397999823,None,m,1,595.6256397999823,None,0.8819490000605583,,,,,,,pz2,2022_May_09_1441,training+cueing,2021.1.4,59.9213233590678,
Friend.png,Friend,Friend,c,2,12,22,92,,,,,1,0,1,0,,,,,3,10,46,10,,,,,,,,,,,,,,,,,,,,,1.576,1.738,596.6329109999351,None,,,,,,,,,,,,,,,,,,,,597.184078599792,597.6938092000782,0.5032311799004674,1.0035063796676695,597.6771077001467,597.7938810000196,597.6771077001467,597.7938810000196,597.7770965998061,None,c,1,597.7770965998061,None,1.3065651999786496,,,,,,,pz2,2022_May_09_1441,training+cueing,2021.1.4,59.9213233590678,
Friend.png,Stranger,Friend,m,3.2,19,29,99,,,,,1,0,1,0,,,,,3,11,47,5,,,,,,,,,,,,,,,,,,,,,1.6,2.375,599.2182267000899,None,,,,,,,,,,,,,,,,,,,,599.77750690002,600.2790966001339,0.5021146405488253,1.0021979403682053,600.2624456998892,600.3791428999975,600.2624456998892,600.3791428999975,600.3623154000379,None,m,1,600.3623154000379,None,0.6254090000875294,,,,,,,pz2,2022_May_09_1441,training+cueing,2021.1.4,59.9213233590678,
Friend.png,Stranger,Friend,m,3.2,19,29,99,,,,,1,0,1,0,,,,,4,0,48,5,,,,,,,,,,,,,,,,,,,,,1.592,2.197,601.1188638997264,None,,,,,,,,,,,,,,,,,,,,601.6640451997519,602.1638981997967,0.49988187989220023,1.0001055803149939,602.1473109000362,602.2639683000743,602.1473109000362,602.2639683000743,602.2639683000743,None,m,1,602.2639683000743,None,1.156012499704957,,,,,,,pz2,2022_May_09_1441,training+cueing,2021.1.4,59.9213233590678,
Friend.png,You,Friend,m,1.2,14,24,94,,,,,1,0,1,0,,,,,4,1,49,3,,,,,,,,,,,,,,,,,,,,,1.762,2.36,603.5577329997905,None,,,,,,,,,,,,,,,,,,,,604.0951861999929,604.598717099987,0.5063141798600554,1.0065673799254,604.5821587997489,604.6821686001495,604.5821587997489,604.6821686001495,604.6821686001495,None,m,1,604.6821686001495,None,0.8976234002038836,,,,,,,pz2,2022_May_09_1441,training+cueing,2021.1.4,59.9213233590678,
Stranger.png,Friend,Stranger,m,2.3,17,27,97,,,,,1,0,1,0,,,,,4,2,50,7,,,,,,,,,,,,,,,,,,,,,1.46,1.569,605.7057560998946,None,,,,,,,,,,,,,,,,,,,,606.2482774998061,606.7503567999229,0.5031479801982641,1.0034017800353467,606.733729199972,606.8503751996905,606.733729199972,606.8503751996905,606.8336648000404,None,m,1,606.8336648000404,None,0.714031099807471,,,,,,,pz2,2022_May_09_1441,training+cueing,2021.1.4,59.9213233590678,
Stranger.png,You,Stranger,m,1.3,15,25,95,,,,,1,0,1,0,,,,,4,3,51,6,,,,,,,,,,,,,,,,,,,,,1.578,1.985,607.6738384999335,None,,,,,,,,,,,,,,,,,,,,608.2260878998786,608.7350568999536,0.5025705797597766,1.0028525795787573,608.7184421001002,608.8184704999439,608.7184421001002,608.8184704999439,608.8184704999439,None,m,1,608.8184704999439,None,0.6178164002485573,,,,,,,pz2,2022_May_09_1441,training+cueing,2021.1.4,59.9213233590678,
Self.png,Friend,Self ,m,2.1,16,26,96,,,,,1,0,1,0,,,,,4,4,52,1,,,,,,,,,,,,,,,,,,,,,1.454,1.463,609.5617714999244,None,,,,,,,,,,,,,,,,,,,,610.1022037998773,610.6031474000774,0.49951718002557755,0.9996539801359177,610.5865516997874,610.7031354997307,610.5865516997874,610.7031354997307,610.7031354997307,None,m,1,610.7031354997307,None,0.8125145002268255,,,,,,,pz2,2022_May_09_1441,training+cueing,2021.1.4,59.9213233590678,
Self.png,Stranger,Self ,m,3.1,18,28,98,,,,,1,0,1,0,,,,,4,5,53,2,,,,,,,,,,,,,,,,,,,,,1.767,2.198,611.6436084001325,None,,,,,,,,,,,,,,,,,,,,612.1864983998239,612.6879742997698,0.5041697798296809,1.004450379870832,612.6712428997271,612.7878851001151,612.6712428997271,612.7878851001151,612.7712787999772,None,m,1,612.7712787999772,None,0.8725891001522541,,,,,,,pz2,2022_May_09_1441,training+cueing,2021.1.4,59.9213233590678,
Friend.png,Friend,Friend,c,2,12,22,92,,,,,1,0,1,0,,,,,4,6,54,4,,,,,,,,,,,,,,,,,,,,,1.564,1.641,613.7782720001414,None,,,,,,,,,,,,,,,,,,,,614.3200050001033,614.8229016000405,0.5056782797910273,1.0068716797977686,614.8062161998823,614.9229020997882,614.8062161998823,614.9229020997882,614.9063518997282,None,c,1,614.9063518997282,None,0.7214043000712991,,,,,,,pz2,2022_May_09_1441,training+cueing,2021.1.4,59.9213233590678,
Self.png,You,Self ,c,1,11,21,91,,,,,1,0,1,0,,,,,4,7,55,0,,,,,,,,,,,,,,,,,,,,,1.693,1.972,615.7641265997663,None,,,,,,,,,,,,,,,,,,,,616.3182673999108,616.824387199711,0.5106798405759037,1.0110325403511524,616.8075147997588,616.9076322996989,616.8075147997588,616.9076322996989,616.9076322996989,None,c,1,616.9076322996989,None,0.6080303001217544,,,,,,,pz2,2022_May_09_1441,training+cueing,2021.1.4,59.9213233590678,
Stranger.png,Stranger,Stranger,c,3,13,23,93,,,,,1,0,1,0,,,,,4,8,56,11,,,,,,,,,,,,,,,,,,,,,1.505,1.824,617.6475510001183,None,,,,,,,,,,,,,,,,,,,,618.1974288998172,618.7089841999114,0.5082002803683281,1.008578180335462,618.6924049998634,618.8097574999556,618.6924049998634,618.8097574999556,618.7923946999945,None,c,1,618.7923946999945,None,0.40332019980996847,,,,,,,pz2,2022_May_09_1441,training+cueing,2021.1.4,59.9213233590678,
Stranger.png,Stranger,Stranger,c,3,13,23,93,,,,,1,0,1,0,,,,,4,9,57,8,,,,,,,,,,,,,,,,,,,,,1.402,1.338,619.333168500103,None,,,,,,,,,,,,,,,,,,,,619.884683100041,620.393489100039,0.5034114802256227,1.0037102801725268,620.3768795998767,620.493541199714,620.3768795998767,620.493541199714,620.4768901998177,None,c,1,620.4768901998177,None,0.5587339997291565,,,,,,,pz2,2022_May_09_1441,training+cueing,2021.1.4,59.9213233590678,
Friend.png,Friend,Friend,c,2,12,22,92,,,,,1,0,1,0,,,,,4,10,58,10,,,,,,,,,,,,,,,,,,,,,1.763,1.371,621.1668213000521,None,,,,,,,,,,,,,,,,,,,,621.7065616999753,622.2115285997279,0.5082979798316956,1.0085869799368083,622.1948027000763,622.3115896000527,622.1948027000763,622.3115896000527,622.2948408997618,None,c,1,622.2948408997618,None,0.6447938000783324,,,,,,,pz2,2022_May_09_1441,training+cueing,2021.1.4,59.9213233590678,
Self.png,You,Self ,c,1,11,21,91,,,,,1,0,1,0,,,,,4,11,59,9,,,,,,,,,,,,,,,,,,,,,1.548,1.871,623.0684579000808,None,,,,,,,,,,,,,,,,,,,,623.6089794998989,624.1129088997841,0.5067911799997091,1.0071087800897658,624.0961783998646,624.1962155997753,624.0961783998646,624.1962155997753,624.1962155997753,None,c,1,624.1962155997753,None,0.40747940028086305,,,,,,,pz2,2022_May_09_1441,training+cueing,2021.1.4,59.9213233590678,
Friend.png,Friend,Friend,c,2,12,22,92,,,,,1,0,1,0,,,,,5,0,60,4,,,,,,,,,,,,,,,,,,,,,1.642,1.986,624.7365405997261,None,,,,,,,,,,,,,,,,,,,,625.2780868001282,625.7808376997709,0.5044427798129618,1.0047233798541129,625.7640613997355,625.8808448999189,625.7640613997355,625.8808448999189,625.8640699000098,None,c,1,625.8640699000098,None,1.1078017996624112,,,,,,,pz2,2022_May_09_1441,training+cueing,2021.1.4,59.9213233590678,
Stranger.png,You,Stranger,m,1.3,15,25,95,,,,,1,0,1,0,,,,,5,1,61,6,,,,,,,,,,,,,,,,,,,,,1.462,1.864,627.1084348997101,None,,,,,,,,,,,,,,,,,,,,627.6490307999775,628.1491694999859,0.5016430797986686,1.0018634796142578,628.1325007998385,628.2324541998096,628.1325007998385,628.2324541998096,628.2324541998096,None,m,1,628.2324541998096,None,0.8991677002049983,,,,,,,pz2,2022_May_09_1441,training+cueing,2021.1.4,59.9213233590678,
Self.png,Stranger,Self ,m,3.1,18,28,98,,,,,1,0,1,0,,,,,5,2,62,2,,,,,,,,,,,,,,,,,,,,,1.461,1.746,629.2561218999326,None,,,,,,,,,,,,,,,,,,,,629.7989571997896,630.3006480997428,0.5036142799071968,1.0046477797441185,630.2840875997208,630.4006909998134,630.2840875997208,630.4006909998134,630.3840171997435,None,m,1,630.3840171997435,None,0.7957356004044414,,,,,,,pz2,2022_May_09_1441,training+cueing,2021.1.4,59.9213233590678,
Stranger.png,Stranger,Stranger,c,3,13,23,93,,,,,1,0,1,0,,,,,5,3,63,11,,,,,,,,,,,,,,,,,,,,,1.454,1.751,631.30861190008,None,,,,,,,,,,,,,,,,,,,,631.8484300998971,632.3521074000746,0.5056812795810401,1.0059853796847165,632.3355089998804,632.452179600019,632.3355089998804,632.452179600019,632.4355274001136,None,c,1,632.4355274001136,None,1.1281628999859095,,,,,,,pz2,2022_May_09_1441,training+cueing,2021.1.4,59.9213233590678,
Friend.png,Stranger,Friend,m,3.2,19,29,99,,,,,1,0,1,0,,,,,5,4,64,5,,,,,,,,,,,,,,,,,,,,,1.76,1.585,633.6924437000416,None,,,,,,,,,,,,,,,,,,,,634.2310933996923,634.7373000001535,0.5137364803813398,1.0141385802999139,634.7206963999197,634.8374115996994,634.7206963999197,634.8374115996994,634.8207164998166,None,m,1,634.8207164998166,None,0.7749223001301289,,,,,,,pz2,2022_May_09_1441,training+cueing,2021.1.4,59.9213233590678,
Self.png,You,Self ,c,1,11,21,91,,,,,1,0,1,0,,,,,5,5,65,9,,,,,,,,,,,,,,,,,,,,,1.477,1.303,635.7272842000239,None,,,,,,,,,,,,,,,,,,,,636.2706657997333,636.772003499791,0.5041988799348474,1.004379279911518,636.7553992997855,636.855409400072,636.7553992997855,636.855409400072,636.855409400072,None,c,1,636.855409400072,None,0.6922681001015007,,,,,,,pz2,2022_May_09_1441,training+cueing,2021.1.4,59.9213233590678,
Stranger.png,Stranger,Stranger,c,3,13,23,93,,,,,1,0,1,0,,,,,5,6,66,8,,,,,,,,,,,,,,,,,,,,,1.416,1.738,637.6788180000149,None,,,,,,,,,,,,,,,,,,,,638.2381301000714,638.7403572001494,0.5033321403898299,1.0050325407646596,638.7221359997056,638.8236992997117,638.7221359997056,638.8236992997117,638.8236992997117,None,c,1,638.8236992997117,None,1.187993099913001,,,,,,,pz2,2022_May_09_1441,training+cueing,2021.1.4,59.9213233590678,
Stranger.png,Friend,Stranger,m,2.3,17,27,97,,,,,1,0,1,0,,,,,5,7,67,7,,,,,,,,,,,,,,,,,,,,,1.473,1.383,640.1483179000206,None,,,,,,,,,,,,,,,,,,,,640.6880227997899,641.1919027999975,0.5083837797865272,1.0086891795508564,641.1751716998406,641.2919561001472,641.1751716998406,641.2919561001472,641.2752021998167,None,None,0,641.2752021998167,None,,,,,,,,pz2,2022_May_09_1441,training+cueing,2021.1.4,59.9213233590678,
Friend.png,You,Friend,m,1.2,14,24,94,,,,,1,0,1,0,,,,,5,8,68,3,,,,,,,,,,,,,,,,,,,,,1.6,1.495,642.863879499957,None,,,,,,,,,,,,,,,,,,,,643.4145180000924,643.9271911000833,0.5067309797741473,1.007056879810989,643.9105372997001,644.0105829001404,643.9105372997001,644.0105829001404,644.0105829001404,None,m,1,644.0105829001404,None,1.2812059000134468,,,,,,,pz2,2022_May_09_1441,training+cueing,2021.1.4,59.9213233590678,
Self.png,You,Self ,c,1,11,21,91,,,,,1,0,1,0,,,,,5,9,69,0,,,,,,,,,,,,,,,,,,,,,1.402,1.426,645.4197697998025,None,,,,,,,,,,,,,,,,,,,,645.9574190997519,646.4625913999043,0.5097556794062257,1.0099869794212282,646.4459202997386,646.545957500115,646.4459202997386,646.545957500115,646.545957500115,None,c,1,646.545957500115,None,0.5536760999821126,,,,,,,pz2,2022_May_09_1441,training+cueing,2021.1.4,59.9213233590678,
Friend.png,Friend,Friend,c,2,12,22,92,,,,,1,0,1,0,,,,,5,10,70,10,,,,,,,,,,,,,,,,,,,,,1.447,1.937,647.2360684000887,None,,,,,,,,,,,,,,,,,,,,647.7768268999644,648.2807370997034,0.5068866801448166,1.0070051802322268,648.2638376997784,648.3803583998233,648.2638376997784,648.3803583998233,648.3636956000701,None,c,1,648.3636956000701,None,1.295943200122565,,,,,,,pz2,2022_May_09_1441,training+cueing,2021.1.4,59.9213233590678,
Self.png,Friend,Self ,m,2.1,16,26,96,,,,,1,0,1,0,,,,,5,11,71,1,,,,,,,,,,,,,,,,,,,,,1.6,1.249,649.7870824998245,None,,,,,,,,,,,,,,,,,,,,650.3262999998406,650.8321380000561,0.5098692798055708,1.0108346799388528,650.8155628000386,650.9323152001016,650.8155628000386,650.9323152001016,650.9157225000672,None,m,1,650.9157225000672,None,1.3360323002561927,,,,,,,pz2,2022_May_09_1441,training+cueing,2021.1.4,59.9213233590678,
Friend.png,Friend,Friend,c,2,12,22,92,,,,,1,0,1,0,,,,,6,0,72,10,,,,,,,,,,,,,,,,,,,,,1.563,2.435,652.3913551000878,None,,,,,,,,,,,,,,,,,,,,652.9353054999374,653.4506910997443,0.5148410806432366,1.0151322805322707,653.434078599792,653.5507621001452,653.434078599792,653.5507621001452,653.5340602998622,None,c,1,653.5340602998622,None,0.6376308999024332,,,,,,,pz2,2022_May_09_1441,training+cueing,2021.1.4,59.9213233590678,
Friend.png,Friend,Friend,c,2,12,22,92,,,,,1,0,1,0,,,,,6,1,73,4,,,,,,,,,,,,,,,,,,,,,1.704,2.087,654.3074598000385,None,,,,,,,,,,,,,,,,,,,,654.8453277000226,655.3520744000562,0.5136176799423993,1.0142370802350342,655.3354265997186,655.4521262999624,655.3354265997186,655.4521262999624,655.4355250000954,None,c,1,655.4355250000954,None,0.6399967996403575,,,,,,,pz2,2022_May_09_1441,training+cueing,2021.1.4,59.9213233590678,
Self.png,You,Self ,c,1,11,21,91,,,,,1,0,1,0,,,,,6,2,74,9,,,,,,,,,,,,,,,,,,,,,1.408,1.564,656.2105001998134,None,,,,,,,,,,,,,,,,,,,,656.7520653000101,657.2535121999681,0.5018091802485287,1.0022020800970495,657.2368258000351,657.3369120997377,657.2368258000351,657.3369120997377,657.3369120997377,None,c,1,657.3369120997377,None,0.5306404000148177,,,,,,,pz2,2022_May_09_1441,training+cueing,2021.1.4,59.9213233590678,
Friend.png,You,Friend,m,1.2,14,24,94,,,,,1,0,1,0,,,,,6,3,75,3,,,,,,,,,,,,,,,,,,,,,1.409,2.489,657.9934649998322,None,,,,,,,,,,,,,,,,,,,,658.532340799924,659.0381192001514,0.5109201800078154,1.0112056802026927,659.0214121998288,659.1214381000027,659.0214121998288,659.1214381000027,659.1214381000027,None,c,0,659.1214381000027,None,0.5701776002533734,,,,,,,pz2,2022_May_09_1441,training+cueing,2021.1.4,59.9213233590678,
Stranger.png,You,Stranger,m,1.3,15,25,95,,,,,1,0,1,0,,,,,6,4,76,6,,,,,,,,,,,,,,,,,,,,,1.495,1.421,659.8283979999833,None,,,,,,,,,,,,,,,,,,,,660.3650726997294,660.872743899934,0.5126549797132611,1.0130564798600972,660.8561122999527,660.9561310000718,660.8561122999527,660.9561310000718,660.9561310000718,None,m,1,660.9561310000718,None,0.8955236002802849,,,,,,,pz2,2022_May_09_1441,training+cueing,2021.1.4,59.9213233590678,
Stranger.png,Stranger,Stranger,c,3,13,23,93,,,,,1,0,1,0,,,,,6,5,77,11,,,,,,,,,,,,,,,,,,,,,1.527,2.412,661.9806649996899,None,,,,,,,,,,,,,,,,,,,,662.5223093000241,663.0244594998658,0.5051592793315649,1.0051643797196448,663.0079835001379,663.1243722997606,663.0079835001379,663.1243722997606,663.1076782997698,None,c,1,663.1076782997698,None,0.5999096999876201,,,,,,,pz2,2022_May_09_1441,training+cueing,2021.1.4,59.9213233590678,
Friend.png,Stranger,Friend,m,3.2,19,29,99,,,,,1,0,1,0,,,,,6,6,78,5,,,,,,,,,,,,,,,,,,,,,1.691,2.268,663.8314121998847,None,,,,,,,,,,,,,,,,,,,,664.3705972000025,664.8756264001131,0.5093890801072121,1.0096413800492883,664.859073500149,664.9758373997174,664.859073500149,664.9758373997174,664.9590897001326,None,m,1,664.9590897001326,None,0.8444586000405252,,,,,,,pz2,2022_May_09_1441,training+cueing,2021.1.4,59.9213233590678,
Stranger.png,Friend,Stranger,m,2.3,17,27,97,,,,,1,0,1,0,,,,,6,7,79,7,,,,,,,,,,,,,,,,,,,,,1.652,2.058,665.9324921998195,None,,,,,,,,,,,,,,,,,,,,666.4733211998828,666.9772482998669,0.5061534801498055,1.0064427801407874,666.9605545001104,667.0772529998794,666.9605545001104,667.0772529998794,667.0605595000088,None,m,1,667.0605595000088,None,0.9350628997199237,,,,,,,pz2,2022_May_09_1441,training+cueing,2021.1.4,59.9213233590678,
Self.png,You,Self ,c,1,11,21,91,,,,,1,0,1,0,,,,,6,8,80,0,,,,,,,,,,,,,,,,,,,,,1.745,1.669,668.1168039999902,None,,,,,,,,,,,,,,,,,,,,668.6601017001085,669.1620597001165,0.5050062802620232,1.0055342805571854,669.1454102997668,669.2454560999759,669.1454102997668,669.2454560999759,669.2454560999759,None,c,1,669.2454560999759,None,0.47822709986940026,,,,,,,pz2,2022_May_09_1441,training+cueing,2021.1.4,59.9213233590678,
Self.png,Friend,Self ,m,2.1,16,26,96,,,,,1,0,1,0,,,,,6,9,81,1,,,,,,,,,,,,,,,,,,,,,1.452,1.948,669.8524931999855,None,,,,,,,,,,,,,,,,,,,,670.3924914998934,670.8966592000797,0.5082616801373661,1.0087078800424933,670.880072100088,670.9967756997794,670.880072100088,670.9967756997794,670.9800431998447,None,m,1,670.9800431998447,None,0.7114883996546268,,,,,,,pz2,2022_May_09_1441,training+cueing,2021.1.4,59.9213233590678,
Stranger.png,Stranger,Stranger,c,3,13,23,93,,,,,1,0,1,0,,,,,6,10,82,8,,,,,,,,,,,,,,,,,,,,,1.732,1.745,671.8215180998668,None,,,,,,,,,,,,,,,,,,,,672.3616500999779,672.8647739998996,0.5041345795616508,1.0046506794169545,672.8481466998346,672.9648099998012,672.8481466998346,672.9648099998012,672.9481442999095,None,c,1,672.9481442999095,None,0.9035416003316641,,,,,,,pz2,2022_May_09_1441,training+cueing,2021.1.4,59.9213233590678,
Self.png,Stranger,Self ,m,3.1,18,28,98,,,,,1,0,1,0,,,,,6,11,83,2,,,,,,,,,,,,,,,,,,,,,1.665,1.209,673.9887799001299,None,,,,,,,,,,,,,,,,,,,,674.526629799977,675.0329283997416,0.5126463798806071,1.0129294800572097,675.0163670997135,675.1330218999647,675.0163670997135,675.1330218999647,675.1163503001444,None,m,1,675.1163503001444,None,0.6233995999209583,,,,,,,pz2,2022_May_09_1441,training+cueing,2021.1.4,59.9213233590678,
Self.png,Friend,Self ,m,2.1,16,26,96,,,,,1,0,1,0,,,,,7,0,84,1,,,,,,,,,,,,,,,,,,,,,1.477,2.103,675.8736565001309,None,,,,,,,,,,,,,,,,,,,,676.4155592997558,676.9177425997332,0.5037389798089862,1.0040163798257709,676.9009933001362,677.017798599787,676.9009933001362,677.017798599787,677.0010095001198,None,m,1,677.0010095001198,None,0.8664887002669275,,,,,,,pz2,2022_May_09_1441,training+cueing,2021.1.4,59.9213233590678,
Stranger.png,Stranger,Stranger,c,3,13,23,93,,,,,1,0,1,0,,,,,7,1,85,8,,,,,,,,,,,,,,,,,,,,,1.543,1.564,677.9915916998871,None,,,,,,,,,,,,,,,,,,,,678.5326213999651,679.0359040000476,0.5070323799736798,1.0074861799366772,679.0191858997568,679.1359618999995,679.0191858997568,679.1359618999995,679.1191984000616,None,c,1,679.1191984000616,None,0.6684727002866566,,,,,,,pz2,2022_May_09_1441,training+cueing,2021.1.4,59.9213233590678,
