"Subject","Block","Trial","Accent","Voice","Label","Label_Origin_Identity","Label_English_Identity","Label_Standardized_Identity","Shape_Origin_Identity","Shape_English_Identity","Shape_Standardized_Identity","Matching","RT_ms","RT_sec","ACC"
9214409,1,1,"English","9197489_1.wav","friend","friend","Friend","Close","friend","Friend","Close","Matching",830,0.83,1
9214409,1,2,"English","9197489_1.wav","other","other","Stranger","Stranger","friend","Friend","Close","Nonmatching",612,0.612,1
9214409,1,3,"English","M10_2.mp3","self","self","Self","Self","self","Self","Self","Matching",863,0.863,1
9214409,1,4,"English","M5_2.mp3","self","self","Self","Self","other","Other","Stranger","Nonmatching",629,0.629,1
9214409,1,5,"English","M10_2.mp3","self","self","Self","Self","self","Self","Self","Matching",649,0.649,1
9214409,1,6,"English","M10_1.mp3","other","other","Stranger","Stranger","self","Self","Self","Nonmatching",555,0.555,1
9214409,1,7,"English","M10_1.mp3","self","self","Self","Self","self","Self","Self","Matching",834,0.834,1
9214409,1,8,"English","M5_2.mp3","other","other","Stranger","Stranger","other","Other","Stranger","Matching",578,0.578,1
9214409,1,9,"English","M5_1.mp3","other","other","Stranger","Stranger","other","Other","Stranger","Matching",634,0.634,1
9214409,1,10,"English","9197489_2.wav","friend","friend","Friend","Close","friend","Friend","Close","Matching",690,0.69,1
9214409,1,11,"English","9197489_2.wav","friend","friend","Friend","Close","friend","Friend","Close","Matching",477,0.477,1
9214409,1,12,"English","M5_2.mp3","self","self","Self","Self","other","Other","Stranger","Nonmatching",691,0.691,1
9214409,1,13,"English","M5_1.mp3","self","self","Self","Self","other","Other","Stranger","Nonmatching",934,0.934,0
9214409,1,14,"English","M10_2.mp3","friend","friend","Friend","Close","self","Self","Self","Nonmatching",728,0.728,1
9214409,1,15,"English","9197489_1.wav","friend","friend","Friend","Close","friend","Friend","Close","Matching",531,0.531,1
9214409,1,16,"English","M5_1.mp3","other","other","Stranger","Stranger","other","Other","Stranger","Matching",978,0.978,0
9214409,1,17,"English","9197489_1.wav","other","other","Stranger","Stranger","friend","Friend","Close","Nonmatching",766,0.766,1
9214409,1,18,"English","M10_2.mp3","friend","friend","Friend","Close","self","Self","Self","Nonmatching",851,0.851,1
9214409,1,19,"English","9197489_1.wav","self","self","Self","Self","friend","Friend","Close","Nonmatching",1091,1.091,0
9214409,1,20,"English","9197489_1.wav","friend","friend","Friend","Close","friend","Friend","Close","Matching",833,0.833,1
9214409,1,21,"English","M5_1.mp3","other","other","Stranger","Stranger","other","Other","Stranger","Matching",752,0.752,1
9214409,1,22,"English","M10_2.mp3","other","other","Stranger","Stranger","self","Self","Self","Nonmatching",1119,1.119,1
9214409,1,23,"English","9197489_2.wav","friend","friend","Friend","Close","friend","Friend","Close","Matching",734,0.734,1
9214409,1,24,"English","9197489_2.wav","other","other","Stranger","Stranger","friend","Friend","Close","Nonmatching",762,0.762,1
9214409,1,25,"English","M10_1.mp3","self","self","Self","Self","self","Self","Self","Matching",731,0.731,1
9214409,1,26,"English","M10_1.mp3","other","other","Stranger","Stranger","self","Self","Self","Nonmatching",687,0.687,1
9214409,1,27,"English","M5_1.mp3","other","other","Stranger","Stranger","other","Other","Stranger","Matching",795,0.795,1
9214409,1,28,"English","M10_1.mp3","self","self","Self","Self","self","Self","Self","Matching",818,0.818,1
9214409,1,29,"English","M10_2.mp3","self","self","Self","Self","self","Self","Self","Matching",517,0.517,1
9214409,1,30,"English","M5_2.mp3","friend","friend","Friend","Close","other","Other","Stranger","Nonmatching",860,0.86,1
9214409,1,31,"English","M5_1.mp3","other","other","Stranger","Stranger","other","Other","Stranger","Matching",799,0.799,0
9214409,1,32,"English","9197489_2.wav","self","self","Self","Self","friend","Friend","Close","Nonmatching",679,0.679,1
9214409,1,33,"English","9197489_2.wav","friend","friend","Friend","Close","friend","Friend","Close","Matching",718,0.718,1
9214409,1,34,"English","9197489_1.wav","friend","friend","Friend","Close","friend","Friend","Close","Matching",647,0.647,1
9214409,1,35,"English","M5_2.mp3","self","self","Self","Self","other","Other","Stranger","Nonmatching",1106,1.106,1
9214409,1,36,"English","M5_1.mp3","friend","friend","Friend","Close","other","Other","Stranger","Nonmatching",972,0.972,0
9214409,1,37,"English","M10_2.mp3","self","self","Self","Self","self","Self","Self","Matching",668,0.668,0
9214409,1,38,"English","M5_2.mp3","other","other","Stranger","Stranger","other","Other","Stranger","Matching",842,0.842,1
9214409,1,39,"English","M10_2.mp3","self","self","Self","Self","self","Self","Self","Matching",582,0.582,1
9214409,1,40,"English","M5_1.mp3","friend","friend","Friend","Close","other","Other","Stranger","Nonmatching",926,0.926,1
9214409,1,41,"English","M5_1.mp3","friend","friend","Friend","Close","other","Other","Stranger","Nonmatching",652,0.652,1
9214409,1,42,"English","M10_1.mp3","friend","friend","Friend","Close","self","Self","Self","Nonmatching",871,0.871,1
9214409,1,43,"English","M5_2.mp3","other","other","Stranger","Stranger","other","Other","Stranger","Matching",917,0.917,1
9214409,1,44,"English","M10_1.mp3","self","self","Self","Self","self","Self","Self","Matching",1066,1.066,1
9214409,1,45,"English","9197489_2.wav","friend","friend","Friend","Close","friend","Friend","Close","Matching",478,0.478,1
9214409,1,46,"English","M10_2.mp3","friend","friend","Friend","Close","self","Self","Self","Nonmatching",688,0.688,1
9214409,1,47,"English","9197489_2.wav","friend","friend","Friend","Close","friend","Friend","Close","Matching",551,0.551,1
9214409,1,48,"English","M5_2.mp3","other","other","Stranger","Stranger","other","Other","Stranger","Matching",623,0.623,1
9214409,1,49,"English","9197489_1.wav","friend","friend","Friend","Close","friend","Friend","Close","Matching",536,0.536,1
9214409,1,50,"English","M10_1.mp3","friend","friend","Friend","Close","self","Self","Self","Nonmatching",616,0.616,1
9214409,1,51,"English","M5_1.mp3","self","self","Self","Self","other","Other","Stranger","Nonmatching",720,0.72,1
9214409,1,52,"English","9197489_1.wav","friend","friend","Friend","Close","friend","Friend","Close","Matching",573,0.573,1
9214409,1,53,"English","M5_1.mp3","other","other","Stranger","Stranger","other","Other","Stranger","Matching",853,0.853,1
9214409,1,54,"English","M10_1.mp3","self","self","Self","Self","self","Self","Self","Matching",499,0.499,1
9214409,1,55,"English","9197489_2.wav","self","self","Self","Self","friend","Friend","Close","Nonmatching",570,0.57,1
9214409,1,56,"English","M5_1.mp3","self","self","Self","Self","other","Other","Stranger","Nonmatching",994,0.994,1
9214409,1,57,"English","M10_1.mp3","friend","friend","Friend","Close","self","Self","Self","Nonmatching",522,0.522,1
9214409,1,58,"English","9197489_2.wav","other","other","Stranger","Stranger","friend","Friend","Close","Nonmatching",571,0.571,1
9214409,1,59,"English","M10_1.mp3","self","self","Self","Self","self","Self","Self","Matching",978,0.978,0
9214409,1,60,"English","9197489_1.wav","self","self","Self","Self","friend","Friend","Close","Nonmatching",1056,1.056,1
9214409,1,61,"English","M10_2.mp3","self","self","Self","Self","self","Self","Self","Matching",934,0.934,1
9214409,1,62,"English","M10_2.mp3","other","other","Stranger","Stranger","self","Self","Self","Nonmatching",496,0.496,1
9214409,1,63,"English","9197489_2.wav","other","other","Stranger","Stranger","friend","Friend","Close","Nonmatching",544,0.544,1
9214409,1,64,"English","M5_2.mp3","other","other","Stranger","Stranger","other","Other","Stranger","Matching",694,0.694,1
9214409,1,65,"English","9197489_2.wav","self","self","Self","Self","friend","Friend","Close","Nonmatching",910,0.91,1
9214409,1,66,"English","M5_2.mp3","other","other","Stranger","Stranger","other","Other","Stranger","Matching",637,0.637,1
9214409,1,67,"English","9197489_1.wav","self","self","Self","Self","friend","Friend","Close","Nonmatching",745,0.745,1
9214409,1,68,"English","M5_2.mp3","friend","friend","Friend","Close","other","Other","Stranger","Nonmatching",891,0.891,1
9214409,1,69,"English","M5_2.mp3","friend","friend","Friend","Close","other","Other","Stranger","Nonmatching",630,0.63,1
9214409,1,70,"English","M10_2.mp3","other","other","Stranger","Stranger","self","Self","Self","Nonmatching",807,0.807,1
9214409,1,71,"English","M10_1.mp3","other","other","Stranger","Stranger","self","Self","Self","Nonmatching",441,0.441,1
9214409,1,72,"English","9197489_1.wav","other","other","Stranger","Stranger","friend","Friend","Close","Nonmatching",488,0.488,1
9214409,2,1,"English","M10_2.mp3","self","self","Self","Self","self","Self","Self","Matching",579,0.579,1
9214409,2,2,"English","M10_1.mp3","other","other","Stranger","Stranger","self","Self","Self","Nonmatching",460,0.46,1
9214409,2,3,"English","9197489_1.wav","friend","friend","Friend","Close","friend","Friend","Close","Matching",543,0.543,1
9214409,2,4,"English","M5_1.mp3","other","other","Stranger","Stranger","other","Other","Stranger","Matching",609,0.609,1
9214409,2,5,"English","M5_1.mp3","friend","friend","Friend","Close","other","Other","Stranger","Nonmatching",505,0.505,1
9214409,2,6,"English","9197489_1.wav","friend","friend","Friend","Close","friend","Friend","Close","Matching",609,0.609,1
9214409,2,7,"English","9197489_2.wav","self","self","Self","Self","friend","Friend","Close","Nonmatching",478,0.478,0
9214409,2,8,"English","M5_1.mp3","other","other","Stranger","Stranger","other","Other","Stranger","Matching",640,0.64,0
9214409,2,9,"English","9197489_1.wav","friend","friend","Friend","Close","friend","Friend","Close","Matching",536,0.536,1
9214409,2,10,"English","M10_1.mp3","friend","friend","Friend","Close","self","Self","Self","Nonmatching",705,0.705,1
9214409,2,11,"English","9197489_2.wav","other","other","Stranger","Stranger","friend","Friend","Close","Nonmatching",622,0.622,1
9214409,2,12,"English","M10_1.mp3","self","self","Self","Self","self","Self","Self","Matching",521,0.521,1
9214409,2,13,"English","9197489_2.wav","friend","friend","Friend","Close","friend","Friend","Close","Matching",668,0.668,1
9214409,2,14,"English","M5_2.mp3","friend","friend","Friend","Close","other","Other","Stranger","Nonmatching",578,0.578,1
9214409,2,15,"English","9197489_2.wav","other","other","Stranger","Stranger","friend","Friend","Close","Nonmatching",656,0.656,1
9214409,2,16,"English","9197489_1.wav","self","self","Self","Self","friend","Friend","Close","Nonmatching",546,0.546,1
9214409,2,17,"English","9197489_1.wav","other","other","Stranger","Stranger","friend","Friend","Close","Nonmatching",555,0.555,1
9214409,2,18,"English","M5_1.mp3","other","other","Stranger","Stranger","other","Other","Stranger","Matching",912,0.912,1
9214409,2,19,"English","M5_1.mp3","other","other","Stranger","Stranger","other","Other","Stranger","Matching",510,0.51,1
9214409,2,20,"English","M10_2.mp3","self","self","Self","Self","self","Self","Self","Matching",584,0.584,1
9214409,2,21,"English","M5_1.mp3","self","self","Self","Self","other","Other","Stranger","Nonmatching",696,0.696,1
9214409,2,22,"English","M5_2.mp3","other","other","Stranger","Stranger","other","Other","Stranger","Matching",514,0.514,1
9214409,2,23,"English","M5_2.mp3","self","self","Self","Self","other","Other","Stranger","Nonmatching",480,0.48,1
9214409,2,24,"English","9197489_2.wav","friend","friend","Friend","Close","friend","Friend","Close","Matching",441,0.441,1
9214409,2,25,"English","M5_2.mp3","other","other","Stranger","Stranger","other","Other","Stranger","Matching",609,0.609,1
9214409,2,26,"English","M10_1.mp3","self","self","Self","Self","self","Self","Self","Matching",361,0.361,1
9214409,2,27,"English","M10_2.mp3","self","self","Self","Self","self","Self","Self","Matching",231,0.231,1
9214409,2,28,"English","M5_1.mp3","other","other","Stranger","Stranger","other","Other","Stranger","Matching",613,0.613,1
9214409,2,29,"English","9197489_2.wav","self","self","Self","Self","friend","Friend","Close","Nonmatching",402,0.402,1
9214409,2,30,"English","M10_1.mp3","other","other","Stranger","Stranger","self","Self","Self","Nonmatching",584,0.584,1
9214409,2,31,"English","M10_2.mp3","self","self","Self","Self","self","Self","Self","Matching",312,0.312,1
9214409,2,32,"English","9197489_1.wav","other","other","Stranger","Stranger","friend","Friend","Close","Nonmatching",688,0.688,1
9214409,2,33,"English","M10_2.mp3","friend","friend","Friend","Close","self","Self","Self","Nonmatching",513,0.513,1
9214409,2,34,"English","M10_2.mp3","self","self","Self","Self","self","Self","Self","Matching",419,0.419,1
9214409,2,35,"English","9197489_1.wav","self","self","Self","Self","friend","Friend","Close","Nonmatching",415,0.415,1
9214409,2,36,"English","9197489_1.wav","other","other","Stranger","Stranger","friend","Friend","Close","Nonmatching",505,0.505,1
9214409,2,37,"English","M5_1.mp3","other","other","Stranger","Stranger","other","Other","Stranger","Matching",532,0.532,1
9214409,2,38,"English","M5_2.mp3","self","self","Self","Self","other","Other","Stranger","Nonmatching",677,0.677,1
9214409,2,39,"English","M10_1.mp3","self","self","Self","Self","self","Self","Self","Matching",388,0.388,1
9214409,2,40,"English","M10_2.mp3","friend","friend","Friend","Close","self","Self","Self","Nonmatching",404,0.404,1
9214409,2,41,"English","M5_1.mp3","self","self","Self","Self","other","Other","Stranger","Nonmatching",606,0.606,1
9214409,2,42,"English","9197489_1.wav","friend","friend","Friend","Close","friend","Friend","Close","Matching",569,0.569,1
9214409,2,43,"English","9197489_1.wav","friend","friend","Friend","Close","friend","Friend","Close","Matching",429,0.429,1
9214409,2,44,"English","M5_1.mp3","self","self","Self","Self","other","Other","Stranger","Nonmatching",744,0.744,1
9214409,2,45,"English","M5_2.mp3","friend","friend","Friend","Close","other","Other","Stranger","Nonmatching",673,0.673,1
9214409,2,46,"English","M5_2.mp3","self","self","Self","Self","other","Other","Stranger","Nonmatching",416,0.416,1
9214409,2,47,"English","M10_1.mp3","self","self","Self","Self","self","Self","Self","Matching",432,0.432,1
9214409,2,48,"English","M10_1.mp3","friend","friend","Friend","Close","self","Self","Self","Nonmatching",419,0.419,1
9214409,2,49,"English","9197489_1.wav","friend","friend","Friend","Close","friend","Friend","Close","Matching",488,0.488,1
9214409,2,50,"English","M5_2.mp3","friend","friend","Friend","Close","other","Other","Stranger","Nonmatching",694,0.694,1
9214409,2,51,"English","9197489_2.wav","other","other","Stranger","Stranger","friend","Friend","Close","Nonmatching",472,0.472,1
9214409,2,52,"English","M5_1.mp3","friend","friend","Friend","Close","other","Other","Stranger","Nonmatching",512,0.512,1
9214409,2,53,"English","M5_1.mp3","friend","friend","Friend","Close","other","Other","Stranger","Nonmatching",498,0.498,1
9214409,2,54,"English","M5_2.mp3","other","other","Stranger","Stranger","other","Other","Stranger","Matching",650,0.65,0
9214409,2,55,"English","M10_2.mp3","other","other","Stranger","Stranger","self","Self","Self","Nonmatching",798,0.798,1
9214409,2,56,"English","M5_2.mp3","other","other","Stranger","Stranger","other","Other","Stranger","Matching",437,0.437,0
9214409,2,57,"English","M5_2.mp3","other","other","Stranger","Stranger","other","Other","Stranger","Matching",372,0.372,1
9214409,2,58,"English","M10_2.mp3","self","self","Self","Self","self","Self","Self","Matching",476,0.476,1
9214409,2,59,"English","M10_1.mp3","other","other","Stranger","Stranger","self","Self","Self","Nonmatching",455,0.455,1
9214409,2,60,"English","M10_1.mp3","self","self","Self","Self","self","Self","Self","Matching",638,0.638,1
9214409,2,61,"English","9197489_2.wav","friend","friend","Friend","Close","friend","Friend","Close","Matching",433,0.433,1
9214409,2,62,"English","M10_2.mp3","other","other","Stranger","Stranger","self","Self","Self","Nonmatching",612,0.612,1
9214409,2,63,"English","M10_2.mp3","other","other","Stranger","Stranger","self","Self","Self","Nonmatching",562,0.562,1
9214409,2,64,"English","M10_1.mp3","friend","friend","Friend","Close","self","Self","Self","Nonmatching",981,0.981,1
9214409,2,65,"English","9197489_2.wav","friend","friend","Friend","Close","friend","Friend","Close","Matching",1147,1.147,1
9214409,2,66,"English","9197489_1.wav","self","self","Self","Self","friend","Friend","Close","Nonmatching",433,0.433,1
9214409,2,67,"English","M10_2.mp3","friend","friend","Friend","Close","self","Self","Self","Nonmatching",543,0.543,1
9214409,2,68,"English","M10_1.mp3","self","self","Self","Self","self","Self","Self","Matching",431,0.431,1
9214409,2,69,"English","9197489_2.wav","friend","friend","Friend","Close","friend","Friend","Close","Matching",382,0.382,1
9214409,2,70,"English","9197489_2.wav","self","self","Self","Self","friend","Friend","Close","Nonmatching",646,0.646,1
9214409,2,71,"English","M5_2.mp3","other","other","Stranger","Stranger","other","Other","Stranger","Matching",587,0.587,1
9214409,2,72,"English","9197489_2.wav","friend","friend","Friend","Close","friend","Friend","Close","Matching",468,0.468,1
9214409,3,1,"English","M10_1.mp3","self","self","Self","Self","self","Self","Self","Matching",779,0.779,1
9214409,3,2,"English","9197489_2.wav","friend","friend","Friend","Close","friend","Friend","Close","Matching",398,0.398,1
9214409,3,3,"English","9197489_1.wav","self","self","Self","Self","friend","Friend","Close","Nonmatching",416,0.416,0
9214409,3,4,"English","9197489_1.wav","friend","friend","Friend","Close","friend","Friend","Close","Matching",343,0.343,1
9214409,3,5,"English","M10_2.mp3","self","self","Self","Self","self","Self","Self","Matching",444,0.444,1
9214409,3,6,"English","9197489_2.wav","self","self","Self","Self","friend","Friend","Close","Nonmatching",490,0.49,1
9214409,3,7,"English","M10_1.mp3","other","other","Stranger","Stranger","self","Self","Self","Nonmatching",767,0.767,1
9214409,3,8,"English","M5_1.mp3","friend","friend","Friend","Close","other","Other","Stranger","Nonmatching",508,0.508,0
9214409,3,9,"English","9197489_1.wav","friend","friend","Friend","Close","friend","Friend","Close","Matching",575,0.575,1
9214409,3,10,"English","9197489_1.wav","friend","friend","Friend","Close","friend","Friend","Close","Matching",728,0.728,1
9214409,3,11,"English","M10_1.mp3","other","other","Stranger","Stranger","self","Self","Self","Nonmatching",780,0.78,1
9214409,3,12,"English","M10_1.mp3","friend","friend","Friend","Close","self","Self","Self","Nonmatching",688,0.688,1
9214409,3,13,"English","9197489_1.wav","other","other","Stranger","Stranger","friend","Friend","Close","Nonmatching",707,0.707,1
9214409,3,14,"English","M10_1.mp3","self","self","Self","Self","self","Self","Self","Matching",1138,1.138,0
9214409,3,15,"English","9197489_2.wav","other","other","Stranger","Stranger","friend","Friend","Close","Nonmatching",732,0.732,1
9214409,3,16,"English","M5_2.mp3","other","other","Stranger","Stranger","other","Other","Stranger","Matching",712,0.712,1
9214409,3,17,"English","9197489_1.wav","self","self","Self","Self","friend","Friend","Close","Nonmatching",610,0.61,1
9214409,3,18,"English","M5_2.mp3","self","self","Self","Self","other","Other","Stranger","Nonmatching",650,0.65,1
9214409,3,19,"English","M10_2.mp3","other","other","Stranger","Stranger","self","Self","Self","Nonmatching",560,0.56,1
9214409,3,20,"English","M10_1.mp3","friend","friend","Friend","Close","self","Self","Self","Nonmatching",1042,1.042,1
9214409,3,21,"English","M10_1.mp3","self","self","Self","Self","self","Self","Self","Matching",471,0.471,1
9214409,3,22,"English","M10_2.mp3","self","self","Self","Self","self","Self","Self","Matching",1004,1.004,1
9214409,3,23,"English","M10_2.mp3","self","self","Self","Self","self","Self","Self","Matching",385,0.385,1
9214409,3,24,"English","9197489_1.wav","friend","friend","Friend","Close","friend","Friend","Close","Matching",618,0.618,1
9214409,3,25,"English","9197489_2.wav","friend","friend","Friend","Close","friend","Friend","Close","Matching",1050,1.05,1
9214409,3,26,"English","M5_2.mp3","self","self","Self","Self","other","Other","Stranger","Nonmatching",794,0.794,1
9214409,3,27,"English","M5_1.mp3","other","other","Stranger","Stranger","other","Other","Stranger","Matching",941,0.941,1
9214409,3,28,"English","M5_1.mp3","other","other","Stranger","Stranger","other","Other","Stranger","Matching",494,0.494,1
9214409,3,29,"English","M10_1.mp3","self","self","Self","Self","self","Self","Self","Matching",686,0.686,1
9214409,3,30,"English","M5_2.mp3","friend","friend","Friend","Close","other","Other","Stranger","Nonmatching",779,0.779,1
9214409,3,31,"English","M10_1.mp3","self","self","Self","Self","self","Self","Self","Matching",904,0.904,1
9214409,3,32,"English","M10_2.mp3","friend","friend","Friend","Close","self","Self","Self","Nonmatching",477,0.477,1
9214409,3,33,"English","9197489_2.wav","friend","friend","Friend","Close","friend","Friend","Close","Matching",605,0.605,1
9214409,3,34,"English","9197489_1.wav","other","other","Stranger","Stranger","friend","Friend","Close","Nonmatching",390,0.39,1
9214409,3,35,"English","9197489_2.wav","friend","friend","Friend","Close","friend","Friend","Close","Matching",356,0.356,1
9214409,3,36,"English","M5_2.mp3","friend","friend","Friend","Close","other","Other","Stranger","Nonmatching",700,0.7,1
9214409,3,37,"English","M5_1.mp3","self","self","Self","Self","other","Other","Stranger","Nonmatching",651,0.651,1
9214409,3,38,"English","M5_1.mp3","self","self","Self","Self","other","Other","Stranger","Nonmatching",498,0.498,1
9214409,3,39,"English","9197489_2.wav","friend","friend","Friend","Close","friend","Friend","Close","Matching",450,0.45,1
9214409,3,40,"English","M5_1.mp3","other","other","Stranger","Stranger","other","Other","Stranger","Matching",1024,1.024,1
9214409,3,41,"English","M5_2.mp3","friend","friend","Friend","Close","other","Other","Stranger","Nonmatching",505,0.505,1
9214409,3,42,"English","M10_2.mp3","friend","friend","Friend","Close","self","Self","Self","Nonmatching",765,0.765,0
9214409,3,43,"English","9197489_2.wav","self","self","Self","Self","friend","Friend","Close","Nonmatching",982,0.982,1
9214409,3,44,"English","M5_2.mp3","other","other","Stranger","Stranger","other","Other","Stranger","Matching",1114,1.114,0
9214409,3,45,"English","M5_2.mp3","other","other","Stranger","Stranger","other","Other","Stranger","Matching",403,0.403,1
9214409,3,46,"English","M5_1.mp3","other","other","Stranger","Stranger","other","Other","Stranger","Matching",876,0.876,1
9214409,3,47,"English","M10_2.mp3","other","other","Stranger","Stranger","self","Self","Self","Nonmatching",606,0.606,1
9214409,3,48,"English","M10_2.mp3","self","self","Self","Self","self","Self","Self","Matching",532,0.532,1
9214409,3,49,"English","M5_1.mp3","friend","friend","Friend","Close","other","Other","Stranger","Nonmatching",855,0.855,1
9214409,3,50,"English","M10_2.mp3","self","self","Self","Self","self","Self","Self","Matching",358,0.358,1
9214409,3,51,"English","M5_1.mp3","other","other","Stranger","Stranger","other","Other","Stranger","Matching",624,0.624,1
9214409,3,52,"English","M5_2.mp3","other","other","Stranger","Stranger","other","Other","Stranger","Matching",409,0.409,1
9214409,3,53,"English","9197489_1.wav","self","self","Self","Self","friend","Friend","Close","Nonmatching",576,0.576,1
9214409,3,54,"English","9197489_1.wav","other","other","Stranger","Stranger","friend","Friend","Close","Nonmatching",796,0.796,1
9214409,3,55,"English","M10_2.mp3","friend","friend","Friend","Close","self","Self","Self","Nonmatching",496,0.496,1
9214409,3,56,"English","M5_1.mp3","other","other","Stranger","Stranger","other","Other","Stranger","Matching",686,0.686,1
9214409,3,57,"English","M10_1.mp3","other","other","Stranger","Stranger","self","Self","Self","Nonmatching",562,0.562,1
9214409,3,58,"English","9197489_1.wav","friend","friend","Friend","Close","friend","Friend","Close","Matching",624,0.624,1
9214409,3,59,"English","M10_1.mp3","self","self","Self","Self","self","Self","Self","Matching",979,0.979,1
9214409,3,60,"English","M5_2.mp3","other","other","Stranger","Stranger","other","Other","Stranger","Matching",421,0.421,1
9214409,3,61,"English","M5_1.mp3","friend","friend","Friend","Close","other","Other","Stranger","Nonmatching",761,0.761,1
9214409,3,62,"English","M10_2.mp3","self","self","Self","Self","self","Self","Self","Matching",383,0.383,1
9214409,3,63,"English","M10_2.mp3","other","other","Stranger","Stranger","self","Self","Self","Nonmatching",670,0.67,1
9214409,3,64,"English","M5_1.mp3","self","self","Self","Self","other","Other","Stranger","Nonmatching",475,0.475,1
9214409,3,65,"English","9197489_2.wav","friend","friend","Friend","Close","friend","Friend","Close","Matching",478,0.478,1
9214409,3,66,"English","9197489_1.wav","friend","friend","Friend","Close","friend","Friend","Close","Matching",448,0.448,1
9214409,3,67,"English","9197489_2.wav","other","other","Stranger","Stranger","friend","Friend","Close","Nonmatching",432,0.432,1
9214409,3,68,"English","9197489_2.wav","other","other","Stranger","Stranger","friend","Friend","Close","Nonmatching",443,0.443,1
9214409,3,69,"English","M5_2.mp3","self","self","Self","Self","other","Other","Stranger","Nonmatching",531,0.531,0
9214409,3,70,"English","M10_1.mp3","friend","friend","Friend","Close","self","Self","Self","Nonmatching",548,0.548,1
9214409,3,71,"English","M5_2.mp3","other","other","Stranger","Stranger","other","Other","Stranger","Matching",681,0.681,1
9214409,3,72,"English","9197489_2.wav","self","self","Self","Self","friend","Friend","Close","Nonmatching",435,0.435,0
9214435,1,1,"English","9197512_1.wav","friend","friend","Friend","Close","other","Other","Stranger","Nonmatching",647.200000017881,0.647200000017881,1
9214435,1,2,"English","M10_2.mp3","self","self","Self","Self","friend","Friend","Close","Nonmatching",521.700000017881,0.521700000017881,0
9214435,1,3,"English","9197512_2.wav","other","other","Stranger","Stranger","other","Other","Stranger","Matching",477.59999999404,0.47759999999404,1
9214435,1,4,"English","M10_1.mp3","friend","friend","Friend","Close","friend","Friend","Close","Matching",511.800000011921,0.511800000011921,1
9214435,1,5,"English","M10_2.mp3","friend","friend","Friend","Close","friend","Friend","Close","Matching",468.09999999404,0.46809999999404,1
9214435,1,6,"English","M5_1.mp3","other","other","Stranger","Stranger","self","Self","Self","Nonmatching",519.5,0.5195,0
9214435,1,7,"English","9197512_1.wav","other","other","Stranger","Stranger","other","Other","Stranger","Matching",291.200000017881,0.291200000017881,1
9214435,1,8,"English","9197512_1.wav","other","other","Stranger","Stranger","other","Other","Stranger","Matching",254.700000017881,0.254700000017881,1
9214435,1,9,"English","M5_1.mp3","friend","friend","Friend","Close","self","Self","Self","Nonmatching",560.40000000596,0.56040000000596,1
9214435,1,10,"English","M10_1.mp3","self","self","Self","Self","friend","Friend","Close","Nonmatching",505.199999988079,0.505199999988079,0
9214435,1,11,"English","9197512_1.wav","other","other","Stranger","Stranger","other","Other","Stranger","Matching",330.800000011921,0.330800000011921,1
9214435,1,12,"English","9197512_1.wav","other","other","Stranger","Stranger","other","Other","Stranger","Matching",308.800000011921,0.308800000011921,1
9214435,1,13,"English","M5_2.mp3","friend","friend","Friend","Close","self","Self","Self","Nonmatching",424.90000000596,0.42490000000596,1
9214435,1,14,"English","M5_1.mp3","other","other","Stranger","Stranger","self","Self","Self","Nonmatching",533.40000000596,0.53340000000596,1
9214435,1,15,"English","M5_1.mp3","self","self","Self","Self","self","Self","Self","Matching",470.200000017881,0.470200000017881,1
9214435,1,16,"English","M5_1.mp3","other","other","Stranger","Stranger","self","Self","Self","Nonmatching",496.09999999404,0.49609999999404,1
9214435,1,17,"English","M5_2.mp3","self","self","Self","Self","self","Self","Self","Matching",540,0.54,1
9214435,1,18,"English","M5_2.mp3","self","self","Self","Self","self","Self","Self","Matching",378.299999982119,0.378299999982119,1
9214435,1,19,"English","M10_2.mp3","friend","friend","Friend","Close","friend","Friend","Close","Matching",443.300000011921,0.443300000011921,1
9214435,1,20,"English","M5_2.mp3","other","other","Stranger","Stranger","self","Self","Self","Nonmatching",540.90000000596,0.540900000005961,1
9214435,1,21,"English","M5_2.mp3","other","other","Stranger","Stranger","self","Self","Self","Nonmatching",419.59999999404,0.41959999999404,1
9214435,1,22,"English","M10_2.mp3","friend","friend","Friend","Close","friend","Friend","Close","Matching",528.90000000596,0.52890000000596,1
9214435,1,23,"English","9197512_2.wav","self","self","Self","Self","other","Other","Stranger","Nonmatching",533,0.533,0
9214435,1,24,"English","9197512_1.wav","other","other","Stranger","Stranger","other","Other","Stranger","Matching",461.59999999404,0.46159999999404,1
9214435,1,25,"English","M10_1.mp3","friend","friend","Friend","Close","friend","Friend","Close","Matching",377.40000000596,0.37740000000596,1
9214435,1,26,"English","M5_2.mp3","self","self","Self","Self","self","Self","Self","Matching",512.800000011921,0.512800000011921,1
9214435,1,27,"English","M5_1.mp3","self","self","Self","Self","self","Self","Self","Matching",373.40000000596,0.37340000000596,1
9214435,1,28,"English","M10_1.mp3","friend","friend","Friend","Close","friend","Friend","Close","Matching",324.40000000596,0.32440000000596,1
9214435,1,29,"English","9197512_2.wav","other","other","Stranger","Stranger","other","Other","Stranger","Matching",372.800000011921,0.372800000011921,1
9214435,1,30,"English","M10_2.mp3","friend","friend","Friend","Close","friend","Friend","Close","Matching",449.299999982119,0.449299999982119,1
9214435,1,31,"English","9197512_1.wav","self","self","Self","Self","other","Other","Stranger","Nonmatching",376.699999988079,0.376699999988079,0
9214435,1,32,"English","M5_1.mp3","self","self","Self","Self","self","Self","Self","Matching",564.5,0.5645,1
9214435,1,33,"English","M5_1.mp3","self","self","Self","Self","self","Self","Self","Matching",267.59999999404,0.26759999999404,1
9214435,1,34,"English","9197512_2.wav","friend","friend","Friend","Close","other","Other","Stranger","Nonmatching",496.40000000596,0.49640000000596,1
9214435,1,35,"English","M5_1.mp3","friend","friend","Friend","Close","self","Self","Self","Nonmatching",464.199999988079,0.464199999988079,1
9214435,1,36,"English","M5_1.mp3","friend","friend","Friend","Close","self","Self","Self","Nonmatching",313,0.313,1
9214435,1,37,"English","M5_1.mp3","self","self","Self","Self","self","Self","Self","Matching",472.90000000596,0.47290000000596,1
9214435,1,38,"English","M5_2.mp3","self","self","Self","Self","self","Self","Self","Matching",512.800000011921,0.512800000011921,0
9214435,1,39,"English","M10_2.mp3","other","other","Stranger","Stranger","friend","Friend","Close","Nonmatching",458.399999976158,0.458399999976158,1
9214435,1,40,"English","M10_1.mp3","friend","friend","Friend","Close","friend","Friend","Close","Matching",455.800000011921,0.455800000011921,1
9214435,1,41,"English","M5_2.mp3","self","self","Self","Self","self","Self","Self","Matching",573.299999982119,0.573299999982119,0
9214435,1,42,"English","9197512_1.wav","self","self","Self","Self","other","Other","Stranger","Nonmatching",617.40000000596,0.617400000005961,1
9214435,1,43,"English","M10_2.mp3","friend","friend","Friend","Close","friend","Friend","Close","Matching",315,0.315,1
9214435,1,44,"English","M10_1.mp3","other","other","Stranger","Stranger","friend","Friend","Close","Nonmatching",430.799999982119,0.430799999982119,1
9214435,1,45,"English","9197512_2.wav","self","self","Self","Self","other","Other","Stranger","Nonmatching",449,0.449,1
9214435,1,46,"English","9197512_1.wav","friend","friend","Friend","Close","other","Other","Stranger","Nonmatching",535.90000000596,0.53590000000596,0
9214435,1,47,"English","M10_1.mp3","other","other","Stranger","Stranger","friend","Friend","Close","Nonmatching",679.800000011921,0.679800000011921,1
9214435,1,48,"English","9197512_1.wav","self","self","Self","Self","other","Other","Stranger","Nonmatching",514.40000000596,0.51440000000596,0
9214435,1,49,"English","9197512_2.wav","other","other","Stranger","Stranger","other","Other","Stranger","Matching",612.800000011921,0.612800000011921,1
9214435,1,50,"English","9197512_2.wav","friend","friend","Friend","Close","other","Other","Stranger","Nonmatching",610.700000017881,0.610700000017881,1
9214435,1,51,"English","M10_1.mp3","self","self","Self","Self","friend","Friend","Close","Nonmatching",680,0.68,1
9214435,1,52,"English","9197512_2.wav","other","other","Stranger","Stranger","other","Other","Stranger","Matching",585.300000011921,0.585300000011921,1
9214435,1,53,"English","M10_1.mp3","self","self","Self","Self","friend","Friend","Close","Nonmatching",720.699999988079,0.720699999988079,0
9214435,1,54,"English","M5_2.mp3","other","other","Stranger","Stranger","self","Self","Self","Nonmatching",474.5,0.4745,1
9214435,1,55,"English","M10_2.mp3","self","self","Self","Self","friend","Friend","Close","Nonmatching",509.299999982119,0.509299999982119,1
9214435,1,56,"English","9197512_1.wav","other","other","Stranger","Stranger","other","Other","Stranger","Matching",402.899999976158,0.402899999976158,1
9214435,1,57,"English","9197512_1.wav","friend","friend","Friend","Close","other","Other","Stranger","Nonmatching",466.09999999404,0.46609999999404,1
9214435,1,58,"English","M10_2.mp3","other","other","Stranger","Stranger","friend","Friend","Close","Nonmatching",610.800000011921,0.610800000011921,1
9214435,1,59,"English","9197512_2.wav","other","other","Stranger","Stranger","other","Other","Stranger","Matching",569.800000011921,0.569800000011921,1
9214435,1,60,"English","M5_1.mp3","self","self","Self","Self","self","Self","Self","Matching",439.699999988079,0.439699999988079,1
9214435,1,61,"English","M10_1.mp3","other","other","Stranger","Stranger","friend","Friend","Close","Nonmatching",627.799999982119,0.627799999982119,1
9214435,1,62,"English","9197512_2.wav","self","self","Self","Self","other","Other","Stranger","Nonmatching",657.09999999404,0.65709999999404,1
9214435,1,63,"English","M10_1.mp3","friend","friend","Friend","Close","friend","Friend","Close","Matching",468.300000011921,0.468300000011921,1
9214435,1,64,"English","M10_2.mp3","friend","friend","Friend","Close","friend","Friend","Close","Matching",369.800000011921,0.369800000011921,1
9214435,1,65,"English","M10_2.mp3","other","other","Stranger","Stranger","friend","Friend","Close","Nonmatching",528.199999988079,0.528199999988079,1
9214435,1,66,"English","M5_2.mp3","self","self","Self","Self","self","Self","Self","Matching",373.699999988079,0.373699999988079,1
9214435,1,67,"English","M5_2.mp3","friend","friend","Friend","Close","self","Self","Self","Nonmatching",306.09999999404,0.30609999999404,1
9214435,1,68,"English","M5_2.mp3","friend","friend","Friend","Close","self","Self","Self","Nonmatching",314.90000000596,0.31490000000596,1
9214435,1,69,"English","9197512_2.wav","friend","friend","Friend","Close","other","Other","Stranger","Nonmatching",528.5,0.5285,1
9214435,1,70,"English","M10_1.mp3","friend","friend","Friend","Close","friend","Friend","Close","Matching",457.59999999404,0.45759999999404,1
9214435,1,71,"English","9197512_2.wav","other","other","Stranger","Stranger","other","Other","Stranger","Matching",667.300000011921,0.667300000011921,1
9214435,1,72,"English","M10_2.mp3","self","self","Self","Self","friend","Friend","Close","Nonmatching",484.300000011921,0.484300000011921,1
9214435,2,1,"English","M5_2.mp3","self","self","Self","Self","self","Self","Self","Matching",1332.40000000596,1.33240000000596,1
9214435,2,2,"English","M10_2.mp3","friend","friend","Friend","Close","friend","Friend","Close","Matching",666.299999982119,0.666299999982119,1
9214435,2,3,"English","M10_2.mp3","other","other","Stranger","Stranger","friend","Friend","Close","Nonmatching",500.09999999404,0.50009999999404,1
9214435,2,4,"English","M5_1.mp3","friend","friend","Friend","Close","self","Self","Self","Nonmatching",798.700000017881,0.798700000017881,1
9214435,2,5,"English","9197512_1.wav","friend","friend","Friend","Close","other","Other","Stranger","Nonmatching",655.700000017881,0.655700000017881,1
9214435,2,6,"English","9197512_2.wav","friend","friend","Friend","Close","other","Other","Stranger","Nonmatching",515.700000017881,0.515700000017881,1
9214435,2,7,"English","9197512_2.wav","self","self","Self","Self","other","Other","Stranger","Nonmatching",773.800000011921,0.773800000011921,1
9214435,2,8,"English","9197512_2.wav","other","other","Stranger","Stranger","other","Other","Stranger","Matching",540.90000000596,0.540900000005961,1
9214435,2,9,"English","M10_2.mp3","other","other","Stranger","Stranger","friend","Friend","Close","Nonmatching",579.100000023842,0.579100000023842,1
9214435,2,10,"English","9197512_1.wav","self","self","Self","Self","other","Other","Stranger","Nonmatching",693,0.693,1
9214435,2,11,"English","9197512_1.wav","friend","friend","Friend","Close","other","Other","Stranger","Nonmatching",776,0.776,1
9214435,2,12,"English","9197512_2.wav","friend","friend","Friend","Close","other","Other","Stranger","Nonmatching",536,0.536,1
9214435,2,13,"English","M5_1.mp3","other","other","Stranger","Stranger","self","Self","Self","Nonmatching",527.800000011921,0.527800000011921,1
9214435,2,14,"English","M5_1.mp3","self","self","Self","Self","self","Self","Self","Matching",374.40000000596,0.37440000000596,1
9214435,2,15,"English","M10_2.mp3","friend","friend","Friend","Close","friend","Friend","Close","Matching",570.800000011921,0.570800000011921,1
9214435,2,16,"English","M5_2.mp3","friend","friend","Friend","Close","self","Self","Self","Nonmatching",933.399999976158,0.933399999976158,1
9214435,2,17,"English","9197512_2.wav","self","self","Self","Self","other","Other","Stranger","Nonmatching",530.800000011921,0.530800000011921,0
9214435,2,18,"English","M10_1.mp3","other","other","Stranger","Stranger","friend","Friend","Close","Nonmatching",1323.59999999404,1.32359999999404,1
9214435,2,19,"English","M10_2.mp3","friend","friend","Friend","Close","friend","Friend","Close","Matching",823.300000011921,0.823300000011921,1
9214435,2,20,"English","9197512_2.wav","other","other","Stranger","Stranger","other","Other","Stranger","Matching",606.90000000596,0.60690000000596,1
9214435,2,21,"English","9197512_1.wav","other","other","Stranger","Stranger","other","Other","Stranger","Matching",446.09999999404,0.44609999999404,1
9214435,2,22,"English","M5_1.mp3","self","self","Self","Self","self","Self","Self","Matching",447.300000011921,0.447300000011921,1
9214435,2,23,"English","M5_1.mp3","other","other","Stranger","Stranger","self","Self","Self","Nonmatching",346.59999999404,0.34659999999404,1
9214435,2,24,"English","M10_2.mp3","friend","friend","Friend","Close","friend","Friend","Close","Matching",375.90000000596,0.37590000000596,1
9214435,2,25,"English","M10_2.mp3","friend","friend","Friend","Close","friend","Friend","Close","Matching",924.5,0.9245,1
9214435,2,26,"English","M10_1.mp3","friend","friend","Friend","Close","friend","Friend","Close","Matching",632.40000000596,0.63240000000596,1
9214435,2,27,"English","M5_1.mp3","self","self","Self","Self","self","Self","Self","Matching",569,0.569,1
9214435,2,28,"English","M10_1.mp3","self","self","Self","Self","friend","Friend","Close","Nonmatching",513.299999982119,0.513299999982119,1
9214435,2,29,"English","M5_2.mp3","self","self","Self","Self","self","Self","Self","Matching",643.40000000596,0.64340000000596,1
9214435,2,30,"English","9197512_1.wav","other","other","Stranger","Stranger","other","Other","Stranger","Matching",413.09999999404,0.41309999999404,1
9214435,2,31,"English","M5_2.mp3","self","self","Self","Self","self","Self","Self","Matching",309.09999999404,0.30909999999404,1
9214435,2,32,"English","M10_2.mp3","self","self","Self","Self","friend","Friend","Close","Nonmatching",462.5,0.4625,1
9214435,2,33,"English","M10_1.mp3","friend","friend","Friend","Close","friend","Friend","Close","Matching",443.40000000596,0.44340000000596,1
9214435,2,34,"English","M5_2.mp3","self","self","Self","Self","self","Self","Self","Matching",337.40000000596,0.33740000000596,1
9214435,2,35,"English","M10_1.mp3","friend","friend","Friend","Close","friend","Friend","Close","Matching",509.700000017881,0.509700000017881,1
9214435,2,36,"English","M10_1.mp3","self","self","Self","Self","friend","Friend","Close","Nonmatching",869.800000011921,0.869800000011921,1
9214435,2,37,"English","M5_2.mp3","other","other","Stranger","Stranger","self","Self","Self","Nonmatching",473.300000011921,0.473300000011921,1
9214435,2,38,"English","M5_2.mp3","other","other","Stranger","Stranger","self","Self","Self","Nonmatching",955.90000000596,0.95590000000596,1
9214435,2,39,"English","M5_1.mp3","self","self","Self","Self","self","Self","Self","Matching",924.199999988079,0.924199999988079,1
9214435,2,40,"English","M10_2.mp3","other","other","Stranger","Stranger","friend","Friend","Close","Nonmatching",674.699999988079,0.674699999988079,1
9214435,2,41,"English","9197512_1.wav","self","self","Self","Self","other","Other","Stranger","Nonmatching",1105.59999999404,1.10559999999404,1
9214435,2,42,"English","9197512_2.wav","other","other","Stranger","Stranger","other","Other","Stranger","Matching",556,0.556,1
9214435,2,43,"English","9197512_1.wav","other","other","Stranger","Stranger","other","Other","Stranger","Matching",324.5,0.3245,1
9214435,2,44,"English","M10_2.mp3","self","self","Self","Self","friend","Friend","Close","Nonmatching",947.399999976158,0.947399999976158,1
9214435,2,45,"English","M10_1.mp3","self","self","Self","Self","friend","Friend","Close","Nonmatching",596.40000000596,0.59640000000596,1
9214435,2,46,"English","M5_1.mp3","friend","friend","Friend","Close","self","Self","Self","Nonmatching",422.09999999404,0.42209999999404,1
9214435,2,47,"English","M5_1.mp3","self","self","Self","Self","self","Self","Self","Matching",562.5,0.5625,1
9214435,2,48,"English","M10_2.mp3","friend","friend","Friend","Close","friend","Friend","Close","Matching",839.300000011921,0.839300000011921,1
9214435,2,49,"English","9197512_2.wav","other","other","Stranger","Stranger","other","Other","Stranger","Matching",366.699999988079,0.366699999988079,1
9214435,2,50,"English","M5_2.mp3","self","self","Self","Self","self","Self","Self","Matching",616.299999982119,0.616299999982119,1
9214435,2,51,"English","M10_1.mp3","other","other","Stranger","Stranger","friend","Friend","Close","Nonmatching",873.40000000596,0.873400000005961,1
9214435,2,52,"English","9197512_2.wav","other","other","Stranger","Stranger","other","Other","Stranger","Matching",523,0.523,1
9214435,2,53,"English","9197512_2.wav","self","self","Self","Self","other","Other","Stranger","Nonmatching",397.200000017881,0.397200000017881,1
9214435,2,54,"English","9197512_1.wav","friend","friend","Friend","Close","other","Other","Stranger","Nonmatching",380.299999982119,0.380299999982119,1
9214435,2,55,"English","9197512_2.wav","other","other","Stranger","Stranger","other","Other","Stranger","Matching",354.699999988079,0.354699999988079,1
9214435,2,56,"English","M10_1.mp3","friend","friend","Friend","Close","friend","Friend","Close","Matching",827.5,0.8275,1
9214435,2,57,"English","9197512_2.wav","friend","friend","Friend","Close","other","Other","Stranger","Nonmatching",399.100000023842,0.399100000023842,1
9214435,2,58,"English","9197512_1.wav","other","other","Stranger","Stranger","other","Other","Stranger","Matching",311,0.311,1
9214435,2,59,"English","M10_1.mp3","other","other","Stranger","Stranger","friend","Friend","Close","Nonmatching",592.299999982119,0.592299999982119,1
9214435,2,60,"English","M5_2.mp3","friend","friend","Friend","Close","self","Self","Self","Nonmatching",384.5,0.3845,1
9214435,2,61,"English","M10_1.mp3","friend","friend","Friend","Close","friend","Friend","Close","Matching",690.199999988079,0.690199999988079,1
9214435,2,62,"English","M10_2.mp3","self","self","Self","Self","friend","Friend","Close","Nonmatching",408.40000000596,0.40840000000596,1
9214435,2,63,"English","M5_1.mp3","friend","friend","Friend","Close","self","Self","Self","Nonmatching",692.59999999404,0.69259999999404,1
9214435,2,64,"English","M5_1.mp3","self","self","Self","Self","self","Self","Self","Matching",430.100000023842,0.430100000023842,1
9214435,2,65,"English","M5_2.mp3","friend","friend","Friend","Close","self","Self","Self","Nonmatching",694.300000011921,0.694300000011921,1
9214435,2,66,"English","M5_1.mp3","other","other","Stranger","Stranger","self","Self","Self","Nonmatching",402,0.402,1
9214435,2,67,"English","M5_2.mp3","other","other","Stranger","Stranger","self","Self","Self","Nonmatching",491.199999988079,0.491199999988079,1
9214435,2,68,"English","9197512_1.wav","other","other","Stranger","Stranger","other","Other","Stranger","Matching",410.5,0.4105,1
9214435,2,69,"English","9197512_1.wav","other","other","Stranger","Stranger","other","Other","Stranger","Matching",330.700000017881,0.330700000017881,1
9214435,2,70,"English","9197512_1.wav","self","self","Self","Self","other","Other","Stranger","Nonmatching",428.899999976158,0.428899999976158,1
9214435,2,71,"English","M10_1.mp3","friend","friend","Friend","Close","friend","Friend","Close","Matching",408.90000000596,0.40890000000596,1
9214435,2,72,"English","M5_2.mp3","self","self","Self","Self","self","Self","Self","Matching",511.5,0.5115,1
9214435,3,1,"English","M10_1.mp3","friend","friend","Friend","Close","friend","Friend","Close","Matching",484.800000011921,0.484800000011921,1
9214435,3,2,"English","9197512_1.wav","self","self","Self","Self","other","Other","Stranger","Nonmatching",364.800000011921,0.364800000011921,1
9214435,3,3,"English","M5_1.mp3","self","self","Self","Self","self","Self","Self","Matching",369.800000011921,0.369800000011921,1
9214435,3,4,"English","M5_2.mp3","friend","friend","Friend","Close","self","Self","Self","Nonmatching",492.300000011921,0.492300000011921,1
9214435,3,5,"English","9197512_1.wav","other","other","Stranger","Stranger","other","Other","Stranger","Matching",564.40000000596,0.56440000000596,1
9214435,3,6,"English","M5_2.mp3","self","self","Self","Self","self","Self","Self","Matching",638.59999999404,0.638599999994039,1
9214435,3,7,"English","M5_1.mp3","self","self","Self","Self","self","Self","Self","Matching",300.5,0.3005,1
9214435,3,8,"English","9197512_1.wav","other","other","Stranger","Stranger","other","Other","Stranger","Matching",345.09999999404,0.34509999999404,1
9214435,3,9,"English","M10_2.mp3","self","self","Self","Self","friend","Friend","Close","Nonmatching",373.40000000596,0.37340000000596,1
9214435,3,10,"English","M10_1.mp3","self","self","Self","Self","friend","Friend","Close","Nonmatching",541,0.541,1
9214435,3,11,"English","9197512_2.wav","friend","friend","Friend","Close","other","Other","Stranger","Nonmatching",477.09999999404,0.47709999999404,1
9214435,3,12,"English","M10_1.mp3","friend","friend","Friend","Close","friend","Friend","Close","Matching",448.100000023842,0.448100000023842,1
9214435,3,13,"English","M5_1.mp3","other","other","Stranger","Stranger","self","Self","Self","Nonmatching",576.200000017881,0.576200000017881,1
9214435,3,14,"English","M10_1.mp3","friend","friend","Friend","Close","friend","Friend","Close","Matching",423.200000017881,0.423200000017881,1
9214435,3,15,"English","M5_1.mp3","other","other","Stranger","Stranger","self","Self","Self","Nonmatching",432.5,0.4325,1
9214435,3,16,"English","M5_2.mp3","self","self","Self","Self","self","Self","Self","Matching",785.700000017881,0.785700000017881,1
9214435,3,17,"English","9197512_1.wav","self","self","Self","Self","other","Other","Stranger","Nonmatching",548.59999999404,0.54859999999404,1
9214435,3,18,"English","M10_2.mp3","friend","friend","Friend","Close","friend","Friend","Close","Matching",577.800000011921,0.577800000011921,1
9214435,3,19,"English","9197512_2.wav","self","self","Self","Self","other","Other","Stranger","Nonmatching",410.600000023842,0.410600000023842,1
9214435,3,20,"English","9197512_2.wav","friend","friend","Friend","Close","other","Other","Stranger","Nonmatching",376.800000011921,0.376800000011921,1
9214435,3,21,"English","M10_2.mp3","friend","friend","Friend","Close","friend","Friend","Close","Matching",348.59999999404,0.34859999999404,1
9214435,3,22,"English","M5_2.mp3","other","other","Stranger","Stranger","self","Self","Self","Nonmatching",585.09999999404,0.585099999994039,1
9214435,3,23,"English","M10_2.mp3","other","other","Stranger","Stranger","friend","Friend","Close","Nonmatching",856.59999999404,0.85659999999404,1
9214435,3,24,"English","M5_2.mp3","other","other","Stranger","Stranger","self","Self","Self","Nonmatching",408.5,0.4085,1
9214435,3,25,"English","M5_2.mp3","friend","friend","Friend","Close","self","Self","Self","Nonmatching",299.799999982119,0.299799999982119,1
9214435,3,26,"English","M5_1.mp3","self","self","Self","Self","self","Self","Self","Matching",279.59999999404,0.27959999999404,1
9214435,3,27,"English","M5_1.mp3","friend","friend","Friend","Close","self","Self","Self","Nonmatching",336.600000023842,0.336600000023842,1
9214435,3,28,"English","9197512_2.wav","friend","friend","Friend","Close","other","Other","Stranger","Nonmatching",354.699999988079,0.354699999988079,1
9214435,3,29,"English","M5_2.mp3","self","self","Self","Self","self","Self","Self","Matching",420.199999988079,0.420199999988079,1
9214435,3,30,"English","9197512_1.wav","friend","friend","Friend","Close","other","Other","Stranger","Nonmatching",543,0.543,1
9214435,3,31,"English","9197512_2.wav","other","other","Stranger","Stranger","other","Other","Stranger","Matching",328.100000023842,0.328100000023842,1
9214435,3,32,"English","M5_1.mp3","friend","friend","Friend","Close","self","Self","Self","Nonmatching",404.800000011921,0.404800000011921,1
9214435,3,33,"English","M5_2.mp3","self","self","Self","Self","self","Self","Self","Matching",335.699999988079,0.335699999988079,1
9214435,3,34,"English","9197512_2.wav","other","other","Stranger","Stranger","other","Other","Stranger","Matching",381,0.381,1
9214435,3,35,"English","M5_2.mp3","self","self","Self","Self","self","Self","Self","Matching",300.800000011921,0.300800000011921,1
9214435,3,36,"English","M5_2.mp3","friend","friend","Friend","Close","self","Self","Self","Nonmatching",326.59999999404,0.32659999999404,1
9214435,3,37,"English","M5_1.mp3","friend","friend","Friend","Close","self","Self","Self","Nonmatching",520,0.52,1
9214435,3,38,"English","M10_2.mp3","friend","friend","Friend","Close","friend","Friend","Close","Matching",439,0.439,1
9214435,3,39,"English","M10_1.mp3","self","self","Self","Self","friend","Friend","Close","Nonmatching",356.5,0.3565,1
9214435,3,40,"English","M10_2.mp3","friend","friend","Friend","Close","friend","Friend","Close","Matching",343.5,0.3435,1
9214435,3,41,"English","M10_2.mp3","other","other","Stranger","Stranger","friend","Friend","Close","Nonmatching",342.299999982119,0.342299999982119,1
9214435,3,42,"English","M10_1.mp3","friend","friend","Friend","Close","friend","Friend","Close","Matching",400.40000000596,0.40040000000596,1
9214435,3,43,"English","9197512_2.wav","other","other","Stranger","Stranger","other","Other","Stranger","Matching",437.59999999404,0.43759999999404,1
9214435,3,44,"English","9197512_2.wav","other","other","Stranger","Stranger","other","Other","Stranger","Matching",384.800000011921,0.384800000011921,1
9214435,3,45,"English","M10_2.mp3","friend","friend","Friend","Close","friend","Friend","Close","Matching",597.5,0.5975,1
9214435,3,46,"English","M5_1.mp3","other","other","Stranger","Stranger","self","Self","Self","Nonmatching",307.09999999404,0.30709999999404,1
9214435,3,47,"English","9197512_2.wav","other","other","Stranger","Stranger","other","Other","Stranger","Matching",397.700000017881,0.397700000017881,1
9214435,3,48,"English","M10_1.mp3","other","other","Stranger","Stranger","friend","Friend","Close","Nonmatching",484.199999988079,0.484199999988079,1
9214435,3,49,"English","M10_2.mp3","self","self","Self","Self","friend","Friend","Close","Nonmatching",553.800000011921,0.553800000011921,1
9214435,3,50,"English","M5_2.mp3","other","other","Stranger","Stranger","self","Self","Self","Nonmatching",398.100000023842,0.398100000023842,1
9214435,3,51,"English","9197512_1.wav","other","other","Stranger","Stranger","other","Other","Stranger","Matching",529.299999982119,0.529299999982119,0
9214435,3,52,"English","9197512_1.wav","other","other","Stranger","Stranger","other","Other","Stranger","Matching",346.699999988079,0.346699999988079,1
9214435,3,53,"English","9197512_2.wav","self","self","Self","Self","other","Other","Stranger","Nonmatching",356.40000000596,0.35640000000596,1
9214435,3,54,"English","M10_1.mp3","friend","friend","Friend","Close","friend","Friend","Close","Matching",555.09999999404,0.55509999999404,1
9214435,3,55,"English","9197512_1.wav","friend","friend","Friend","Close","other","Other","Stranger","Nonmatching",378.800000011921,0.378800000011921,1
9214435,3,56,"English","9197512_1.wav","friend","friend","Friend","Close","other","Other","Stranger","Nonmatching",315.09999999404,0.31509999999404,1
9214435,3,57,"English","M5_2.mp3","self","self","Self","Self","self","Self","Self","Matching",334.5,0.3345,1
9214435,3,58,"English","M5_1.mp3","self","self","Self","Self","self","Self","Self","Matching",313.200000017881,0.313200000017881,1
9214435,3,59,"English","M10_1.mp3","self","self","Self","Self","friend","Friend","Close","Nonmatching",579,0.579,1
9214435,3,60,"English","9197512_1.wav","self","self","Self","Self","other","Other","Stranger","Nonmatching",321.199999988079,0.321199999988079,1
9214435,3,61,"English","M10_2.mp3","self","self","Self","Self","friend","Friend","Close","Nonmatching",391.700000017881,0.391700000017881,1
9214435,3,62,"English","9197512_2.wav","other","other","Stranger","Stranger","other","Other","Stranger","Matching",321.199999988079,0.321199999988079,1
9214435,3,63,"English","M10_1.mp3","other","other","Stranger","Stranger","friend","Friend","Close","Nonmatching",689.700000017881,0.689700000017881,1
9214435,3,64,"English","M10_2.mp3","other","other","Stranger","Stranger","friend","Friend","Close","Nonmatching",446.59999999404,0.44659999999404,1
9214435,3,65,"English","9197512_2.wav","self","self","Self","Self","other","Other","Stranger","Nonmatching",341.800000011921,0.341800000011921,1
9214435,3,66,"English","9197512_1.wav","other","other","Stranger","Stranger","other","Other","Stranger","Matching",367.199999988079,0.367199999988079,1
9214435,3,67,"English","M10_1.mp3","friend","friend","Friend","Close","friend","Friend","Close","Matching",373.90000000596,0.37390000000596,1
9214435,3,68,"English","M10_1.mp3","other","other","Stranger","Stranger","friend","Friend","Close","Nonmatching",348.200000017881,0.348200000017881,1
9214435,3,69,"English","M5_1.mp3","self","self","Self","Self","self","Self","Self","Matching",319.799999982119,0.319799999982119,1
9214435,3,70,"English","M5_1.mp3","self","self","Self","Self","self","Self","Self","Matching",303,0.303,1
9214435,3,71,"English","9197512_1.wav","other","other","Stranger","Stranger","other","Other","Stranger","Matching",426.90000000596,0.42690000000596,1
9214435,3,72,"English","M10_2.mp3","friend","friend","Friend","Close","friend","Friend","Close","Matching",341.90000000596,0.34190000000596,1
9214447,1,1,"English","M5_1.mp3","friend","friend","Friend","Close","friend","Friend","Close","Matching",1264,1.264,1
9214447,1,2,"English","M5_1.mp3","other","other","Stranger","Stranger","friend","Friend","Close","Nonmatching",734,0.734,1
9214447,1,3,"English","M10_1.mp3","self","self","Self","Self","other","Other","Stranger","Nonmatching",776,0.776,1
9214447,1,4,"English","M10_1.mp3","self","self","Self","Self","other","Other","Stranger","Nonmatching",644,0.644,1
9214447,1,5,"English","9197460_2.wav","other","other","Stranger","Stranger","self","Self","Self","Nonmatching",642,0.642,1
9214447,1,6,"English","M10_1.mp3","self","self","Self","Self","other","Other","Stranger","Nonmatching",775,0.775,1
9214447,1,7,"English","9197460_2.wav","self","self","Self","Self","self","Self","Self","Matching",508,0.508,1
9214447,1,8,"English","M10_1.mp3","friend","friend","Friend","Close","other","Other","Stranger","Nonmatching",1300,1.3,1
9214447,1,9,"English","9197460_1.wav","self","self","Self","Self","self","Self","Self","Matching",604,0.604,1
9214447,1,10,"English","9197460_2.wav","self","self","Self","Self","self","Self","Self","Matching",609,0.609,1
9214447,1,11,"English","M5_2.mp3","self","self","Self","Self","friend","Friend","Close","Nonmatching",696,0.696,1
9214447,1,12,"English","M10_2.mp3","other","other","Stranger","Stranger","other","Other","Stranger","Matching",1111,1.111,1
9214447,1,13,"English","9197460_2.wav","friend","friend","Friend","Close","self","Self","Self","Nonmatching",663,0.663,1
9214447,1,14,"English","M10_1.mp3","other","other","Stranger","Stranger","other","Other","Stranger","Matching",828,0.828,1
9214447,1,15,"English","M5_1.mp3","friend","friend","Friend","Close","friend","Friend","Close","Matching",608,0.608,1
9214447,1,16,"English","M5_2.mp3","friend","friend","Friend","Close","friend","Friend","Close","Matching",505,0.505,1
9214447,1,17,"English","M5_1.mp3","other","other","Stranger","Stranger","friend","Friend","Close","Nonmatching",562,0.562,1
9214447,1,18,"English","M5_1.mp3","friend","friend","Friend","Close","friend","Friend","Close","Matching",582,0.582,1
9214447,1,19,"English","M10_1.mp3","other","other","Stranger","Stranger","other","Other","Stranger","Matching",709,0.709,1
9214447,1,20,"English","9197460_2.wav","other","other","Stranger","Stranger","self","Self","Self","Nonmatching",586,0.586,1
9214447,1,21,"English","M5_2.mp3","friend","friend","Friend","Close","friend","Friend","Close","Matching",818,0.818,1
9214447,1,22,"English","M5_1.mp3","friend","friend","Friend","Close","friend","Friend","Close","Matching",537,0.537,1
9214447,1,23,"English","M5_2.mp3","other","other","Stranger","Stranger","friend","Friend","Close","Nonmatching",579,0.579,1
9214447,1,24,"English","M10_2.mp3","self","self","Self","Self","other","Other","Stranger","Nonmatching",756,0.756,1
9214447,1,25,"English","9197460_1.wav","self","self","Self","Self","self","Self","Self","Matching",439,0.439,1
9214447,1,26,"English","M10_2.mp3","other","other","Stranger","Stranger","other","Other","Stranger","Matching",1363,1.363,1
9214447,1,27,"English","M5_2.mp3","friend","friend","Friend","Close","friend","Friend","Close","Matching",548,0.548,1
9214447,1,28,"English","M10_2.mp3","self","self","Self","Self","other","Other","Stranger","Nonmatching",780,0.78,1
9214447,1,29,"English","M5_2.mp3","friend","friend","Friend","Close","friend","Friend","Close","Matching",561,0.561,1
9214447,1,30,"English","M5_1.mp3","friend","friend","Friend","Close","friend","Friend","Close","Matching",574,0.574,1
9214447,1,31,"English","9197460_2.wav","self","self","Self","Self","self","Self","Self","Matching",563,0.563,1
9214447,1,32,"English","M10_1.mp3","friend","friend","Friend","Close","other","Other","Stranger","Nonmatching",984,0.984,0
9214447,1,33,"English","M10_1.mp3","other","other","Stranger","Stranger","other","Other","Stranger","Matching",507,0.507,0
9214447,1,34,"English","9197460_2.wav","friend","friend","Friend","Close","self","Self","Self","Nonmatching",1243,1.243,1
9214447,1,35,"English","M5_2.mp3","other","other","Stranger","Stranger","friend","Friend","Close","Nonmatching",1087,1.087,1
9214447,1,36,"English","M5_2.mp3","friend","friend","Friend","Close","friend","Friend","Close","Matching",763,0.763,1
9214447,1,37,"English","M10_2.mp3","other","other","Stranger","Stranger","other","Other","Stranger","Matching",676,0.676,0
9214447,1,38,"English","9197460_1.wav","friend","friend","Friend","Close","self","Self","Self","Nonmatching",747,0.747,1
9214447,1,39,"English","9197460_1.wav","other","other","Stranger","Stranger","self","Self","Self","Nonmatching",610,0.61,1
9214447,1,40,"English","M10_2.mp3","friend","friend","Friend","Close","other","Other","Stranger","Nonmatching",1002,1.002,1
9214447,1,41,"English","M10_1.mp3","other","other","Stranger","Stranger","other","Other","Stranger","Matching",770,0.77,1
9214447,1,42,"English","M5_2.mp3","friend","friend","Friend","Close","friend","Friend","Close","Matching",465,0.465,1
9214447,1,43,"English","M10_2.mp3","other","other","Stranger","Stranger","other","Other","Stranger","Matching",667,0.667,0
9214447,1,44,"English","M5_1.mp3","self","self","Self","Self","friend","Friend","Close","Nonmatching",818,0.818,1
9214447,1,45,"English","9197460_2.wav","friend","friend","Friend","Close","self","Self","Self","Nonmatching",651,0.651,1
9214447,1,46,"English","9197460_1.wav","self","self","Self","Self","self","Self","Self","Matching",835,0.835,1
9214447,1,47,"English","9197460_2.wav","self","self","Self","Self","self","Self","Self","Matching",678,0.678,1
9214447,1,48,"English","9197460_1.wav","other","other","Stranger","Stranger","self","Self","Self","Nonmatching",646,0.646,1
9214447,1,49,"English","9197460_1.wav","self","self","Self","Self","self","Self","Self","Matching",493,0.493,1
9214447,1,50,"English","M10_1.mp3","friend","friend","Friend","Close","other","Other","Stranger","Nonmatching",799,0.799,1
9214447,1,51,"English","M5_2.mp3","self","self","Self","Self","friend","Friend","Close","Nonmatching",637,0.637,1
9214447,1,52,"English","9197460_2.wav","self","self","Self","Self","self","Self","Self","Matching",482,0.482,1
9214447,1,53,"English","M10_2.mp3","self","self","Self","Self","other","Other","Stranger","Nonmatching",770,0.77,1
9214447,1,54,"English","M5_2.mp3","self","self","Self","Self","friend","Friend","Close","Nonmatching",812,0.812,1
9214447,1,55,"English","9197460_1.wav","friend","friend","Friend","Close","self","Self","Self","Nonmatching",818,0.818,1
9214447,1,56,"English","M5_1.mp3","other","other","Stranger","Stranger","friend","Friend","Close","Nonmatching",1033,1.033,0
9214447,1,57,"English","9197460_1.wav","self","self","Self","Self","self","Self","Self","Matching",757,0.757,1
9214447,1,58,"English","9197460_1.wav","friend","friend","Friend","Close","self","Self","Self","Nonmatching",435,0.435,1
9214447,1,59,"English","9197460_2.wav","other","other","Stranger","Stranger","self","Self","Self","Nonmatching",696,0.696,1
9214447,1,60,"English","9197460_2.wav","self","self","Self","Self","self","Self","Self","Matching",764,0.764,1
9214447,1,61,"English","9197460_1.wav","self","self","Self","Self","self","Self","Self","Matching",459,0.459,1
9214447,1,62,"English","M5_2.mp3","other","other","Stranger","Stranger","friend","Friend","Close","Nonmatching",926,0.926,1
9214447,1,63,"English","M5_1.mp3","self","self","Self","Self","friend","Friend","Close","Nonmatching",704,0.704,1
9214447,1,64,"English","M10_2.mp3","other","other","Stranger","Stranger","other","Other","Stranger","Matching",694,0.694,1
9214447,1,65,"English","M5_1.mp3","friend","friend","Friend","Close","friend","Friend","Close","Matching",624,0.624,1
9214447,1,66,"English","M10_2.mp3","other","other","Stranger","Stranger","other","Other","Stranger","Matching",736,0.736,1
9214447,1,67,"English","M10_2.mp3","friend","friend","Friend","Close","other","Other","Stranger","Nonmatching",598,0.598,1
9214447,1,68,"English","9197460_1.wav","other","other","Stranger","Stranger","self","Self","Self","Nonmatching",574,0.574,1
9214447,1,69,"English","M5_1.mp3","self","self","Self","Self","friend","Friend","Close","Nonmatching",683,0.683,1
9214447,1,70,"English","M10_1.mp3","other","other","Stranger","Stranger","other","Other","Stranger","Matching",722,0.722,1
9214447,1,71,"English","M10_1.mp3","other","other","Stranger","Stranger","other","Other","Stranger","Matching",1107,1.107,1
9214447,1,72,"English","M10_2.mp3","friend","friend","Friend","Close","other","Other","Stranger","Nonmatching",537,0.537,1
9214447,2,1,"English","M10_1.mp3","self","self","Self","Self","other","Other","Stranger","Nonmatching",842,0.842,1
9214447,2,2,"English","M5_2.mp3","friend","friend","Friend","Close","friend","Friend","Close","Matching",695,0.695,1
9214447,2,3,"English","9197460_2.wav","other","other","Stranger","Stranger","self","Self","Self","Nonmatching",553,0.553,1
9214447,2,4,"English","9197460_2.wav","friend","friend","Friend","Close","self","Self","Self","Nonmatching",792,0.792,1
9214447,2,5,"English","M10_2.mp3","self","self","Self","Self","other","Other","Stranger","Nonmatching",722,0.722,1
9214447,2,6,"English","M10_1.mp3","other","other","Stranger","Stranger","other","Other","Stranger","Matching",700,0.7,1
9214447,2,7,"English","M10_1.mp3","other","other","Stranger","Stranger","other","Other","Stranger","Matching",812,0.812,1
9214447,2,8,"English","M5_2.mp3","friend","friend","Friend","Close","friend","Friend","Close","Matching",533,0.533,1
9214447,2,9,"English","9197460_2.wav","friend","friend","Friend","Close","self","Self","Self","Nonmatching",612,0.612,1
9214447,2,10,"English","M5_2.mp3","friend","friend","Friend","Close","friend","Friend","Close","Matching",688,0.688,1
9214447,2,11,"English","9197460_1.wav","other","other","Stranger","Stranger","self","Self","Self","Nonmatching",517,0.517,1
9214447,2,12,"English","M10_2.mp3","self","self","Self","Self","other","Other","Stranger","Nonmatching",707,0.707,1
9214447,2,13,"English","M10_2.mp3","self","self","Self","Self","other","Other","Stranger","Nonmatching",532,0.532,1
9214447,2,14,"English","M10_2.mp3","other","other","Stranger","Stranger","other","Other","Stranger","Matching",721,0.721,1
9214447,2,15,"English","9197460_1.wav","other","other","Stranger","Stranger","self","Self","Self","Nonmatching",482,0.482,1
9214447,2,16,"English","M5_1.mp3","friend","friend","Friend","Close","friend","Friend","Close","Matching",706,0.706,1
9214447,2,17,"English","M10_1.mp3","other","other","Stranger","Stranger","other","Other","Stranger","Matching",694,0.694,0
9214447,2,18,"English","M10_2.mp3","other","other","Stranger","Stranger","other","Other","Stranger","Matching",514,0.514,1
9214447,2,19,"English","9197460_1.wav","self","self","Self","Self","self","Self","Self","Matching",581,0.581,1
9214447,2,20,"English","M10_2.mp3","friend","friend","Friend","Close","other","Other","Stranger","Nonmatching",900,0.9,1
9214447,2,21,"English","M5_1.mp3","other","other","Stranger","Stranger","friend","Friend","Close","Nonmatching",757,0.757,1
9214447,2,22,"English","M10_1.mp3","other","other","Stranger","Stranger","other","Other","Stranger","Matching",672,0.672,1
9214447,2,23,"English","M5_2.mp3","friend","friend","Friend","Close","friend","Friend","Close","Matching",502,0.502,1
9214447,2,24,"English","9197460_2.wav","other","other","Stranger","Stranger","self","Self","Self","Nonmatching",542,0.542,1
9214447,2,25,"English","M10_1.mp3","self","self","Self","Self","other","Other","Stranger","Nonmatching",604,0.604,1
9214447,2,26,"English","9197460_1.wav","self","self","Self","Self","self","Self","Self","Matching",582,0.582,1
9214447,2,27,"English","M10_2.mp3","other","other","Stranger","Stranger","other","Other","Stranger","Matching",756,0.756,0
9214447,2,28,"English","M5_2.mp3","other","other","Stranger","Stranger","friend","Friend","Close","Nonmatching",635,0.635,1
9214447,2,29,"English","9197460_2.wav","self","self","Self","Self","self","Self","Self","Matching",443,0.443,1
9214447,2,30,"English","9197460_2.wav","friend","friend","Friend","Close","self","Self","Self","Nonmatching",547,0.547,1
9214447,2,31,"English","M5_1.mp3","friend","friend","Friend","Close","friend","Friend","Close","Matching",730,0.73,0
9214447,2,32,"English","9197460_2.wav","self","self","Self","Self","self","Self","Self","Matching",510,0.51,1
9214447,2,33,"English","M5_2.mp3","self","self","Self","Self","friend","Friend","Close","Nonmatching",468,0.468,0
9214447,2,34,"English","M5_1.mp3","self","self","Self","Self","friend","Friend","Close","Nonmatching",756,0.756,1
9214447,2,35,"English","9197460_2.wav","self","self","Self","Self","self","Self","Self","Matching",436,0.436,1
9214447,2,36,"English","M10_2.mp3","other","other","Stranger","Stranger","other","Other","Stranger","Matching",1052,1.052,1
9214447,2,37,"English","M5_2.mp3","self","self","Self","Self","friend","Friend","Close","Nonmatching",633,0.633,1
9214447,2,38,"English","M5_2.mp3","self","self","Self","Self","friend","Friend","Close","Nonmatching",595,0.595,1
9214447,2,39,"English","M5_2.mp3","other","other","Stranger","Stranger","friend","Friend","Close","Nonmatching",890,0.89,1
9214447,2,40,"English","M10_2.mp3","friend","friend","Friend","Close","other","Other","Stranger","Nonmatching",595,0.595,1
9214447,2,41,"English","M5_1.mp3","friend","friend","Friend","Close","friend","Friend","Close","Matching",583,0.583,1
9214447,2,42,"English","9197460_2.wav","self","self","Self","Self","self","Self","Self","Matching",624,0.624,1
9214447,2,43,"English","M10_1.mp3","friend","friend","Friend","Close","other","Other","Stranger","Nonmatching",588,0.588,1
9214447,2,44,"English","M10_2.mp3","other","other","Stranger","Stranger","other","Other","Stranger","Matching",532,0.532,1
9214447,2,45,"English","9197460_1.wav","friend","friend","Friend","Close","self","Self","Self","Nonmatching",549,0.549,1
9214447,2,46,"English","M10_2.mp3","other","other","Stranger","Stranger","other","Other","Stranger","Matching",638,0.638,1
9214447,2,47,"English","M5_1.mp3","other","other","Stranger","Stranger","friend","Friend","Close","Nonmatching",472,0.472,1
9214447,2,48,"English","9197460_2.wav","self","self","Self","Self","self","Self","Self","Matching",544,0.544,1
9214447,2,49,"English","9197460_1.wav","self","self","Self","Self","self","Self","Self","Matching",516,0.516,1
9214447,2,50,"English","9197460_1.wav","self","self","Self","Self","self","Self","Self","Matching",353,0.353,1
9214447,2,51,"English","9197460_1.wav","other","other","Stranger","Stranger","self","Self","Self","Nonmatching",453,0.453,1
9214447,2,52,"English","M10_1.mp3","other","other","Stranger","Stranger","other","Other","Stranger","Matching",538,0.538,1
9214447,2,53,"English","9197460_1.wav","self","self","Self","Self","self","Self","Self","Matching",482,0.482,1
9214447,2,54,"English","M5_1.mp3","other","other","Stranger","Stranger","friend","Friend","Close","Nonmatching",564,0.564,1
9214447,2,55,"English","M5_2.mp3","other","other","Stranger","Stranger","friend","Friend","Close","Nonmatching",529,0.529,1
9214447,2,56,"English","M10_1.mp3","self","self","Self","Self","other","Other","Stranger","Nonmatching",610,0.61,1
9214447,2,57,"English","M5_1.mp3","self","self","Self","Self","friend","Friend","Close","Nonmatching",517,0.517,1
9214447,2,58,"English","M5_1.mp3","friend","friend","Friend","Close","friend","Friend","Close","Matching",434,0.434,1
9214447,2,59,"English","M5_1.mp3","self","self","Self","Self","friend","Friend","Close","Nonmatching",579,0.579,1
9214447,2,60,"English","M5_1.mp3","friend","friend","Friend","Close","friend","Friend","Close","Matching",484,0.484,1
9214447,2,61,"English","M5_1.mp3","friend","friend","Friend","Close","friend","Friend","Close","Matching",506,0.506,1
9214447,2,62,"English","M10_1.mp3","other","other","Stranger","Stranger","other","Other","Stranger","Matching",577,0.577,1
9214447,2,63,"English","9197460_1.wav","friend","friend","Friend","Close","self","Self","Self","Nonmatching",459,0.459,1
9214447,2,64,"English","M5_2.mp3","friend","friend","Friend","Close","friend","Friend","Close","Matching",699,0.699,1
9214447,2,65,"English","M10_1.mp3","friend","friend","Friend","Close","other","Other","Stranger","Nonmatching",524,0.524,1
9214447,2,66,"English","9197460_2.wav","other","other","Stranger","Stranger","self","Self","Self","Nonmatching",457,0.457,1
9214447,2,67,"English","9197460_1.wav","self","self","Self","Self","self","Self","Self","Matching",462,0.462,1
9214447,2,68,"English","M10_1.mp3","friend","friend","Friend","Close","other","Other","Stranger","Nonmatching",666,0.666,1
9214447,2,69,"English","9197460_2.wav","self","self","Self","Self","self","Self","Self","Matching",462,0.462,1
9214447,2,70,"English","9197460_1.wav","friend","friend","Friend","Close","self","Self","Self","Nonmatching",659,0.659,1
9214447,2,71,"English","M5_2.mp3","friend","friend","Friend","Close","friend","Friend","Close","Matching",586,0.586,1
9214447,2,72,"English","M10_2.mp3","friend","friend","Friend","Close","other","Other","Stranger","Nonmatching",1016,1.016,1
9214447,3,1,"English","M10_2.mp3","friend","friend","Friend","Close","other","Other","Stranger","Nonmatching",762,0.762,1
9214447,3,2,"English","M5_1.mp3","self","self","Self","Self","friend","Friend","Close","Nonmatching",595,0.595,1
9214447,3,3,"English","9197460_2.wav","friend","friend","Friend","Close","self","Self","Self","Nonmatching",483,0.483,1
9214447,3,4,"English","M10_1.mp3","other","other","Stranger","Stranger","other","Other","Stranger","Matching",544,0.544,1
9214447,3,5,"English","M10_1.mp3","other","other","Stranger","Stranger","other","Other","Stranger","Matching",468,0.468,1
9214447,3,6,"English","M5_2.mp3","self","self","Self","Self","friend","Friend","Close","Nonmatching",565,0.565,1
9214447,3,7,"English","9197460_2.wav","self","self","Self","Self","self","Self","Self","Matching",439,0.439,1
9214447,3,8,"English","9197460_1.wav","other","other","Stranger","Stranger","self","Self","Self","Nonmatching",438,0.438,1
9214447,3,9,"English","M10_2.mp3","friend","friend","Friend","Close","other","Other","Stranger","Nonmatching",810,0.81,1
9214447,3,10,"English","M5_1.mp3","self","self","Self","Self","friend","Friend","Close","Nonmatching",474,0.474,1
9214447,3,11,"English","M5_1.mp3","friend","friend","Friend","Close","friend","Friend","Close","Matching",843,0.843,1
9214447,3,12,"English","9197460_1.wav","self","self","Self","Self","self","Self","Self","Matching",415,0.415,1
9214447,3,13,"English","M5_2.mp3","friend","friend","Friend","Close","friend","Friend","Close","Matching",888,0.888,1
9214447,3,14,"English","M10_2.mp3","other","other","Stranger","Stranger","other","Other","Stranger","Matching",501,0.501,1
9214447,3,15,"English","9197460_1.wav","other","other","Stranger","Stranger","self","Self","Self","Nonmatching",711,0.711,1
9214447,3,16,"English","M5_2.mp3","self","self","Self","Self","friend","Friend","Close","Nonmatching",904,0.904,0
9214447,3,17,"English","M10_2.mp3","self","self","Self","Self","other","Other","Stranger","Nonmatching",879,0.879,1
9214447,3,18,"English","M5_2.mp3","other","other","Stranger","Stranger","friend","Friend","Close","Nonmatching",998,0.998,1
9214447,3,19,"English","9197460_2.wav","self","self","Self","Self","self","Self","Self","Matching",727,0.727,1
9214447,3,20,"English","9197460_2.wav","other","other","Stranger","Stranger","self","Self","Self","Nonmatching",860,0.86,1
9214447,3,21,"English","9197460_1.wav","friend","friend","Friend","Close","self","Self","Self","Nonmatching",518,0.518,1
9214447,3,22,"English","M10_1.mp3","other","other","Stranger","Stranger","other","Other","Stranger","Matching",765,0.765,0
9214447,3,23,"English","M10_2.mp3","other","other","Stranger","Stranger","other","Other","Stranger","Matching",934,0.934,0
9214447,3,24,"English","M10_2.mp3","other","other","Stranger","Stranger","other","Other","Stranger","Matching",462,0.462,1
9214447,3,25,"English","9197460_2.wav","self","self","Self","Self","self","Self","Self","Matching",551,0.551,1
9214447,3,26,"English","9197460_2.wav","self","self","Self","Self","self","Self","Self","Matching",595,0.595,1
9214447,3,27,"English","M10_2.mp3","other","other","Stranger","Stranger","other","Other","Stranger","Matching",643,0.643,1
9214447,3,28,"English","9197460_1.wav","friend","friend","Friend","Close","self","Self","Self","Nonmatching",778,0.778,1
9214447,3,29,"English","M5_2.mp3","friend","friend","Friend","Close","friend","Friend","Close","Matching",687,0.687,1
9214447,3,30,"English","M5_2.mp3","other","other","Stranger","Stranger","friend","Friend","Close","Nonmatching",691,0.691,0
9214447,3,31,"English","M10_2.mp3","self","self","Self","Self","other","Other","Stranger","Nonmatching",867,0.867,1
9214447,3,32,"English","9197460_2.wav","other","other","Stranger","Stranger","self","Self","Self","Nonmatching",602,0.602,1
9214447,3,33,"English","M10_1.mp3","friend","friend","Friend","Close","other","Other","Stranger","Nonmatching",538,0.538,1
9214447,3,34,"English","M5_1.mp3","friend","friend","Friend","Close","friend","Friend","Close","Matching",728,0.728,1
9214447,3,35,"English","M5_2.mp3","friend","friend","Friend","Close","friend","Friend","Close","Matching",634,0.634,1
9214447,3,36,"English","9197460_1.wav","self","self","Self","Self","self","Self","Self","Matching",483,0.483,1
9214447,3,37,"English","9197460_2.wav","friend","friend","Friend","Close","self","Self","Self","Nonmatching",490,0.49,1
9214447,3,38,"English","M10_1.mp3","other","other","Stranger","Stranger","other","Other","Stranger","Matching",690,0.69,1
9214447,3,39,"English","M5_2.mp3","friend","friend","Friend","Close","friend","Friend","Close","Matching",555,0.555,1
9214447,3,40,"English","M10_1.mp3","self","self","Self","Self","other","Other","Stranger","Nonmatching",724,0.724,1
9214447,3,41,"English","M5_1.mp3","other","other","Stranger","Stranger","friend","Friend","Close","Nonmatching",1126,1.126,1
9214447,3,42,"English","M5_1.mp3","friend","friend","Friend","Close","friend","Friend","Close","Matching",445,0.445,1
9214447,3,43,"English","M10_2.mp3","self","self","Self","Self","other","Other","Stranger","Nonmatching",771,0.771,1
9214447,3,44,"English","M5_2.mp3","friend","friend","Friend","Close","friend","Friend","Close","Matching",497,0.497,1
9214447,3,45,"English","9197460_1.wav","self","self","Self","Self","self","Self","Self","Matching",427,0.427,1
9214447,3,46,"English","M10_2.mp3","other","other","Stranger","Stranger","other","Other","Stranger","Matching",752,0.752,0
9214447,3,47,"English","M10_1.mp3","friend","friend","Friend","Close","other","Other","Stranger","Nonmatching",561,0.561,1
9214447,3,48,"English","M5_1.mp3","friend","friend","Friend","Close","friend","Friend","Close","Matching",546,0.546,1
9214447,3,49,"English","9197460_1.wav","friend","friend","Friend","Close","self","Self","Self","Nonmatching",530,0.53,1
9214447,3,50,"English","M10_1.mp3","other","other","Stranger","Stranger","other","Other","Stranger","Matching",943,0.943,1
9214447,3,51,"English","9197460_2.wav","other","other","Stranger","Stranger","self","Self","Self","Nonmatching",756,0.756,1
9214447,3,52,"English","M5_2.mp3","friend","friend","Friend","Close","friend","Friend","Close","Matching",975,0.975,0
9214447,3,53,"English","9197460_2.wav","friend","friend","Friend","Close","self","Self","Self","Nonmatching",978,0.978,1
9214447,3,54,"English","M5_1.mp3","other","other","Stranger","Stranger","friend","Friend","Close","Nonmatching",931,0.931,1
9214447,3,55,"English","M5_1.mp3","other","other","Stranger","Stranger","friend","Friend","Close","Nonmatching",457,0.457,1
9214447,3,56,"English","9197460_2.wav","self","self","Self","Self","self","Self","Self","Matching",450,0.45,1
9214447,3,57,"English","M5_2.mp3","other","other","Stranger","Stranger","friend","Friend","Close","Nonmatching",543,0.543,1
9214447,3,58,"English","M10_2.mp3","other","other","Stranger","Stranger","other","Other","Stranger","Matching",498,0.498,1
9214447,3,59,"English","M10_1.mp3","other","other","Stranger","Stranger","other","Other","Stranger","Matching",411,0.411,1
9214447,3,60,"English","M5_1.mp3","friend","friend","Friend","Close","friend","Friend","Close","Matching",450,0.45,1
9214447,3,61,"English","M5_1.mp3","friend","friend","Friend","Close","friend","Friend","Close","Matching",462,0.462,1
9214447,3,62,"English","M10_1.mp3","self","self","Self","Self","other","Other","Stranger","Nonmatching",451,0.451,1
9214447,3,63,"English","M10_1.mp3","friend","friend","Friend","Close","other","Other","Stranger","Nonmatching",692,0.692,1
9214447,3,64,"English","9197460_1.wav","self","self","Self","Self","self","Self","Self","Matching",359,0.359,1
9214447,3,65,"English","9197460_1.wav","self","self","Self","Self","self","Self","Self","Matching",428,0.428,1
9214447,3,66,"English","9197460_2.wav","self","self","Self","Self","self","Self","Self","Matching",395,0.395,1
9214447,3,67,"English","M5_1.mp3","self","self","Self","Self","friend","Friend","Close","Nonmatching",742,0.742,1
9214447,3,68,"English","9197460_1.wav","self","self","Self","Self","self","Self","Self","Matching",358,0.358,1
9214447,3,69,"English","M5_2.mp3","self","self","Self","Self","friend","Friend","Close","Nonmatching",731,0.731,1
9214447,3,70,"English","M10_2.mp3","friend","friend","Friend","Close","other","Other","Stranger","Nonmatching",842,0.842,1
9214447,3,71,"English","9197460_1.wav","other","other","Stranger","Stranger","self","Self","Self","Nonmatching",431,0.431,1
9214447,3,72,"English","M10_1.mp3","self","self","Self","Self","other","Other","Stranger","Nonmatching",534,0.534,1
9214545,1,1,"English","M5_1.mp3","self","self","Self","Self","other","Other","Stranger","Nonmatching",1130.10000000149,1.13010000000149,0
9214545,1,2,"English","M5_1.mp3","friend","friend","Friend","Close","other","Other","Stranger","Nonmatching",1228.79999999888,1.22879999999888,1
9214545,1,3,"English","M5_1.mp3","other","other","Stranger","Stranger","other","Other","Stranger","Matching",957.599999999628,0.957599999999628,0
9214545,1,4,"English","9197443_2.wav","friend","friend","Friend","Close","friend","Friend","Close","Matching",1361.69999999925,1.36169999999925,1
9214545,1,5,"English","M10_1.mp3","friend","friend","Friend","Close","self","Self","Self","Nonmatching",1036.59999999963,1.03659999999963,1
9214545,1,6,"English","M5_1.mp3","friend","friend","Friend","Close","other","Other","Stranger","Nonmatching",756.39999999851,0.75639999999851,1
9214545,1,7,"English","M5_1.mp3","other","other","Stranger","Stranger","other","Other","Stranger","Matching",847,0.847,1
9214545,1,8,"English","M5_2.mp3","self","self","Self","Self","other","Other","Stranger","Nonmatching",932.900000000372,0.932900000000372,1
9214545,1,9,"English","M10_2.mp3","self","self","Self","Self","self","Self","Self","Matching",881.699999999255,0.881699999999255,0
9214545,1,10,"English","M5_1.mp3","friend","friend","Friend","Close","other","Other","Stranger","Nonmatching",925.60000000149,0.92560000000149,1
9214545,1,11,"English","M10_2.mp3","other","other","Stranger","Stranger","self","Self","Self","Nonmatching",621.200000001118,0.621200000001118,0
9214545,1,12,"English","M5_1.mp3","self","self","Self","Self","other","Other","Stranger","Nonmatching",739.199999999255,0.739199999999255,0
9214545,1,13,"English","M10_2.mp3","friend","friend","Friend","Close","self","Self","Self","Nonmatching",702.300000000745,0.702300000000745,1
9214545,1,14,"English","M10_2.mp3","self","self","Self","Self","self","Self","Self","Matching",629.200000001118,0.629200000001118,1
9214545,1,15,"English","M10_1.mp3","friend","friend","Friend","Close","self","Self","Self","Nonmatching",591.900000000373,0.591900000000373,1
9214545,1,16,"English","M5_2.mp3","other","other","Stranger","Stranger","other","Other","Stranger","Matching",834,0.834,0
9214545,1,17,"English","M10_1.mp3","self","self","Self","Self","self","Self","Self","Matching",779.699999999255,0.779699999999255,1
9214545,1,18,"English","M5_2.mp3","friend","friend","Friend","Close","other","Other","Stranger","Nonmatching",718.099999999627,0.718099999999627,1
9214545,1,19,"English","M5_2.mp3","other","other","Stranger","Stranger","other","Other","Stranger","Matching",801.5,0.8015,1
9214545,1,20,"English","9197443_2.wav","friend","friend","Friend","Close","friend","Friend","Close","Matching",1242,1.242,1
9214545,1,21,"English","9197443_1.wav","self","self","Self","Self","friend","Friend","Close","Nonmatching",578.5,0.5785,1
9214545,1,22,"English","M10_2.mp3","friend","friend","Friend","Close","self","Self","Self","Nonmatching",747.199999999255,0.747199999999255,1
9214545,1,23,"English","9197443_2.wav","friend","friend","Friend","Close","friend","Friend","Close","Matching",742.599999999627,0.742599999999627,1
9214545,1,24,"English","M10_2.mp3","other","other","Stranger","Stranger","self","Self","Self","Nonmatching",875.299999998882,0.875299999998882,0
9214545,1,25,"English","M5_2.mp3","other","other","Stranger","Stranger","other","Other","Stranger","Matching",683.099999999627,0.683099999999627,1
9214545,1,26,"English","M10_1.mp3","self","self","Self","Self","self","Self","Self","Matching",1017.69999999925,1.01769999999925,0
9214545,1,27,"English","M5_1.mp3","self","self","Self","Self","other","Other","Stranger","Nonmatching",824.900000000373,0.824900000000373,0
9214545,1,28,"English","M5_1.mp3","other","other","Stranger","Stranger","other","Other","Stranger","Matching",1031.69999999925,1.03169999999925,0
9214545,1,29,"English","9197443_2.wav","other","other","Stranger","Stranger","friend","Friend","Close","Nonmatching",661.5,0.6615,1
9214545,1,30,"English","9197443_2.wav","self","self","Self","Self","friend","Friend","Close","Nonmatching",572.900000000373,0.572900000000373,1
9214545,1,31,"English","M5_2.mp3","self","self","Self","Self","other","Other","Stranger","Nonmatching",824.5,0.8245,0
9214545,1,32,"English","M10_1.mp3","self","self","Self","Self","self","Self","Self","Matching",492.800000000745,0.492800000000745,1
9214545,1,33,"English","9197443_1.wav","friend","friend","Friend","Close","friend","Friend","Close","Matching",896,0.896,1
9214545,1,34,"English","M5_2.mp3","other","other","Stranger","Stranger","other","Other","Stranger","Matching",927,0.927,0
9214545,1,35,"English","M10_2.mp3","self","self","Self","Self","self","Self","Self","Matching",852.799999998882,0.852799999998882,1
9214545,1,36,"English","M10_1.mp3","self","self","Self","Self","self","Self","Self","Matching",513,0.513,1
9214545,1,37,"English","M10_1.mp3","other","other","Stranger","Stranger","self","Self","Self","Nonmatching",566.699999999255,0.566699999999255,1
9214545,1,38,"English","9197443_1.wav","friend","friend","Friend","Close","friend","Friend","Close","Matching",806.700000001118,0.806700000001118,1
9214545,1,39,"English","9197443_2.wav","other","other","Stranger","Stranger","friend","Friend","Close","Nonmatching",1006,1.006,1
9214545,1,40,"English","M10_1.mp3","self","self","Self","Self","self","Self","Self","Matching",635.700000001118,0.635700000001118,1
9214545,1,41,"English","M10_2.mp3","friend","friend","Friend","Close","self","Self","Self","Nonmatching",752.099999999627,0.752099999999628,1
9214545,1,42,"English","M5_1.mp3","other","other","Stranger","Stranger","other","Other","Stranger","Matching",1105.40000000037,1.10540000000037,1
9214545,1,43,"English","9197443_2.wav","friend","friend","Friend","Close","friend","Friend","Close","Matching",723.699999999255,0.723699999999255,1
9214545,1,44,"English","9197443_1.wav","friend","friend","Friend","Close","friend","Friend","Close","Matching",520.900000000373,0.520900000000373,1
9214545,1,45,"English","9197443_1.wav","self","self","Self","Self","friend","Friend","Close","Nonmatching",473.199999999255,0.473199999999255,1
9214545,1,46,"English","M10_1.mp3","self","self","Self","Self","self","Self","Self","Matching",650.299999998882,0.650299999998882,1
9214545,1,47,"English","9197443_1.wav","other","other","Stranger","Stranger","friend","Friend","Close","Nonmatching",712.900000000373,0.712900000000373,1
9214545,1,48,"English","M10_1.mp3","other","other","Stranger","Stranger","self","Self","Self","Nonmatching",1695.90000000037,1.69590000000037,1
9214545,1,49,"English","M5_2.mp3","friend","friend","Friend","Close","other","Other","Stranger","Nonmatching",974.400000000372,0.974400000000372,1
9214545,1,50,"English","9197443_2.wav","self","self","Self","Self","friend","Friend","Close","Nonmatching",710.099999999627,0.710099999999627,1
9214545,1,51,"English","M10_2.mp3","self","self","Self","Self","self","Self","Self","Matching",576.900000000373,0.576900000000373,1
9214545,1,52,"English","9197443_1.wav","self","self","Self","Self","friend","Friend","Close","Nonmatching",499,0.499,1
9214545,1,53,"English","M5_2.mp3","self","self","Self","Self","other","Other","Stranger","Nonmatching",547.39999999851,0.54739999999851,0
9214545,1,54,"English","9197443_1.wav","friend","friend","Friend","Close","friend","Friend","Close","Matching",959.800000000745,0.959800000000745,1
9214545,1,55,"English","9197443_1.wav","friend","friend","Friend","Close","friend","Friend","Close","Matching",507.099999999627,0.507099999999627,1
9214545,1,56,"English","9197443_1.wav","other","other","Stranger","Stranger","friend","Friend","Close","Nonmatching",454.10000000149,0.45410000000149,1
9214545,1,57,"English","M10_2.mp3","other","other","Stranger","Stranger","self","Self","Self","Nonmatching",1168,1.168,1
9214545,1,58,"English","9197443_2.wav","self","self","Self","Self","friend","Friend","Close","Nonmatching",684.699999999255,0.684699999999255,1
9214545,1,59,"English","M5_2.mp3","other","other","Stranger","Stranger","other","Other","Stranger","Matching",817.5,0.8175,1
9214545,1,60,"English","M5_2.mp3","other","other","Stranger","Stranger","other","Other","Stranger","Matching",1317.40000000037,1.31740000000037,0
9214545,1,61,"English","M10_1.mp3","other","other","Stranger","Stranger","self","Self","Self","Nonmatching",851.400000000373,0.851400000000373,1
9214545,1,62,"English","M10_2.mp3","self","self","Self","Self","self","Self","Self","Matching",508.900000000373,0.508900000000373,1
9214545,1,63,"English","9197443_2.wav","other","other","Stranger","Stranger","friend","Friend","Close","Nonmatching",572.300000000745,0.572300000000745,1
9214545,1,64,"English","M10_1.mp3","friend","friend","Friend","Close","self","Self","Self","Nonmatching",883.300000000745,0.883300000000745,1
9214545,1,65,"English","M5_2.mp3","friend","friend","Friend","Close","other","Other","Stranger","Nonmatching",653.099999999627,0.653099999999627,1
9214545,1,66,"English","9197443_2.wav","friend","friend","Friend","Close","friend","Friend","Close","Matching",640.5,0.6405,1
9214545,1,67,"English","M10_2.mp3","self","self","Self","Self","self","Self","Self","Matching",542.199999999255,0.542199999999255,1
9214545,1,68,"English","M5_1.mp3","other","other","Stranger","Stranger","other","Other","Stranger","Matching",1070,1.07,1
9214545,1,69,"English","9197443_1.wav","friend","friend","Friend","Close","friend","Friend","Close","Matching",443.800000000745,0.443800000000745,1
9214545,1,70,"English","9197443_1.wav","other","other","Stranger","Stranger","friend","Friend","Close","Nonmatching",474.300000000745,0.474300000000745,1
9214545,1,71,"English","M5_1.mp3","other","other","Stranger","Stranger","other","Other","Stranger","Matching",1221.20000000112,1.22120000000112,0
9214545,1,72,"English","9197443_2.wav","friend","friend","Friend","Close","friend","Friend","Close","Matching",529.299999998882,0.529299999998882,1
9214545,2,4,"English","M10_1.mp3","self","self","Self","Self","self","Self","Self","Matching",809.89999999851,0.80989999999851,1
9214545,2,5,"English","M5_2.mp3","friend","friend","Friend","Close","other","Other","Stranger","Nonmatching",647.800000000745,0.647800000000745,1
9214545,2,6,"English","9197443_2.wav","friend","friend","Friend","Close","friend","Friend","Close","Matching",480.900000000373,0.480900000000373,1
9214545,2,7,"English","9197443_1.wav","other","other","Stranger","Stranger","friend","Friend","Close","Nonmatching",409.89999999851,0.40989999999851,1
9214545,2,8,"English","M10_2.mp3","friend","friend","Friend","Close","self","Self","Self","Nonmatching",586.800000000745,0.586800000000745,1
9214545,2,9,"English","M5_2.mp3","self","self","Self","Self","other","Other","Stranger","Nonmatching",644.800000000745,0.644800000000745,1
9214545,2,10,"English","M5_2.mp3","self","self","Self","Self","other","Other","Stranger","Nonmatching",754.599999999627,0.754599999999627,1
9214545,2,11,"English","9197443_2.wav","friend","friend","Friend","Close","friend","Friend","Close","Matching",572.800000000745,0.572800000000745,1
9214545,2,12,"English","M10_2.mp3","other","other","Stranger","Stranger","self","Self","Self","Nonmatching",718.599999999627,0.718599999999627,1
9214545,2,13,"English","M10_1.mp3","self","self","Self","Self","self","Self","Self","Matching",397.400000000373,0.397400000000373,1
9214545,2,14,"English","9197443_1.wav","other","other","Stranger","Stranger","friend","Friend","Close","Nonmatching",506.5,0.5065,1
9214545,2,15,"English","M10_2.mp3","friend","friend","Friend","Close","self","Self","Self","Nonmatching",681.5,0.6815,1
9214545,2,16,"English","M10_2.mp3","self","self","Self","Self","self","Self","Self","Matching",795.900000000373,0.795900000000373,0
9214545,2,17,"English","M5_2.mp3","other","other","Stranger","Stranger","other","Other","Stranger","Matching",840,0.84,1
9214545,2,18,"English","9197443_2.wav","other","other","Stranger","Stranger","friend","Friend","Close","Nonmatching",605.800000000745,0.605800000000745,1
9214545,2,19,"English","M5_1.mp3","other","other","Stranger","Stranger","other","Other","Stranger","Matching",1141.80000000075,1.14180000000075,0
9214545,2,20,"English","M5_2.mp3","other","other","Stranger","Stranger","other","Other","Stranger","Matching",851.599999999627,0.851599999999627,1
9214545,2,21,"English","M5_2.mp3","self","self","Self","Self","other","Other","Stranger","Nonmatching",755,0.755,1
9214545,2,22,"English","9197443_2.wav","friend","friend","Friend","Close","friend","Friend","Close","Matching",709.39999999851,0.70939999999851,1
9214545,2,23,"English","M5_1.mp3","self","self","Self","Self","other","Other","Stranger","Nonmatching",700,0.7,0
9214545,2,24,"English","M10_2.mp3","self","self","Self","Self","self","Self","Self","Matching",501.199999999255,0.501199999999255,1
9214545,2,25,"English","9197443_1.wav","friend","friend","Friend","Close","friend","Friend","Close","Matching",501,0.501,1
9214545,2,26,"English","9197443_1.wav","self","self","Self","Self","friend","Friend","Close","Nonmatching",646.200000001118,0.646200000001118,1
9214545,2,27,"English","9197443_2.wav","friend","friend","Friend","Close","friend","Friend","Close","Matching",587,0.587,1
9214545,2,28,"English","M5_1.mp3","other","other","Stranger","Stranger","other","Other","Stranger","Matching",888.400000000373,0.888400000000373,1
9214545,2,29,"English","M10_1.mp3","other","other","Stranger","Stranger","self","Self","Self","Nonmatching",547.699999999255,0.547699999999255,1
9214545,2,30,"English","M5_2.mp3","other","other","Stranger","Stranger","other","Other","Stranger","Matching",961.5,0.9615,1
9214545,2,31,"English","M5_1.mp3","friend","friend","Friend","Close","other","Other","Stranger","Nonmatching",656.599999999627,0.656599999999627,1
9214545,2,32,"English","M10_1.mp3","other","other","Stranger","Stranger","self","Self","Self","Nonmatching",840.599999999627,0.840599999999627,0
9214545,2,33,"English","9197443_1.wav","other","other","Stranger","Stranger","friend","Friend","Close","Nonmatching",614.39999999851,0.61439999999851,1
9214545,2,34,"English","M10_2.mp3","friend","friend","Friend","Close","self","Self","Self","Nonmatching",772.400000000373,0.772400000000373,1
9214545,2,35,"English","M5_1.mp3","other","other","Stranger","Stranger","other","Other","Stranger","Matching",810.599999999627,0.810599999999628,0
9214545,2,36,"English","M5_1.mp3","self","self","Self","Self","other","Other","Stranger","Nonmatching",774.299999998882,0.774299999998882,0
9214545,2,37,"English","9197443_1.wav","friend","friend","Friend","Close","friend","Friend","Close","Matching",492.299999998882,0.492299999998882,1
9214545,2,38,"English","9197443_2.wav","friend","friend","Friend","Close","friend","Friend","Close","Matching",441.699999999255,0.441699999999255,1
9214545,2,39,"English","M10_1.mp3","self","self","Self","Self","self","Self","Self","Matching",580.699999999255,0.580699999999255,1
9214545,2,40,"English","M10_1.mp3","friend","friend","Friend","Close","self","Self","Self","Nonmatching",525.10000000149,0.52510000000149,1
9214545,2,41,"English","9197443_1.wav","self","self","Self","Self","friend","Friend","Close","Nonmatching",609.099999999627,0.609099999999627,0
9214545,2,42,"English","M5_1.mp3","friend","friend","Friend","Close","other","Other","Stranger","Nonmatching",737,0.737,1
9214545,2,43,"English","9197443_2.wav","friend","friend","Friend","Close","friend","Friend","Close","Matching",489.5,0.4895,1
9214545,2,44,"English","M5_2.mp3","friend","friend","Friend","Close","other","Other","Stranger","Nonmatching",723.199999999255,0.723199999999255,1
9214545,2,45,"English","9197443_1.wav","friend","friend","Friend","Close","friend","Friend","Close","Matching",454.5,0.4545,1
9214545,2,46,"English","9197443_2.wav","other","other","Stranger","Stranger","friend","Friend","Close","Nonmatching",453.900000000373,0.453900000000373,1
9214545,2,47,"English","9197443_1.wav","friend","friend","Friend","Close","friend","Friend","Close","Matching",372.60000000149,0.37260000000149,0
9214545,2,48,"English","M5_2.mp3","other","other","Stranger","Stranger","other","Other","Stranger","Matching",955.300000000745,0.955300000000745,1
9214545,2,49,"English","M10_1.mp3","friend","friend","Friend","Close","self","Self","Self","Nonmatching",565,0.565,1
9214545,2,50,"English","M5_2.mp3","other","other","Stranger","Stranger","other","Other","Stranger","Matching",580.300000000745,0.580300000000745,0
9214545,2,51,"English","M10_1.mp3","self","self","Self","Self","self","Self","Self","Matching",424.699999999255,0.424699999999255,1
9214545,2,52,"English","M5_2.mp3","friend","friend","Friend","Close","other","Other","Stranger","Nonmatching",601.400000000373,0.601400000000373,1
9214545,2,53,"English","9197443_2.wav","other","other","Stranger","Stranger","friend","Friend","Close","Nonmatching",505.699999999255,0.505699999999255,1
9214545,2,54,"English","M10_2.mp3","self","self","Self","Self","self","Self","Self","Matching",563.400000000373,0.563400000000372,1
9214545,2,55,"English","9197443_2.wav","self","self","Self","Self","friend","Friend","Close","Nonmatching",700.099999999627,0.700099999999627,1
9214545,2,56,"English","M5_1.mp3","other","other","Stranger","Stranger","other","Other","Stranger","Matching",735.900000000373,0.735900000000372,0
9214545,2,57,"English","M10_1.mp3","other","other","Stranger","Stranger","self","Self","Self","Nonmatching",1043.89999999851,1.04389999999851,0
9214545,2,58,"English","M10_1.mp3","friend","friend","Friend","Close","self","Self","Self","Nonmatching",628.799999998882,0.628799999998882,1
9214545,2,59,"English","9197443_1.wav","friend","friend","Friend","Close","friend","Friend","Close","Matching",706.700000001118,0.706700000001118,1
9214545,2,60,"English","M5_2.mp3","other","other","Stranger","Stranger","other","Other","Stranger","Matching",922.799999998882,0.922799999998882,1
9214545,2,61,"English","M5_1.mp3","self","self","Self","Self","other","Other","Stranger","Nonmatching",721.5,0.7215,1
9214545,2,62,"English","M10_2.mp3","other","other","Stranger","Stranger","self","Self","Self","Nonmatching",604.599999999627,0.604599999999627,1
9214545,2,63,"English","9197443_1.wav","self","self","Self","Self","friend","Friend","Close","Nonmatching",675.900000000373,0.675900000000373,1
9214545,2,64,"English","M10_2.mp3","self","self","Self","Self","self","Self","Self","Matching",553.60000000149,0.55360000000149,1
