"success","timeout","failed_images","failed_audio","failed_video","trial_type","trial_index","time_elapsed","internal_node_id","rt","stimulus","response","value","item_width_mm","item_height_mm","item_width_px","px2mm","view_dist_mm","item_width_deg","px2deg","scale_factor","win_width_deg","win_height_deg","view_history","response_type","key_press","avg_frame_time","center_x","center_y","image","word","target","valence","matchness","correct_response","correct","exp_condition","question_order"
"true","false","[]","[]","[]","preload","0","1229","0.0-0.0","","","","","","","","","","","","","","","","","","","","","","","","","","","","",""
"","","","","","html-keyboard-response","1","23115","0.0-1.0","21886","
     <p>您好，欢迎参加本次实验。</p>
     <p>为充分保障您的权利，请确保您已经知晓并同意《参与实验同意书》以及《数据公开知情同意书》。</p>
     <p>如果您未见过上述内容，请咨询实验员。</p>
     <p>如果您选择继续实验，则表示您已经清楚两份知情同意书的内容并同意。</p>
     <p> <div style = ""color: green""><按任意键至下页></div> </p>
     "," ","","","","","","","","","","","","","","","","","","","","","","","","","",""
"","","","","","html-keyboard-response","2","25505","0.0-2.0-0.0","2390","
      <p>本实验首先需要您填写一些基本个人信息。</p>
      <p> <div style = ""color: green""><按任意键至下页></div></p>
      "," ","","","","","","","","","","","","","","","","","","","","","","","","","",""
"","","","","","call-function","3","25505","0.0-2.0-1.0","","","","","","","","","","","","","","","","","","","","","","","","","","","","",""
"","","","","","survey-html-form","4","31578","0.0-2.0-2.0","6071","","{""Q0"":""1021""}","","","","","","","","","","","","","","","","","","","","","","","","","",""
"","","","","","html-button-response","5","32846","0.0-2.0-3.0","1267","<p style = 'color : white'>您的性别</p>","1","","","","","","","","","","","","","","","","","","","","","","","","","",""
"","","","","","survey-html-form","6","39511","0.0-2.0-4.0","6665","","{""Q0"":""2001""}","","","","","","","","","","","","","","","","","","","","","","","","","",""
"","","","","","survey-html-form","7","43183","0.0-2.0-5.0","3671","","{""Q0"":""5""}","","","","","","","","","","","","","","","","","","","","","","","","","",""
"","","","","","virtual-chinrest","8","139939","0.0-3.0","96755","","","","85.6","53.98","441.4035265653832","5.161025849072172","554.46","8.828070531307663","50","0.8835452743992316","29.76","15","","","","","","","","","","","","","","",""
"true","","","","","fullscreen","9","143020","0.0-4.0","","","","","","","","","","","","","","","","","","","","","","","","","","","","",""
"","","","","","instructions","10","190858","0.0-5.0","47838","","","","","","","","","","","","","","[{""page_index"":0,""viewing_time"":3274},{""page_index"":1,""viewing_time"":38616},{""page_index"":2,""viewing_time"":2600},{""page_index"":3,""viewing_time"":3347}]","","","","","","","","","","","","","",""
"","","","","","html-keyboard-response","11","194519","0.0-6.0","null","<count-down title=""""></count-down>","null","","","","","","","","","","","","","","","","","","","","","","","","","",""
"","","","","","psychophysics","12","196657","0.0-7.0-0.0-0.0","984","","f","","","","","","","","","","","","","key","f","16.668503937008058","768","428","./1_3_Stimuli/S_ambi40.png","他人","Word","他人","Match","j","false","Practice",""
"","","","","","html-keyboard-response","13","196971","0.0-7.0-0.0-1.0","null","<span style='color:red; font-size: 70px;'>错误! </span>","null","","","","","","","","","","","","","","","","","","","","","","","","","feedback",""
"","","","","","psychophysics","14","199309","0.0-7.0-0.0-0.1","1184","","j","","","","","","","","","","","","","key","j","16.66762589928049","768","428","./1_3_Stimuli/T_ambi40.png","他人","Word","朋友","Mismatch","f","false","Practice",""
"","","","","","html-keyboard-response","15","199622","0.0-7.0-0.0-1.1","null","<span style='color:red; font-size: 70px;'>错误! </span>","null","","","","","","","","","","","","","","","","","","","","","","","","","feedback",""
"","","","","","psychophysics","16","201468","0.0-7.0-0.0-0.2","692","","j","","","","","","","","","","","","","key","j","16.6697247706422","768","428","./1_3_Stimuli/C_ambi40.png","自我","Image","自我","Match","j","true","Practice",""
"","","","","","html-keyboard-response","17","201776","0.0-7.0-0.0-1.2","null","<span style='color:GreenYellow; font-size: 70px;'>正确! </span>","null","","","","","","","","","","","","","","","","","","","","","","","","","feedback",""
"","","","","","psychophysics","18","204024","0.0-7.0-0.0-0.3","1087","","j","","","","","","","","","","","","","key","j","16.667910447761194","768","428","./1_3_Stimuli/S_ambi40.png","朋友","Word","他人","Mismatch","f","false","Practice",""
"","","","","","html-keyboard-response","19","204340","0.0-7.0-0.0-1.3","null","<span style='color:red; font-size: 70px;'>错误! </span>","null","","","","","","","","","","","","","","","","","","","","","","","","","feedback",""
"","","","","","psychophysics","20","206568","0.0-7.0-0.0-0.4","1071","","f","","","","","","","","","","","","","key","f","16.668939393939304","768","428","./1_3_Stimuli/T_ambi40.png","朋友","Word","朋友","Match","j","false","Practice",""
"","","","","","html-keyboard-response","21","206871","0.0-7.0-0.0-1.4","null","<span style='color:red; font-size: 70px;'>错误! </span>","null","","","","","","","","","","","","","","","","","","","","","","","","","feedback",""
"","","","","","psychophysics","22","209184","0.0-7.0-0.0-0.5","1159","","f","","","","","","","","","","","","","key","f","16.66715328467149","768","428","./1_3_Stimuli/S_ambi40.png","他人","Image","他人","Match","j","false","Practice",""
"","","","","","html-keyboard-response","23","209490","0.0-7.0-0.0-1.5","null","<span style='color:red; font-size: 70px;'>错误! </span>","null","","","","","","","","","","","","","","","","","","","","","","","","","feedback",""
"","","","","","psychophysics","24","211450","0.0-7.0-0.0-0.6","804","","f","","","","","","","","","","","","","key","f","16.66896551724118","768","428","./1_3_Stimuli/T_ambi40.png","他人","Image","朋友","Mismatch","f","true","Practice",""
"","","","","","html-keyboard-response","25","211754","0.0-7.0-0.0-1.6","null","<span style='color:GreenYellow; font-size: 70px;'>正确! </span>","null","","","","","","","","","","","","","","","","","","","","","","","","","feedback",""
"","","","","","psychophysics","26","213870","0.0-7.0-0.0-0.7","965","","f","","","","","","","","","","","","","key","f","16.668800000000047","768","428","./1_3_Stimuli/C_ambi40.png","他人","Word","自我","Mismatch","f","true","Practice",""
"","","","","","html-keyboard-response","27","214174","0.0-7.0-0.0-1.7","null","<span style='color:GreenYellow; font-size: 70px;'>正确! </span>","null","","","","","","","","","","","","","","","","","","","","","","","","","feedback",""
"","","","","","psychophysics","28","216126","0.0-7.0-0.0-0.8","800","","j","","","","","","","","","","","","","key","j","16.66810344827586","768","428","./1_3_Stimuli/C_ambi40.png","朋友","Word","自我","Mismatch","f","false","Practice",""
"","","","","","html-keyboard-response","29","216440","0.0-7.0-0.0-1.8","null","<span style='color:red; font-size: 70px;'>错误! </span>","null","","","","","","","","","","","","","","","","","","","","","","","","","feedback",""
"","","","","","psychophysics","30","218483","0.0-7.0-0.0-0.9","889","","j","","","","","","","","","","","","","key","j","16.668595041322266","768","428","./1_3_Stimuli/T_ambi40.png","朋友","Word","朋友","Match","j","true","Practice",""
"","","","","","html-keyboard-response","31","218794","0.0-7.0-0.0-1.9","null","<span style='color:GreenYellow; font-size: 70px;'>正确! </span>","null","","","","","","","","","","","","","","","","","","","","","","","","","feedback",""
"","","","","","psychophysics","32","220990","0.0-7.0-0.0-0.10","1042","","j","","","","","","","","","","","","","key","j","16.667175572519263","768","428","./1_3_Stimuli/C_ambi40.png","他人","Image","自我","Mismatch","f","false","Practice",""
"","","","","","html-keyboard-response","33","221305","0.0-7.0-0.0-1.10","null","<span style='color:red; font-size: 70px;'>错误! </span>","null","","","","","","","","","","","","","","","","","","","","","","","","","feedback",""
"","","","","","psychophysics","34","223406","0.0-7.0-0.0-0.11","943","","j","","","","","","","","","","","","","key","j","16.668","768","428","./1_3_Stimuli/C_ambi40.png","自我","Word","自我","Match","j","true","Practice",""
"","","","","","html-keyboard-response","35","223708","0.0-7.0-0.0-1.11","null","<span style='color:GreenYellow; font-size: 70px;'>正确! </span>","null","","","","","","","","","","","","","","","","","","","","","","","","","feedback",""
"","","","","","psychophysics","36","225895","0.0-7.0-0.0-0.12","1032","","j","","","","","","","","","","","","","key","j","16.667692307692217","768","428","./1_3_Stimuli/T_ambi40.png","朋友","Image","朋友","Match","j","true","Practice",""
"","","","","","html-keyboard-response","37","226200","0.0-7.0-0.0-1.12","null","<span style='color:GreenYellow; font-size: 70px;'>正确! </span>","null","","","","","","","","","","","","","","","","","","","","","","","","","feedback",""
"","","","","","psychophysics","38","228071","0.0-7.0-0.0-0.13","716","","f","","","","","","","","","","","","","key","f","16.668468468468312","768","428","./1_3_Stimuli/T_ambi40.png","朋友","Image","朋友","Match","j","false","Practice",""
"","","","","","html-keyboard-response","39","228380","0.0-7.0-0.0-1.13","null","<span style='color:red; font-size: 70px;'>错误! </span>","null","","","","","","","","","","","","","","","","","","","","","","","","","feedback",""
"","","","","","psychophysics","40","230555","0.0-7.0-0.0-0.14","1017","","j","","","","","","","","","","","","","key","j","16.66692307692294","768","428","./1_3_Stimuli/S_ambi40.png","他人","Image","他人","Match","j","true","Practice",""
"","","","","","html-keyboard-response","41","230862","0.0-7.0-0.0-1.14","null","<span style='color:GreenYellow; font-size: 70px;'>正确! </span>","null","","","","","","","","","","","","","","","","","","","","","","","","","feedback",""
"","","","","","psychophysics","42","232829","0.0-7.0-0.0-0.15","814","","f","","","","","","","","","","","","","key","f","16.66837606837617","768","428","./1_3_Stimuli/C_ambi40.png","朋友","Image","自我","Mismatch","f","true","Practice",""
"","","","","","html-keyboard-response","43","233143","0.0-7.0-0.0-1.15","null","<span style='color:GreenYellow; font-size: 70px;'>正确! </span>","null","","","","","","","","","","","","","","","","","","","","","","","","","feedback",""
"","","","","","psychophysics","44","235381","0.0-7.0-0.0-0.16","1085","","f","","","","","","","","","","","","","key","f","16.66616541353388","768","428","./1_3_Stimuli/S_ambi40.png","朋友","Image","他人","Mismatch","f","true","Practice",""
"","","","","","html-keyboard-response","45","235697","0.0-7.0-0.0-1.16","null","<span style='color:GreenYellow; font-size: 70px;'>正确! </span>","null","","","","","","","","","","","","","","","","","","","","","","","","","feedback",""
"","","","","","psychophysics","46","237598","0.0-7.0-0.0-0.17","746","","j","","","","","","","","","","","","","key","j","16.668141592920353","768","428","./1_3_Stimuli/S_ambi40.png","他人","Word","他人","Match","j","true","Practice",""
"","","","","","html-keyboard-response","47","237900","0.0-7.0-0.0-1.17","null","<span style='color:GreenYellow; font-size: 70px;'>正确! </span>","null","","","","","","","","","","","","","","","","","","","","","","","","","feedback",""
"","","","","","psychophysics","48","240065","0.0-7.0-0.0-0.18","1010","","j","","","","","","","","","","","","","key","j","16.667441860464937","768","428","./1_3_Stimuli/C_ambi40.png","自我","Image","自我","Match","j","true","Practice",""
"","","","","","html-keyboard-response","49","240380","0.0-7.0-0.0-1.18","null","<span style='color:GreenYellow; font-size: 70px;'>正确! </span>","null","","","","","","","","","","","","","","","","","","","","","","","","","feedback",""
"","","","","","psychophysics","50","242203","0.0-7.0-0.0-0.19","671","","f","","","","","","","","","","","","","key","f","16.667592592592378","768","428","./1_3_Stimuli/S_ambi40.png","自我","Word","他人","Mismatch","f","true","Practice",""
"","","","","","html-keyboard-response","51","242514","0.0-7.0-0.0-1.19","null","<span style='color:GreenYellow; font-size: 70px;'>正确! </span>","null","","","","","","","","","","","","","","","","","","","","","","","","","feedback",""
"","","","","","psychophysics","52","244521","0.0-7.0-0.0-0.20","856","","f","","","","","","","","","","","","","key","f","16.668067226890756","768","428","./1_3_Stimuli/T_ambi40.png","自我","Word","朋友","Mismatch","f","true","Practice",""
"","","","","","html-keyboard-response","53","244826","0.0-7.0-0.0-1.20","null","<span style='color:GreenYellow; font-size: 70px;'>正确! </span>","null","","","","","","","","","","","","","","","","","","","","","","","","","feedback",""
"","","","","","psychophysics","54","246808","0.0-7.0-0.0-0.21","831","","f","","","","","","","","","","","","","key","f","16.66864406779656","768","428","./1_3_Stimuli/S_ambi40.png","自我","Image","他人","Mismatch","f","true","Practice",""
"","","","","","html-keyboard-response","55","247118","0.0-7.0-0.0-1.21","null","<span style='color:GreenYellow; font-size: 70px;'>正确! </span>","null","","","","","","","","","","","","","","","","","","","","","","","","","feedback",""
"","","","","","psychophysics","56","249422","0.0-7.0-0.0-0.22","1150","","f","","","","","","","","","","","","","key","f","16.668613138686172","768","428","./1_3_Stimuli/C_ambi40.png","自我","Word","自我","Match","j","false","Practice",""
"","","","","","html-keyboard-response","57","249738","0.0-7.0-0.0-1.22","null","<span style='color:red; font-size: 70px;'>错误! </span>","null","","","","","","","","","","","","","","","","","","","","","","","","","feedback",""
"","","","","","psychophysics","58","251682","0.0-7.0-0.0-0.23","792","","f","","","","","","","","","","","","","key","f","16.656521739130437","768","428","./1_3_Stimuli/T_ambi40.png","自我","Image","朋友","Mismatch","f","true","Practice",""
"","","","","","html-keyboard-response","59","251994","0.0-7.0-0.0-1.23","null","<span style='color:GreenYellow; font-size: 70px;'>正确! </span>","null","","","","","","","","","","","","","","","","","","","","","","","","","feedback",""
"","","","","","html-keyboard-response","60","254978","0.0-7.0-1.0-0.0","2983","<style>.context{color:white; font-size: 35px; line-height:40px}</style>                        <div><p class='context'>您正确回答了63% 的试次。</p><p class='context'>您的平均反应时为876毫秒。</p><p> <div style = 'color: green'><按空格键至下页></div></p>"," ","","","","","","","","","","","","","","","","","","","","","","","","","",""
"","","","","","instructions","61","263541","0.0-7.0-1.0-1.0","8561","","","","","","","","","","","","","","[{""page_index"":0,""viewing_time"":1440},{""page_index"":1,""viewing_time"":5649},{""page_index"":2,""viewing_time"":1471}]","","","","","","","","","","","","","",""
"","","","","","psychophysics","62","265744","0.0-7.1-0.1-0.24","1037","","f","","","","","","","","","","","","","key","f","16.66870229007616","768","428","./1_3_Stimuli/T_ambi40.png","朋友","Image","朋友","Match","j","false","Practice",""
"","","","","","html-keyboard-response","63","266049","0.0-7.1-0.1-1.24","null","<span style='color:red; font-size: 70px;'>错误! </span>","null","","","","","","","","","","","","","","","","","","","","","","","","","feedback",""
"","","","","","psychophysics","64","268287","0.0-7.1-0.1-0.25","1082","","j","","","","","","","","","","","","","key","j","16.669172932330827","768","428","./1_3_Stimuli/C_ambi40.png","朋友","Image","自我","Mismatch","f","false","Practice",""
"","","","","","html-keyboard-response","65","268595","0.0-7.1-0.1-1.25","null","<span style='color:red; font-size: 70px;'>错误! </span>","null","","","","","","","","","","","","","","","","","","","","","","","","","feedback",""
"","","","","","psychophysics","66","270901","0.0-7.1-0.1-0.26","1149","","f","","","","","","","","","","","","","key","f","16.66788321167883","768","428","./1_3_Stimuli/C_ambi40.png","他人","Image","自我","Mismatch","f","true","Practice",""
"","","","","","html-keyboard-response","67","271217","0.0-7.1-0.1-1.26","null","<span style='color:GreenYellow; font-size: 70px;'>正确! </span>","null","","","","","","","","","","","","","","","","","","","","","","","","","feedback",""
"","","","","","psychophysics","68","273296","0.0-7.1-0.1-0.27","922","","f","","","","","","","","","","","","","key","f","16.668548387096962","768","428","./1_3_Stimuli/C_ambi40.png","自我","Word","自我","Match","j","false","Practice",""
"","","","","","html-keyboard-response","69","273611","0.0-7.1-0.1-1.27","null","<span style='color:red; font-size: 70px;'>错误! </span>","null","","","","","","","","","","","","","","","","","","","","","","","","","feedback",""
"","","","","","psychophysics","70","276298","0.0-7.1-0.1-0.28","1525","","f","","","","","","","","","","","","","key","f","16.667499999999926","768","428","./1_3_Stimuli/T_ambi40.png","他人","Image","朋友","Mismatch","f","true","Practice",""
"","","","","","html-keyboard-response","71","276605","0.0-7.1-0.1-1.28","null","<span class='add_' style='color:yellow; font-size: 70px;'> 太慢! </span>","null","","","","","","","","","","","","","","","","","","","","","","","","","feedback",""
"","","","","","psychophysics","72","278755","0.0-7.1-0.1-0.29","997","","f","","","","","","","","","","","","","key","f","16.668750000000273","768","428","./1_3_Stimuli/T_ambi40.png","他人","Word","朋友","Mismatch","f","true","Practice",""
"","","","","","html-keyboard-response","73","279065","0.0-7.1-0.1-1.29","null","<span style='color:GreenYellow; font-size: 70px;'>正确! </span>","null","","","","","","","","","","","","","","","","","","","","","","","","","feedback",""
"","","","","","psychophysics","74","281288","0.0-7.1-0.1-0.30","1068","","j","","","","","","","","","","","","","key","j","16.668939393939304","768","428","./1_3_Stimuli/S_ambi40.png","他人","Word","他人","Match","j","true","Practice",""
"","","","","","html-keyboard-response","75","281592","0.0-7.1-0.1-1.30","null","<span style='color:GreenYellow; font-size: 70px;'>正确! </span>","null","","","","","","","","","","","","","","","","","","","","","","","","","feedback",""
"","","","","","psychophysics","76","283793","0.0-7.1-0.1-0.31","1049","","j","","","","","","","","","","","","","key","j","16.666412213740813","768","428","./1_3_Stimuli/T_ambi40.png","朋友","Image","朋友","Match","j","true","Practice",""
"","","","","","html-keyboard-response","77","284103","0.0-7.1-0.1-1.31","null","<span style='color:GreenYellow; font-size: 70px;'>正确! </span>","null","","","","","","","","","","","","","","","","","","","","","","","","","feedback",""
"","","","","","psychophysics","78","286217","0.0-7.1-0.1-0.32","959","","j","","","","","","","","","","","","","key","j","16.667460317460595","768","428","./1_3_Stimuli/C_ambi40.png","自我","Word","自我","Match","j","true","Practice",""
"","","","","","html-keyboard-response","79","286523","0.0-7.1-0.1-1.32","null","<span style='color:GreenYellow; font-size: 70px;'>正确! </span>","null","","","","","","","","","","","","","","","","","","","","","","","","","feedback",""
"","","","","","psychophysics","80","288380","0.0-7.1-0.1-0.33","705","","j","","","","","","","","","","","","","key","j","16.659999999999787","768","428","./1_3_Stimuli/S_ambi40.png","他人","Image","他人","Match","j","true","Practice",""
"","","","","","html-keyboard-response","81","288682","0.0-7.1-0.1-1.33","null","<span style='color:GreenYellow; font-size: 70px;'>正确! </span>","null","","","","","","","","","","","","","","","","","","","","","","","","","feedback",""
"","","","","","psychophysics","82","290480","0.0-7.1-0.1-0.34","641","","f","","","","","","","","","","","","","key","f","16.667289719626385","768","428","./1_3_Stimuli/S_ambi40.png","朋友","Image","他人","Mismatch","f","true","Practice",""
"","","","","","html-keyboard-response","83","290790","0.0-7.1-0.1-1.34","null","<span style='color:GreenYellow; font-size: 70px;'>正确! </span>","null","","","","","","","","","","","","","","","","","","","","","","","","","feedback",""
"","","","","","psychophysics","84","292727","0.0-7.1-0.1-0.35","786","","j","","","","","","","","","","","","","key","j","16.659130434782508","768","428","./1_3_Stimuli/S_ambi40.png","自我","Image","他人","Mismatch","f","false","Practice",""
"","","","","","html-keyboard-response","85","293034","0.0-7.1-0.1-1.35","null","<span style='color:red; font-size: 70px;'>错误! </span>","null","","","","","","","","","","","","","","","","","","","","","","","","","feedback",""
"","","","","","psychophysics","86","295051","0.0-7.1-0.1-0.36","864","","f","","","","","","","","","","","","","key","f","16.66750000000029","768","428","./1_3_Stimuli/T_ambi40.png","自我","Image","朋友","Mismatch","f","true","Practice",""
"","","","","","html-keyboard-response","87","295358","0.0-7.1-0.1-1.36","null","<span style='color:GreenYellow; font-size: 70px;'>正确! </span>","null","","","","","","","","","","","","","","","","","","","","","","","","","feedback",""
"","","","","","psychophysics","88","297543","0.0-7.1-0.1-0.37","1034","","f","","","","","","","","","","","","","key","f","16.66846153846127","768","428","./1_3_Stimuli/S_ambi40.png","自我","Word","他人","Mismatch","f","true","Practice",""
"","","","","","html-keyboard-response","89","297859","0.0-7.1-0.1-1.37","null","<span style='color:GreenYellow; font-size: 70px;'>正确! </span>","null","","","","","","","","","","","","","","","","","","","","","","","","","feedback",""
"","","","","","psychophysics","90","300123","0.0-7.1-0.1-0.38","1109","","j","","","","","","","","","","","","","key","j","16.668656716417736","768","428","./1_3_Stimuli/S_ambi40.png","朋友","Word","他人","Mismatch","f","false","Practice",""
"","","","","","html-keyboard-response","91","300436","0.0-7.1-0.1-1.38","null","<span style='color:red; font-size: 70px;'>错误! </span>","null","","","","","","","","","","","","","","","","","","","","","","","","","feedback",""
"","","","","","psychophysics","92","302664","0.0-7.1-0.1-0.39","1071","","j","","","","","","","","","","","","","key","j","16.667669172932243","768","428","./1_3_Stimuli/C_ambi40.png","朋友","Word","自我","Mismatch","f","false","Practice",""
"","","","","","html-keyboard-response","93","302966","0.0-7.1-0.1-1.39","null","<span style='color:red; font-size: 70px;'>错误! </span>","null","","","","","","","","","","","","","","","","","","","","","","","","","feedback",""
"","","","","","psychophysics","94","304846","0.0-7.1-0.1-0.40","722","","f","","","","","","","","","","","","","key","f","16.669642857142858","768","428","./1_3_Stimuli/T_ambi40.png","自我","Word","朋友","Mismatch","f","true","Practice",""
"","","","","","html-keyboard-response","95","305161","0.0-7.1-0.1-1.40","null","<span style='color:GreenYellow; font-size: 70px;'>正确! </span>","null","","","","","","","","","","","","","","","","","","","","","","","","","feedback",""
"","","","","","psychophysics","96","306936","0.0-7.1-0.1-0.41","621","","j","","","","","","","","","","","","","key","j","16.666666666666668","768","428","./1_3_Stimuli/C_ambi40.png","自我","Image","自我","Match","j","true","Practice",""
"","","","","","html-keyboard-response","97","307251","0.0-7.1-0.1-1.41","null","<span style='color:GreenYellow; font-size: 70px;'>正确! </span>","null","","","","","","","","","","","","","","","","","","","","","","","","","feedback",""
"","","","","","psychophysics","98","309351","0.0-7.1-0.1-0.42","946","","j","","","","","","","","","","","","","key","j","16.668","768","428","./1_3_Stimuli/T_ambi40.png","朋友","Word","朋友","Match","j","true","Practice",""
"","","","","","html-keyboard-response","99","309655","0.0-7.1-0.1-1.42","null","<span style='color:GreenYellow; font-size: 70px;'>正确! </span>","null","","","","","","","","","","","","","","","","","","","","","","","","","feedback",""
"","","","","","psychophysics","100","311759","0.0-7.1-0.1-0.43","949","","j","","","","","","","","","","","","","key","j","16.667200000000186","768","428","./1_3_Stimuli/T_ambi40.png","朋友","Word","朋友","Match","j","true","Practice",""
"","","","","","html-keyboard-response","101","312062","0.0-7.1-0.1-1.43","null","<span style='color:GreenYellow; font-size: 70px;'>正确! </span>","null","","","","","","","","","","","","","","","","","","","","","","","","","feedback",""
"","","","","","psychophysics","102","313950","0.0-7.1-0.1-0.44","733","","f","","","","","","","","","","","","","key","f","16.665178571428573","768","428","./1_3_Stimuli/C_ambi40.png","自我","Image","自我","Match","j","false","Practice",""
"","","","","","html-keyboard-response","103","314256","0.0-7.1-0.1-1.44","null","<span style='color:red; font-size: 70px;'>错误! </span>","null","","","","","","","","","","","","","","","","","","","","","","","","","feedback",""
"","","","","","psychophysics","104","316242","0.0-7.1-0.1-0.45","832","","j","","","","","","","","","","","","","key","j","16.66949152542373","768","428","./1_3_Stimuli/S_ambi40.png","他人","Image","他人","Match","j","true","Practice",""
"","","","","","html-keyboard-response","105","316548","0.0-7.1-0.1-1.45","null","<span style='color:GreenYellow; font-size: 70px;'>正确! </span>","null","","","","","","","","","","","","","","","","","","","","","","","","","feedback",""
"","","","","","psychophysics","106","318351","0.0-7.1-0.1-0.46","645","","f","","","","","","","","","","","","","key","f","16.66822429906542","768","428","./1_3_Stimuli/C_ambi40.png","他人","Word","自我","Mismatch","f","true","Practice",""
"","","","","","html-keyboard-response","107","318656","0.0-7.1-0.1-1.46","null","<span style='color:GreenYellow; font-size: 70px;'>正确! </span>","null","","","","","","","","","","","","","","","","","","","","","","","","","feedback",""
"","","","","","psychophysics","108","320549","0.0-7.1-0.1-0.47","739","","j","","","","","","","","","","","","","key","j","16.668141592920353","768","428","./1_3_Stimuli/S_ambi40.png","他人","Word","他人","Match","j","true","Practice",""
"","","","","","html-keyboard-response","109","320861","0.0-7.1-0.1-1.47","null","<span style='color:GreenYellow; font-size: 70px;'>正确! </span>","null","","","","","","","","","","","","","","","","","","","","","","","","","feedback",""
"","","","","","html-keyboard-response","110","325370","0.0-7.1-1.1-0.1","4507","<style>.context{color:white; font-size: 35px; line-height:40px}</style>                        <div><p class='context'>您正确回答了71% 的试次。</p><p class='context'>您的平均反应时为909毫秒。</p><p> <div style = 'color: green'><按空格键至下页></div></p>"," ","","","","","","","","","","","","","","","","","","","","","","","","","",""
"","","","","","instructions","111","333355","0.0-7.1-1.1-1.1","7984","","","","","","","","","","","","","","[{""page_index"":0,""viewing_time"":4436},{""page_index"":1,""viewing_time"":1828},{""page_index"":2,""viewing_time"":1719}]","","","","","","","","","","","","","",""
"","","","","","psychophysics","112","335347","0.0-7.2-0.2-0.48","836","","j","","","","","","","","","","","","","key","j","16.66864406779681","768","428","./1_3_Stimuli/S_ambi40.png","他人","Image","他人","Match","j","true","Practice",""
"","","","","","html-keyboard-response","113","335656","0.0-7.2-0.2-1.48","null","<span style='color:GreenYellow; font-size: 70px;'>正确! </span>","null","","","","","","","","","","","","","","","","","","","","","","","","","feedback",""
"","","","","","psychophysics","114","337549","0.0-7.2-0.2-0.49","738","","f","","","","","","","","","","","","","key","f","16.669026548672875","768","428","./1_3_Stimuli/T_ambi40.png","他人","Word","朋友","Mismatch","f","true","Practice",""
"","","","","","html-keyboard-response","115","337855","0.0-7.2-0.2-1.49","null","<span style='color:GreenYellow; font-size: 70px;'>正确! </span>","null","","","","","","","","","","","","","","","","","","","","","","","","","feedback",""
"","","","","","psychophysics","116","339847","0.0-7.2-0.2-0.50","839","","j","","","","","","","","","","","","","key","j","16.668907563025503","768","428","./1_3_Stimuli/T_ambi40.png","他人","Image","朋友","Mismatch","f","false","Practice",""
"","","","","","html-keyboard-response","117","340161","0.0-7.2-0.2-1.50","null","<span style='color:red; font-size: 70px;'>错误! </span>","null","","","","","","","","","","","","","","","","","","","","","","","","","feedback",""
"","","","","","psychophysics","118","342017","0.0-7.2-0.2-0.51","704","","j","","","","","","","","","","","","","key","j","16.668181818181818","768","428","./1_3_Stimuli/C_ambi40.png","自我","Word","自我","Match","j","true","Practice",""
"","","","","","html-keyboard-response","119","342327","0.0-7.2-0.2-1.51","null","<span style='color:GreenYellow; font-size: 70px;'>正确! </span>","null","","","","","","","","","","","","","","","","","","","","","","","","","feedback",""
"","","","","","psychophysics","120","344384","0.0-7.2-0.2-0.52","906","","f","","","","","","","","","","","","","key","f","16.66393442622951","768","428","./1_3_Stimuli/S_ambi40.png","自我","Image","他人","Mismatch","f","true","Practice",""
"","","","","","html-keyboard-response","121","344694","0.0-7.2-0.2-1.52","null","<span style='color:GreenYellow; font-size: 70px;'>正确! </span>","null","","","","","","","","","","","","","","","","","","","","","","","","","feedback",""
"","","","","","psychophysics","122","346655","0.0-7.2-0.2-0.53","810","","f","","","","","","","","","","","","","key","f","16.66896551724168","768","428","./1_3_Stimuli/T_ambi40.png","自我","Word","朋友","Mismatch","f","true","Practice",""
"","","","","","html-keyboard-response","123","346959","0.0-7.2-0.2-1.53","null","<span style='color:GreenYellow; font-size: 70px;'>正确! </span>","null","","","","","","","","","","","","","","","","","","","","","","","","","feedback",""
"","","","","","psychophysics","124","348831","0.0-7.2-0.2-0.54","719","","f","","","","","","","","","","","","","key","f","16.66875000000021","768","428","./1_3_Stimuli/S_ambi40.png","自我","Word","他人","Mismatch","f","true","Practice",""
"","","","","","html-keyboard-response","125","349146","0.0-7.2-0.2-1.54","null","<span style='color:GreenYellow; font-size: 70px;'>正确! </span>","null","","","","","","","","","","","","","","","","","","","","","","","","","feedback",""
"","","","","","psychophysics","126","351109","0.0-7.2-0.2-0.55","812","","j","","","","","","","","","","","","","key","j","16.667241379310045","768","428","./1_3_Stimuli/S_ambi40.png","朋友","Image","他人","Mismatch","f","false","Practice",""
"","","","","","html-keyboard-response","127","351420","0.0-7.2-0.2-1.55","null","<span style='color:red; font-size: 70px;'>错误! </span>","null","","","","","","","","","","","","","","","","","","","","","","","","","feedback",""
"","","","","","psychophysics","128","353438","0.0-7.2-0.2-0.56","867","","j","","","","","","","","","","","","","key","j","16.66833333333343","768","428","./1_3_Stimuli/T_ambi40.png","朋友","Image","朋友","Match","j","true","Practice",""
"","","","","","html-keyboard-response","129","353740","0.0-7.2-0.2-1.56","null","<span style='color:GreenYellow; font-size: 70px;'>正确! </span>","null","","","","","","","","","","","","","","","","","","","","","","","","","feedback",""
"","","","","","psychophysics","130","355587","0.0-7.2-0.2-0.57","691","","f","","","","","","","","","","","","","key","f","16.668181818181818","768","428","./1_3_Stimuli/S_ambi40.png","他人","Word","他人","Match","j","false","Practice",""
"","","","","","html-keyboard-response","131","355891","0.0-7.2-0.2-1.57","null","<span style='color:red; font-size: 70px;'>错误! </span>","null","","","","","","","","","","","","","","","","","","","","","","","","","feedback",""
"","","","","","psychophysics","132","357628","0.0-7.2-0.2-0.58","584","","j","","","","","","","","","","","","","key","j","16.667961165048432","768","428","./1_3_Stimuli/C_ambi40.png","自我","Image","自我","Match","j","true","Practice",""
"","","","","","html-keyboard-response","133","357944","0.0-7.2-0.2-1.58","null","<span style='color:GreenYellow; font-size: 70px;'>正确! </span>","null","","","","","","","","","","","","","","","","","","","","","","","","","feedback",""
"","","","","","psychophysics","134","359711","0.0-7.2-0.2-0.59","616","","j","","","","","","","","","","","","","key","j","16.664423076923413","768","428","./1_3_Stimuli/C_ambi40.png","自我","Word","自我","Match","j","true","Practice",""
"","","","","","html-keyboard-response","135","360017","0.0-7.2-0.2-1.59","null","<span style='color:GreenYellow; font-size: 70px;'>正确! </span>","null","","","","","","","","","","","","","","","","","","","","","","","","","feedback",""
"","","","","","psychophysics","136","361763","0.0-7.2-0.2-0.60","586","","f","","","","","","","","","","","","","key","f","16.66826923076923","768","428","./1_3_Stimuli/C_ambi40.png","朋友","Image","自我","Mismatch","f","true","Practice",""
"","","","","","html-keyboard-response","137","362079","0.0-7.2-0.2-1.60","null","<span style='color:GreenYellow; font-size: 70px;'>正确! </span>","null","","","","","","","","","","","","","","","","","","","","","","","","","feedback",""
"","","","","","psychophysics","138","363804","0.0-7.2-0.2-0.61","569","","j","","","","","","","","","","","","","key","j","16.66764705882387","768","428","./1_3_Stimuli/C_ambi40.png","自我","Image","自我","Match","j","true","Practice",""
"","","","","","html-keyboard-response","139","364107","0.0-7.2-0.2-1.61","null","<span style='color:GreenYellow; font-size: 70px;'>正确! </span>","null","","","","","","","","","","","","","","","","","","","","","","","","","feedback",""
"","","","","","psychophysics","140","366123","0.0-7.2-0.2-0.62","860","","f","","","","","","","","","","","","","key","f","16.66916666666657","768","428","./1_3_Stimuli/T_ambi40.png","自我","Image","朋友","Mismatch","f","true","Practice",""
"","","","","","html-keyboard-response","141","366434","0.0-7.2-0.2-1.62","null","<span style='color:GreenYellow; font-size: 70px;'>正确! </span>","null","","","","","","","","","","","","","","","","","","","","","","","","","feedback",""
"","","","","","psychophysics","142","368511","0.0-7.2-0.2-0.63","920","","f","","","","","","","","","","","","","key","f","16.667479674797033","768","428","./1_3_Stimuli/C_ambi40.png","他人","Word","自我","Mismatch","f","true","Practice",""
"","","","","","html-keyboard-response","143","368819","0.0-7.2-0.2-1.63","null","<span style='color:GreenYellow; font-size: 70px;'>正确! </span>","null","","","","","","","","","","","","","","","","","","","","","","","","","feedback",""
"","","","","","psychophysics","144","370908","0.0-7.2-0.2-0.64","929","","j","","","","","","","","","","","","","key","j","16.66774193548378","768","428","./1_3_Stimuli/T_ambi40.png","朋友","Word","朋友","Match","j","true","Practice",""
"","","","","","html-keyboard-response","145","371220","0.0-7.2-0.2-1.64","null","<span style='color:GreenYellow; font-size: 70px;'>正确! </span>","null","","","","","","","","","","","","","","","","","","","","","","","","","feedback",""
"","","","","","psychophysics","146","373084","0.0-7.2-0.2-0.65","708","","j","","","","","","","","","","","","","key","j","16.66936936936979","768","428","./1_3_Stimuli/S_ambi40.png","他人","Image","他人","Match","j","true","Practice",""
"","","","","","html-keyboard-response","147","373391","0.0-7.2-0.2-1.65","null","<span style='color:GreenYellow; font-size: 70px;'>正确! </span>","null","","","","","","","","","","","","","","","","","","","","","","","","","feedback",""
"","","","","","psychophysics","148","375162","0.0-7.2-0.2-0.66","617","","f","","","","","","","","","","","","","key","f","16.667619047618825","768","428","./1_3_Stimuli/S_ambi40.png","朋友","Word","他人","Mismatch","f","true","Practice",""
"","","","","","html-keyboard-response","149","375468","0.0-7.2-0.2-1.66","null","<span style='color:GreenYellow; font-size: 70px;'>正确! </span>","null","","","","","","","","","","","","","","","","","","","","","","","","","feedback",""
"","","","","","psychophysics","150","377459","0.0-7.2-0.2-0.67","837","","j","","","","","","","","","","","","","key","j","16.667796610169393","768","428","./1_3_Stimuli/T_ambi40.png","朋友","Word","朋友","Match","j","true","Practice",""
"","","","","","html-keyboard-response","151","377763","0.0-7.2-0.2-1.67","null","<span style='color:GreenYellow; font-size: 70px;'>正确! </span>","null","","","","","","","","","","","","","","","","","","","","","","","","","feedback",""
"","","","","","psychophysics","152","379494","0.0-7.2-0.2-0.68","580","","j","","","","","","","","","","","","","key","j","16.668627450980505","768","428","./1_3_Stimuli/T_ambi40.png","朋友","Image","朋友","Match","j","true","Practice",""
"","","","","","html-keyboard-response","153","379804","0.0-7.2-0.2-1.68","null","<span style='color:GreenYellow; font-size: 70px;'>正确! </span>","null","","","","","","","","","","","","","","","","","","","","","","","","","feedback",""
"","","","","","psychophysics","154","381603","0.0-7.2-0.2-0.69","641","","j","","","","","","","","","","","","","key","j","16.667289719625842","768","428","./1_3_Stimuli/S_ambi40.png","他人","Word","他人","Match","j","true","Practice",""
"","","","","","html-keyboard-response","155","381910","0.0-7.2-0.2-1.69","null","<span style='color:GreenYellow; font-size: 70px;'>正确! </span>","null","","","","","","","","","","","","","","","","","","","","","","","","","feedback",""
"","","","","","psychophysics","156","383790","0.0-7.2-0.2-0.70","727","","f","","","","","","","","","","","","","key","f","16.668749999999687","768","428","./1_3_Stimuli/C_ambi40.png","朋友","Word","自我","Mismatch","f","true","Practice",""
"","","","","","html-keyboard-response","157","384094","0.0-7.2-0.2-1.70","null","<span style='color:GreenYellow; font-size: 70px;'>正确! </span>","null","","","","","","","","","","","","","","","","","","","","","","","","","feedback",""
"","","","","","psychophysics","158","385880","0.0-7.2-0.2-0.71","633","","f","","","","","","","","","","","","","key","f","16.667289719625842","768","428","./1_3_Stimuli/C_ambi40.png","他人","Image","自我","Mismatch","f","true","Practice",""
"","","","","","html-keyboard-response","159","386189","0.0-7.2-0.2-1.71","null","<span style='color:GreenYellow; font-size: 70px;'>正确! </span>","null","","","","","","","","","","","","","","","","","","","","","","","","","feedback",""
"","","","","","html-keyboard-response","160","415419","0.0-8.0","29228","<style>.context{color:white; font-size: 35px; line-height:40px}</style>                          <div><p class='context'>您正确回答了88% 的试次。</p><p class='context'>您的平均反应时为733毫秒。</p><p class='context'>恭喜您完成练习。现在请休息3~5分钟。</p><p class='context'>之后，按任意键进入正式实验。需要注意的是，正式实验将不再提供反应是否正确的反馈。</p><p class='footer' style='font-size: 35px; line-height:40px;'>请在进入正式实验实验之前将您的<span style='color: lightgreen;'>食指</span>放在电脑键盘的相应键位上进行按键。</p>"," ","","","","","","","","","","","","","","","","","","","","","","","","","",""
"","","","","","psychophysics","161","417340","0.0-9.0-0.0-0.0","763","","j","","","","","","","","","","","","","key","j","16.667543859649427","768","428","./1_3_Stimuli/C_ambi40.png","他人","Image","自我","Mismatch","f","false","Formal",""
"","","","","","psychophysics","162","419374","0.0-9.0-0.0-0.1","880","","f","","","","","","","","","","","","","key","f","16.667768595041707","768","428","./1_3_Stimuli/T_ambi40.png","自我","Word","朋友","Mismatch","f","true","Formal",""
"","","","","","psychophysics","163","421390","0.0-9.0-0.0-0.2","858","","f","","","","","","","","","","","","","key","f","16.666666666666668","768","428","./1_3_Stimuli/C_ambi40.png","他人","Word","自我","Mismatch","f","true","Formal",""
"","","","","","psychophysics","164","423164","0.0-9.0-0.0-0.3","618","","f","","","","","","","","","","","","","key","f","16.66857142857154","768","428","./1_3_Stimuli/T_ambi40.png","他人","Image","朋友","Mismatch","f","true","Formal",""
"","","","","","psychophysics","165","425363","0.0-9.0-0.0-0.4","1048","","f","","","","","","","","","","","","","key","f","16.670000000000268","768","428","./1_3_Stimuli/S_ambi40.png","朋友","Word","他人","Mismatch","f","true","Formal",""
"","","","","","psychophysics","166","427488","0.0-9.0-0.0-0.5","974","","j","","","","","","","","","","","","","key","j","16.66771653543344","768","428","./1_3_Stimuli/T_ambi40.png","朋友","Image","朋友","Match","j","true","Formal",""
"","","","","","psychophysics","167","429373","0.0-9.0-0.0-0.6","731","","j","","","","","","","","","","","","","key","j","16.66607142857122","768","428","./1_3_Stimuli/S_ambi40.png","他人","Word","他人","Match","j","true","Formal",""
"","","","","","psychophysics","168","431106","0.0-9.0-0.0-0.7","576","","f","","","","","","","","","","","","","key","f","16.667961165048432","768","428","./1_3_Stimuli/S_ambi40.png","朋友","Image","他人","Mismatch","f","true","Formal",""
"","","","","","psychophysics","169","433011","0.0-9.0-0.0-0.8","746","","j","","","","","","","","","","","","","key","j","16.669026548672875","768","428","./1_3_Stimuli/T_ambi40.png","朋友","Image","朋友","Match","j","true","Formal",""
"","","","","","psychophysics","170","434900","0.0-9.0-0.0-0.9","735","","f","","","","","","","","","","","","","key","f","16.66991150442488","768","428","./1_3_Stimuli/C_ambi40.png","朋友","Word","自我","Mismatch","f","true","Formal",""
"","","","","","psychophysics","171","436618","0.0-9.0-0.0-0.10","562","","j","","","","","","","","","","","","","key","j","16.665686274510033","768","428","./1_3_Stimuli/C_ambi40.png","自我","Image","自我","Match","j","true","Formal",""
"","","","","","psychophysics","172","438339","0.0-9.0-0.0-0.11","567","","j","","","","","","","","","","","","","key","j","16.667647058823302","768","428","./1_3_Stimuli/C_ambi40.png","自我","Image","自我","Match","j","true","Formal",""
"","","","","","psychophysics","173","440197","0.0-9.0-0.0-0.12","705","","j","","","","","","","","","","","","","key","j","16.667272727272938","768","428","./1_3_Stimuli/T_ambi40.png","朋友","Word","朋友","Match","j","true","Formal",""
"","","","","","psychophysics","174","441973","0.0-9.0-0.0-0.13","624","","j","","","","","","","","","","","","","key","j","16.666666666666668","768","428","./1_3_Stimuli/S_ambi40.png","他人","Image","他人","Match","j","true","Formal",""
"","","","","","psychophysics","175","443704","0.0-9.0-0.0-0.14","577","","f","","","","","","","","","","","","","key","f","16.66699029126225","768","428","./1_3_Stimuli/C_ambi40.png","朋友","Image","自我","Mismatch","f","true","Formal",""
"","","","","","psychophysics","176","445573","0.0-9.0-0.0-0.15","714","","f","","","","","","","","","","","","","key","f","16.669369369369264","768","428","./1_3_Stimuli/S_ambi40.png","自我","Word","他人","Mismatch","f","true","Formal",""
"","","","","","psychophysics","177","447448","0.0-9.0-0.0-0.16","716","","f","","","","","","","","","","","","","key","f","16.666666666666668","768","428","./1_3_Stimuli/S_ambi40.png","自我","Image","他人","Mismatch","f","true","Formal",""
"","","","","","psychophysics","178","449370","0.0-9.0-0.0-0.17","771","","j","","","","","","","","","","","","","key","j","16.667826086956925","768","428","./1_3_Stimuli/S_ambi40.png","他人","Word","他人","Match","j","true","Formal",""
"","","","","","psychophysics","179","451249","0.0-9.0-0.0-0.18","718","","f","","","","","","","","","","","","","key","f","16.667857142857038","768","428","./1_3_Stimuli/T_ambi40.png","他人","Word","朋友","Mismatch","f","true","Formal",""
"","","","","","psychophysics","180","453048","0.0-9.0-0.0-0.19","640","","j","","","","","","","","","","","","","key","j","16.66509433962264","768","428","./1_3_Stimuli/C_ambi40.png","自我","Word","自我","Match","j","true","Formal",""
"","","","","","psychophysics","181","454812","0.0-9.0-0.0-0.20","612","","f","","","","","","","","","","","","","key","f","16.667619047618825","768","428","./1_3_Stimuli/T_ambi40.png","自我","Image","朋友","Mismatch","f","true","Formal",""
"","","","","","psychophysics","182","456504","0.0-9.0-0.0-0.21","537","","j","","","","","","","","","","","","","key","j","16.669306930692837","768","428","./1_3_Stimuli/C_ambi40.png","自我","Word","自我","Match","j","true","Formal",""
"","","","","","psychophysics","183","458429","0.0-9.0-0.0-0.22","764","","j","","","","","","","","","","","","","key","j","16.66754385964892","768","428","./1_3_Stimuli/S_ambi40.png","他人","Image","他人","Match","j","true","Formal",""
"","","","","","psychophysics","184","460257","0.0-9.0-0.0-0.23","674","","j","","","","","","","","","","","","","key","j","16.668807339449756","768","428","./1_3_Stimuli/T_ambi40.png","朋友","Word","朋友","Match","j","true","Formal",""
"","","","","","psychophysics","185","462231","0.0-9.0-0.0-0.24","815","","f","","","","","","","","","","","","","key","f","16.66837606837617","768","428","./1_3_Stimuli/S_ambi40.png","朋友","Word","他人","Mismatch","f","true","Formal",""
"","","","","","psychophysics","186","464288","0.0-9.0-0.0-0.25","906","","f","","","","","","","","","","","","","key","f","16.66885245901668","768","428","./1_3_Stimuli/T_ambi40.png","他人","Word","朋友","Mismatch","f","true","Formal",""
"","","","","","psychophysics","187","465982","0.0-9.0-0.0-0.26","541","","j","","","","","","","","","","","","","key","j","16.666999999999533","768","428","./1_3_Stimuli/T_ambi40.png","朋友","Image","朋友","Match","j","true","Formal",""
"","","","","","psychophysics","188","467688","0.0-9.0-0.0-0.27","554","","f","","","","","","","","","","","","","key","f","16.668627450980505","768","428","./1_3_Stimuli/C_ambi40.png","他人","Image","自我","Mismatch","f","true","Formal",""
"","","","","","psychophysics","189","469490","0.0-9.0-0.0-0.28","640","","j","","","","","","","","","","","","","key","j","16.669158878504454","768","428","./1_3_Stimuli/S_ambi40.png","他人","Word","他人","Match","j","true","Formal",""
"","","","","","psychophysics","190","471223","0.0-9.0-0.0-0.29","578","","j","","","","","","","","","","","","","key","j","16.667961165048432","768","428","./1_3_Stimuli/C_ambi40.png","朋友","Word","自我","Mismatch","f","false","Formal",""
"","","","","","psychophysics","191","473088","0.0-9.0-0.0-0.30","710","","j","","","","","","","","","","","","","key","j","16.667567567567357","768","428","./1_3_Stimuli/S_ambi40.png","他人","Image","他人","Match","j","true","Formal",""
"","","","","","psychophysics","192","474749","0.0-9.0-0.0-0.31","502","","f","","","","","","","","","","","","","key","f","16.667346938775154","768","428","./1_3_Stimuli/C_ambi40.png","他人","Word","自我","Mismatch","f","true","Formal",""
"","","","","","psychophysics","193","476624","0.0-9.0-0.0-0.32","724","","f","","","","","","","","","","","","","key","f","16.666666666666668","768","428","./1_3_Stimuli/S_ambi40.png","朋友","Image","他人","Mismatch","f","true","Formal",""
"","","","","","psychophysics","194","478286","0.0-9.0-0.0-0.33","508","","f","","","","","","","","","","","","","key","f","16.667676767676532","768","428","./1_3_Stimuli/S_ambi40.png","他人","Image","他人","Match","j","false","Formal",""
"","","","","","psychophysics","195","480019","0.0-9.0-0.0-0.34","572","","j","","","","","","","","","","","","","key","j","16.66699029126225","768","428","./1_3_Stimuli/S_ambi40.png","他人","Word","他人","Match","j","true","Formal",""
"","","","","","psychophysics","196","481957","0.0-9.0-0.0-0.35","778","","j","","","","","","","","","","","","","key","j","16.668695652174115","768","428","./1_3_Stimuli/T_ambi40.png","朋友","Image","朋友","Match","j","true","Formal",""
"","","","","","psychophysics","197","483824","0.0-9.0-0.0-0.36","706","","f","","","","","","","","","","","","","key","f","16.667567567567357","768","428","./1_3_Stimuli/T_ambi40.png","自我","Word","朋友","Mismatch","f","true","Formal",""
"","","","","","psychophysics","198","485713","0.0-9.0-0.0-0.37","736","","f","","","","","","","","","","","","","key","f","16.66696428571439","768","428","./1_3_Stimuli/S_ambi40.png","自我","Image","他人","Mismatch","f","true","Formal",""
"","","","","","psychophysics","199","487527","0.0-9.0-0.0-0.38","659","","f","","","","","","","","","","","","","key","f","16.666666666666668","768","428","./1_3_Stimuli/S_ambi40.png","自我","Word","他人","Mismatch","f","true","Formal",""
"","","","","","psychophysics","200","489068","0.0-9.0-0.0-0.39","383","","j","","","","","","","","","","","","","key","j","16.66813186813174","768","428","./1_3_Stimuli/C_ambi40.png","自我","Image","自我","Match","j","true","Formal",""
"","","","","","psychophysics","201","490855","0.0-9.0-0.0-0.40","636","","j","","","","","","","","","","","","","key","j","16.66698113207558","768","428","./1_3_Stimuli/T_ambi40.png","朋友","Word","朋友","Match","j","true","Formal",""
"","","","","","psychophysics","202","492684","0.0-9.0-0.0-0.41","665","","f","","","","","","","","","","","","","key","f","16.666666666666668","768","428","./1_3_Stimuli/T_ambi40.png","朋友","Word","朋友","Match","j","false","Formal",""
"","","","","","psychophysics","203","494540","0.0-9.0-0.0-0.42","705","","f","","","","","","","","","","","","","key","f","16.666666666666668","768","428","./1_3_Stimuli/C_ambi40.png","朋友","Image","自我","Mismatch","f","true","Formal",""
"","","","","","psychophysics","204","496221","0.0-9.0-0.0-0.43","529","","j","","","","","","","","","","","","","key","j","16.667000000000115","768","428","./1_3_Stimuli/T_ambi40.png","他人","Image","朋友","Mismatch","f","false","Formal",""
"","","","","","psychophysics","205","497900","0.0-9.0-0.0-0.44","525","","j","","","","","","","","","","","","","key","j","16.667676767677122","768","428","./1_3_Stimuli/C_ambi40.png","自我","Image","自我","Match","j","true","Formal",""
"","","","","","psychophysics","206","499515","0.0-9.0-0.0-0.45","462","","f","","","","","","","","","","","","","key","f","16.667708333333092","768","428","./1_3_Stimuli/C_ambi40.png","自我","Word","自我","Match","j","false","Formal",""
"","","","","","psychophysics","207","501264","0.0-9.0-0.0-0.46","594","","f","","","","","","","","","","","","","key","f","16.66826923076923","768","428","./1_3_Stimuli/T_ambi40.png","自我","Image","朋友","Mismatch","f","true","Formal",""
"","","","","","psychophysics","208","502888","0.0-9.0-0.0-0.47","472","","j","","","","","","","","","","","","","key","j","16.668041237113282","768","428","./1_3_Stimuli/C_ambi40.png","自我","Word","自我","Match","j","true","Formal",""
"","","","","","psychophysics","209","504877","0.0-9.0-0.0-0.48","833","","j","","","","","","","","","","","","","key","j","16.66864406779681","768","428","./1_3_Stimuli/S_ambi40.png","他人","Word","他人","Match","j","true","Formal",""
"","","","","","psychophysics","210","506521","0.0-9.0-0.0-0.49","490","","j","","","","","","","","","","","","","key","j","16.666326530612125","768","428","./1_3_Stimuli/C_ambi40.png","自我","Word","自我","Match","j","true","Formal",""
"","","","","","psychophysics","211","508176","0.0-9.0-0.0-0.50","502","","f","","","","","","","","","","","","","key","f","16.668367346938776","768","428","./1_3_Stimuli/T_ambi40.png","自我","Word","朋友","Mismatch","f","true","Formal",""
"","","","","","psychophysics","212","510114","0.0-9.0-0.0-0.51","782","","j","","","","","","","","","","","","","key","j","16.66695652173923","768","428","./1_3_Stimuli/T_ambi40.png","朋友","Word","朋友","Match","j","true","Formal",""
"","","","","","psychophysics","213","511926","0.0-9.0-0.0-0.52","656","","j","","","","","","","","","","","","","key","j","16.667592592592378","768","428","./1_3_Stimuli/C_ambi40.png","自我","Image","自我","Match","j","true","Formal",""
"","","","","","psychophysics","214","513841","0.0-9.0-0.0-0.53","755","","f","","","","","","","","","","","","","key","f","16.666666666666668","768","428","./1_3_Stimuli/T_ambi40.png","他人","Word","朋友","Mismatch","f","true","Formal",""
"","","","","","psychophysics","215","515597","0.0-9.0-0.0-0.54","602","","j","","","","","","","","","","","","","key","j","16.66826923076923","768","428","./1_3_Stimuli/T_ambi40.png","朋友","Image","朋友","Match","j","true","Formal",""
"","","","","","psychophysics","216","517215","0.0-9.0-0.0-0.55","462","","j","","","","","","","","","","","","","key","j","16.667708333333092","768","428","./1_3_Stimuli/C_ambi40.png","自我","Word","自我","Match","j","true","Formal",""
"","","","","","psychophysics","217","518897","0.0-9.0-0.0-0.56","529","","j","","","","","","","","","","","","","key","j","16.667000000000115","768","428","./1_3_Stimuli/C_ambi40.png","自我","Image","自我","Match","j","true","Formal",""
"","","","","","psychophysics","218","520497","0.0-9.0-0.0-0.57","443","","f","","","","","","","","","","","","","key","f","16.667368421052263","768","428","./1_3_Stimuli/T_ambi40.png","自我","Image","朋友","Mismatch","f","true","Formal",""
"","","","","","psychophysics","219","522582","0.0-9.0-0.0-0.58","933","","f","","","","","","","","","","","","","key","f","16.668548387096493","768","428","./1_3_Stimuli/S_ambi40.png","自我","Word","他人","Mismatch","f","true","Formal",""
"","","","","","psychophysics","220","524367","0.0-9.0-0.0-0.59","631","","f","","","","","","","","","","","","","key","f","16.66698113207613","768","428","./1_3_Stimuli/S_ambi40.png","自我","Image","他人","Mismatch","f","true","Formal",""
"","","","","","psychophysics","221","525989","0.0-9.0-0.0-0.60","468","","j","","","","","","","","","","","","","key","j","16.66701030927907","768","428","./1_3_Stimuli/C_ambi40.png","朋友","Word","自我","Mismatch","f","false","Formal",""
"","","","","","psychophysics","222","527707","0.0-9.0-0.0-0.61","557","","f","","","","","","","","","","","","","key","f","16.666666666666668","768","428","./1_3_Stimuli/S_ambi40.png","他人","Image","他人","Match","j","false","Formal",""
"","","","","","psychophysics","223","529540","0.0-9.0-0.0-0.62","677","","f","","","","","","","","","","","","","key","f","16.666972477063794","768","428","./1_3_Stimuli/S_ambi40.png","朋友","Word","他人","Mismatch","f","true","Formal",""
"","","","","","psychophysics","224","531498","0.0-9.0-0.0-0.63","807","","f","","","","","","","","","","","","","key","f","16.667241379310546","768","428","./1_3_Stimuli/T_ambi40.png","他人","Image","朋友","Mismatch","f","true","Formal",""
"","","","","","psychophysics","225","533352","0.0-9.0-0.0-0.64","698","","f","","","","","","","","","","","","","key","f","16.666363636363002","768","428","./1_3_Stimuli/C_ambi40.png","他人","Word","自我","Mismatch","f","true","Formal",""
"","","","","","psychophysics","226","535209","0.0-9.0-0.0-0.65","705","","f","","","","","","","","","","","","","key","f","16.667567567567357","768","428","./1_3_Stimuli/S_ambi40.png","朋友","Image","他人","Mismatch","f","true","Formal",""
"","","","","","psychophysics","227","537209","0.0-9.0-0.0-0.66","848","","j","","","","","","","","","","","","","key","j","16.66722689075552","768","428","./1_3_Stimuli/T_ambi40.png","朋友","Word","朋友","Match","j","true","Formal",""
"","","","","","psychophysics","228","539011","0.0-9.0-0.0-0.67","645","","f","","","","","","","","","","","","","key","f","16.66822429906542","768","428","./1_3_Stimuli/C_ambi40.png","朋友","Image","自我","Mismatch","f","true","Formal",""
"","","","","","psychophysics","229","540720","0.0-9.0-0.0-0.68","554","","f","","","","","","","","","","","","","key","f","16.668316831683168","768","428","./1_3_Stimuli/S_ambi40.png","他人","Image","他人","Match","j","false","Formal",""
"","","","","","psychophysics","230","542582","0.0-9.0-0.0-0.69","711","","j","","","","","","","","","","","","","key","j","16.66636363636406","768","428","./1_3_Stimuli/T_ambi40.png","朋友","Image","朋友","Match","j","true","Formal",""
"","","","","","psychophysics","231","544269","0.0-9.0-0.0-0.70","532","","f","","","","","","","","","","","","","key","f","16.66900000000023","768","428","./1_3_Stimuli/C_ambi40.png","他人","Image","自我","Mismatch","f","true","Formal",""
"","","","","","psychophysics","232","546278","0.0-9.0-0.0-0.71","857","","j","","","","","","","","","","","","","key","j","16.669166666667056","768","428","./1_3_Stimuli/S_ambi40.png","他人","Word","他人","Match","j","true","Formal",""
"","","","","","psychophysics","233","548190","0.0-9.0-0.0-0.72","754","","j","","","","","","","","","","","","","key","j","16.669298245613422","768","428","./1_3_Stimuli/S_ambi40.png","他人","Image","他人","Match","j","true","Formal",""
"","","","","","psychophysics","234","549826","0.0-9.0-0.0-0.73","481","","j","","","","","","","","","","","","","key","j","16.668041237112682","768","428","./1_3_Stimuli/C_ambi40.png","自我","Image","自我","Match","j","true","Formal",""
"","","","","","psychophysics","235","551412","0.0-9.0-0.0-0.74","428","","j","","","","","","","","","","","","","key","j","16.669148936170462","768","428","./1_3_Stimuli/C_ambi40.png","自我","Word","自我","Match","j","true","Formal",""
"","","","","","psychophysics","236","553084","0.0-9.0-0.0-0.75","520","","f","","","","","","","","","","","","","key","f","16.667676767676532","768","428","./1_3_Stimuli/T_ambi40.png","自我","Word","朋友","Mismatch","f","true","Formal",""
"","","","","","psychophysics","237","554767","0.0-9.0-0.0-0.76","531","","j","","","","","","","","","","","","","key","j","16.668686868686397","768","428","./1_3_Stimuli/S_ambi40.png","他人","Word","他人","Match","j","true","Formal",""
"","","","","","psychophysics","238","556467","0.0-9.0-0.0-0.77","545","","f","","","","","","","","","","","","","key","f","16.667326732673498","768","428","./1_3_Stimuli/S_ambi40.png","自我","Word","他人","Mismatch","f","true","Formal",""
"","","","","","psychophysics","239","558019","0.0-9.0-0.0-0.78","398","","j","","","","","","","","","","","","","key","j","16.66739130434808","768","428","./1_3_Stimuli/C_ambi40.png","自我","Image","自我","Match","j","true","Formal",""
"","","","","","psychophysics","240","559676","0.0-9.0-0.0-0.79","504","","j","","","","","","","","","","","","","key","j","16.667346938775747","768","428","./1_3_Stimuli/C_ambi40.png","自我","Word","自我","Match","j","true","Formal",""
"","","","","","psychophysics","241","561411","0.0-9.0-0.0-0.80","583","","f","","","","","","","","","","","","","key","f","16.668932038835177","768","428","./1_3_Stimuli/C_ambi40.png","他人","Word","自我","Mismatch","f","true","Formal",""
"","","","","","psychophysics","242","563133","0.0-9.0-0.0-0.81","569","","j","","","","","","","","","","","","","key","j","16.667647058823302","768","428","./1_3_Stimuli/T_ambi40.png","朋友","Image","朋友","Match","j","true","Formal",""
"","","","","","psychophysics","243","565021","0.0-9.0-0.0-0.82","732","","f","","","","","","","","","","","","","key","f","16.66607142857122","768","428","./1_3_Stimuli/S_ambi40.png","自我","Image","他人","Mismatch","f","true","Formal",""
"","","","","","psychophysics","244","566809","0.0-9.0-0.0-0.83","636","","j","","","","","","","","","","","","","key","j","16.667924528301228","768","428","./1_3_Stimuli/S_ambi40.png","他人","Image","他人","Match","j","true","Formal",""
"","","","","","psychophysics","245","568574","0.0-9.0-0.0-0.84","612","","j","","","","","","","","","","","","","key","j","16.667619047618825","768","428","./1_3_Stimuli/T_ambi40.png","朋友","Word","朋友","Match","j","true","Formal",""
"","","","","","psychophysics","246","570220","0.0-9.0-0.0-0.85","492","","j","","","","","","","","","","","","","key","j","16.669072164948695","768","428","./1_3_Stimuli/T_ambi40.png","自我","Image","朋友","Mismatch","f","false","Formal",""
"","","","","","psychophysics","247","571976","0.0-9.0-0.0-0.86","604","","f","","","","","","","","","","","","","key","f","16.667619047618825","768","428","./1_3_Stimuli/C_ambi40.png","他人","Image","自我","Mismatch","f","true","Formal",""
"","","","","","psychophysics","248","573831","0.0-9.0-0.0-0.87","698","","f","","","","","","","","","","","","","key","f","16.667272727272938","768","428","./1_3_Stimuli/C_ambi40.png","朋友","Image","自我","Mismatch","f","true","Formal",""
"","","","","","psychophysics","249","575659","0.0-9.0-0.0-0.88","670","","j","","","","","","","","","","","","","key","j","16.66788990825624","768","428","./1_3_Stimuli/T_ambi40.png","他人","Word","朋友","Mismatch","f","false","Formal",""
"","","","","","psychophysics","250","577488","0.0-9.0-0.0-0.89","668","","j","","","","","","","","","","","","","key","j","16.668518518519164","768","428","./1_3_Stimuli/S_ambi40.png","他人","Word","他人","Match","j","true","Formal",""
"","","","","","psychophysics","251","579129","0.0-9.0-0.0-0.90","489","","f","","","","","","","","","","","","","key","f","16.667346938775747","768","428","./1_3_Stimuli/S_ambi40.png","朋友","Word","他人","Mismatch","f","true","Formal",""
"","","","","","psychophysics","252","580881","0.0-9.0-0.0-0.91","599","","j","","","","","","","","","","","","","key","j","16.6663461538466","768","428","./1_3_Stimuli/T_ambi40.png","朋友","Word","朋友","Match","j","true","Formal",""
"","","","","","psychophysics","253","582462","0.0-9.0-0.0-0.92","430","","j","","","","","","","","","","","","","key","j","16.667021276596486","768","428","./1_3_Stimuli/T_ambi40.png","朋友","Image","朋友","Match","j","true","Formal",""
"","","","","","psychophysics","254","584143","0.0-9.0-0.0-0.93","520","","f","","","","","","","","","","","","","key","f","16.666999999999533","768","428","./1_3_Stimuli/T_ambi40.png","他人","Image","朋友","Mismatch","f","true","Formal",""
"","","","","","psychophysics","255","586092","0.0-9.0-0.0-0.94","798","","f","","","","","","","","","","","","","key","f","16.667241379310546","768","428","./1_3_Stimuli/C_ambi40.png","朋友","Word","自我","Mismatch","f","true","Formal",""
"","","","","","psychophysics","256","588204","0.0-9.0-0.0-0.95","956","","f","","","","","","","","","","","","","key","f","16.668799999999813","768","428","./1_3_Stimuli/S_ambi40.png","朋友","Image","他人","Mismatch","f","true","Formal",""
"","","","","","psychophysics","257","589791","0.0-9.0-0.0-0.96","434","","j","","","","","","","","","","","","","key","j","16.66842105263158","768","428","./1_3_Stimuli/C_ambi40.png","自我","Word","自我","Match","j","true","Formal",""
"","","","","","psychophysics","258","591518","0.0-9.0-0.0-0.97","571","","f","","","","","","","","","","","","","key","f","16.667647058824443","768","428","./1_3_Stimuli/C_ambi40.png","朋友","Word","自我","Mismatch","f","true","Formal",""
"","","","","","psychophysics","259","593168","0.0-9.0-0.0-0.98","498","","j","","","","","","","","","","","","","key","j","16.66632653061272","768","428","./1_3_Stimuli/C_ambi40.png","自我","Image","自我","Match","j","true","Formal",""
"","","","","","psychophysics","260","594935","0.0-9.0-0.0-0.99","611","","f","","","","","","","","","","","","","key","f","16.668571428570985","768","428","./1_3_Stimuli/S_ambi40.png","自我","Image","他人","Mismatch","f","true","Formal",""
"","","","","","psychophysics","261","596882","0.0-9.0-0.0-0.100","795","","f","","","","","","","","","","","","","key","f","16.66724137930954","768","428","./1_3_Stimuli/S_ambi40.png","朋友","Word","他人","Mismatch","f","true","Formal",""
"","","","","","psychophysics","262","598612","0.0-9.0-0.0-0.101","573","","j","","","","","","","","","","","","","key","j","16.667961165047867","768","428","./1_3_Stimuli/C_ambi40.png","他人","Image","自我","Mismatch","f","false","Formal",""
"","","","","","psychophysics","263","600498","0.0-9.0-0.0-0.102","726","","f","","","","","","","","","","","","","key","f","16.668749999999168","768","428","./1_3_Stimuli/T_ambi40.png","他人","Word","朋友","Mismatch","f","true","Formal",""
"","","","","","psychophysics","264","602185","0.0-9.0-0.0-0.103","528","","j","","","","","","","","","","","","","key","j","16.66900000000023","768","428","./1_3_Stimuli/C_ambi40.png","自我","Image","自我","Match","j","true","Formal",""
"","","","","","psychophysics","265","604244","0.0-9.0-0.0-0.104","902","","f","","","","","","","","","","","","","key","f","16.668292682927397","768","428","./1_3_Stimuli/T_ambi40.png","自我","Image","朋友","Mismatch","f","true","Formal",""
"","","","","","psychophysics","266","606152","0.0-9.0-0.0-0.105","747","","j","","","","","","","","","","","","","key","j","16.66637168141634","768","428","./1_3_Stimuli/S_ambi40.png","他人","Word","他人","Match","j","true","Formal",""
"","","","","","psychophysics","267","608006","0.0-9.0-0.0-0.106","698","","j","","","","","","","","","","","","","key","j","16.6690909090907","768","428","./1_3_Stimuli/S_ambi40.png","他人","Image","他人","Match","j","true","Formal",""
"","","","","","psychophysics","268","609805","0.0-9.0-0.0-0.107","648","","j","","","","","","","","","","","","","key","j","16.66822429906542","768","428","./1_3_Stimuli/T_ambi40.png","朋友","Image","朋友","Match","j","true","Formal",""
"","","","","","psychophysics","269","611448","0.0-9.0-0.0-0.108","490","","f","","","","","","","","","","","","","key","f","16.66632653061153","768","428","./1_3_Stimuli/S_ambi40.png","他人","Image","他人","Match","j","false","Formal",""
"","","","","","psychophysics","270","613318","0.0-9.0-0.0-0.109","713","","f","","","","","","","","","","","","","key","f","16.667567567567357","768","428","./1_3_Stimuli/T_ambi40.png","朋友","Word","朋友","Match","j","false","Formal",""
"","","","","","psychophysics","271","615083","0.0-9.0-0.0-0.110","609","","j","","","","","","","","","","","","","key","j","16.669523809524254","768","428","./1_3_Stimuli/C_ambi40.png","自我","Word","自我","Match","j","true","Formal",""
"","","","","","psychophysics","272","616742","0.0-9.0-0.0-0.111","506","","f","","","","","","","","","","","","","key","f","16.667676767676532","768","428","./1_3_Stimuli/S_ambi40.png","自我","Word","他人","Mismatch","f","true","Formal",""
"","","","","","psychophysics","273","618644","0.0-9.0-0.0-0.112","742","","j","","","","","","","","","","","","","key","j","16.66902654867236","768","428","./1_3_Stimuli/T_ambi40.png","朋友","Word","朋友","Match","j","true","Formal",""
"","","","","","psychophysics","274","620622","0.0-9.0-0.0-0.113","818","","f","","","","","","","","","","","","","key","f","16.667521367522163","768","428","./1_3_Stimuli/S_ambi40.png","朋友","Image","他人","Mismatch","f","true","Formal",""
"","","","","","psychophysics","275","622622","0.0-9.0-0.0-0.114","847","","j","","","","","","","","","","","","","key","j","16.6672268907565","768","428","./1_3_Stimuli/T_ambi40.png","自我","Word","朋友","Mismatch","f","false","Formal",""
"","","","","","psychophysics","276","624532","0.0-9.0-0.0-0.115","757","","j","","","","","","","","","","","","","key","j","16.668141592920353","768","428","./1_3_Stimuli/T_ambi40.png","朋友","Image","朋友","Match","j","true","Formal",""
"","","","","","psychophysics","277","626237","0.0-9.0-0.0-0.116","545","","f","","","","","","","","","","","","","key","f","16.668316831683168","768","428","./1_3_Stimuli/C_ambi40.png","朋友","Image","自我","Mismatch","f","true","Formal",""
"","","","","","psychophysics","278","628339","0.0-9.0-0.0-0.117","947","","f","","","","","","","","","","","","","key","f","16.668","768","428","./1_3_Stimuli/C_ambi40.png","他人","Word","自我","Mismatch","f","true","Formal",""
"","","","","","psychophysics","279","630213","0.0-9.0-0.0-0.118","721","","j","","","","","","","","","","","","","key","j","16.668468468469097","768","428","./1_3_Stimuli/S_ambi40.png","他人","Word","他人","Match","j","true","Formal",""
"","","","","","psychophysics","280","631954","0.0-9.0-0.0-0.119","591","","f","","","","","","","","","","","","","key","f","16.668932038835177","768","428","./1_3_Stimuli/T_ambi40.png","他人","Image","朋友","Mismatch","f","true","Formal",""
"","","","","","html-keyboard-response","281","637079","0.0-9.0-1.0","5124","<style>.context{color:white; font-size: 35px; line-height:40px}</style>                        <div><p class='context'>您正确回答了88% 的试次。</p><p class='context'>您的平均反应时为658毫秒。</p><p> <div style = 'color: green'><按任意键进入休息></div></p>"," ","","","","","","","","","","","","","","","","","","","","","","","","","",""
"","","","","","html-button-response","282","679469","0.0-9.0-2.0","42386","
                  <p>您当前还剩余5组实验</p>
                  <p>现在是休息时间，当您结束休息后，您可以点击 结束休息 按钮 继续</p>
                  <p>建议休息时间还剩余<span id=""iii"">60</span>秒</p>","0","","","","","","","","","","","","","","","","","","","","","","","","","",""
"","","","","","psychophysics","283","681507","0.0-9.0-0.1-0.120","878","","j","","","","","","","","","","","","","key","j","16.668595041321545","768","428","./1_3_Stimuli/S_ambi40.png","他人","Image","他人","Match","j","true","Formal",""
"","","","","","psychophysics","284","683322","0.0-9.0-0.1-0.121","659","","j","","","","","","","","","","","","","key","j","16.671296296296298","768","428","./1_3_Stimuli/C_ambi40.png","自我","Word","自我","Match","j","true","Formal",""
"","","","","","psychophysics","285","685109","0.0-9.0-0.1-0.122","630","","j","","","","","","","","","","","","","key","j","16.667924528302326","768","428","./1_3_Stimuli/T_ambi40.png","朋友","Image","朋友","Match","j","true","Formal",""
"","","","","","psychophysics","286","686792","0.0-9.0-0.1-0.123","530","","f","","","","","","","","","","","","","key","f","16.66600000000093","768","428","./1_3_Stimuli/T_ambi40.png","朋友","Image","朋友","Match","j","false","Formal",""
"","","","","","psychophysics","287","688820","0.0-9.0-0.1-0.124","875","","f","","","","","","","","","","","","","key","f","16.668333333333916","768","428","./1_3_Stimuli/T_ambi40.png","他人","Word","朋友","Mismatch","f","true","Formal",""
"","","","","","psychophysics","288","690562","0.0-9.0-0.1-0.125","586","","f","","","","","","","","","","","","","key","f","16.667307692307915","768","428","./1_3_Stimuli/C_ambi40.png","朋友","Image","自我","Mismatch","f","true","Formal",""
"","","","","","psychophysics","289","692116","0.0-9.0-0.1-0.126","395","","j","","","","","","","","","","","","","key","j","16.66739130434808","768","428","./1_3_Stimuli/C_ambi40.png","自我","Image","自我","Match","j","true","Formal",""
"","","","","","psychophysics","290","694006","0.0-9.0-0.1-0.127","735","","f","","","","","","","","","","","","","key","f","16.666964285714908","768","428","./1_3_Stimuli/S_ambi40.png","朋友","Image","他人","Mismatch","f","true","Formal",""
"","","","","","psychophysics","291","695983","0.0-9.0-0.1-0.128","820","","j","","","","","","","","","","","","","key","j","16.66864406779681","768","428","./1_3_Stimuli/C_ambi40.png","他人","Image","自我","Mismatch","f","false","Formal",""
"","","","","","psychophysics","292","697898","0.0-9.0-0.1-0.129","755","","f","","","","","","","","","","","","","key","f","16.66754385964892","768","428","./1_3_Stimuli/S_ambi40.png","自我","Image","他人","Mismatch","f","true","Formal",""
"","","","","","psychophysics","293","699624","0.0-9.0-0.1-0.130","562","","j","","","","","","","","","","","","","key","j","16.666666666666668","768","428","./1_3_Stimuli/S_ambi40.png","他人","Image","他人","Match","j","true","Formal",""
"","","","","","psychophysics","294","701461","0.0-9.0-0.1-0.131","682","","f","","","","","","","","","","","","","key","f","16.667889908257308","768","428","./1_3_Stimuli/T_ambi40.png","自我","Word","朋友","Mismatch","f","true","Formal",""
"","","","","","psychophysics","295","703495","0.0-9.0-0.1-0.132","883","","j","","","","","","","","","","","","","key","j","16.669166666667056","768","428","./1_3_Stimuli/S_ambi40.png","他人","Word","他人","Match","j","true","Formal",""
"","","","","","psychophysics","296","705231","0.0-9.0-0.1-0.133","585","","f","","","","","","","","","","","","","key","f","16.668932038835177","768","428","./1_3_Stimuli/T_ambi40.png","他人","Image","朋友","Mismatch","f","true","Formal",""
"","","","","","psychophysics","297","707125","0.0-9.0-0.1-0.134","731","","j","","","","","","","","","","","","","key","j","16.66696428571387","768","428","./1_3_Stimuli/S_ambi40.png","他人","Word","他人","Match","j","true","Formal",""
"","","","","","psychophysics","298","708922","0.0-9.0-0.1-0.135","643","","j","","","","","","","","","","","","","key","j","16.6672897196253","768","428","./1_3_Stimuli/C_ambi40.png","自我","Word","自我","Match","j","true","Formal",""
"","","","","","psychophysics","299","710679","0.0-9.0-0.1-0.136","600","","j","","","","","","","","","","","","","key","j","16.667307692307915","768","428","./1_3_Stimuli/T_ambi40.png","朋友","Word","朋友","Match","j","true","Formal",""
"","","","","","psychophysics","300","712499","0.0-9.0-0.1-0.137","669","","f","","","","","","","","","","","","","key","f","16.669444444444874","768","428","./1_3_Stimuli/C_ambi40.png","他人","Word","自我","Mismatch","f","true","Formal",""
"","","","","","psychophysics","301","714579","0.0-9.0-0.1-0.138","929","","f","","","","","","","","","","","","","key","f","16.66747967479656","768","428","./1_3_Stimuli/S_ambi40.png","朋友","Word","他人","Mismatch","f","true","Formal",""
"","","","","","psychophysics","302","716505","0.0-9.0-0.1-0.139","775","","f","","","","","","","","","","","","","key","f","16.66842105263117","768","428","./1_3_Stimuli/T_ambi40.png","自我","Image","朋友","Mismatch","f","true","Formal",""
"","","","","","psychophysics","303","718366","0.0-9.0-0.1-0.140","702","","f","","","","","","","","","","","","","key","f","16.667567567567357","768","428","./1_3_Stimuli/C_ambi40.png","朋友","Word","自我","Mismatch","f","true","Formal",""
"","","","","","psychophysics","304","720168","0.0-9.0-0.1-0.141","644","","f","","","","","","","","","","","","","key","f","16.669158878504454","768","428","./1_3_Stimuli/S_ambi40.png","自我","Word","他人","Mismatch","f","true","Formal",""
"","","","","","psychophysics","305","721824","0.0-9.0-0.1-0.142","494","","j","","","","","","","","","","","","","key","j","16.667346938775747","768","428","./1_3_Stimuli/C_ambi40.png","自我","Image","自我","Match","j","true","Formal",""
"","","","","","psychophysics","306","723592","0.0-9.0-0.1-0.143","613","","j","","","","","","","","","","","","","key","j","16.667619047618825","768","428","./1_3_Stimuli/T_ambi40.png","朋友","Word","朋友","Match","j","true","Formal",""
"","","","","","psychophysics","307","725212","0.0-9.0-0.1-0.144","466","","f","","","","","","","","","","","","","key","f","16.667708333333092","768","428","./1_3_Stimuli/T_ambi40.png","他人","Word","朋友","Mismatch","f","true","Formal",""
"","","","","","psychophysics","308","726982","0.0-9.0-0.1-0.145","619","","f","","","","","","","","","","","","","key","f","16.665714285714508","768","428","./1_3_Stimuli/T_ambi40.png","他人","Image","朋友","Mismatch","f","true","Formal",""
"","","","","","psychophysics","309","728589","0.0-9.0-0.1-0.146","454","","j","","","","","","","","","","","","","key","j","16.667368421052878","768","428","./1_3_Stimuli/C_ambi40.png","自我","Word","自我","Match","j","true","Formal",""
"","","","","","psychophysics","310","730352","0.0-9.0-0.1-0.147","605","","f","","","","","","","","","","","","","key","f","16.667619047618825","768","428","./1_3_Stimuli/C_ambi40.png","他人","Word","自我","Mismatch","f","true","Formal",""
"","","","","","psychophysics","311","732162","0.0-9.0-0.1-0.148","650","","j","","","","","","","","","","","","","key","j","16.6672897196253","768","428","./1_3_Stimuli/S_ambi40.png","他人","Image","他人","Match","j","true","Formal",""
"","","","","","psychophysics","312","733862","0.0-9.0-0.1-0.149","549","","j","","","","","","","","","","","","","key","j","16.667326732673498","768","428","./1_3_Stimuli/S_ambi40.png","他人","Image","他人","Match","j","true","Formal",""
"","","","","","psychophysics","313","735434","0.0-9.0-0.1-0.150","420","","j","","","","","","","","","","","","","key","j","16.669148936170462","768","428","./1_3_Stimuli/C_ambi40.png","朋友","Image","自我","Mismatch","f","false","Formal",""
"","","","","","psychophysics","314","737435","0.0-9.0-0.1-0.151","838","","f","","","","","","","","","","","","","key","f","16.668907563025016","768","428","./1_3_Stimuli/T_ambi40.png","自我","Word","朋友","Mismatch","f","true","Formal",""
"","","","","","psychophysics","315","739353","0.0-9.0-0.1-0.152","757","","j","","","","","","","","","","","","","key","j","16.66754385964994","768","428","./1_3_Stimuli/T_ambi40.png","朋友","Image","朋友","Match","j","true","Formal",""
"","","","","","psychophysics","316","741170","0.0-9.0-0.1-0.153","656","","f","","","","","","","","","","","","","key","f","16.668518518518088","768","428","./1_3_Stimuli/C_ambi40.png","他人","Image","自我","Mismatch","f","true","Formal",""
"","","","","","psychophysics","317","742741","0.0-9.0-0.1-0.154","419","","j","","","","","","","","","","","","","key","j","16.66774193548362","768","428","./1_3_Stimuli/C_ambi40.png","自我","Image","自我","Match","j","true","Formal",""
"","","","","","psychophysics","318","744350","0.0-9.0-0.1-0.155","454","","f","","","","","","","","","","","","","key","f","16.668749999999516","768","428","./1_3_Stimuli/S_ambi40.png","他人","Word","他人","Match","j","false","Formal",""
"","","","","","psychophysics","319","745991","0.0-9.0-0.1-0.156","489","","j","","","","","","","","","","","","","key","j","16.668041237113883","768","428","./1_3_Stimuli/T_ambi40.png","朋友","Image","朋友","Match","j","true","Formal",""
"","","","","","psychophysics","320","747608","0.0-9.0-0.1-0.157","461","","j","","","","","","","","","","","","","key","j","16.667708333333092","768","428","./1_3_Stimuli/C_ambi40.png","自我","Word","自我","Match","j","true","Formal",""
"","","","","","psychophysics","321","749222","0.0-9.0-0.1-0.158","457","","f","","","","","","","","","","","","","key","f","16.667708333334303","768","428","./1_3_Stimuli/S_ambi40.png","他人","Word","他人","Match","j","false","Formal",""
"","","","","","psychophysics","322","751045","0.0-9.0-0.1-0.159","666","","f","","","","","","","","","","","","","key","f","16.667592592592378","768","428","./1_3_Stimuli/S_ambi40.png","自我","Image","他人","Mismatch","f","true","Formal",""
"","","","","","psychophysics","323","752682","0.0-9.0-0.1-0.160","484","","j","","","","","","","","","","","","","key","j","16.66701030927787","768","428","./1_3_Stimuli/C_ambi40.png","自我","Image","自我","Match","j","true","Formal",""
"","","","","","psychophysics","324","754731","0.0-9.0-0.1-0.161","889","","f","","","","","","","","","","","","","key","f","16.668032786885245","768","428","./1_3_Stimuli/S_ambi40.png","朋友","Image","他人","Mismatch","f","true","Formal",""
"","","","","","psychophysics","325","756639","0.0-9.0-0.1-0.162","757","","f","","","","","","","","","","","","","key","f","16.667256637168347","768","428","./1_3_Stimuli/S_ambi40.png","自我","Word","他人","Mismatch","f","true","Formal",""
"","","","","","psychophysics","326","758455","0.0-9.0-0.1-0.163","659","","f","","","","","","","","","","","","","key","f","16.667592592592378","768","428","./1_3_Stimuli/S_ambi40.png","朋友","Word","他人","Mismatch","f","true","Formal",""
"","","","","","psychophysics","327","760166","0.0-9.0-0.1-0.164","560","","j","","","","","","","","","","","","","key","j","16.667647058824443","768","428","./1_3_Stimuli/T_ambi40.png","朋友","Word","朋友","Match","j","true","Formal",""
"","","","","","psychophysics","328","761895","0.0-9.0-0.1-0.165","573","","f","","","","","","","","","","","","","key","f","16.667647058823302","768","428","./1_3_Stimuli/T_ambi40.png","自我","Image","朋友","Mismatch","f","true","Formal",""
"","","","","","psychophysics","329","763640","0.0-9.0-0.1-0.166","592","","j","","","","","","","","","","","","","key","j","16.667961165047867","768","428","./1_3_Stimuli/T_ambi40.png","朋友","Word","朋友","Match","j","true","Formal",""
"","","","","","psychophysics","330","765389","0.0-9.0-0.1-0.167","590","","j","","","","","","","","","","","","","key","j","16.667307692307915","768","428","./1_3_Stimuli/C_ambi40.png","朋友","Word","自我","Mismatch","f","false","Formal",""
"","","","","","psychophysics","331","767157","0.0-9.0-0.1-0.168","609","","j","","","","","","","","","","","","","key","j","16.67047619047641","768","428","./1_3_Stimuli/T_ambi40.png","朋友","Word","朋友","Match","j","true","Formal",""
"","","","","","psychophysics","332","768794","0.0-9.0-0.1-0.169","479","","j","","","","","","","","","","","","","key","j","16.668041237113883","768","428","./1_3_Stimuli/T_ambi40.png","朋友","Image","朋友","Match","j","true","Formal",""
"","","","","","psychophysics","333","770487","0.0-9.0-0.1-0.170","538","","j","","","","","","","","","","","","","key","j","16.667326732673498","768","428","./1_3_Stimuli/S_ambi40.png","他人","Image","他人","Match","j","true","Formal",""
"","","","","","psychophysics","334","772157","0.0-9.0-0.1-0.171","508","","f","","","","","","","","","","","","","key","f","16.66969696969744","768","428","./1_3_Stimuli/S_ambi40.png","自我","Image","他人","Mismatch","f","true","Formal",""
"","","","","","psychophysics","335","773984","0.0-9.0-0.1-0.172","676","","f","","","","","","","","","","","","","key","f","16.666972477063794","768","428","./1_3_Stimuli/S_ambi40.png","朋友","Image","他人","Mismatch","f","true","Formal",""
"","","","","","psychophysics","336","776015","0.0-9.0-0.1-0.173","875","","f","","","","","","","","","","","","","key","f","16.668333333333916","768","428","./1_3_Stimuli/T_ambi40.png","自我","Word","朋友","Mismatch","f","true","Formal",""
"","","","","","psychophysics","337","777771","0.0-9.0-0.1-0.174","605","","j","","","","","","","","","","","","","key","j","16.667307692306796","768","428","./1_3_Stimuli/T_ambi40.png","朋友","Word","朋友","Match","j","true","Formal",""
"","","","","","psychophysics","338","779580","0.0-9.0-0.1-0.175","650","","f","","","","","","","","","","","","","key","f","16.66822429906542","768","428","./1_3_Stimuli/T_ambi40.png","自我","Image","朋友","Mismatch","f","true","Formal",""
"","","","","","psychophysics","339","781452","0.0-9.0-0.1-0.176","719","","f","","","","","","","","","","","","","key","f","16.669642857142858","768","428","./1_3_Stimuli/C_ambi40.png","他人","Word","自我","Mismatch","f","true","Formal",""
"","","","","","psychophysics","340","783052","0.0-9.0-0.1-0.177","436","","j","","","","","","","","","","","","","key","j","16.670526315788983","768","428","./1_3_Stimuli/C_ambi40.png","朋友","Image","自我","Mismatch","f","false","Formal",""
"","","","","","psychophysics","341","784749","0.0-9.0-0.1-0.178","543","","j","","","","","","","","","","","","","key","j","16.665","768","428","./1_3_Stimuli/C_ambi40.png","自我","Image","自我","Match","j","true","Formal",""
"","","","","","psychophysics","342","786372","0.0-9.0-0.1-0.179","472","","j","","","","","","","","","","","","","key","j","16.667708333333092","768","428","./1_3_Stimuli/C_ambi40.png","自我","Word","自我","Match","j","true","Formal",""
"","","","","","psychophysics","343","788115","0.0-9.0-0.1-0.180","582","","f","","","","","","","","","","","","","key","f","16.667961165047867","768","428","./1_3_Stimuli/C_ambi40.png","自我","Image","自我","Match","j","false","Formal",""
"","","","","","psychophysics","344","790057","0.0-9.0-0.1-0.181","790","","f","","","","","","","","","","","","","key","f","16.669565217391305","768","428","./1_3_Stimuli/T_ambi40.png","他人","Image","朋友","Mismatch","f","true","Formal",""
"","","","","","psychophysics","345","791893","0.0-9.0-0.1-0.182","682","","f","","","","","","","","","","","","","key","f","16.666972477063794","768","428","./1_3_Stimuli/S_ambi40.png","朋友","Word","他人","Mismatch","f","true","Formal",""
"","","","","","psychophysics","346","793784","0.0-9.0-0.1-0.183","734","","j","","","","","","","","","","","","","key","j","16.668141592920353","768","428","./1_3_Stimuli/C_ambi40.png","朋友","Word","自我","Mismatch","f","false","Formal",""
"","","","","","psychophysics","347","795678","0.0-9.0-0.1-0.184","735","","f","","","","","","","","","","","","","key","f","16.66607142857122","768","428","./1_3_Stimuli/T_ambi40.png","朋友","Image","朋友","Match","j","false","Formal",""
"","","","","","psychophysics","348","797497","0.0-9.0-0.1-0.185","664","","f","","","","","","","","","","","","","key","f","16.667592592592378","768","428","./1_3_Stimuli/S_ambi40.png","自我","Word","他人","Mismatch","f","true","Formal",""
"","","","","","psychophysics","349","799242","0.0-9.0-0.1-0.186","592","","j","","","","","","","","","","","","","key","j","16.667307692307915","768","428","./1_3_Stimuli/S_ambi40.png","他人","Word","他人","Match","j","true","Formal",""
"","","","","","psychophysics","350","800960","0.0-9.0-0.1-0.187","567","","f","","","","","","","","","","","","","key","f","16.666666666666668","768","428","./1_3_Stimuli/C_ambi40.png","他人","Image","自我","Mismatch","f","true","Formal",""
"","","","","","psychophysics","351","802826","0.0-9.0-0.1-0.188","711","","j","","","","","","","","","","","","","key","j","16.667567567567357","768","428","./1_3_Stimuli/S_ambi40.png","他人","Word","他人","Match","j","true","Formal",""
"","","","","","psychophysics","352","804515","0.0-9.0-0.1-0.189","531","","j","","","","","","","","","","","","","key","j","16.668000000000465","768","428","./1_3_Stimuli/S_ambi40.png","他人","Image","他人","Match","j","true","Formal",""
"","","","","","psychophysics","353","806126","0.0-9.0-0.1-0.190","459","","f","","","","","","","","","","","","","key","f","16.667368421052878","768","428","./1_3_Stimuli/T_ambi40.png","他人","Word","朋友","Mismatch","f","true","Formal",""
"","","","","","psychophysics","354","807811","0.0-9.0-0.1-0.191","532","","j","","","","","","","","","","","","","key","j","16.666999999999533","768","428","./1_3_Stimuli/C_ambi40.png","自我","Word","自我","Match","j","true","Formal",""
"","","","","","psychophysics","355","809464","0.0-9.0-0.1-0.192","497","","f","","","","","","","","","","","","","key","f","16.669387755102992","768","428","./1_3_Stimuli/C_ambi40.png","他人","Image","自我","Mismatch","f","true","Formal",""
"","","","","","psychophysics","356","811386","0.0-9.0-0.1-0.193","768","","f","","","","","","","","","","","","","key","f","16.66754385964892","768","428","./1_3_Stimuli/T_ambi40.png","自我","Image","朋友","Mismatch","f","true","Formal",""
"","","","","","psychophysics","357","813462","0.0-9.0-0.1-0.194","913","","f","","","","","","","","","","","","","key","f","16.668292682927397","768","428","./1_3_Stimuli/T_ambi40.png","他人","Word","朋友","Mismatch","f","true","Formal",""
"","","","","","psychophysics","358","815201","0.0-9.0-0.1-0.195","583","","j","","","","","","","","","","","","","key","j","16.668932038835177","768","428","./1_3_Stimuli/C_ambi40.png","自我","Word","自我","Match","j","true","Formal",""
"","","","","","psychophysics","359","817003","0.0-9.0-0.1-0.196","651","","j","","","","","","","","","","","","","key","j","16.66822429906542","768","428","./1_3_Stimuli/S_ambi40.png","他人","Image","他人","Match","j","true","Formal",""
"","","","","","psychophysics","360","818802","0.0-9.0-0.1-0.197","641","","f","","","","","","","","","","","","","key","f","16.667289719626385","768","428","./1_3_Stimuli/C_ambi40.png","朋友","Image","自我","Mismatch","f","true","Formal",""
"","","","","","psychophysics","361","820745","0.0-9.0-0.1-0.198","778","","f","","","","","","","","","","","","","key","f","16.667826086956925","768","428","./1_3_Stimuli/S_ambi40.png","朋友","Image","他人","Mismatch","f","true","Formal",""
"","","","","","psychophysics","362","822515","0.0-9.0-0.1-0.199","614","","j","","","","","","","","","","","","","key","j","16.667619047619933","768","428","./1_3_Stimuli/T_ambi40.png","朋友","Word","朋友","Match","j","true","Formal",""
"","","","","","psychophysics","363","824210","0.0-9.0-0.1-0.200","542","","f","","","","","","","","","","","","","key","f","16.668316831683168","768","428","./1_3_Stimuli/T_ambi40.png","自我","Word","朋友","Mismatch","f","true","Formal",""
"","","","","","psychophysics","364","826135","0.0-9.0-0.1-0.201","775","","f","","","","","","","","","","","","","key","f","16.667826086956925","768","428","./1_3_Stimuli/C_ambi40.png","他人","Word","自我","Mismatch","f","true","Formal",""
"","","","","","psychophysics","365","827913","0.0-9.0-0.1-0.202","616","","j","","","","","","","","","","","","","key","j","16.668571428570985","768","428","./1_3_Stimuli/S_ambi40.png","他人","Image","他人","Match","j","true","Formal",""
"","","","","","psychophysics","366","829641","0.0-9.0-0.1-0.203","572","","f","","","","","","","","","","","","","key","f","16.667961165048997","768","428","./1_3_Stimuli/C_ambi40.png","朋友","Word","自我","Mismatch","f","true","Formal",""
"","","","","","psychophysics","367","831440","0.0-9.0-0.1-0.204","646","","j","","","","","","","","","","","","","key","j","16.66822429906542","768","428","./1_3_Stimuli/S_ambi40.png","自我","Image","他人","Mismatch","f","false","Formal",""
"","","","","","psychophysics","368","833229","0.0-9.0-0.1-0.205","628","","f","","","","","","","","","","","","","key","f","16.667924528302326","768","428","./1_3_Stimuli/S_ambi40.png","自我","Word","他人","Mismatch","f","true","Formal",""
"","","","","","psychophysics","369","835091","0.0-9.0-0.1-0.206","705","","j","","","","","","","","","","","","","key","j","16.668468468469097","768","428","./1_3_Stimuli/S_ambi40.png","他人","Word","他人","Match","j","true","Formal",""
"","","","","","psychophysics","370","836899","0.0-9.0-0.1-0.207","646","","f","","","","","","","","","","","","","key","f","16.669158878504454","768","428","./1_3_Stimuli/T_ambi40.png","他人","Image","朋友","Mismatch","f","true","Formal",""
"","","","","","psychophysics","371","838682","0.0-9.0-0.1-0.208","630","","f","","","","","","","","","","","","","key","f","16.666666666666668","768","428","./1_3_Stimuli/S_ambi40.png","朋友","Word","他人","Mismatch","f","true","Formal",""
"","","","","","psychophysics","372","840502","0.0-9.0-0.1-0.209","666","","j","","","","","","","","","","","","","key","j","16.666666666666668","768","428","./1_3_Stimuli/S_ambi40.png","他人","Word","他人","Match","j","true","Formal",""
"","","","","","psychophysics","373","842250","0.0-9.0-0.1-0.210","598","","f","","","","","","","","","","","","","key","f","16.66504854368932","768","428","./1_3_Stimuli/T_ambi40.png","朋友","Image","朋友","Match","j","false","Formal",""
"","","","","","psychophysics","374","843899","0.0-9.0-0.1-0.211","497","","j","","","","","","","","","","","","","key","j","16.66701030927787","768","428","./1_3_Stimuli/C_ambi40.png","自我","Image","自我","Match","j","true","Formal",""
"","","","","","psychophysics","375","845545","0.0-9.0-0.1-0.212","493","","f","","","","","","","","","","","","","key","f","16.668367346938776","768","428","./1_3_Stimuli/T_ambi40.png","朋友","Image","朋友","Match","j","false","Formal",""
"","","","","","psychophysics","376","847300","0.0-9.0-0.1-0.213","598","","j","","","","","","","","","","","","","key","j","16.667307692307915","768","428","./1_3_Stimuli/C_ambi40.png","自我","Word","自我","Match","j","true","Formal",""
"","","","","","psychophysics","377","848897","0.0-9.0-0.1-0.214","444","","j","","","","","","","","","","","","","key","j","16.667021276596486","768","428","./1_3_Stimuli/T_ambi40.png","朋友","Word","朋友","Match","j","true","Formal",""
"","","","","","psychophysics","378","850728","0.0-9.0-0.1-0.215","675","","j","","","","","","","","","","","","","key","j","16.667889908257308","768","428","./1_3_Stimuli/C_ambi40.png","自我","Image","自我","Match","j","true","Formal",""
"","","","","","psychophysics","379","852355","0.0-9.0-0.1-0.216","469","","f","","","","","","","","","","","","","key","f","16.66701030927907","768","428","./1_3_Stimuli/T_ambi40.png","自我","Word","朋友","Mismatch","f","true","Formal",""
"","","","","","psychophysics","380","854217","0.0-9.0-0.1-0.217","706","","j","","","","","","","","","","","","","key","j","16.667272727272938","768","428","./1_3_Stimuli/T_ambi40.png","他人","Word","朋友","Mismatch","f","false","Formal",""
"","","","","","psychophysics","381","856027","0.0-9.0-0.1-0.218","657","","j","","","","","","","","","","","","","key","j","16.667592592592378","768","428","./1_3_Stimuli/S_ambi40.png","他人","Word","他人","Match","j","true","Formal",""
"","","","","","psychophysics","382","857708","0.0-9.0-0.1-0.219","528","","j","","","","","","","","","","","","","key","j","16.667999999999303","768","428","./1_3_Stimuli/C_ambi40.png","自我","Word","自我","Match","j","true","Formal",""
"","","","","","psychophysics","383","859380","0.0-9.0-0.1-0.220","511","","f","","","","","","","","","","","","","key","f","16.665656565655624","768","428","./1_3_Stimuli/C_ambi40.png","他人","Image","自我","Mismatch","f","true","Formal",""
"","","","","","psychophysics","384","861137","0.0-9.0-0.1-0.221","601","","j","","","","","","","","","","","","","key","j","16.666666666666668","768","428","./1_3_Stimuli/S_ambi40.png","他人","Word","他人","Match","j","true","Formal",""
"","","","","","psychophysics","385","862784","0.0-9.0-0.1-0.222","496","","j","","","","","","","","","","","","","key","j","16.66701030927787","768","428","./1_3_Stimuli/S_ambi40.png","他人","Image","他人","Match","j","true","Formal",""
"","","","","","psychophysics","386","864383","0.0-9.0-0.1-0.223","446","","f","","","","","","","","","","","","","key","f","16.66702127659525","768","428","./1_3_Stimuli/T_ambi40.png","自我","Image","朋友","Mismatch","f","true","Formal",""
"","","","","","psychophysics","387","865985","0.0-9.0-0.1-0.224","448","","j","","","","","","","","","","","","","key","j","16.66842105263158","768","428","./1_3_Stimuli/T_ambi40.png","朋友","Image","朋友","Match","j","true","Formal",""
"","","","","","psychophysics","388","867686","0.0-9.0-0.1-0.225","549","","f","","","","","","","","","","","","","key","f","16.669306930692837","768","428","./1_3_Stimuli/S_ambi40.png","朋友","Image","他人","Mismatch","f","true","Formal",""
"","","","","","psychophysics","389","869578","0.0-9.0-0.1-0.226","741","","f","","","","","","","","","","","","","key","f","16.666964285714908","768","428","./1_3_Stimuli/S_ambi40.png","自我","Image","他人","Mismatch","f","true","Formal",""
"","","","","","psychophysics","390","871536","0.0-9.0-0.1-0.227","799","","f","","","","","","","","","","","","","key","f","16.66896551724118","768","428","./1_3_Stimuli/S_ambi40.png","朋友","Word","他人","Mismatch","f","true","Formal",""
"","","","","","psychophysics","391","873451","0.0-9.0-0.1-0.228","764","","f","","","","","","","","","","","","","key","f","16.66754385964892","768","428","./1_3_Stimuli/C_ambi40.png","他人","Word","自我","Mismatch","f","true","Formal",""
"","","","","","psychophysics","392","875084","0.0-9.0-0.1-0.229","480","","j","","","","","","","","","","","","","key","j","16.666666666666668","768","428","./1_3_Stimuli/C_ambi40.png","自我","Image","自我","Match","j","true","Formal",""
"","","","","","psychophysics","393","876786","0.0-9.0-0.1-0.230","549","","j","","","","","","","","","","","","","key","j","16.667326732672347","768","428","./1_3_Stimuli/T_ambi40.png","朋友","Word","朋友","Match","j","true","Formal",""
"","","","","","psychophysics","394","878463","0.0-9.0-0.1-0.231","525","","f","","","","","","","","","","","","","key","f","16.667676767676532","768","428","./1_3_Stimuli/T_ambi40.png","他人","Image","朋友","Mismatch","f","true","Formal",""
"","","","","","psychophysics","395","880169","0.0-9.0-0.1-0.232","548","","j","","","","","","","","","","","","","key","j","16.667326732672347","768","428","./1_3_Stimuli/T_ambi40.png","朋友","Image","朋友","Match","j","true","Formal",""
"","","","","","psychophysics","396","881850","0.0-9.0-0.1-0.233","529","","j","","","","","","","","","","","","","key","j","16.667999999999303","768","428","./1_3_Stimuli/C_ambi40.png","自我","Image","自我","Match","j","true","Formal",""
"","","","","","psychophysics","397","883528","0.0-9.0-0.1-0.234","523","","j","","","","","","","","","","","","","key","j","16.666999999999533","768","428","./1_3_Stimuli/S_ambi40.png","他人","Image","他人","Match","j","true","Formal",""
"","","","","","psychophysics","398","885324","0.0-9.0-0.1-0.235","643","","f","","","","","","","","","","","","","key","f","16.670093457944578","768","428","./1_3_Stimuli/C_ambi40.png","朋友","Word","自我","Mismatch","f","true","Formal",""
"","","","","","psychophysics","399","887099","0.0-9.0-0.1-0.236","621","","f","","","","","","","","","","","","","key","f","16.669523809524254","768","428","./1_3_Stimuli/C_ambi40.png","朋友","Image","自我","Mismatch","f","true","Formal",""
"","","","","","psychophysics","400","888711","0.0-9.0-0.1-0.237","459","","j","","","","","","","","","","","","","key","j","16.66979166666715","768","428","./1_3_Stimuli/C_ambi40.png","自我","Word","自我","Match","j","true","Formal",""
"","","","","","psychophysics","401","890431","0.0-9.0-0.1-0.238","567","","f","","","","","","","","","","","","","key","f","16.667647058823302","768","428","./1_3_Stimuli/S_ambi40.png","自我","Word","他人","Mismatch","f","true","Formal",""
"","","","","","psychophysics","402","892218","0.0-9.0-0.1-0.239","635","","j","","","","","","","","","","","","","key","j","16.66886792452852","768","428","./1_3_Stimuli/T_ambi40.png","朋友","Word","朋友","Match","j","true","Formal",""
"","","","","","html-keyboard-response","403","898554","0.0-9.0-1.1","6335","<style>.context{color:white; font-size: 35px; line-height:40px}</style>                        <div><p class='context'>您正确回答了88% 的试次。</p><p class='context'>您的平均反应时为622毫秒。</p><p> <div style = 'color: green'><按任意键进入休息></div></p>"," ","","","","","","","","","","","","","","","","","","","","","","","","","",""
"","","","","","html-button-response","404","905304","0.0-9.0-2.1","6747","
                  <p>您当前还剩余4组实验</p>
                  <p>现在是休息时间，当您结束休息后，您可以点击 结束休息 按钮 继续</p>
                  <p>建议休息时间还剩余<span id=""iii"">60</span>秒</p>","0","","","","","","","","","","","","","","","","","","","","","","","","","",""
"","","","","","psychophysics","405","907553","0.0-9.0-0.2-0.240","1097","","j","","","","","","","","","","","","","key","j","16.664925373135024","768","428","./1_3_Stimuli/T_ambi40.png","朋友","Image","朋友","Match","j","true","Formal",""
"","","","","","psychophysics","406","909436","0.0-9.0-0.2-0.241","730","","f","","","","","","","","","","","","","key","f","16.668468468469097","768","428","./1_3_Stimuli/C_ambi40.png","他人","Image","自我","Mismatch","f","true","Formal",""
"","","","","","psychophysics","407","911066","0.0-9.0-0.2-0.242","476","","j","","","","","","","","","","","","","key","j","16.66597938144306","768","428","./1_3_Stimuli/T_ambi40.png","朋友","Word","朋友","Match","j","true","Formal",""
"","","","","","psychophysics","408","912801","0.0-9.0-0.2-0.243","578","","f","","","","","","","","","","","","","key","f","16.668932038835177","768","428","./1_3_Stimuli/C_ambi40.png","朋友","Image","自我","Mismatch","f","true","Formal",""
"","","","","","psychophysics","409","914595","0.0-9.0-0.2-0.244","638","","j","","","","","","","","","","","","","key","j","16.667289719626385","768","428","./1_3_Stimuli/T_ambi40.png","朋友","Word","朋友","Match","j","true","Formal",""
"","","","","","psychophysics","410","916169","0.0-9.0-0.2-0.245","412","","j","","","","","","","","","","","","","key","j","16.668817204300574","768","428","./1_3_Stimuli/C_ambi40.png","自我","Image","自我","Match","j","true","Formal",""
"","","","","","psychophysics","411","917806","0.0-9.0-0.2-0.246","483","","f","","","","","","","","","","","","","key","f","16.670103092783506","768","428","./1_3_Stimuli/S_ambi40.png","朋友","Word","他人","Mismatch","f","true","Formal",""
"","","","","","psychophysics","412","919682","0.0-9.0-0.2-0.247","725","","f","","","","","","","","","","","","","key","f","16.666666666666668","768","428","./1_3_Stimuli/T_ambi40.png","自我","Image","朋友","Mismatch","f","true","Formal",""
"","","","","","psychophysics","413","921412","0.0-9.0-0.2-0.248","575","","j","","","","","","","","","","","","","key","j","16.666990291261683","768","428","./1_3_Stimuli/S_ambi40.png","他人","Image","他人","Match","j","true","Formal",""
"","","","","","psychophysics","414","923179","0.0-9.0-0.2-0.249","613","","f","","","","","","","","","","","","","key","f","16.667619047618825","768","428","./1_3_Stimuli/T_ambi40.png","他人","Image","朋友","Mismatch","f","true","Formal",""
"","","","","","psychophysics","415","924964","0.0-9.0-0.2-0.250","624","","f","","","","","","","","","","","","","key","f","16.667924528302326","768","428","./1_3_Stimuli/S_ambi40.png","自我","Word","他人","Mismatch","f","true","Formal",""
"","","","","","psychophysics","416","926594","0.0-9.0-0.2-0.251","470","","f","","","","","","","","","","","","","key","f","16.669072164948695","768","428","./1_3_Stimuli/S_ambi40.png","他人","Image","他人","Match","j","false","Formal",""
