"success","timeout","failed_images","failed_audio","failed_video","trial_type","trial_index","time_elapsed","internal_node_id","rt","stimulus","response","value","item_width_mm","item_height_mm","item_width_px","px2mm","view_dist_mm","item_width_deg","px2deg","scale_factor","win_width_deg","win_height_deg","view_history","response_type","key_press","avg_frame_time","center_x","center_y","image","word","target","valence","matchness","correct_response","correct","exp_condition","question_order"
"true","false","[]","[]","[]","preload","0","6","0.0-0.0","","","","","","","","","","","","","","","","","","","","","","","","","","","","",""
"","","","","","html-keyboard-response","1","3149","0.0-1.0","3142","
     <p>您好，欢迎参加本次实验。</p>
     <p>为充分保障您的权利，请确保您已经知晓并同意《参与实验同意书》以及《数据公开知情同意书》。</p>
     <p>如果您未见过上述内容，请咨询实验员。</p>
     <p>如果您选择继续实验，则表示您已经清楚两份知情同意书的内容并同意。</p>
     <p> <div style = ""color: green""><按任意键至下页></div> </p>
     ","arrowdown","","","","","","","","","","","","","","","","","","","","","","","","","",""
"","","","","","html-keyboard-response","2","4336","0.0-2.0-0.0","1186","
      <p>本实验首先需要您填写一些基本个人信息。</p>
      <p> <div style = ""color: green""><按任意键至下页></div></p>
      ","arrowdown","","","","","","","","","","","","","","","","","","","","","","","","","",""
"","","","","","call-function","3","4336","0.0-2.0-1.0","","","","","","","","","","","","","","","","","","","","","","","","","","","","",""
"","","","","","survey-html-form","4","8497","0.0-2.0-2.0","4159","","{""Q0"":""1025""}","","","","","","","","","","","","","","","","","","","","","","","","","",""
"","","","","","html-button-response","5","13856","0.0-2.0-3.0","5358","<p style = 'color : white'>您的性别</p>","0","","","","","","","","","","","","","","","","","","","","","","","","","",""
"","","","","","survey-html-form","6","22898","0.0-2.0-4.0","9041","","{""Q0"":""2002""}","","","","","","","","","","","","","","","","","","","","","","","","","",""
"","","","","","survey-html-form","7","25360","0.0-2.0-5.0","2461","","{""Q0"":""5""}","","","","","","","","","","","","","","","","","","","","","","","","","",""
"","","","","","virtual-chinrest","8","62293","0.0-3.0","36933","","","","85.6","53.98","386.6860957205781","4.518230583686969","633.21","7.733721914411562","50","0.9671927802396465","25.6","12.78","","","","","","","","","","","","","","",""
"true","","","","","fullscreen","9","65139","0.0-4.0","","","","","","","","","","","","","","","","","","","","","","","","","","","","",""
"","","","","","instructions","10","98675","0.0-5.0","33535","","","","","","","","","","","","","","[{""page_index"":0,""viewing_time"":2466},{""page_index"":1,""viewing_time"":18643},{""page_index"":2,""viewing_time"":10088},{""page_index"":3,""viewing_time"":2337}]","","","","","","","","","","","","","",""
"","","","","","html-keyboard-response","11","102328","0.0-6.0","null","<count-down title=""""></count-down>","null","","","","","","","","","","","","","","","","","","","","","","","","","",""
"","","","","","psychophysics","12","104423","0.0-7.0-0.0-0.0","936","","j","","","","","","","","","","","","","key","j","16.668800000000047","640","396","./1_3_Stimuli/S_ambi40.png","朋友","Image","朋友","Match","j","true","Practice",""
"","","","","","html-keyboard-response","13","104736","0.0-7.0-0.0-1.0","null","<span style='color:GreenYellow; font-size: 70px;'>正确! </span>","null","","","","","","","","","","","","","","","","","","","","","","","","","feedback",""
"","","","","","psychophysics","14","106761","0.0-7.0-0.0-0.1","874","","f","","","","","","","","","","","","","key","f","16.669421487603305","640","396","./1_3_Stimuli/T_ambi40.png","朋友","Image","自我","Mismatch","f","true","Practice",""
"","","","","","html-keyboard-response","15","107071","0.0-7.0-0.0-1.1","null","<span style='color:GreenYellow; font-size: 70px;'>正确! </span>","null","","","","","","","","","","","","","","","","","","","","","","","","","feedback",""
"","","","","","psychophysics","16","109055","0.0-7.0-0.0-0.2","823","","f","","","","","","","","","","","","","key","f","16.66864406779656","640","396","./1_3_Stimuli/C_ambi40.png","朋友","Image","他人","Mismatch","f","true","Practice",""
"","","","","","html-keyboard-response","17","109362","0.0-7.0-0.0-1.2","null","<span style='color:GreenYellow; font-size: 70px;'>正确! </span>","null","","","","","","","","","","","","","","","","","","","","","","","","","feedback",""
"","","","","","psychophysics","18","111475","0.0-7.0-0.0-0.3","950","","f","","","","","","","","","","","","","key","f","16.66825396825406","640","396","./1_3_Stimuli/T_ambi40.png","他人","Image","自我","Mismatch","f","true","Practice",""
"","","","","","html-keyboard-response","19","111783","0.0-7.0-0.0-1.3","null","<span style='color:GreenYellow; font-size: 70px;'>正确! </span>","null","","","","","","","","","","","","","","","","","","","","","","","","","feedback",""
"","","","","","psychophysics","20","113686","0.0-7.0-0.0-0.4","745","","j","","","","","","","","","","","","","key","j","16.668141592920353","640","396","./1_3_Stimuli/T_ambi40.png","自我","Image","自我","Match","j","true","Practice",""
"","","","","","html-keyboard-response","21","113991","0.0-7.0-0.0-1.4","null","<span style='color:GreenYellow; font-size: 70px;'>正确! </span>","null","","","","","","","","","","","","","","","","","","","","","","","","","feedback",""
"","","","","","psychophysics","22","115760","0.0-7.0-0.0-0.5","605","","f","","","","","","","","","","","","","key","f","16.6676190476191","640","396","./1_3_Stimuli/C_ambi40.png","朋友","Word","他人","Mismatch","f","true","Practice",""
"","","","","","html-keyboard-response","23","116062","0.0-7.0-0.0-1.5","null","<span style='color:GreenYellow; font-size: 70px;'>正确! </span>","null","","","","","","","","","","","","","","","","","","","","","","","","","feedback",""
"","","","","","psychophysics","24","118096","0.0-7.0-0.0-0.6","873","","f","","","","","","","","","","","","","key","f","16.668595041322387","640","396","./1_3_Stimuli/C_ambi40.png","自我","Image","他人","Mismatch","f","true","Practice",""
"","","","","","html-keyboard-response","25","118406","0.0-7.0-0.0-1.6","null","<span style='color:GreenYellow; font-size: 70px;'>正确! </span>","null","","","","","","","","","","","","","","","","","","","","","","","","","feedback",""
"","","","","","psychophysics","26","120022","0.0-7.0-0.0-0.7","465","","f","","","","","","","","","","","","","key","f","16.67052631578944","640","396","./1_3_Stimuli/S_ambi40.png","朋友","Word","朋友","Match","j","false","Practice",""
"","","","","","html-keyboard-response","27","120335","0.0-7.0-0.0-1.7","null","<span style='color:red; font-size: 70px;'>错误! </span>","null","","","","","","","","","","","","","","","","","","","","","","","","","feedback",""
"","","","","","psychophysics","28","122254","0.0-7.0-0.0-0.8","765","","j","","","","","","","","","","","","","key","j","16.67105263157895","640","396","./1_3_Stimuli/S_ambi40.png","他人","Word","朋友","Mismatch","f","false","Practice",""
"","","","","","html-keyboard-response","29","122556","0.0-7.0-0.0-1.8","null","<span style='color:red; font-size: 70px;'>错误! </span>","null","","","","","","","","","","","","","","","","","","","","","","","","","feedback",""
"","","","","","psychophysics","30","124416","0.0-7.0-0.0-0.9","709","","f","","","","","","","","","","","","","key","f","16.667272727272806","640","396","./1_3_Stimuli/C_ambi40.png","自我","Word","他人","Mismatch","f","true","Practice",""
"","","","","","html-keyboard-response","31","124717","0.0-7.0-0.0-1.9","null","<span style='color:GreenYellow; font-size: 70px;'>正确! </span>","null","","","","","","","","","","","","","","","","","","","","","","","","","feedback",""
"","","","","","psychophysics","32","126527","0.0-7.0-0.0-0.10","654","","f","","","","","","","","","","","","","key","f","16.669444444444473","640","396","./1_3_Stimuli/S_ambi40.png","自我","Word","朋友","Mismatch","f","true","Practice",""
"","","","","","html-keyboard-response","33","126829","0.0-7.0-0.0-1.10","null","<span style='color:GreenYellow; font-size: 70px;'>正确! </span>","null","","","","","","","","","","","","","","","","","","","","","","","","","feedback",""
"","","","","","psychophysics","34","129047","0.0-7.0-0.0-0.11","1066","","j","","","","","","","","","","","","","key","j","16.666666666666668","640","396","./1_3_Stimuli/S_ambi40.png","朋友","Image","朋友","Match","j","true","Practice",""
"","","","","","html-keyboard-response","35","129350","0.0-7.0-0.0-1.11","null","<span style='color:GreenYellow; font-size: 70px;'>正确! </span>","null","","","","","","","","","","","","","","","","","","","","","","","","","feedback",""
"","","","","","psychophysics","36","131340","0.0-7.0-0.0-0.12","833","","f","","","","","","","","","","","","","key","f","16.668644067796684","640","396","./1_3_Stimuli/T_ambi40.png","自我","Word","自我","Match","j","false","Practice",""
"","","","","","html-keyboard-response","37","131651","0.0-7.0-0.0-1.12","null","<span style='color:red; font-size: 70px;'>错误! </span>","null","","","","","","","","","","","","","","","","","","","","","","","","","feedback",""
"","","","","","psychophysics","38","133490","0.0-7.0-0.0-0.13","683","","f","","","","","","","","","","","","","key","f","16.670642201834916","640","396","./1_3_Stimuli/T_ambi40.png","朋友","Word","自我","Mismatch","f","true","Practice",""
"","","","","","html-keyboard-response","39","133792","0.0-7.0-0.0-1.13","null","<span style='color:GreenYellow; font-size: 70px;'>正确! </span>","null","","","","","","","","","","","","","","","","","","","","","","","","","feedback",""
"","","","","","psychophysics","40","136067","0.0-7.0-0.0-0.14","1111","","f","","","","","","","","","","","","","key","f","16.668148148148234","640","396","./1_3_Stimuli/C_ambi40.png","他人","Image","他人","Match","j","false","Practice",""
"","","","","","html-keyboard-response","41","136374","0.0-7.0-0.0-1.14","null","<span style='color:red; font-size: 70px;'>错误! </span>","null","","","","","","","","","","","","","","","","","","","","","","","","","feedback",""
"","","","","","psychophysics","42","138239","0.0-7.0-0.0-0.15","715","","j","","","","","","","","","","","","","key","j","16.669999999999842","640","396","./1_3_Stimuli/C_ambi40.png","他人","Image","他人","Match","j","true","Practice",""
"","","","","","html-keyboard-response","43","138545","0.0-7.0-0.0-1.15","null","<span style='color:GreenYellow; font-size: 70px;'>正确! </span>","null","","","","","","","","","","","","","","","","","","","","","","","","","feedback",""
"","","","","","psychophysics","44","140684","0.0-7.0-0.0-0.16","984","","j","","","","","","","","","","","","","key","j","16.668503937007827","640","396","./1_3_Stimuli/T_ambi40.png","自我","Image","自我","Match","j","true","Practice",""
"","","","","","html-keyboard-response","45","140989","0.0-7.0-0.0-1.16","null","<span style='color:GreenYellow; font-size: 70px;'>正确! </span>","null","","","","","","","","","","","","","","","","","","","","","","","","","feedback",""
"","","","","","psychophysics","46","143340","0.0-7.0-0.0-0.17","1199","","f","","","","","","","","","","","","","key","f","16.667857142857144","640","396","./1_3_Stimuli/S_ambi40.png","他人","Image","朋友","Mismatch","f","true","Practice",""
"","","","","","html-keyboard-response","47","143646","0.0-7.0-0.0-1.17","null","<span style='color:GreenYellow; font-size: 70px;'>正确! </span>","null","","","","","","","","","","","","","","","","","","","","","","","","","feedback",""
"","","","","","psychophysics","48","145568","0.0-7.0-0.0-0.18","759","","f","","","","","","","","","","","","","key","f","16.66578947368416","640","396","./1_3_Stimuli/C_ambi40.png","他人","Word","他人","Match","j","false","Practice",""
"","","","","","html-keyboard-response","49","145869","0.0-7.0-0.0-1.18","null","<span style='color:red; font-size: 70px;'>错误! </span>","null","","","","","","","","","","","","","","","","","","","","","","","","","feedback",""
"","","","","","psychophysics","50","147801","0.0-7.0-0.0-0.19","781","","f","","","","","","","","","","","","","key","f","16.669565217391305","640","396","./1_3_Stimuli/C_ambi40.png","他人","Word","他人","Match","j","false","Practice",""
"","","","","","html-keyboard-response","51","148110","0.0-7.0-0.0-1.19","null","<span style='color:red; font-size: 70px;'>错误! </span>","null","","","","","","","","","","","","","","","","","","","","","","","","","feedback",""
"","","","","","psychophysics","52","150260","0.0-7.0-0.0-0.20","985","","j","","","","","","","","","","","","","key","j","16.66796875","640","396","./1_3_Stimuli/T_ambi40.png","自我","Word","自我","Match","j","true","Practice",""
"","","","","","html-keyboard-response","53","150562","0.0-7.0-0.0-1.20","null","<span style='color:GreenYellow; font-size: 70px;'>正确! </span>","null","","","","","","","","","","","","","","","","","","","","","","","","","feedback",""
"","","","","","psychophysics","54","152699","0.0-7.0-0.0-0.21","973","","f","","","","","","","","","","","","","key","f","16.66771653543298","640","396","./1_3_Stimuli/T_ambi40.png","他人","Word","自我","Mismatch","f","true","Practice",""
"","","","","","html-keyboard-response","55","153000","0.0-7.0-0.0-1.21","null","<span style='color:GreenYellow; font-size: 70px;'>正确! </span>","null","","","","","","","","","","","","","","","","","","","","","","","","","feedback",""
"","","","","","psychophysics","56","154836","0.0-7.0-0.0-0.22","676","","f","","","","","","","","","","","","","key","f","16.668807339449486","640","396","./1_3_Stimuli/S_ambi40.png","自我","Image","朋友","Mismatch","f","true","Practice",""
"","","","","","html-keyboard-response","57","155144","0.0-7.0-0.0-1.22","null","<span style='color:GreenYellow; font-size: 70px;'>正确! </span>","null","","","","","","","","","","","","","","","","","","","","","","","","","feedback",""
"","","","","","psychophysics","58","157265","0.0-7.0-0.0-0.23","971","","f","","","","","","","","","","","","","key","f","16.666666666666668","640","396","./1_3_Stimuli/S_ambi40.png","朋友","Word","朋友","Match","j","false","Practice",""
"","","","","","html-keyboard-response","59","157571","0.0-7.0-0.0-1.23","null","<span style='color:red; font-size: 70px;'>错误! </span>","null","","","","","","","","","","","","","","","","","","","","","","","","","feedback",""
"","","","","","html-keyboard-response","60","165304","0.0-7.0-1.0-0.0","7732","<style>.context{color:white; font-size: 35px; line-height:40px}</style>                        <div><p class='context'>您正确回答了71% 的试次。</p><p class='context'>您的平均反应时为850毫秒。</p><p> <div style = 'color: green'><按空格键至下页></div></p>"," ","","","","","","","","","","","","","","","","","","","","","","","","","",""
"","","","","","instructions","61","179513","0.0-7.0-1.0-1.0","14207","","","","","","","","","","","","","","[{""page_index"":0,""viewing_time"":2898},{""page_index"":1,""viewing_time"":9373},{""page_index"":2,""viewing_time"":1936}]","","","","","","","","","","","","","",""
"","","","","","psychophysics","62","181301","0.0-7.1-0.1-0.24","626","","f","","","","","","","","","","","","","key","f","16.66792452830178","640","396","./1_3_Stimuli/T_ambi40.png","朋友","Word","自我","Mismatch","f","true","Practice",""
"","","","","","html-keyboard-response","63","181608","0.0-7.1-0.1-1.24","null","<span style='color:GreenYellow; font-size: 70px;'>正确! </span>","null","","","","","","","","","","","","","","","","","","","","","","","","","feedback",""
"","","","","","psychophysics","64","183559","0.0-7.1-0.1-0.25","797","","j","","","","","","","","","","","","","key","j","16.670689655172314","640","396","./1_3_Stimuli/S_ambi40.png","他人","Word","朋友","Mismatch","f","false","Practice",""
"","","","","","html-keyboard-response","65","183862","0.0-7.1-0.1-1.25","null","<span style='color:red; font-size: 70px;'>错误! </span>","null","","","","","","","","","","","","","","","","","","","","","","","","","feedback",""
"","","","","","psychophysics","66","185922","0.0-7.1-0.1-0.26","907","","f","","","","","","","","","","","","","key","f","16.670491803278832","640","396","./1_3_Stimuli/C_ambi40.png","朋友","Image","他人","Mismatch","f","true","Practice",""
"","","","","","html-keyboard-response","67","186231","0.0-7.1-0.1-1.26","null","<span style='color:GreenYellow; font-size: 70px;'>正确! </span>","null","","","","","","","","","","","","","","","","","","","","","","","","","feedback",""
"","","","","","psychophysics","68","187994","0.0-7.1-0.1-0.27","610","","f","","","","","","","","","","","","","key","f","16.665384615384447","640","396","./1_3_Stimuli/S_ambi40.png","朋友","Image","朋友","Match","j","false","Practice",""
"","","","","","html-keyboard-response","69","188304","0.0-7.1-0.1-1.27","null","<span style='color:red; font-size: 70px;'>错误! </span>","null","","","","","","","","","","","","","","","","","","","","","","","","","feedback",""
"","","","","","psychophysics","70","190071","0.0-7.1-0.1-0.28","616","","j","","","","","","","","","","","","","key","j","16.6695238095237","640","396","./1_3_Stimuli/T_ambi40.png","自我","Word","自我","Match","j","true","Practice",""
"","","","","","html-keyboard-response","71","190374","0.0-7.1-0.1-1.28","null","<span style='color:GreenYellow; font-size: 70px;'>正确! </span>","null","","","","","","","","","","","","","","","","","","","","","","","","","feedback",""
"","","","","","psychophysics","72","192540","0.0-7.1-0.1-0.29","1014","","j","","","","","","","","","","","","","key","j","16.668992248061926","640","396","./1_3_Stimuli/C_ambi40.png","他人","Word","他人","Match","j","true","Practice",""
"","","","","","html-keyboard-response","73","192849","0.0-7.1-0.1-1.29","null","<span style='color:GreenYellow; font-size: 70px;'>正确! </span>","null","","","","","","","","","","","","","","","","","","","","","","","","","feedback",""
"","","","","","psychophysics","74","194748","0.0-7.1-0.1-0.30","745","","j","","","","","","","","","","","","","key","j","16.66902654867262","640","396","./1_3_Stimuli/S_ambi40.png","朋友","Word","朋友","Match","j","true","Practice",""
"","","","","","html-keyboard-response","75","195063","0.0-7.1-0.1-1.30","null","<span style='color:GreenYellow; font-size: 70px;'>正确! </span>","null","","","","","","","","","","","","","","","","","","","","","","","","","feedback",""
"","","","","","psychophysics","76","196759","0.0-7.1-0.1-0.31","545","","j","","","","","","","","","","","","","key","j","16.67","640","396","./1_3_Stimuli/T_ambi40.png","自我","Image","自我","Match","j","true","Practice",""
"","","","","","html-keyboard-response","77","197061","0.0-7.1-0.1-1.31","null","<span style='color:GreenYellow; font-size: 70px;'>正确! </span>","null","","","","","","","","","","","","","","","","","","","","","","","","","feedback",""
"","","","","","psychophysics","78","198978","0.0-7.1-0.1-0.32","766","","j","","","","","","","","","","","","","key","j","16.668421052631427","640","396","./1_3_Stimuli/C_ambi40.png","朋友","Word","他人","Mismatch","f","false","Practice",""
"","","","","","html-keyboard-response","79","199289","0.0-7.1-0.1-1.32","null","<span style='color:red; font-size: 70px;'>错误! </span>","null","","","","","","","","","","","","","","","","","","","","","","","","","feedback",""
"","","","","","psychophysics","80","201189","0.0-7.1-0.1-0.33","742","","f","","","","","","","","","","","","","key","f","16.670796460176888","640","396","./1_3_Stimuli/S_ambi40.png","自我","Image","朋友","Mismatch","f","true","Practice",""
"","","","","","html-keyboard-response","81","201495","0.0-7.1-0.1-1.33","null","<span style='color:GreenYellow; font-size: 70px;'>正确! </span>","null","","","","","","","","","","","","","","","","","","","","","","","","","feedback",""
"","","","","","psychophysics","82","203584","0.0-7.1-0.1-0.34","937","","f","","","","","","","","","","","","","key","f","16.66693548387106","640","396","./1_3_Stimuli/T_ambi40.png","他人","Image","自我","Mismatch","f","true","Practice",""
"","","","","","html-keyboard-response","83","203897","0.0-7.1-0.1-1.34","null","<span style='color:GreenYellow; font-size: 70px;'>正确! </span>","null","","","","","","","","","","","","","","","","","","","","","","","","","feedback",""
"","","","","","psychophysics","84","205827","0.0-7.1-0.1-0.35","779","","f","","","","","","","","","","","","","key","f","16.668421052631682","640","396","./1_3_Stimuli/T_ambi40.png","他人","Word","自我","Mismatch","f","true","Practice",""
"","","","","","html-keyboard-response","85","206139","0.0-7.1-0.1-1.35","null","<span style='color:GreenYellow; font-size: 70px;'>正确! </span>","null","","","","","","","","","","","","","","","","","","","","","","","","","feedback",""
"","","","","","psychophysics","86","208085","0.0-7.1-0.1-0.36","792","","f","","","","","","","","","","","","","key","f","16.669827586206996","640","396","./1_3_Stimuli/T_ambi40.png","朋友","Image","自我","Mismatch","f","true","Practice",""
"","","","","","html-keyboard-response","87","208400","0.0-7.1-0.1-1.36","null","<span style='color:GreenYellow; font-size: 70px;'>正确! </span>","null","","","","","","","","","","","","","","","","","","","","","","","","","feedback",""
"","","","","","psychophysics","88","210711","0.0-7.1-0.1-0.37","1148","","j","","","","","","","","","","","","","key","j","16.66642335766436","640","396","./1_3_Stimuli/S_ambi40.png","朋友","Image","朋友","Match","j","true","Practice",""
"","","","","","html-keyboard-response","89","211025","0.0-7.1-0.1-1.37","null","<span style='color:GreenYellow; font-size: 70px;'>正确! </span>","null","","","","","","","","","","","","","","","","","","","","","","","","","feedback",""
"","","","","","psychophysics","90","213412","0.0-7.1-0.1-0.38","1233","","j","","","","","","","","","","","","","key","j","16.66830985915489","640","396","./1_3_Stimuli/S_ambi40.png","他人","Image","朋友","Mismatch","f","false","Practice",""
"","","","","","html-keyboard-response","91","213722","0.0-7.1-0.1-1.38","null","<span style='color:red; font-size: 70px;'>错误! </span>","null","","","","","","","","","","","","","","","","","","","","","","","","","feedback",""
"","","","","","psychophysics","92","216308","0.0-7.1-0.1-0.39","1434","","j","","","","","","","","","","","","","key","j","16.670129870129944","640","396","./1_3_Stimuli/S_ambi40.png","朋友","Word","朋友","Match","j","true","Practice",""
"","","","","","html-keyboard-response","93","216616","0.0-7.1-0.1-1.39","null","<span style='color:GreenYellow; font-size: 70px;'>正确! </span>","null","","","","","","","","","","","","","","","","","","","","","","","","","feedback",""
"","","","","","psychophysics","94","218886","0.0-7.1-0.1-0.40","1106","","j","","","","","","","","","","","","","key","j","16.669629629629586","640","396","./1_3_Stimuli/C_ambi40.png","他人","Word","他人","Match","j","true","Practice",""
"","","","","","html-keyboard-response","95","219196","0.0-7.1-0.1-1.40","null","<span style='color:GreenYellow; font-size: 70px;'>正确! </span>","null","","","","","","","","","","","","","","","","","","","","","","","","","feedback",""
"","","","","","psychophysics","96","220776","0.0-7.1-0.1-0.41","428","","j","","","","","","","","","","","","","key","j","16.671276595744743","640","396","./1_3_Stimuli/T_ambi40.png","自我","Word","自我","Match","j","true","Practice",""
"","","","","","html-keyboard-response","97","221078","0.0-7.1-0.1-1.41","null","<span style='color:GreenYellow; font-size: 70px;'>正确! </span>","null","","","","","","","","","","","","","","","","","","","","","","","","","feedback",""
"","","","","","psychophysics","98","222701","0.0-7.1-0.1-0.42","469","","j","","","","","","","","","","","","","key","j","16.669072164948393","640","396","./1_3_Stimuli/C_ambi40.png","自我","Word","他人","Mismatch","f","false","Practice",""
"","","","","","html-keyboard-response","99","223005","0.0-7.1-0.1-1.42","null","<span style='color:red; font-size: 70px;'>错误! </span>","null","","","","","","","","","","","","","","","","","","","","","","","","","feedback",""
"","","","","","psychophysics","100","225116","0.0-7.1-0.1-0.43","960","","f","","","","","","","","","","","","","key","f","16.665873015872968","640","396","./1_3_Stimuli/C_ambi40.png","自我","Image","他人","Mismatch","f","true","Practice",""
"","","","","","html-keyboard-response","101","225420","0.0-7.1-0.1-1.43","null","<span style='color:GreenYellow; font-size: 70px;'>正确! </span>","null","","","","","","","","","","","","","","","","","","","","","","","","","feedback",""
"","","","","","psychophysics","102","227490","0.0-7.1-0.1-0.44","918","","f","","","","","","","","","","","","","key","f","16.666666666666668","640","396","./1_3_Stimuli/S_ambi40.png","自我","Word","朋友","Mismatch","f","true","Practice",""
"","","","","","html-keyboard-response","103","227805","0.0-7.1-0.1-1.44","null","<span style='color:GreenYellow; font-size: 70px;'>正确! </span>","null","","","","","","","","","","","","","","","","","","","","","","","","","feedback",""
"","","","","","psychophysics","104","230237","0.0-7.1-0.1-0.45","1270","","j","","","","","","","","","","","","","key","j","16.666896551724218","640","396","./1_3_Stimuli/C_ambi40.png","他人","Image","他人","Match","j","true","Practice",""
"","","","","","html-keyboard-response","105","230543","0.0-7.1-0.1-1.45","null","<span style='color:GreenYellow; font-size: 70px;'>正确! </span>","null","","","","","","","","","","","","","","","","","","","","","","","","","feedback",""
"","","","","","psychophysics","106","232929","0.0-7.1-0.1-0.46","1234","","j","","","","","","","","","","","","","key","j","16.670422535211145","640","396","./1_3_Stimuli/T_ambi40.png","自我","Image","自我","Match","j","true","Practice",""
"","","","","","html-keyboard-response","107","233236","0.0-7.1-0.1-1.46","null","<span style='color:GreenYellow; font-size: 70px;'>正确! </span>","null","","","","","","","","","","","","","","","","","","","","","","","","","feedback",""
"","","","","","psychophysics","108","235086","0.0-7.1-0.1-0.47","697","","j","","","","","","","","","","","","","key","j","16.6690909090907","640","396","./1_3_Stimuli/C_ambi40.png","他人","Image","他人","Match","j","true","Practice",""
"","","","","","html-keyboard-response","109","235400","0.0-7.1-0.1-1.47","null","<span style='color:GreenYellow; font-size: 70px;'>正确! </span>","null","","","","","","","","","","","","","","","","","","","","","","","","","feedback",""
"","","","","","html-keyboard-response","110","240409","0.0-7.1-1.1-0.1","5007","<style>.context{color:white; font-size: 35px; line-height:40px}</style>                        <div><p class='context'>您正确回答了79% 的试次。</p><p class='context'>您的平均反应时为889毫秒。</p><p> <div style = 'color: green'><按空格键至下页></div></p>"," ","","","","","","","","","","","","","","","","","","","","","","","","","",""
"","","","","","instructions","111","247922","0.0-7.1-1.1-1.1","7512","","","","","","","","","","","","","","[{""page_index"":0,""viewing_time"":1567},{""page_index"":1,""viewing_time"":4416},{""page_index"":2,""viewing_time"":1529}]","","","","","","","","","","","","","",""
"","","","","","psychophysics","112","249754","0.0-7.2-0.2-0.48","671","","f","","","","","","","","","","","","","key","f","16.666055045871346","640","396","./1_3_Stimuli/S_ambi40.png","自我","Image","朋友","Mismatch","f","true","Practice",""
"","","","","","html-keyboard-response","113","250064","0.0-7.2-0.2-1.48","null","<span style='color:GreenYellow; font-size: 70px;'>正确! </span>","null","","","","","","","","","","","","","","","","","","","","","","","","","feedback",""
"","","","","","psychophysics","114","251932","0.0-7.2-0.2-0.49","714","","f","","","","","","","","","","","","","key","f","16.669369369369527","640","396","./1_3_Stimuli/T_ambi40.png","他人","Word","自我","Mismatch","f","true","Practice",""
"","","","","","html-keyboard-response","115","252243","0.0-7.2-0.2-1.49","null","<span style='color:GreenYellow; font-size: 70px;'>正确! </span>","null","","","","","","","","","","","","","","","","","","","","","","","","","feedback",""
"","","","","","psychophysics","116","254230","0.0-7.2-0.2-0.50","827","","j","","","","","","","","","","","","","key","j","16.66864406779656","640","396","./1_3_Stimuli/C_ambi40.png","他人","Image","他人","Match","j","true","Practice",""
"","","","","","html-keyboard-response","117","254533","0.0-7.2-0.2-1.50","null","<span style='color:GreenYellow; font-size: 70px;'>正确! </span>","null","","","","","","","","","","","","","","","","","","","","","","","","","feedback",""
"","","","","","psychophysics","118","256111","0.0-7.2-0.2-0.51","426","","j","","","","","","","","","","","","","key","j","16.668085106382854","640","396","./1_3_Stimuli/T_ambi40.png","自我","Word","自我","Match","j","true","Practice",""
"","","","","","html-keyboard-response","119","256422","0.0-7.2-0.2-1.51","null","<span style='color:GreenYellow; font-size: 70px;'>正确! </span>","null","","","","","","","","","","","","","","","","","","","","","","","","","feedback",""
"","","","","","psychophysics","120","258580","0.0-7.2-0.2-0.52","994","","j","","","","","","","","","","","","","key","j","16.66640624999991","640","396","./1_3_Stimuli/C_ambi40.png","他人","Word","他人","Match","j","true","Practice",""
"","","","","","html-keyboard-response","121","258893","0.0-7.2-0.2-1.52","null","<span style='color:GreenYellow; font-size: 70px;'>正确! </span>","null","","","","","","","","","","","","","","","","","","","","","","","","","feedback",""
"","","","","","psychophysics","122","260898","0.0-7.2-0.2-0.53","845","","f","","","","","","","","","","","","","key","f","16.668907563025016","640","396","./1_3_Stimuli/C_ambi40.png","朋友","Image","他人","Mismatch","f","true","Practice",""
"","","","","","html-keyboard-response","123","261206","0.0-7.2-0.2-1.53","null","<span style='color:GreenYellow; font-size: 70px;'>正确! </span>","null","","","","","","","","","","","","","","","","","","","","","","","","","feedback",""
"","","","","","psychophysics","124","263021","0.0-7.2-0.2-0.54","651","","j","","","","","","","","","","","","","key","j","16.668518518518628","640","396","./1_3_Stimuli/T_ambi40.png","自我","Image","自我","Match","j","true","Practice",""
"","","","","","html-keyboard-response","125","263322","0.0-7.2-0.2-1.54","null","<span style='color:GreenYellow; font-size: 70px;'>正确! </span>","null","","","","","","","","","","","","","","","","","","","","","","","","","feedback",""
"","","","","","psychophysics","126","265662","0.0-7.2-0.2-0.55","1178","","j","","","","","","","","","","","","","key","j","16.666906474820227","640","396","./1_3_Stimuli/S_ambi40.png","朋友","Image","朋友","Match","j","true","Practice",""
"","","","","","html-keyboard-response","127","265977","0.0-7.2-0.2-1.55","null","<span style='color:GreenYellow; font-size: 70px;'>正确! </span>","null","","","","","","","","","","","","","","","","","","","","","","","","","feedback",""
"","","","","","psychophysics","128","267738","0.0-7.2-0.2-0.56","601","","f","","","","","","","","","","","","","key","f","16.666666666666668","640","396","./1_3_Stimuli/C_ambi40.png","自我","Word","他人","Mismatch","f","true","Practice",""
"","","","","","html-keyboard-response","129","268044","0.0-7.2-0.2-1.56","null","<span style='color:GreenYellow; font-size: 70px;'>正确! </span>","null","","","","","","","","","","","","","","","","","","","","","","","","","feedback",""
"","","","","","psychophysics","130","270153","0.0-7.2-0.2-0.57","958","","j","","","","","","","","","","","","","key","j","16.66960000000009","640","396","./1_3_Stimuli/S_ambi40.png","朋友","Word","朋友","Match","j","true","Practice",""
"","","","","","html-keyboard-response","131","270468","0.0-7.2-0.2-1.57","null","<span style='color:GreenYellow; font-size: 70px;'>正确! </span>","null","","","","","","","","","","","","","","","","","","","","","","","","","feedback",""
"","","","","","psychophysics","132","272442","0.0-7.2-0.2-0.58","821","","f","","","","","","","","","","","","","key","f","16.67033898305065","640","396","./1_3_Stimuli/C_ambi40.png","朋友","Word","他人","Mismatch","f","true","Practice",""
"","","","","","html-keyboard-response","133","272752","0.0-7.2-0.2-1.58","null","<span style='color:GreenYellow; font-size: 70px;'>正确! </span>","null","","","","","","","","","","","","","","","","","","","","","","","","","feedback",""
"","","","","","psychophysics","134","274513","0.0-7.2-0.2-0.59","608","","j","","","","","","","","","","","","","key","j","16.669523809524254","640","396","./1_3_Stimuli/T_ambi40.png","自我","Image","自我","Match","j","true","Practice",""
"","","","","","html-keyboard-response","135","274817","0.0-7.2-0.2-1.59","null","<span style='color:GreenYellow; font-size: 70px;'>正确! </span>","null","","","","","","","","","","","","","","","","","","","","","","","","","feedback",""
"","","","","","psychophysics","136","277427","0.0-7.2-0.2-0.60","1456","","f","","","","","","","","","","","","","key","f","16.667948717948793","640","396","./1_3_Stimuli/S_ambi40.png","他人","Image","朋友","Mismatch","f","true","Practice",""
"","","","","","html-keyboard-response","137","277741","0.0-7.2-0.2-1.60","null","<span style='color:GreenYellow; font-size: 70px;'>正确! </span>","null","","","","","","","","","","","","","","","","","","","","","","","","","feedback",""
"","","","","","psychophysics","138","279806","0.0-7.2-0.2-0.61","901","","f","","","","","","","","","","","","","key","f","16.667479674797033","640","396","./1_3_Stimuli/C_ambi40.png","他人","Image","他人","Match","j","false","Practice",""
"","","","","","html-keyboard-response","139","280120","0.0-7.2-0.2-1.61","null","<span style='color:red; font-size: 70px;'>错误! </span>","null","","","","","","","","","","","","","","","","","","","","","","","","","feedback",""
"","","","","","psychophysics","140","281983","0.0-7.2-0.2-0.62","712","","f","","","","","","","","","","","","","key","f","16.664545454545244","640","396","./1_3_Stimuli/C_ambi40.png","他人","Word","他人","Match","j","false","Practice",""
"","","","","","html-keyboard-response","141","282285","0.0-7.2-0.2-1.62","null","<span style='color:red; font-size: 70px;'>错误! </span>","null","","","","","","","","","","","","","","","","","","","","","","","","","feedback",""
"","","","","","psychophysics","142","284413","0.0-7.2-0.2-0.63","975","","j","","","","","","","","","","","","","key","j","16.669291338582678","640","396","./1_3_Stimuli/S_ambi40.png","朋友","Image","朋友","Match","j","true","Practice",""
"","","","","","html-keyboard-response","143","284725","0.0-7.2-0.2-1.63","null","<span style='color:GreenYellow; font-size: 70px;'>正确! </span>","null","","","","","","","","","","","","","","","","","","","","","","","","","feedback",""
"","","","","","psychophysics","144","286706","0.0-7.2-0.2-0.64","830","","j","","","","","","","","","","","","","key","j","16.666949152542472","640","396","./1_3_Stimuli/S_ambi40.png","朋友","Word","朋友","Match","j","true","Practice",""
"","","","","","html-keyboard-response","145","287012","0.0-7.2-0.2-1.64","null","<span style='color:GreenYellow; font-size: 70px;'>正确! </span>","null","","","","","","","","","","","","","","","","","","","","","","","","","feedback",""
"","","","","","psychophysics","146","288803","0.0-7.2-0.2-0.65","630","","f","","","","","","","","","","","","","key","f","16.668867924527973","640","396","./1_3_Stimuli/T_ambi40.png","他人","Image","自我","Mismatch","f","true","Practice",""
"","","","","","html-keyboard-response","147","289111","0.0-7.2-0.2-1.65","null","<span style='color:GreenYellow; font-size: 70px;'>正确! </span>","null","","","","","","","","","","","","","","","","","","","","","","","","","feedback",""
"","","","","","psychophysics","148","290754","0.0-7.2-0.2-0.66","481","","j","","","","","","","","","","","","","key","j","16.668041237113883","640","396","./1_3_Stimuli/T_ambi40.png","自我","Word","自我","Match","j","true","Practice",""
"","","","","","html-keyboard-response","149","291066","0.0-7.2-0.2-1.66","null","<span style='color:GreenYellow; font-size: 70px;'>正确! </span>","null","","","","","","","","","","","","","","","","","","","","","","","","","feedback",""
"","","","","","psychophysics","150","292810","0.0-7.2-0.2-0.67","588","","f","","","","","","","","","","","","","key","f","16.66826923076923","640","396","./1_3_Stimuli/C_ambi40.png","自我","Image","他人","Mismatch","f","true","Practice",""
"","","","","","html-keyboard-response","151","293118","0.0-7.2-0.2-1.67","null","<span style='color:GreenYellow; font-size: 70px;'>正确! </span>","null","","","","","","","","","","","","","","","","","","","","","","","","","feedback",""
"","","","","","psychophysics","152","294822","0.0-7.2-0.2-0.68","549","","f","","","","","","","","","","","","","key","f","16.670297029703086","640","396","./1_3_Stimuli/T_ambi40.png","朋友","Image","自我","Mismatch","f","true","Practice",""
"","","","","","html-keyboard-response","153","295125","0.0-7.2-0.2-1.68","null","<span style='color:GreenYellow; font-size: 70px;'>正确! </span>","null","","","","","","","","","","","","","","","","","","","","","","","","","feedback",""
"","","","","","psychophysics","154","297020","0.0-7.2-0.2-0.69","744","","f","","","","","","","","","","","","","key","f","16.66875000000021","640","396","./1_3_Stimuli/S_ambi40.png","自我","Word","朋友","Mismatch","f","true","Practice",""
"","","","","","html-keyboard-response","155","297335","0.0-7.2-0.2-1.69","null","<span style='color:GreenYellow; font-size: 70px;'>正确! </span>","null","","","","","","","","","","","","","","","","","","","","","","","","","feedback",""
"","","","","","psychophysics","156","299313","0.0-7.2-0.2-0.70","823","","f","","","","","","","","","","","","","key","f","16.670338983051142","640","396","./1_3_Stimuli/S_ambi40.png","他人","Word","朋友","Mismatch","f","true","Practice",""
"","","","","","html-keyboard-response","157","299621","0.0-7.2-0.2-1.70","null","<span style='color:GreenYellow; font-size: 70px;'>正确! </span>","null","","","","","","","","","","","","","","","","","","","","","","","","","feedback",""
"","","","","","psychophysics","158","301582","0.0-7.2-0.2-0.71","808","","f","","","","","","","","","","","","","key","f","16.670689655172815","640","396","./1_3_Stimuli/T_ambi40.png","朋友","Word","自我","Mismatch","f","true","Practice",""
"","","","","","html-keyboard-response","159","301891","0.0-7.2-0.2-1.71","null","<span style='color:GreenYellow; font-size: 70px;'>正确! </span>","null","","","","","","","","","","","","","","","","","","","","","","","","","feedback",""
"","","","","","html-keyboard-response","160","310012","0.0-8.0","8119","<style>.context{color:white; font-size: 35px; line-height:40px}</style>                          <div><p class='context'>您正确回答了92% 的试次。</p><p class='context'>您的平均反应时为781毫秒。</p><p class='context'>恭喜您完成练习。现在请休息3~5分钟。</p><p class='context'>之后，按任意键进入正式实验。需要注意的是，正式实验将不再提供反应是否正确的反馈。</p><p class='footer' style='font-size: 35px; line-height:40px;'>请在进入正式实验实验之前将您的<span style='color: lightgreen;'>食指</span>放在电脑键盘的相应键位上进行按键。</p>","j","","","","","","","","","","","","","","","","","","","","","","","","","",""
"","","","","","psychophysics","161","312059","0.0-9.0-0.0-0.0","886","","j","","","","","","","","","","","","","key","j","16.66721311475429","640","396","./1_3_Stimuli/S_ambi40.png","他人","Word","朋友","Mismatch","f","false","Formal",""
"","","","","","psychophysics","162","313740","0.0-9.0-0.0-0.1","519","","j","","","","","","","","","","","","","key","j","16.667676767676532","640","396","./1_3_Stimuli/T_ambi40.png","自我","Image","自我","Match","j","true","Formal",""
"","","","","","psychophysics","163","315449","0.0-9.0-0.0-0.2","557","","f","","","","","","","","","","","","","key","f","16.670297029703086","640","396","./1_3_Stimuli/S_ambi40.png","他人","Image","朋友","Mismatch","f","true","Formal",""
"","","","","","psychophysics","164","317642","0.0-9.0-0.0-0.3","1033","","f","","","","","","","","","","","","","key","f","16.666153846154113","640","396","./1_3_Stimuli/S_ambi40.png","朋友","Image","朋友","Match","j","false","Formal",""
"","","","","","psychophysics","165","319452","0.0-9.0-0.0-0.4","660","","f","","","","","","","","","","","","","key","f","16.66822429906542","640","396","./1_3_Stimuli/S_ambi40.png","自我","Image","朋友","Mismatch","f","true","Formal",""
"","","","","","psychophysics","166","321029","0.0-9.0-0.0-0.5","420","","j","","","","","","","","","","","","","key","j","16.670212765957448","640","396","./1_3_Stimuli/T_ambi40.png","自我","Word","自我","Match","j","true","Formal",""
"","","","","","psychophysics","167","322824","0.0-9.0-0.0-0.6","644","","j","","","","","","","","","","","","","key","j","16.666981132075033","640","396","./1_3_Stimuli/T_ambi40.png","自我","Image","自我","Match","j","true","Formal",""
"","","","","","psychophysics","168","324705","0.0-9.0-0.0-0.7","729","","f","","","","","","","","","","","","","key","f","16.667857142857038","640","396","./1_3_Stimuli/T_ambi40.png","他人","Word","自我","Mismatch","f","true","Formal",""
"","","","","","psychophysics","169","326922","0.0-9.0-0.0-0.8","1063","","f","","","","","","","","","","","","","key","f","16.669696969696705","640","396","./1_3_Stimuli/C_ambi40.png","他人","Image","他人","Match","j","false","Formal",""
"","","","","","psychophysics","170","329115","0.0-9.0-0.0-0.9","1038","","j","","","","","","","","","","","","","key","j","16.669465648855052","640","396","./1_3_Stimuli/S_ambi40.png","朋友","Word","朋友","Match","j","true","Formal",""
"","","","","","psychophysics","171","330889","0.0-9.0-0.0-0.10","618","","f","","","","","","","","","","","","","key","f","16.6695238095237","640","396","./1_3_Stimuli/C_ambi40.png","他人","Image","他人","Match","j","false","Formal",""
"","","","","","psychophysics","172","332684","0.0-9.0-0.0-0.11","640","","f","","","","","","","","","","","","","key","f","16.666355140186806","640","396","./1_3_Stimuli/C_ambi40.png","自我","Word","他人","Mismatch","f","true","Formal",""
"","","","","","psychophysics","173","334922","0.0-9.0-0.0-0.12","1085","","j","","","","","","","","","","","","","key","j","16.668421052631317","640","396","./1_3_Stimuli/C_ambi40.png","朋友","Word","他人","Mismatch","f","false","Formal",""
"","","","","","psychophysics","174","337145","0.0-9.0-0.0-0.13","1069","","j","","","","","","","","","","","","","key","j","16.6699248120299","640","396","./1_3_Stimuli/C_ambi40.png","他人","Word","他人","Match","j","true","Formal",""
"","","","","","psychophysics","175","339292","0.0-9.0-0.0-0.14","988","","f","","","","","","","","","","","","","key","f","16.6685039370076","640","396","./1_3_Stimuli/C_ambi40.png","朋友","Image","他人","Mismatch","f","true","Formal",""
"","","","","","psychophysics","176","340961","0.0-9.0-0.0-0.15","516","","j","","","","","","","","","","","","","key","j","16.667676767676532","640","396","./1_3_Stimuli/C_ambi40.png","他人","Word","他人","Match","j","true","Formal",""
"","","","","","psychophysics","177","342856","0.0-9.0-0.0-0.16","744","","f","","","","","","","","","","","","","key","f","16.66696428571439","640","396","./1_3_Stimuli/C_ambi40.png","自我","Image","他人","Mismatch","f","true","Formal",""
"","","","","","psychophysics","178","344787","0.0-9.0-0.0-0.17","775","","f","","","","","","","","","","","","","key","f","16.66695652173923","640","396","./1_3_Stimuli/S_ambi40.png","自我","Word","朋友","Mismatch","f","true","Formal",""
"","","","","","psychophysics","179","347166","0.0-9.0-0.0-0.18","1223","","j","","","","","","","","","","","","","key","j","16.668309859154682","640","396","./1_3_Stimuli/T_ambi40.png","朋友","Word","自我","Mismatch","f","false","Formal",""
"","","","","","psychophysics","180","349182","0.0-9.0-0.0-0.19","859","","f","","","","","","","","","","","","","key","f","16.66833333333343","640","396","./1_3_Stimuli/S_ambi40.png","朋友","Image","朋友","Match","j","false","Formal",""
"","","","","","psychophysics","181","351199","0.0-9.0-0.0-0.20","853","","j","","","","","","","","","","","","","key","j","16.665833333333527","640","396","./1_3_Stimuli/S_ambi40.png","朋友","Word","朋友","Match","j","true","Formal",""
"","","","","","psychophysics","182","353497","0.0-9.0-0.0-0.21","1135","","f","","","","","","","","","","","","","key","f","16.668613138686386","640","396","./1_3_Stimuli/T_ambi40.png","朋友","Image","自我","Mismatch","f","true","Formal",""
"","","","","","psychophysics","183","355137","0.0-9.0-0.0-0.22","475","","j","","","","","","","","","","","","","key","j","16.66597938144306","640","396","./1_3_Stimuli/T_ambi40.png","自我","Word","自我","Match","j","true","Formal",""
"","","","","","psychophysics","184","357167","0.0-9.0-0.0-0.23","871","","f","","","","","","","","","","","","","key","f","16.670247933884106","640","396","./1_3_Stimuli/T_ambi40.png","他人","Image","自我","Mismatch","f","true","Formal",""
"","","","","","psychophysics","185","358982","0.0-9.0-0.0-0.24","662","","f","","","","","","","","","","","","","key","f","16.666666666666668","640","396","./1_3_Stimuli/C_ambi40.png","自我","Word","他人","Mismatch","f","true","Formal",""
"","","","","","psychophysics","186","360900","0.0-9.0-0.0-0.25","758","","j","","","","","","","","","","","","","key","j","16.666666666666668","640","396","./1_3_Stimuli/S_ambi40.png","朋友","Image","朋友","Match","j","true","Formal",""
"","","","","","psychophysics","187","362795","0.0-9.0-0.0-0.26","741","","f","","","","","","","","","","","","","key","f","16.668749999999687","640","396","./1_3_Stimuli/S_ambi40.png","自我","Image","朋友","Mismatch","f","true","Formal",""
"","","","","","psychophysics","188","364552","0.0-9.0-0.0-0.27","605","","f","","","","","","","","","","","","","key","f","16.668571428570985","640","396","./1_3_Stimuli/T_ambi40.png","他人","Image","自我","Mismatch","f","true","Formal",""
"","","","","","psychophysics","189","366467","0.0-9.0-0.0-0.28","760","","j","","","","","","","","","","","","","key","j","16.669298245613934","640","396","./1_3_Stimuli/S_ambi40.png","他人","Image","朋友","Mismatch","f","false","Formal",""
"","","","","","psychophysics","190","368328","0.0-9.0-0.0-0.29","705","","j","","","","","","","","","","","","","key","j","16.667272727272938","640","396","./1_3_Stimuli/C_ambi40.png","他人","Word","他人","Match","j","true","Formal",""
"","","","","","psychophysics","191","370228","0.0-9.0-0.0-0.30","747","","j","","","","","","","","","","","","","key","j","16.668141592920353","640","396","./1_3_Stimuli/C_ambi40.png","他人","Image","他人","Match","j","true","Formal",""
"","","","","","psychophysics","192","372098","0.0-9.0-0.0-0.31","717","","f","","","","","","","","","","","","","key","f","16.670270270269956","640","396","./1_3_Stimuli/C_ambi40.png","自我","Image","他人","Mismatch","f","true","Formal",""
"","","","","","psychophysics","193","373925","0.0-9.0-0.0-0.32","674","","j","","","","","","","","","","","","","key","j","16.668518518518628","640","396","./1_3_Stimuli/T_ambi40.png","自我","Word","自我","Match","j","true","Formal",""
"","","","","","psychophysics","194","376071","0.0-9.0-0.0-0.33","990","","f","","","","","","","","","","","","","key","f","16.66953125000009","640","396","./1_3_Stimuli/C_ambi40.png","朋友","Word","他人","Mismatch","f","true","Formal",""
"","","","","","psychophysics","195","377845","0.0-9.0-0.0-0.34","614","","j","","","","","","","","","","","","","key","j","16.665714285713953","640","396","./1_3_Stimuli/S_ambi40.png","朋友","Word","朋友","Match","j","true","Formal",""
"","","","","","psychophysics","196","379680","0.0-9.0-0.0-0.35","682","","f","","","","","","","","","","","","","key","f","16.6697247706422","640","396","./1_3_Stimuli/T_ambi40.png","朋友","Word","自我","Mismatch","f","true","Formal",""
"","","","","","psychophysics","197","381798","0.0-9.0-0.0-0.36","966","","j","","","","","","","","","","","","","key","j","16.669841269841456","640","396","./1_3_Stimuli/T_ambi40.png","自我","Image","自我","Match","j","true","Formal",""
"","","","","","psychophysics","198","383900","0.0-9.0-0.0-0.37","951","","j","","","","","","","","","","","","","key","j","16.66719999999972","640","396","./1_3_Stimuli/S_ambi40.png","朋友","Image","朋友","Match","j","true","Formal",""
"","","","","","psychophysics","199","385548","0.0-9.0-0.0-0.38","488","","j","","","","","","","","","","","","","key","j","16.66701030927787","640","396","./1_3_Stimuli/T_ambi40.png","自我","Image","自我","Match","j","true","Formal",""
"","","","","","psychophysics","200","387364","0.0-9.0-0.0-0.39","665","","f","","","","","","","","","","","","","key","f","16.669158878504454","640","396","./1_3_Stimuli/T_ambi40.png","他人","Word","自我","Mismatch","f","true","Formal",""
"","","","","","psychophysics","201","389304","0.0-9.0-0.0-0.40","789","","j","","","","","","","","","","","","","key","j","16.669827586206996","640","396","./1_3_Stimuli/S_ambi40.png","他人","Word","朋友","Mismatch","f","false","Formal",""
"","","","","","psychophysics","202","391341","0.0-9.0-0.0-0.41","885","","j","","","","","","","","","","","","","key","j","16.668595041322508","640","396","./1_3_Stimuli/T_ambi40.png","自我","Word","自我","Match","j","true","Formal",""
"","","","","","psychophysics","203","393650","0.0-9.0-0.0-0.42","1157","","f","","","","","","","","","","","","","key","f","16.670289855072465","640","396","./1_3_Stimuli/T_ambi40.png","朋友","Image","自我","Mismatch","f","true","Formal",""
"","","","","","psychophysics","204","396136","0.0-9.0-0.0-0.43","1335","","j","","","","","","","","","","","","","key","j","16.66824324324301","640","396","./1_3_Stimuli/S_ambi40.png","朋友","Word","朋友","Match","j","true","Formal",""
"","","","","","psychophysics","205","397834","0.0-9.0-0.0-0.44","548","","f","","","","","","","","","","","","","key","f","16.669306930693416","640","396","./1_3_Stimuli/C_ambi40.png","他人","Word","他人","Match","j","false","Formal",""
"","","","","","psychophysics","206","399543","0.0-9.0-0.0-0.45","546","","f","","","","","","","","","","","","","key","f","16.668316831683168","640","396","./1_3_Stimuli/S_ambi40.png","自我","Word","朋友","Mismatch","f","true","Formal",""
"","","","","","psychophysics","207","401404","0.0-9.0-0.0-0.46","704","","f","","","","","","","","","","","","","key","f","16.67117117117117","640","396","./1_3_Stimuli/C_ambi40.png","朋友","Image","他人","Mismatch","f","true","Formal",""
"","","","","","psychophysics","208","403350","0.0-9.0-0.0-0.47","792","","f","","","","","","","","","","","","","key","f","16.669565217391305","640","396","./1_3_Stimuli/C_ambi40.png","他人","Image","他人","Match","j","false","Formal",""
"","","","","","psychophysics","209","405009","0.0-9.0-0.0-0.48","507","","j","","","","","","","","","","","","","key","j","16.6653061224491","640","396","./1_3_Stimuli/C_ambi40.png","他人","Word","他人","Match","j","true","Formal",""
"","","","","","psychophysics","210","406914","0.0-9.0-0.0-0.49","749","","f","","","","","","","","","","","","","key","f","16.668141592920353","640","396","./1_3_Stimuli/S_ambi40.png","他人","Word","朋友","Mismatch","f","true","Formal",""
"","","","","","psychophysics","211","408629","0.0-9.0-0.0-0.50","561","","j","","","","","","","","","","","","","key","j","16.66960784313771","640","396","./1_3_Stimuli/T_ambi40.png","自我","Image","自我","Match","j","true","Formal",""
"","","","","","psychophysics","212","410529","0.0-9.0-0.0-0.51","744","","f","","","","","","","","","","","","","key","f","16.668141592920353","640","396","./1_3_Stimuli/C_ambi40.png","自我","Image","他人","Mismatch","f","true","Formal",""
"","","","","","psychophysics","213","412389","0.0-9.0-0.0-0.52","704","","j","","","","","","","","","","","","","key","j","16.667567567567357","640","396","./1_3_Stimuli/S_ambi40.png","朋友","Word","朋友","Match","j","true","Formal",""
"","","","","","psychophysics","214","414159","0.0-9.0-0.0-0.53","618","","f","","","","","","","","","","","","","key","f","16.6695238095237","640","396","./1_3_Stimuli/S_ambi40.png","自我","Word","朋友","Mismatch","f","true","Formal",""
"","","","","","psychophysics","215","415924","0.0-9.0-0.0-0.54","610","","f","","","","","","","","","","","","","key","f","16.6695238095237","640","396","./1_3_Stimuli/C_ambi40.png","他人","Word","他人","Match","j","false","Formal",""
"","","","","","psychophysics","216","417950","0.0-9.0-0.0-0.55","864","","f","","","","","","","","","","","","","key","f","16.668333333332946","640","396","./1_3_Stimuli/T_ambi40.png","他人","Image","自我","Mismatch","f","true","Formal",""
"","","","","","psychophysics","217","419758","0.0-9.0-0.0-0.56","655","","f","","","","","","","","","","","","","key","f","16.666666666666668","640","396","./1_3_Stimuli/S_ambi40.png","朋友","Image","朋友","Match","j","false","Formal",""
"","","","","","psychophysics","218","421459","0.0-9.0-0.0-0.57","540","","f","","","","","","","","","","","","","key","f","16.66633663366383","640","396","./1_3_Stimuli/C_ambi40.png","自我","Word","他人","Mismatch","f","true","Formal",""
"","","","","","psychophysics","219","423168","0.0-9.0-0.0-0.58","557","","f","","","","","","","","","","","","","key","f","16.669306930692837","640","396","./1_3_Stimuli/C_ambi40.png","他人","Image","他人","Match","j","false","Formal",""
"","","","","","psychophysics","220","424812","0.0-9.0-0.0-0.59","492","","j","","","","","","","","","","","","","key","j","16.669072164948094","640","396","./1_3_Stimuli/T_ambi40.png","自我","Word","自我","Match","j","true","Formal",""
"","","","","","psychophysics","221","426506","0.0-9.0-0.0-0.60","543","","f","","","","","","","","","","","","","key","f","16.669306930692837","640","396","./1_3_Stimuli/C_ambi40.png","朋友","Image","他人","Mismatch","f","true","Formal",""
"","","","","","psychophysics","222","428689","0.0-9.0-0.0-0.61","1019","","f","","","","","","","","","","","","","key","f","16.668461538461717","640","396","./1_3_Stimuli/T_ambi40.png","他人","Word","自我","Mismatch","f","true","Formal",""
"","","","","","psychophysics","223","430486","0.0-9.0-0.0-0.62","639","","j","","","","","","","","","","","","","key","j","16.66792452830178","640","396","./1_3_Stimuli/T_ambi40.png","自我","Image","自我","Match","j","true","Formal",""
"","","","","","psychophysics","224","432641","0.0-9.0-0.0-0.63","1005","","j","","","","","","","","","","","","","key","j","16.66953125000009","640","396","./1_3_Stimuli/S_ambi40.png","朋友","Image","朋友","Match","j","true","Formal",""
"","","","","","psychophysics","225","434360","0.0-9.0-0.0-0.64","556","","f","","","","","","","","","","","","","key","f","16.666666666666668","640","396","./1_3_Stimuli/T_ambi40.png","朋友","Word","自我","Mismatch","f","true","Formal",""
"","","","","","psychophysics","226","436271","0.0-9.0-0.0-0.65","750","","f","","","","","","","","","","","","","key","f","16.670175438596186","640","396","./1_3_Stimuli/T_ambi40.png","朋友","Image","自我","Mismatch","f","true","Formal",""
"","","","","","psychophysics","227","438374","0.0-9.0-0.0-0.66","937","","j","","","","","","","","","","","","","key","j","16.668800000000278","640","396","./1_3_Stimuli/S_ambi40.png","自我","Image","朋友","Mismatch","f","false","Formal",""
"","","","","","psychophysics","228","440466","0.0-9.0-0.0-0.67","931","","j","","","","","","","","","","","","","key","j","16.66774193548378","640","396","./1_3_Stimuli/C_ambi40.png","他人","Image","他人","Match","j","true","Formal",""
"","","","","","psychophysics","229","442164","0.0-9.0-0.0-0.68","543","","j","","","","","","","","","","","","","key","j","16.671287128712756","640","396","./1_3_Stimuli/T_ambi40.png","自我","Word","自我","Match","j","true","Formal",""
"","","","","","psychophysics","230","443990","0.0-9.0-0.0-0.69","668","","j","","","","","","","","","","","","","key","j","16.668807339449756","640","396","./1_3_Stimuli/S_ambi40.png","朋友","Word","朋友","Match","j","true","Formal",""
"","","","","","psychophysics","231","445693","0.0-9.0-0.0-0.70","552","","f","","","","","","","","","","","","","key","f","16.667326732673498","640","396","./1_3_Stimuli/C_ambi40.png","朋友","Word","他人","Mismatch","f","true","Formal",""
"","","","","","psychophysics","232","447768","0.0-9.0-0.0-0.71","919","","f","","","","","","","","","","","","","key","f","16.668292682926925","640","396","./1_3_Stimuli/S_ambi40.png","他人","Image","朋友","Mismatch","f","true","Formal",""
"","","","","","psychophysics","233","449555","0.0-9.0-0.0-0.72","633","","f","","","","","","","","","","","","","key","f","16.667289719626385","640","396","./1_3_Stimuli/T_ambi40.png","朋友","Image","自我","Mismatch","f","true","Formal",""
"","","","","","psychophysics","234","451912","0.0-9.0-0.0-0.73","1206","","f","","","","","","","","","","","","","key","f","16.667857142857144","640","396","./1_3_Stimuli/C_ambi40.png","他人","Word","他人","Match","j","false","Formal",""
"","","","","","psychophysics","235","453629","0.0-9.0-0.0-0.74","558","","f","","","","","","","","","","","","","key","f","16.667647058823302","640","396","./1_3_Stimuli/S_ambi40.png","自我","Word","朋友","Mismatch","f","true","Formal",""
"","","","","","psychophysics","236","455399","0.0-9.0-0.0-0.75","616","","f","","","","","","","","","","","","","key","f","16.666666666666668","640","396","./1_3_Stimuli/C_ambi40.png","他人","Image","他人","Match","j","false","Formal",""
"","","","","","psychophysics","237","457022","0.0-9.0-0.0-0.76","466","","j","","","","","","","","","","","","","key","j","16.671875","640","396","./1_3_Stimuli/T_ambi40.png","自我","Word","自我","Match","j","true","Formal",""
"","","","","","psychophysics","238","459568","0.0-9.0-0.0-0.77","1395","","j","","","","","","","","","","","","","key","j","16.66953642384129","640","396","./1_3_Stimuli/S_ambi40.png","朋友","Word","朋友","Match","j","true","Formal",""
"","","","","","psychophysics","239","461350","0.0-9.0-0.0-0.78","626","","f","","","","","","","","","","","","","key","f","16.66886792452852","640","396","./1_3_Stimuli/C_ambi40.png","朋友","Image","他人","Mismatch","f","true","Formal",""
"","","","","","psychophysics","240","463722","0.0-9.0-0.0-0.79","1216","","f","","","","","","","","","","","","","key","f","16.669503546099044","640","396","./1_3_Stimuli/S_ambi40.png","他人","Image","朋友","Mismatch","f","true","Formal",""
"","","","","","psychophysics","241","465739","0.0-9.0-0.0-0.80","865","","j","","","","","","","","","","","","","key","j","16.6672268907565","640","396","./1_3_Stimuli/T_ambi40.png","自我","Image","自我","Match","j","true","Formal",""
"","","","","","psychophysics","242","467448","0.0-9.0-0.0-0.81","558","","j","","","","","","","","","","","","","key","j","16.668316831683168","640","396","./1_3_Stimuli/T_ambi40.png","自我","Word","自我","Match","j","true","Formal",""
"","","","","","psychophysics","243","469375","0.0-9.0-0.0-0.82","768","","j","","","","","","","","","","","","","key","j","16.666086956521536","640","396","./1_3_Stimuli/S_ambi40.png","朋友","Image","朋友","Match","j","true","Formal",""
"","","","","","psychophysics","244","471330","0.0-9.0-0.0-0.83","792","","f","","","","","","","","","","","","","key","f","16.66896551724168","640","396","./1_3_Stimuli/T_ambi40.png","他人","Image","自我","Mismatch","f","true","Formal",""
"","","","","","psychophysics","245","473039","0.0-9.0-0.0-0.84","557","","j","","","","","","","","","","","","","key","j","16.667326732673498","640","396","./1_3_Stimuli/C_ambi40.png","他人","Word","他人","Match","j","true","Formal",""
"","","","","","psychophysics","246","475247","0.0-9.0-0.0-0.85","1055","","j","","","","","","","","","","","","","key","j","16.669465648855052","640","396","./1_3_Stimuli/S_ambi40.png","朋友","Image","朋友","Match","j","true","Formal",""
"","","","","","psychophysics","247","477114","0.0-9.0-0.0-0.86","712","","f","","","","","","","","","","","","","key","f","16.667567567567357","640","396","./1_3_Stimuli/S_ambi40.png","自我","Image","朋友","Mismatch","f","true","Formal",""
"","","","","","psychophysics","248","479013","0.0-9.0-0.0-0.87","744","","j","","","","","","","","","","","","","key","j","16.668141592920353","640","396","./1_3_Stimuli/T_ambi40.png","自我","Image","自我","Match","j","true","Formal",""
"","","","","","psychophysics","249","480782","0.0-9.0-0.0-0.88","614","","f","","","","","","","","","","","","","key","f","16.670476190475856","640","396","./1_3_Stimuli/C_ambi40.png","自我","Image","他人","Mismatch","f","true","Formal",""
"","","","","","psychophysics","250","482825","0.0-9.0-0.0-0.89","882","","f","","","","","","","","","","","","","key","f","16.668595041322025","640","396","./1_3_Stimuli/T_ambi40.png","朋友","Word","自我","Mismatch","f","true","Formal",""
"","","","","","psychophysics","251","484664","0.0-9.0-0.0-0.90","688","","f","","","","","","","","","","","","","key","f","16.667889908257308","640","396","./1_3_Stimuli/T_ambi40.png","他人","Word","自我","Mismatch","f","true","Formal",""
"","","","","","psychophysics","252","486933","0.0-9.0-0.0-0.91","1113","","f","","","","","","","","","","","","","key","f","16.667407407407236","640","396","./1_3_Stimuli/S_ambi40.png","他人","Word","朋友","Mismatch","f","true","Formal",""
"","","","","","psychophysics","253","488642","0.0-9.0-0.0-0.92","552","","j","","","","","","","","","","","","","key","j","16.669306930692837","640","396","./1_3_Stimuli/S_ambi40.png","朋友","Word","朋友","Match","j","true","Formal",""
"","","","","","psychophysics","254","490856","0.0-9.0-0.0-0.93","1063","","j","","","","","","","","","","","","","key","j","16.668702290076602","640","396","./1_3_Stimuli/C_ambi40.png","他人","Image","他人","Match","j","true","Formal",""
"","","","","","psychophysics","255","492615","0.0-9.0-0.0-0.94","605","","f","","","","","","","","","","","","","key","f","16.668571428570985","640","396","./1_3_Stimuli/C_ambi40.png","朋友","Word","他人","Mismatch","f","true","Formal",""
"","","","","","psychophysics","256","494416","0.0-9.0-0.0-0.95","643","","f","","","","","","","","","","","","","key","f","16.670093457944034","640","396","./1_3_Stimuli/C_ambi40.png","自我","Word","他人","Mismatch","f","true","Formal",""
"","","","","","psychophysics","257","496417","0.0-9.0-0.0-0.96","849","","j","","","","","","","","","","","","","key","j","16.66722689075601","640","396","./1_3_Stimuli/C_ambi40.png","他人","Word","他人","Match","j","true","Formal",""
"","","","","","psychophysics","258","498348","0.0-9.0-0.0-0.97","775","","j","","","","","","","","","","","","","key","j","16.66782608695642","640","396","./1_3_Stimuli/S_ambi40.png","他人","Word","朋友","Mismatch","f","false","Formal",""
"","","","","","psychophysics","259","500027","0.0-9.0-0.0-0.98","525","","f","","","","","","","","","","","","","key","f","16.67070707070672","640","396","./1_3_Stimuli/S_ambi40.png","自我","Word","朋友","Mismatch","f","true","Formal",""
"","","","","","psychophysics","260","502200","0.0-9.0-0.0-0.99","1022","","j","","","","","","","","","","","","","key","j","16.667441860465388","640","396","./1_3_Stimuli/C_ambi40.png","他人","Word","他人","Match","j","true","Formal",""
"","","","","","psychophysics","261","503853","0.0-9.0-0.0-0.100","492","","j","","","","","","","","","","","","","key","j","16.668367346938776","640","396","./1_3_Stimuli/C_ambi40.png","他人","Image","他人","Match","j","true","Formal",""
"","","","","","psychophysics","262","505739","0.0-9.0-0.0-0.101","727","","f","","","","","","","","","","","","","key","f","16.668749999999687","640","396","./1_3_Stimuli/C_ambi40.png","朋友","Image","他人","Mismatch","f","true","Formal",""
"","","","","","psychophysics","263","507851","0.0-9.0-0.0-0.102","956","","f","","","","","","","","","","","","","key","f","16.665873015872737","640","396","./1_3_Stimuli/C_ambi40.png","他人","Image","他人","Match","j","false","Formal",""
"","","","","","psychophysics","264","509646","0.0-9.0-0.0-0.103","635","","j","","","","","","","","","","","","","key","j","16.670093457944034","640","396","./1_3_Stimuli/S_ambi40.png","朋友","Word","朋友","Match","j","true","Formal",""
"","","","","","psychophysics","265","511436","0.0-9.0-0.0-0.104","630","","f","","","","","","","","","","","","","key","f","16.66698113207558","640","396","./1_3_Stimuli/T_ambi40.png","朋友","Word","自我","Mismatch","f","true","Formal",""
"","","","","","psychophysics","266","513830","0.0-9.0-0.0-0.105","1236","","f","","","","","","","","","","","","","key","f","16.667832167832167","640","396","./1_3_Stimuli/C_ambi40.png","自我","Image","他人","Mismatch","f","true","Formal",""
"","","","","","psychophysics","267","516281","0.0-9.0-0.0-0.106","1291","","f","","","","","","","","","","","","","key","f","16.666438356164303","640","396","./1_3_Stimuli/S_ambi40.png","他人","Image","朋友","Mismatch","f","true","Formal",""
"","","","","","psychophysics","268","518986","0.0-9.0-0.0-0.107","null","","null","","","","","","","","","","","","","key","null","16.668944099378592","640","396","./1_3_Stimuli/T_ambi40.png","朋友","Image","自我","Mismatch","f","false","Formal",""
"","","","","","psychophysics","269","520692","0.0-9.0-0.0-0.108","546","","j","","","","","","","","","","","","","key","j","16.669306930692837","640","396","./1_3_Stimuli/T_ambi40.png","自我","Image","自我","Match","j","true","Formal",""
"","","","","","psychophysics","270","523397","0.0-9.0-0.0-0.109","null","","null","","","","","","","","","","","","","key","null","16.670370370370225","640","396","./1_3_Stimuli/S_ambi40.png","朋友","Word","朋友","Match","j","false","Formal",""
"","","","","","psychophysics","271","525250","0.0-9.0-0.0-0.110","698","","f","","","","","","","","","","","","","key","f","16.668181818182347","640","396","./1_3_Stimuli/S_ambi40.png","自我","Image","朋友","Mismatch","f","true","Formal",""
"","","","","","psychophysics","272","527695","0.0-9.0-0.0-0.111","1289","","j","","","","","","","","","","","","","key","j","16.66896551724138","640","396","./1_3_Stimuli/C_ambi40.png","朋友","Word","他人","Mismatch","f","false","Formal",""
"","","","","","psychophysics","273","529556","0.0-9.0-0.0-0.112","709","","j","","","","","","","","","","","","","key","j","16.67027027027048","640","396","./1_3_Stimuli/S_ambi40.png","朋友","Image","朋友","Match","j","true","Formal",""
"","","","","","psychophysics","274","531608","0.0-9.0-0.0-0.113","894","","f","","","","","","","","","","","","","key","f","16.669672131148115","640","396","./1_3_Stimuli/T_ambi40.png","他人","Word","自我","Mismatch","f","true","Formal",""
"","","","","","psychophysics","275","533372","0.0-9.0-0.0-0.114","608","","f","","","","","","","","","","","","","key","f","16.667619047618825","640","396","./1_3_Stimuli/C_ambi40.png","自我","Word","他人","Mismatch","f","true","Formal",""
"","","","","","psychophysics","276","535131","0.0-9.0-0.0-0.115","600","","j","","","","","","","","","","","","","key","j","16.665714285714508","640","396","./1_3_Stimuli/T_ambi40.png","自我","Word","自我","Match","j","true","Formal",""
"","","","","","psychophysics","277","537365","0.0-9.0-0.0-0.116","1083","","j","","","","","","","","","","","","","key","j","16.668421052631754","640","396","./1_3_Stimuli/S_ambi40.png","朋友","Image","朋友","Match","j","true","Formal",""
"","","","","","psychophysics","278","539085","0.0-9.0-0.0-0.117","560","","j","","","","","","","","","","","","","key","j","16.670588235293206","640","396","./1_3_Stimuli/T_ambi40.png","自我","Image","自我","Match","j","true","Formal",""
"","","","","","psychophysics","279","540809","0.0-9.0-0.0-0.118","566","","f","","","","","","","","","","","","","key","f","16.66568627450889","640","396","./1_3_Stimuli/T_ambi40.png","他人","Image","自我","Mismatch","f","true","Formal",""
"","","","","","psychophysics","280","542770","0.0-9.0-0.0-0.119","805","","j","","","","","","","","","","","","","key","j","16.66923076923017","640","396","./1_3_Stimuli/T_ambi40.png","自我","Word","自我","Match","j","true","Formal",""
"","","","","","html-keyboard-response","281","563210","0.0-9.0-1.0","20439","<style>.context{color:white; font-size: 35px; line-height:40px}</style>                        <div><p class='context'>您正确回答了82% 的试次。</p><p class='context'>您的平均反应时为752毫秒。</p><p> <div style = 'color: green'><按任意键进入休息></div></p>"," ","","","","","","","","","","","","","","","","","","","","","","","","","",""
"","","","","","html-button-response","282","570679","0.0-9.0-2.0","7466","
                  <p>您当前还剩余5组实验</p>
                  <p>现在是休息时间，当您结束休息后，您可以点击 结束休息 按钮 继续</p>
                  <p>建议休息时间还剩余<span id=""iii"">60</span>秒</p>","0","","","","","","","","","","","","","","","","","","","","","","","","","",""
"","","","","","psychophysics","283","573242","0.0-9.0-0.1-0.120","1408","","j","","","","","","","","","","","","","key","j","16.669934640522875","640","396","./1_3_Stimuli/S_ambi40.png","他人","Image","朋友","Mismatch","f","false","Formal",""
"","","","","","psychophysics","284","575294","0.0-9.0-0.1-0.121","893","","f","","","","","","","","","","","","","key","f","16.669672131148115","640","396","./1_3_Stimuli/T_ambi40.png","朋友","Word","自我","Mismatch","f","true","Formal",""
"","","","","","psychophysics","285","577961","0.0-9.0-0.1-0.122","1510","","j","","","","","","","","","","","","","key","j","16.66918238993652","640","396","./1_3_Stimuli/S_ambi40.png","朋友","Image","朋友","Match","j","true","Formal",""
"","","","","","psychophysics","286","579759","0.0-9.0-0.1-0.123","640","","f","","","","","","","","","","","","","key","f","16.669158878504454","640","396","./1_3_Stimuli/S_ambi40.png","自我","Word","朋友","Mismatch","f","true","Formal",""
"","","","","","psychophysics","287","581955","0.0-9.0-0.1-0.124","1035","","j","","","","","","","","","","","","","key","j","16.667175572519263","640","396","./1_3_Stimuli/S_ambi40.png","朋友","Word","朋友","Match","j","true","Formal",""
"","","","","","psychophysics","288","583971","0.0-9.0-0.1-0.125","856","","f","","","","","","","","","","","","","key","f","16.669166666667056","640","396","./1_3_Stimuli/C_ambi40.png","朋友","Word","他人","Mismatch","f","true","Formal",""
"","","","","","psychophysics","289","586054","0.0-9.0-0.1-0.126","922","","j","","","","","","","","","","","","","key","j","16.667741935484248","640","396","./1_3_Stimuli/C_ambi40.png","自我","Image","他人","Mismatch","f","false","Formal",""
"","","","","","psychophysics","290","588060","0.0-9.0-0.1-0.127","848","","f","","","","","","","","","","","","","key","f","16.6672268907565","640","396","./1_3_Stimuli/C_ambi40.png","自我","Word","他人","Mismatch","f","true","Formal",""
"","","","","","psychophysics","291","589774","0.0-9.0-0.1-0.128","558","","j","","","","","","","","","","","","","key","j","16.667647058823302","640","396","./1_3_Stimuli/T_ambi40.png","自我","Word","自我","Match","j","true","Formal",""
"","","","","","psychophysics","292","592031","0.0-9.0-0.1-0.129","1094","","j","","","","","","","","","","","","","key","j","16.66940298507515","640","396","./1_3_Stimuli/T_ambi40.png","自我","Image","自我","Match","j","true","Formal",""
"","","","","","psychophysics","293","594241","0.0-9.0-0.1-0.130","1054","","j","","","","","","","","","","","","","key","j","16.668181818181466","640","396","./1_3_Stimuli/S_ambi40.png","朋友","Word","朋友","Match","j","true","Formal",""
"","","","","","psychophysics","294","596354","0.0-9.0-0.1-0.131","950","","j","","","","","","","","","","","","","key","j","16.666666666666668","640","396","./1_3_Stimuli/S_ambi40.png","他人","Word","朋友","Mismatch","f","false","Formal",""
"","","","","","psychophysics","295","598133","0.0-9.0-0.1-0.132","623","","j","","","","","","","","","","","","","key","j","16.666666666666668","640","396","./1_3_Stimuli/C_ambi40.png","他人","Word","他人","Match","j","true","Formal",""
"","","","","","psychophysics","296","600140","0.0-9.0-0.1-0.133","852","","j","","","","","","","","","","","","","key","j","16.668333333332946","640","396","./1_3_Stimuli/S_ambi40.png","朋友","Image","朋友","Match","j","true","Formal",""
"","","","","","psychophysics","297","602137","0.0-9.0-0.1-0.134","836","","f","","","","","","","","","","","","","key","f","16.670338983051636","640","396","./1_3_Stimuli/C_ambi40.png","他人","Image","他人","Match","j","false","Formal",""
"","","","","","psychophysics","298","604003","0.0-9.0-0.1-0.135","715","","f","","","","","","","","","","","","","key","f","16.667272727272938","640","396","./1_3_Stimuli/S_ambi40.png","自我","Image","朋友","Mismatch","f","true","Formal",""
"","","","","","psychophysics","299","605853","0.0-9.0-0.1-0.136","698","","j","","","","","","","","","","","","","key","j","16.670909090909515","640","396","./1_3_Stimuli/C_ambi40.png","他人","Word","他人","Match","j","true","Formal",""
"","","","","","psychophysics","300","607759","0.0-9.0-0.1-0.137","753","","f","","","","","","","","","","","","","key","f","16.665486725663303","640","396","./1_3_Stimuli/T_ambi40.png","他人","Word","自我","Mismatch","f","true","Formal",""
"","","","","","psychophysics","301","609873","0.0-9.0-0.1-0.138","953","","j","","","","","","","","","","","","","key","j","16.668253968254522","640","396","./1_3_Stimuli/T_ambi40.png","自我","Image","自我","Match","j","true","Formal",""
"","","","","","psychophysics","302","611959","0.0-9.0-0.1-0.139","928","","f","","","","","","","","","","","","","key","f","16.670161290322394","640","396","./1_3_Stimuli/T_ambi40.png","他人","Image","自我","Mismatch","f","true","Formal",""
"","","","","","psychophysics","303","613617","0.0-9.0-0.1-0.140","507","","j","","","","","","","","","","","","","key","j","16.670408163266018","640","396","./1_3_Stimuli/T_ambi40.png","自我","Word","自我","Match","j","true","Formal",""
"","","","","","psychophysics","304","615357","0.0-9.0-0.1-0.141","584","","f","","","","","","","","","","","","","key","f","16.667307692307915","640","396","./1_3_Stimuli/T_ambi40.png","朋友","Image","自我","Mismatch","f","true","Formal",""
"","","","","","psychophysics","305","618072","0.0-9.0-0.1-0.142","null","","null","","","","","","","","","","","","","key","null","16.669565217391593","640","396","./1_3_Stimuli/C_ambi40.png","朋友","Image","他人","Mismatch","f","false","Formal",""
"","","","","","psychophysics","306","620122","0.0-9.0-0.1-0.143","899","","j","","","","","","","","","","","","","key","j","16.670247933884106","640","396","./1_3_Stimuli/C_ambi40.png","他人","Image","他人","Match","j","true","Formal",""
"","","","","","psychophysics","307","621977","0.0-9.0-0.1-0.144","703","","f","","","","","","","","","","","","","key","f","16.667272727272938","640","396","./1_3_Stimuli/C_ambi40.png","朋友","Image","他人","Mismatch","f","true","Formal",""
"","","","","","psychophysics","308","623842","0.0-9.0-0.1-0.145","702","","f","","","","","","","","","","","","","key","f","16.66846846846805","640","396","./1_3_Stimuli/T_ambi40.png","他人","Image","自我","Mismatch","f","true","Formal",""
"","","","","","psychophysics","309","625894","0.0-9.0-0.1-0.146","898","","j","","","","","","","","","","","","","key","j","16.66639344262238","640","396","./1_3_Stimuli/C_ambi40.png","他人","Image","他人","Match","j","true","Formal",""
"","","","","","psychophysics","310","627664","0.0-9.0-0.1-0.147","614","","f","","","","","","","","","","","","","key","f","16.668571428570985","640","396","./1_3_Stimuli/T_ambi40.png","他人","Word","自我","Mismatch","f","true","Formal",""
"","","","","","psychophysics","311","629932","0.0-9.0-0.1-0.148","1108","","j","","","","","","","","","","","","","key","j","16.667407407407236","640","396","./1_3_Stimuli/T_ambi40.png","自我","Word","自我","Match","j","true","Formal",""
"","","","","","psychophysics","312","631571","0.0-9.0-0.1-0.149","479","","j","","","","","","","","","","","","","key","j","16.66701030927907","640","396","./1_3_Stimuli/T_ambi40.png","自我","Image","自我","Match","j","true","Formal",""
"","","","","","psychophysics","313","633442","0.0-9.0-0.1-0.150","717","","f","","","","","","","","","","","","","key","f","16.669642857142858","640","396","./1_3_Stimuli/C_ambi40.png","他人","Word","他人","Match","j","false","Formal",""
"","","","","","psychophysics","314","635559","0.0-9.0-0.1-0.151","960","","j","","","","","","","","","","","","","key","j","16.668253968253598","640","396","./1_3_Stimuli/S_ambi40.png","朋友","Image","朋友","Match","j","true","Formal",""
"","","","","","psychophysics","315","637273","0.0-9.0-0.1-0.152","551","","j","","","","","","","","","","","","","key","j","16.66633663366383","640","396","./1_3_Stimuli/S_ambi40.png","朋友","Image","朋友","Match","j","true","Formal",""
"","","","","","psychophysics","316","639264","0.0-9.0-0.1-0.153","839","","j","","","","","","","","","","","","","key","j","16.666101694915056","640","396","./1_3_Stimuli/C_ambi40.png","他人","Word","他人","Match","j","true","Formal",""
"","","","","","psychophysics","317","641064","0.0-9.0-0.1-0.154","643","","f","","","","","","","","","","","","","key","f","16.66822429906542","640","396","./1_3_Stimuli/S_ambi40.png","自我","Word","朋友","Mismatch","f","true","Formal",""
"","","","","","psychophysics","318","643197","0.0-9.0-0.1-0.155","972","","f","","","","","","","","","","","","","key","f","16.668503937008058","640","396","./1_3_Stimuli/T_ambi40.png","朋友","Image","自我","Mismatch","f","true","Formal",""
"","","","","","psychophysics","319","644992","0.0-9.0-0.1-0.156","636","","j","","","","","","","","","","","","","key","j","16.670754716980912","640","396","./1_3_Stimuli/T_ambi40.png","自我","Word","自我","Match","j","true","Formal",""
"","","","","","psychophysics","320","647264","0.0-9.0-0.1-0.157","1121","","f","","","","","","","","","","","","","key","f","16.66962962962894","640","396","./1_3_Stimuli/C_ambi40.png","自我","Image","他人","Mismatch","f","true","Formal",""
"","","","","","psychophysics","321","649771","0.0-9.0-0.1-0.158","1353","","j","","","","","","","","","","","","","key","j","16.66845637583955","640","396","./1_3_Stimuli/S_ambi40.png","他人","Image","朋友","Mismatch","f","false","Formal",""
"","","","","","psychophysics","322","652344","0.0-9.0-0.1-0.159","1419","","j","","","","","","","","","","","","","key","j","16.66818181818197","640","396","./1_3_Stimuli/S_ambi40.png","朋友","Word","朋友","Match","j","true","Formal",""
"","","","","","psychophysics","323","654465","0.0-9.0-0.1-0.160","970","","f","","","","","","","","","","","","","key","f","16.669841269841456","640","396","./1_3_Stimuli/C_ambi40.png","自我","Word","他人","Mismatch","f","true","Formal",""
"","","","","","psychophysics","324","656367","0.0-9.0-0.1-0.161","751","","f","","","","","","","","","","","","","key","f","16.668141592920353","640","396","./1_3_Stimuli/S_ambi40.png","自我","Image","朋友","Mismatch","f","true","Formal",""
"","","","","","psychophysics","325","658050","0.0-9.0-0.1-0.162","530","","j","","","","","","","","","","","","","key","j","16.67","640","396","./1_3_Stimuli/T_ambi40.png","自我","Image","自我","Match","j","true","Formal",""
"","","","","","psychophysics","326","660419","0.0-9.0-0.1-0.163","1218","","f","","","","","","","","","","","","","key","f","16.668085106382648","640","396","./1_3_Stimuli/T_ambi40.png","朋友","Word","自我","Mismatch","f","true","Formal",""
"","","","","","psychophysics","327","662541","0.0-9.0-0.1-0.164","965","","j","","","","","","","","","","","","","key","j","16.668253968254522","640","396","./1_3_Stimuli/C_ambi40.png","他人","Image","他人","Match","j","true","Formal",""
"","","","","","psychophysics","328","664659","0.0-9.0-0.1-0.165","965","","f","","","","","","","","","","","","","key","f","16.668","640","396","./1_3_Stimuli/C_ambi40.png","朋友","Word","他人","Mismatch","f","true","Formal",""
"","","","","","psychophysics","329","666832","0.0-9.0-0.1-0.166","1021","","f","","","","","","","","","","","","","key","f","16.667692307692665","640","396","./1_3_Stimuli/S_ambi40.png","他人","Word","朋友","Mismatch","f","true","Formal",""
"","","","","","psychophysics","330","668969","0.0-9.0-0.1-0.167","982","","j","","","","","","","","","","","","","key","j","16.670078740157297","640","396","./1_3_Stimuli/S_ambi40.png","朋友","Word","朋友","Match","j","true","Formal",""
"","","","","","psychophysics","331","670704","0.0-9.0-0.1-0.168","576","","j","","","","","","","","","","","","","key","j","16.667961165048997","640","396","./1_3_Stimuli/S_ambi40.png","朋友","Word","朋友","Match","j","true","Formal",""
"","","","","","psychophysics","332","672503","0.0-9.0-0.1-0.169","645","","f","","","","","","","","","","","","","key","f","16.671028037382523","640","396","./1_3_Stimuli/C_ambi40.png","朋友","Word","他人","Mismatch","f","true","Formal",""
"","","","","","psychophysics","333","674334","0.0-9.0-0.1-0.170","672","","j","","","","","","","","","","","","","key","j","16.6697247706422","640","396","./1_3_Stimuli/S_ambi40.png","朋友","Image","朋友","Match","j","true","Formal",""
"","","","","","psychophysics","334","675992","0.0-9.0-0.1-0.171","497","","j","","","","","","","","","","","","","key","j","16.66632653061272","640","396","./1_3_Stimuli/T_ambi40.png","自我","Image","自我","Match","j","true","Formal",""
"","","","","","psychophysics","335","677605","0.0-9.0-0.1-0.172","462","","j","","","","","","","","","","","","","key","j","16.667708333333092","640","396","./1_3_Stimuli/S_ambi40.png","自我","Word","朋友","Mismatch","f","false","Formal",""
"","","","","","psychophysics","336","679329","0.0-9.0-0.1-0.173","569","","j","","","","","","","","","","","","","key","j","16.66990291262136","640","396","./1_3_Stimuli/T_ambi40.png","自我","Word","自我","Match","j","true","Formal",""
"","","","","","psychophysics","337","681648","0.0-9.0-0.1-0.174","1163","","j","","","","","","","","","","","","","key","j","16.66811594202865","640","396","./1_3_Stimuli/S_ambi40.png","朋友","Image","朋友","Match","j","true","Formal",""
"","","","","","psychophysics","338","683605","0.0-9.0-0.1-0.175","802","","f","","","","","","","","","","","","","key","f","16.666379310345228","640","396","./1_3_Stimuli/T_ambi40.png","他人","Word","自我","Mismatch","f","true","Formal",""
"","","","","","psychophysics","339","685490","0.0-9.0-0.1-0.176","728","","j","","","","","","","","","","","","","key","j","16.66785714285756","640","396","./1_3_Stimuli/C_ambi40.png","他人","Word","他人","Match","j","true","Formal",""
"","","","","","psychophysics","340","687653","0.0-9.0-0.1-0.177","1006","","f","","","","","","","","","","","","","key","f","16.668217054264108","640","396","./1_3_Stimuli/C_ambi40.png","他人","Word","他人","Match","j","false","Formal",""
"","","","","","psychophysics","341","689347","0.0-9.0-0.1-0.178","537","","j","","","","","","","","","","","","","key","j","16.67029702970366","640","396","./1_3_Stimuli/C_ambi40.png","他人","Image","他人","Match","j","true","Formal",""
"","","","","","psychophysics","342","691313","0.0-9.0-0.1-0.179","815","","f","","","","","","","","","","","","","key","f","16.66724137930954","640","396","./1_3_Stimuli/T_ambi40.png","他人","Image","自我","Mismatch","f","true","Formal",""
"","","","","","psychophysics","343","693395","0.0-9.0-0.1-0.180","932","","f","","","","","","","","","","","","","key","f","16.667479674797505","640","396","./1_3_Stimuli/S_ambi40.png","他人","Image","朋友","Mismatch","f","true","Formal",""
"","","","","","psychophysics","344","695165","0.0-9.0-0.1-0.181","618","","j","","","","","","","","","","","","","key","j","16.667619047619933","640","396","./1_3_Stimuli/S_ambi40.png","朋友","Word","朋友","Match","j","true","Formal",""
"","","","","","psychophysics","345","697035","0.0-9.0-0.1-0.182","708","","f","","","","","","","","","","","","","key","f","16.66846846846805","640","396","./1_3_Stimuli/C_ambi40.png","自我","Image","他人","Mismatch","f","true","Formal",""
"","","","","","psychophysics","346","698931","0.0-9.0-0.1-0.183","738","","f","","","","","","","","","","","","","key","f","16.669911504424366","640","396","./1_3_Stimuli/T_ambi40.png","朋友","Image","自我","Mismatch","f","true","Formal",""
"","","","","","psychophysics","347","700862","0.0-9.0-0.1-0.184","773","","f","","","","","","","","","","","","","key","f","16.666666666666668","640","396","./1_3_Stimuli/T_ambi40.png","朋友","Word","自我","Mismatch","f","true","Formal",""
"","","","","","psychophysics","348","702673","0.0-9.0-0.1-0.185","659","","f","","","","","","","","","","","","","key","f","16.66822429906542","640","396","./1_3_Stimuli/C_ambi40.png","他人","Image","他人","Match","j","false","Formal",""
"","","","","","psychophysics","349","704633","0.0-9.0-0.1-0.186","802","","f","","","","","","","","","","","","","key","f","16.66837606837567","640","396","./1_3_Stimuli/S_ambi40.png","他人","Word","朋友","Mismatch","f","true","Formal",""
"","","","","","psychophysics","350","706488","0.0-9.0-0.1-0.187","699","","j","","","","","","","","","","","","","key","j","16.670000000000634","640","396","./1_3_Stimuli/T_ambi40.png","自我","Word","自我","Match","j","true","Formal",""
"","","","","","psychophysics","351","708336","0.0-9.0-0.1-0.188","687","","j","","","","","","","","","","","","","key","j","16.669999999999575","640","396","./1_3_Stimuli/T_ambi40.png","自我","Image","自我","Match","j","true","Formal",""
"","","","","","psychophysics","352","710441","0.0-9.0-0.1-0.189","942","","f","","","","","","","","","","","","","key","f","16.667199999999255","640","396","./1_3_Stimuli/C_ambi40.png","朋友","Image","他人","Mismatch","f","true","Formal",""
"","","","","","psychophysics","353","712724","0.0-9.0-0.1-0.190","1125","","f","","","","","","","","","","","","","key","f","16.669852941177155","640","396","./1_3_Stimuli/S_ambi40.png","自我","Image","朋友","Mismatch","f","true","Formal",""
"","","","","","psychophysics","354","715220","0.0-9.0-0.1-0.191","1338","","f","","","","","","","","","","","","","key","f","16.66845637583877","640","396","./1_3_Stimuli/C_ambi40.png","自我","Word","他人","Mismatch","f","true","Formal",""
"","","","","","psychophysics","355","717096","0.0-9.0-0.1-0.192","724","","f","","","","","","","","","","","","","key","f","16.666666666666668","640","396","./1_3_Stimuli/T_ambi40.png","他人","Word","自我","Mismatch","f","true","Formal",""
"","","","","","psychophysics","356","719548","0.0-9.0-0.1-0.193","1299","","f","","","","","","","","","","","","","key","f","16.66849315068477","640","396","./1_3_Stimuli/T_ambi40.png","他人","Image","自我","Mismatch","f","true","Formal",""
"","","","","","psychophysics","357","721296","0.0-9.0-0.1-0.194","596","","f","","","","","","","","","","","","","key","f","16.67087378640754","640","396","./1_3_Stimuli/C_ambi40.png","朋友","Image","他人","Mismatch","f","true","Formal",""
"","","","","","psychophysics","358","723131","0.0-9.0-0.1-0.195","681","","f","","","","","","","","","","","","","key","f","16.66788990825624","640","396","./1_3_Stimuli/C_ambi40.png","自我","Image","他人","Mismatch","f","true","Formal",""
"","","","","","psychophysics","359","724866","0.0-9.0-0.1-0.196","582","","f","","","","","","","","","","","","","key","f","16.66990291262136","640","396","./1_3_Stimuli/C_ambi40.png","他人","Image","他人","Match","j","false","Formal",""
"","","","","","psychophysics","360","726545","0.0-9.0-0.1-0.197","527","","j","","","","","","","","","","","","","key","j","16.668686868687573","640","396","./1_3_Stimuli/T_ambi40.png","自我","Image","自我","Match","j","true","Formal",""
"","","","","","psychophysics","361","728707","0.0-9.0-0.1-0.198","1009","","j","","","","","","","","","","","","","key","j","16.668217054263206","640","396","./1_3_Stimuli/S_ambi40.png","朋友","Word","朋友","Match","j","true","Formal",""
"","","","","","psychophysics","362","730764","0.0-9.0-0.1-0.199","904","","f","","","","","","","","","","","","","key","f","16.668032786885245","640","396","./1_3_Stimuli/S_ambi40.png","他人","Word","朋友","Mismatch","f","true","Formal",""
"","","","","","psychophysics","363","732312","0.0-9.0-0.1-0.200","394","","j","","","","","","","","","","","","","key","j","16.66739130434808","640","396","./1_3_Stimuli/T_ambi40.png","自我","Word","自我","Match","j","true","Formal",""
"","","","","","psychophysics","364","734778","0.0-9.0-0.1-0.201","1313","","f","","","","","","","","","","","","","key","f","16.66802721088483","640","396","./1_3_Stimuli/S_ambi40.png","自我","Image","朋友","Mismatch","f","true","Formal",""
"","","","","","psychophysics","365","736723","0.0-9.0-0.1-0.202","794","","f","","","","","","","","","","","","","key","f","16.669827586206495","640","396","./1_3_Stimuli/T_ambi40.png","朋友","Word","自我","Mismatch","f","true","Formal",""
"","","","","","psychophysics","366","738791","0.0-9.0-0.1-0.203","908","","f","","","","","","","","","","","","","key","f","16.666666666666668","640","396","./1_3_Stimuli/T_ambi40.png","朋友","Image","自我","Mismatch","f","true","Formal",""
"","","","","","psychophysics","367","741307","0.0-9.0-0.1-0.204","1356","","j","","","","","","","","","","","","","key","j","16.668666666666976","640","396","./1_3_Stimuli/S_ambi40.png","朋友","Word","朋友","Match","j","true","Formal",""
"","","","","","psychophysics","368","743863","0.0-9.0-0.1-0.205","1397","","j","","","","","","","","","","","","","key","j","16.669736842105568","640","396","./1_3_Stimuli/C_ambi40.png","他人","Word","他人","Match","j","true","Formal",""
"","","","","","psychophysics","369","745542","0.0-9.0-0.1-0.206","522","","j","","","","","","","","","","","","","key","j","16.665999999999766","640","396","./1_3_Stimuli/T_ambi40.png","自我","Image","自我","Match","j","true","Formal",""
"","","","","","psychophysics","370","747353","0.0-9.0-0.1-0.207","657","","j","","","","","","","","","","","","","key","j","16.667592592592378","640","396","./1_3_Stimuli/C_ambi40.png","他人","Word","他人","Match","j","true","Formal",""
"","","","","","psychophysics","371","749142","0.0-9.0-0.1-0.208","638","","f","","","","","","","","","","","","","key","f","16.667924528302326","640","396","./1_3_Stimuli/C_ambi40.png","朋友","Word","他人","Mismatch","f","true","Formal",""
"","","","","","psychophysics","372","750926","0.0-9.0-0.1-0.209","630","","f","","","","","","","","","","","","","key","f","16.669811320754718","640","396","./1_3_Stimuli/C_ambi40.png","自我","Word","他人","Mismatch","f","true","Formal",""
"","","","","","psychophysics","373","753261","0.0-9.0-0.1-0.210","1175","","f","","","","","","","","","","","","","key","f","16.668345323741175","640","396","./1_3_Stimuli/S_ambi40.png","自我","Word","朋友","Mismatch","f","true","Formal",""
"","","","","","psychophysics","374","755519","0.0-9.0-0.1-0.211","1107","","f","","","","","","","","","","","","","key","f","16.66940298507515","640","396","./1_3_Stimuli/T_ambi40.png","自我","Word","自我","Match","j","false","Formal",""
"","","","","","psychophysics","375","758081","0.0-9.0-0.1-0.212","1411","","j","","","","","","","","","","","","","key","j","16.668421052631427","640","396","./1_3_Stimuli/S_ambi40.png","他人","Image","朋友","Mismatch","f","false","Formal",""
"","","","","","psychophysics","376","760355","0.0-9.0-0.1-0.213","1119","","j","","","","","","","","","","","","","key","j","16.670588235293774","640","396","./1_3_Stimuli/S_ambi40.png","朋友","Image","朋友","Match","j","true","Formal",""
"","","","","","psychophysics","377","763062","0.0-9.0-0.1-0.214","null","","null","","","","","","","","","","","","","key","null","16.668322981366316","640","396","./1_3_Stimuli/C_ambi40.png","他人","Image","他人","Match","j","false","Formal",""
"","","","","","psychophysics","378","765628","0.0-9.0-0.1-0.215","1407","","j","","","","","","","","","","","","","key","j","16.666666666666668","640","396","./1_3_Stimuli/S_ambi40.png","朋友","Image","朋友","Match","j","true","Formal",""
"","","","","","psychophysics","379","767383","0.0-9.0-0.1-0.216","603","","f","","","","","","","","","","","","","key","f","16.669230769231664","640","396","./1_3_Stimuli/S_ambi40.png","自我","Image","朋友","Mismatch","f","true","Formal",""
"","","","","","psychophysics","380","770089","0.0-9.0-0.1-0.217","null","","null","","","","","","","","","","","","","key","null","16.66913580246928","640","396","./1_3_Stimuli/C_ambi40.png","朋友","Word","他人","Mismatch","f","false","Formal",""
"","","","","","psychophysics","381","771991","0.0-9.0-0.1-0.218","752","","f","","","","","","","","","","","","","key","f","16.66637168141634","640","396","./1_3_Stimuli/T_ambi40.png","他人","Word","自我","Mismatch","f","true","Formal",""
"","","","","","psychophysics","382","774189","0.0-9.0-0.1-0.219","1036","","f","","","","","","","","","","","","","key","f","16.66793893129771","640","396","./1_3_Stimuli/T_ambi40.png","朋友","Word","自我","Mismatch","f","true","Formal",""
"","","","","","psychophysics","383","776357","0.0-9.0-0.1-0.220","1011","","f","","","","","","","","","","","","","key","f","16.668217054263206","640","396","./1_3_Stimuli/S_ambi40.png","他人","Image","朋友","Mismatch","f","true","Formal",""
"","","","","","psychophysics","384","778122","0.0-9.0-0.1-0.221","608","","j","","","","","","","","","","","","","key","j","16.66826923076923","640","396","./1_3_Stimuli/C_ambi40.png","他人","Word","他人","Match","j","true","Formal",""
"","","","","","psychophysics","385","779917","0.0-9.0-0.1-0.222","644","","f","","","","","","","","","","","","","key","f","16.669811320754718","640","396","./1_3_Stimuli/C_ambi40.png","自我","Image","他人","Mismatch","f","true","Formal",""
"","","","","","psychophysics","386","782569","0.0-9.0-0.1-0.223","1496","","j","","","","","","","","","","","","","key","j","16.667088607595083","640","396","./1_3_Stimuli/T_ambi40.png","自我","Image","自我","Match","j","true","Formal",""
"","","","","","psychophysics","387","784696","0.0-9.0-0.1-0.224","973","","j","","","","","","","","","","","","","key","j","16.669291338582678","640","396","./1_3_Stimuli/S_ambi40.png","朋友","Image","朋友","Match","j","true","Formal",""
"","","","","","psychophysics","388","786496","0.0-9.0-0.1-0.225","640","","f","","","","","","","","","","","","","key","f","16.66822429906542","640","396","./1_3_Stimuli/C_ambi40.png","朋友","Image","他人","Mismatch","f","true","Formal",""
"","","","","","psychophysics","389","788583","0.0-9.0-0.1-0.226","934","","j","","","","","","","","","","","","","key","j","16.668548387096962","640","396","./1_3_Stimuli/C_ambi40.png","他人","Word","他人","Match","j","true","Formal",""
"","","","","","psychophysics","390","790484","0.0-9.0-0.1-0.227","743","","f","","","","","","","","","","","","","key","f","16.667256637168347","640","396","./1_3_Stimuli/T_ambi40.png","朋友","Image","自我","Mismatch","f","true","Formal",""
"","","","","","psychophysics","391","792360","0.0-9.0-0.1-0.228","719","","j","","","","","","","","","","","","","key","j","16.670535714285506","640","396","./1_3_Stimuli/S_ambi40.png","朋友","Image","朋友","Match","j","true","Formal",""
"","","","","","psychophysics","392","794059","0.0-9.0-0.1-0.229","541","","j","","","","","","","","","","","","","key","j","16.667326732673498","640","396","./1_3_Stimuli/S_ambi40.png","朋友","Word","朋友","Match","j","true","Formal",""
"","","","","","psychophysics","393","795753","0.0-9.0-0.1-0.230","539","","j","","","","","","","","","","","","","key","j","16.665999999999766","640","396","./1_3_Stimuli/T_ambi40.png","自我","Word","自我","Match","j","true","Formal",""
"","","","","","psychophysics","394","798007","0.0-9.0-0.1-0.231","1100","","j","","","","","","","","","","","","","key","j","16.670149253730823","640","396","./1_3_Stimuli/T_ambi40.png","自我","Word","自我","Match","j","true","Formal",""
"","","","","","psychophysics","395","799585","0.0-9.0-0.1-0.232","427","","j","","","","","","","","","","","","","key","j","16.665591397849713","640","396","./1_3_Stimuli/S_ambi40.png","自我","Word","朋友","Mismatch","f","false","Formal",""
"","","","","","psychophysics","396","801415","0.0-9.0-0.1-0.233","678","","j","","","","","","","","","","","","","key","j","16.668807339449756","640","396","./1_3_Stimuli/T_ambi40.png","自我","Image","自我","Match","j","true","Formal",""
"","","","","","psychophysics","397","803523","0.0-9.0-0.1-0.234","949","","j","","","","","","","","","","","","","key","j","16.668","640","396","./1_3_Stimuli/C_ambi40.png","他人","Image","他人","Match","j","true","Formal",""
"","","","","","psychophysics","398","805458","0.0-9.0-0.1-0.235","784","","f","","","","","","","","","","","","","key","f","16.66842105263117","640","396","./1_3_Stimuli/T_ambi40.png","他人","Image","自我","Mismatch","f","true","Formal",""
"","","","","","psychophysics","399","807215","0.0-9.0-0.1-0.236","607","","f","","","","","","","","","","","","","key","f","16.669230769230545","640","396","./1_3_Stimuli/C_ambi40.png","他人","Image","他人","Match","j","false","Formal",""
"","","","","","psychophysics","400","809724","0.0-9.0-0.1-0.237","1348","","f","","","","","","","","","","","","","key","f","16.66845637583955","640","396","./1_3_Stimuli/S_ambi40.png","他人","Word","朋友","Mismatch","f","true","Formal",""
"","","","","","psychophysics","401","812078","0.0-9.0-0.1-0.238","1203","","j","","","","","","","","","","","","","key","j","16.670212765957448","640","396","./1_3_Stimuli/S_ambi40.png","朋友","Word","朋友","Match","j","true","Formal",""
"","","","","","psychophysics","402","813929","0.0-9.0-0.1-0.239","696","","f","","","","","","","","","","","","","key","f","16.66545454545518","640","396","./1_3_Stimuli/C_ambi40.png","自我","Word","他人","Mismatch","f","true","Formal",""
"","","","","","html-keyboard-response","403","816707","0.0-9.0-1.1","2777","<style>.context{color:white; font-size: 35px; line-height:40px}</style>                        <div><p class='context'>您正确回答了86% 的试次。</p><p class='context'>您的平均反应时为849毫秒。</p><p> <div style = 'color: green'><按任意键进入休息></div></p>"," ","","","","","","","","","","","","","","","","","","","","","","","","","",""
"","","","","","html-button-response","404","822013","0.0-9.0-2.1","5303","
                  <p>您当前还剩余4组实验</p>
                  <p>现在是休息时间，当您结束休息后，您可以点击 结束休息 按钮 继续</p>
                  <p>建议休息时间还剩余<span id=""iii"">60</span>秒</p>","0","","","","","","","","","","","","","","","","","","","","","","","","","",""
"","","","","","psychophysics","405","823738","0.0-9.0-0.2-0.240","561","","j","","","","","","","","","","","","","key","j","16.66960784313771","640","396","./1_3_Stimuli/T_ambi40.png","自我","Image","自我","Match","j","true","Formal",""
"","","","","","psychophysics","406","825898","0.0-9.0-0.2-0.241","1004","","j","","","","","","","","","","","","","key","j","16.668217054263206","640","396","./1_3_Stimuli/S_ambi40.png","朋友","Image","朋友","Match","j","true","Formal",""
"","","","","","psychophysics","407","828404","0.0-9.0-0.2-0.242","1346","","j","","","","","","","","","","","","","key","j","16.66912751677821","640","396","./1_3_Stimuli/C_ambi40.png","他人","Image","他人","Match","j","true","Formal",""
"","","","","","psychophysics","408","831112","0.0-9.0-0.2-0.243","null","","null","","","","","","","","","","","","","key","null","16.668518518518088","640","396","./1_3_Stimuli/S_ambi40.png","他人","Word","朋友","Mismatch","f","false","Formal",""
"","","","","","psychophysics","409","833823","0.0-9.0-0.2-0.244","null","","null","","","","","","","","","","","","","key","null","16.667080745341035","640","396","./1_3_Stimuli/C_ambi40.png","自我","Word","他人","Mismatch","f","false","Formal",""
"","","","","","psychophysics","410","836028","0.0-9.0-0.2-0.245","1050","","f","","","","","","","","","","","","","key","f","16.66793893129771","640","396","./1_3_Stimuli/C_ambi40.png","朋友","Image","他人","Mismatch","f","true","Formal",""
"","","","","","psychophysics","411","837696","0.0-9.0-0.2-0.246","518","","j","","","","","","","","","","","","","key","j","16.666666666666668","640","396","./1_3_Stimuli/T_ambi40.png","自我","Image","自我","Match","j","true","Formal",""
"","","","","","psychophysics","412","839513","0.0-9.0-0.2-0.247","654","","j","","","","","","","","","","","","","key","j","16.667592592592378","640","396","./1_3_Stimuli/S_ambi40.png","朋友","Word","朋友","Match","j","true","Formal",""
"","","","","","psychophysics","413","841119","0.0-9.0-0.2-0.248","446","","j","","","","","","","","","","","","","key","j","16.66842105263158","640","396","./1_3_Stimuli/T_ambi40.png","朋友","Word","自我","Mismatch","f","false","Formal",""
"","","","","","psychophysics","414","843038","0.0-9.0-0.2-0.249","765","","f","","","","","","","","","","","","","key","f","16.67105263157895","640","396","./1_3_Stimuli/T_ambi40.png","他人","Image","自我","Mismatch","f","true","Formal",""
"","","","","","psychophysics","415","845599","0.0-9.0-0.2-0.250","1403","","j","","","","","","","","","","","","","key","j","16.669934640522875","640","396","./1_3_Stimuli/S_ambi40.png","朋友","Image","朋友","Match","j","true","Formal",""
