"success","timeout","failed_images","failed_audio","failed_video","trial_type","trial_index","time_elapsed","internal_node_id","rt","stimulus","response","value","item_width_mm","item_height_mm","item_width_px","px2mm","view_dist_mm","item_width_deg","px2deg","scale_factor","win_width_deg","win_height_deg","view_history","response_type","key_press","avg_frame_time","center_x","center_y","image","word","target","valence","matchness","correct_response","correct","exp_condition","question_order"
"true","false","[]","[]","[]","preload","0","563","0.0-0.0","","","","","","","","","","","","","","","","","","","","","","","","","","","","",""
"","","","","","html-keyboard-response","1","5557","0.0-1.0","4993","
     <p>您好，欢迎参加本次实验。</p>
     <p>为充分保障您的权利，请确保您已经知晓并同意《参与实验同意书》以及《数据公开知情同意书》。</p>
     <p>如果您未见过上述内容，请咨询实验员。</p>
     <p>如果您选择继续实验，则表示您已经清楚两份知情同意书的内容并同意。</p>
     <p> <div style = ""color: green""><按任意键至下页></div> </p>
     "," ","","","","","","","","","","","","","","","","","","","","","","","","","",""
"","","","","","html-keyboard-response","2","6615","0.0-2.0-0.0","1057","
      <p>本实验首先需要您填写一些基本个人信息。</p>
      <p> <div style = ""color: green""><按任意键至下页></div></p>
      "," ","","","","","","","","","","","","","","","","","","","","","","","","","",""
"","","","","","call-function","3","6615","0.0-2.0-1.0","","","","","","","","","","","","","","","","","","","","","","","","","","","","",""
"","","","","","survey-html-form","4","12722","0.0-2.0-2.0","6106","","{""Q0"":""1017""}","","","","","","","","","","","","","","","","","","","","","","","","","",""
"","","","","","html-button-response","5","13778","0.0-2.0-3.0","1055","<p style = 'color : white'>您的性别</p>","1","","","","","","","","","","","","","","","","","","","","","","","","","",""
"","","","","","survey-html-form","6","18072","0.0-2.0-4.0","4293","","{""Q0"":""2000""}","","","","","","","","","","","","","","","","","","","","","","","","","",""
"","","","","","survey-html-form","7","22578","0.0-2.0-5.0","4505","","{""Q0"":""5""}","","","","","","","","","","","","","","","","","","","","","","","","","",""
"","","","","","virtual-chinrest","8","192075","0.0-3.0","169495","","","","85.6","53.98","480.64914885773277","5.615060150207158","509","9.612982977154655","50","0.8904624111311672","29.76","14.32","","","","","","","","","","","","","","",""
"true","","","","","fullscreen","9","195053","0.0-4.0","","","","","","","","","","","","","","","","","","","","","","","","","","","","",""
"","","","","","instructions","10","253369","0.0-5.0","58315","","","","","","","","","","","","","","[{""page_index"":0,""viewing_time"":4131},{""page_index"":1,""viewing_time"":35849},{""page_index"":2,""viewing_time"":16431},{""page_index"":3,""viewing_time"":1904}]","","","","","","","","","","","","","",""
"","","","","","html-keyboard-response","11","257021","0.0-6.0","null","<count-down title=""""></count-down>","null","","","","","","","","","","","","","","","","","","","","","","","","","",""
"","","","","","psychophysics","12","259737","0.0-7.0-0.0-0.0","null","","null","","","","","","","","","","","","","key","null","16.661490683229633","768","428","./1_3_Stimuli/C_ambi40.png","他人","Word","朋友","Mismatch","f","false","Practice",""
"","","","","","html-keyboard-response","13","260050","0.0-7.0-0.0-1.0","null","<span class='add_' style='color:yellow; font-size: 70px;'> 太慢! </span>","null","","","","","","","","","","","","","","","","","","","","","","","","","feedback",""
"","","","","","psychophysics","14","262752","0.0-7.0-0.0-0.1","null","","null","","","","","","","","","","","","","key","null","16.66375000000007","768","428","./1_3_Stimuli/S_ambi40.png","他人","Word","他人","Match","j","false","Practice",""
"","","","","","html-keyboard-response","15","263054","0.0-7.0-0.0-1.1","null","<span class='add_' style='color:yellow; font-size: 70px;'> 太慢! </span>","null","","","","","","","","","","","","","","","","","","","","","","","","","feedback",""
"","","","","","psychophysics","16","265762","0.0-7.0-0.0-0.2","null","","null","","","","","","","","","","","","","key","null","16.663975155279648","768","428","./1_3_Stimuli/S_ambi40.png","他人","Word","他人","Match","j","false","Practice",""
"","","","","","html-keyboard-response","17","266073","0.0-7.0-0.0-1.2","null","<span class='add_' style='color:yellow; font-size: 70px;'> 太慢! </span>","null","","","","","","","","","","","","","","","","","","","","","","","","","feedback",""
"","","","","","psychophysics","18","268291","0.0-7.0-0.0-0.3","1062","","f","","","","","","","","","","","","","key","f","16.663636363636627","768","428","./1_3_Stimuli/C_ambi40.png","自我","Image","朋友","Mismatch","f","true","Practice",""
"","","","","","html-keyboard-response","19","268606","0.0-7.0-0.0-1.3","null","<span style='color:GreenYellow; font-size: 70px;'>正确! </span>","null","","","","","","","","","","","","","","","","","","","","","","","","","feedback",""
"","","","","","psychophysics","20","271308","0.0-7.0-0.0-0.4","1545","","f","","","","","","","","","","","","","key","f","16.66335403726701","768","428","./1_3_Stimuli/T_ambi40.png","朋友","Word","自我","Mismatch","f","true","Practice",""
"","","","","","html-keyboard-response","21","271622","0.0-7.0-0.0-1.4","null","<span class='add_' style='color:yellow; font-size: 70px;'> 太慢! </span>","null","","","","","","","","","","","","","","","","","","","","","","","","","feedback",""
"","","","","","psychophysics","22","274115","0.0-7.0-0.0-0.5","1339","","j","","","","","","","","","","","","","key","j","16.66216216216216","768","428","./1_3_Stimuli/S_ambi40.png","他人","Image","他人","Match","j","true","Practice",""
"","","","","","html-keyboard-response","23","274423","0.0-7.0-0.0-1.5","null","<span style='color:GreenYellow; font-size: 70px;'>正确! </span>","null","","","","","","","","","","","","","","","","","","","","","","","","","feedback",""
"","","","","","psychophysics","24","277030","0.0-7.0-0.0-0.6","1453","","f","","","","","","","","","","","","","key","f","16.66645161290315","768","428","./1_3_Stimuli/C_ambi40.png","朋友","Word","朋友","Match","j","false","Practice",""
"","","","","","html-keyboard-response","25","277332","0.0-7.0-0.0-1.6","null","<span style='color:red; font-size: 70px;'>错误! </span>","null","","","","","","","","","","","","","","","","","","","","","","","","","feedback",""
"","","","","","psychophysics","26","280047","0.0-7.0-0.0-0.7","null","","null","","","","","","","","","","","","","key","null","16.663975155279648","768","428","./1_3_Stimuli/C_ambi40.png","朋友","Word","朋友","Match","j","false","Practice",""
"","","","","","html-keyboard-response","27","280359","0.0-7.0-0.0-1.7","null","<span class='add_' style='color:yellow; font-size: 70px;'> 太慢! </span>","null","","","","","","","","","","","","","","","","","","","","","","","","","feedback",""
"","","","","","psychophysics","28","282664","0.0-7.0-0.0-0.8","1150","","j","","","","","","","","","","","","","key","j","16.66277372262765","768","428","./1_3_Stimuli/S_ambi40.png","他人","Image","他人","Match","j","true","Practice",""
"","","","","","html-keyboard-response","29","282968","0.0-7.0-0.0-1.8","null","<span style='color:GreenYellow; font-size: 70px;'>正确! </span>","null","","","","","","","","","","","","","","","","","","","","","","","","","feedback",""
"","","","","","psychophysics","30","284892","0.0-7.0-0.0-0.9","764","","j","","","","","","","","","","","","","key","j","16.662280701754387","768","428","./1_3_Stimuli/T_ambi40.png","自我","Word","自我","Match","j","true","Practice",""
"","","","","","html-keyboard-response","31","285208","0.0-7.0-0.0-1.9","null","<span style='color:GreenYellow; font-size: 70px;'>正确! </span>","null","","","","","","","","","","","","","","","","","","","","","","","","","feedback",""
"","","","","","psychophysics","32","287297","0.0-7.0-0.0-0.10","938","","j","","","","","","","","","","","","","key","j","16.66532258064516","768","428","./1_3_Stimuli/C_ambi40.png","朋友","Image","朋友","Match","j","true","Practice",""
"","","","","","html-keyboard-response","33","287612","0.0-7.0-0.0-1.10","null","<span style='color:GreenYellow; font-size: 70px;'>正确! </span>","null","","","","","","","","","","","","","","","","","","","","","","","","","feedback",""
"","","","","","psychophysics","34","289846","0.0-7.0-0.0-0.11","1081","","f","","","","","","","","","","","","","key","f","16.65530303030303","768","428","./1_3_Stimuli/T_ambi40.png","他人","Image","自我","Mismatch","f","true","Practice",""
"","","","","","html-keyboard-response","35","290158","0.0-7.0-0.0-1.11","null","<span style='color:GreenYellow; font-size: 70px;'>正确! </span>","null","","","","","","","","","","","","","","","","","","","","","","","","","feedback",""
"","","","","","psychophysics","36","292543","0.0-7.0-0.0-0.12","1229","","f","","","","","","","","","","","","","key","f","16.663380281690223","768","428","./1_3_Stimuli/S_ambi40.png","朋友","Image","他人","Mismatch","f","true","Practice",""
"","","","","","html-keyboard-response","37","292859","0.0-7.0-0.0-1.12","null","<span style='color:GreenYellow; font-size: 70px;'>正确! </span>","null","","","","","","","","","","","","","","","","","","","","","","","","","feedback",""
"","","","","","psychophysics","38","294723","0.0-7.0-0.0-0.13","709","","f","","","","","","","","","","","","","key","f","16.66396396396407","768","428","./1_3_Stimuli/T_ambi40.png","他人","Word","自我","Mismatch","f","true","Practice",""
"","","","","","html-keyboard-response","39","295032","0.0-7.0-0.0-1.13","null","<span style='color:GreenYellow; font-size: 70px;'>正确! </span>","null","","","","","","","","","","","","","","","","","","","","","","","","","feedback",""
"","","","","","psychophysics","40","297244","0.0-7.0-0.0-0.14","1059","","f","","","","","","","","","","","","","key","f","16.66488549618303","768","428","./1_3_Stimuli/C_ambi40.png","他人","Image","朋友","Mismatch","f","true","Practice",""
"","","","","","html-keyboard-response","41","297548","0.0-7.0-0.0-1.14","null","<span style='color:GreenYellow; font-size: 70px;'>正确! </span>","null","","","","","","","","","","","","","","","","","","","","","","","","","feedback",""
"","","","","","psychophysics","42","299453","0.0-7.0-0.0-0.15","746","","f","","","","","","","","","","","","","key","f","16.663716814159294","768","428","./1_3_Stimuli/S_ambi40.png","自我","Word","他人","Mismatch","f","true","Practice",""
"","","","","","html-keyboard-response","43","299756","0.0-7.0-0.0-1.15","null","<span style='color:GreenYellow; font-size: 70px;'>正确! </span>","null","","","","","","","","","","","","","","","","","","","","","","","","","feedback",""
"","","","","","psychophysics","44","301782","0.0-7.0-0.0-0.16","870","","j","","","","","","","","","","","","","key","j","16.663636363636268","768","428","./1_3_Stimuli/T_ambi40.png","自我","Image","自我","Match","j","true","Practice",""
"","","","","","html-keyboard-response","45","302084","0.0-7.0-0.0-1.16","null","<span style='color:GreenYellow; font-size: 70px;'>正确! </span>","null","","","","","","","","","","","","","","","","","","","","","","","","","feedback",""
"","","","","","psychophysics","46","303981","0.0-7.0-0.0-0.17","742","","f","","","","","","","","","","","","","key","f","16.664601769911812","768","428","./1_3_Stimuli/C_ambi40.png","自我","Word","朋友","Mismatch","f","true","Practice",""
"","","","","","html-keyboard-response","47","304296","0.0-7.0-0.0-1.17","null","<span style='color:GreenYellow; font-size: 70px;'>正确! </span>","null","","","","","","","","","","","","","","","","","","","","","","","","","feedback",""
"","","","","","psychophysics","48","306557","0.0-7.0-0.0-0.18","1106","","j","","","","","","","","","","","","","key","j","16.66268656716409","768","428","./1_3_Stimuli/T_ambi40.png","自我","Image","自我","Match","j","true","Practice",""
"","","","","","html-keyboard-response","49","306873","0.0-7.0-0.0-1.18","null","<span style='color:GreenYellow; font-size: 70px;'>正确! </span>","null","","","","","","","","","","","","","","","","","","","","","","","","","feedback",""
"","","","","","psychophysics","50","309524","0.0-7.0-0.0-0.19","1497","","j","","","","","","","","","","","","","key","j","16.667088607595083","768","428","./1_3_Stimuli/C_ambi40.png","朋友","Image","朋友","Match","j","true","Practice",""
"","","","","","html-keyboard-response","51","309826","0.0-7.0-0.0-1.19","null","<span style='color:GreenYellow; font-size: 70px;'>正确! </span>","null","","","","","","","","","","","","","","","","","","","","","","","","","feedback",""
"","","","","","psychophysics","52","311710","0.0-7.0-0.0-0.20","733","","j","","","","","","","","","","","","","key","j","16.652252252251937","768","428","./1_3_Stimuli/T_ambi40.png","自我","Word","自我","Match","j","true","Practice",""
"","","","","","html-keyboard-response","53","312025","0.0-7.0-0.0-1.20","null","<span style='color:GreenYellow; font-size: 70px;'>正确! </span>","null","","","","","","","","","","","","","","","","","","","","","","","","","feedback",""
"","","","","","psychophysics","54","314178","0.0-7.0-0.0-0.21","1001","","f","","","","","","","","","","","","","key","f","16.663281250000182","768","428","./1_3_Stimuli/S_ambi40.png","朋友","Word","他人","Mismatch","f","true","Practice",""
"","","","","","html-keyboard-response","55","314492","0.0-7.0-0.0-1.21","null","<span style='color:GreenYellow; font-size: 70px;'>正确! </span>","null","","","","","","","","","","","","","","","","","","","","","","","","","feedback",""
"","","","","","psychophysics","56","316436","0.0-7.0-0.0-0.22","793","","f","","","","","","","","","","","","","key","f","16.662608695652274","768","428","./1_3_Stimuli/S_ambi40.png","自我","Image","他人","Mismatch","f","true","Practice",""
"","","","","","html-keyboard-response","57","316744","0.0-7.0-0.0-1.22","null","<span style='color:GreenYellow; font-size: 70px;'>正确! </span>","null","","","","","","","","","","","","","","","","","","","","","","","","","feedback",""
"","","","","","psychophysics","58","318607","0.0-7.0-0.0-0.23","706","","f","","","","","","","","","","","","","key","f","16.661818181818077","768","428","./1_3_Stimuli/T_ambi40.png","朋友","Image","自我","Mismatch","f","true","Practice",""
"","","","","","html-keyboard-response","59","318917","0.0-7.0-0.0-1.23","null","<span style='color:GreenYellow; font-size: 70px;'>正确! </span>","null","","","","","","","","","","","","","","","","","","","","","","","","","feedback",""
"","","","","","html-keyboard-response","60","322549","0.0-7.0-1.0-0.0","3630","<style>.context{color:white; font-size: 35px; line-height:40px}</style>                        <div><p class='context'>您正确回答了79% 的试次。</p><p class='context'>您的平均反应时为1004毫秒。</p><p> <div style = 'color: green'><按空格键至下页></div></p>"," ","","","","","","","","","","","","","","","","","","","","","","","","","",""
"","","","","","instructions","61","329266","0.0-7.0-1.0-1.0","6716","","","","","","","","","","","","","","[{""page_index"":0,""viewing_time"":3219},{""page_index"":1,""viewing_time"":1688},{""page_index"":2,""viewing_time"":1809}]","","","","","","","","","","","","","",""
"","","","","","psychophysics","62","330999","0.0-7.1-0.1-0.24","576","","f","","","","","","","","","","","","","key","f","16.661165048543463","768","428","./1_3_Stimuli/S_ambi40.png","他人","Image","他人","Match","j","false","Practice",""
"","","","","","html-keyboard-response","63","331315","0.0-7.1-0.1-1.24","null","<span style='color:red; font-size: 70px;'>错误! </span>","null","","","","","","","","","","","","","","","","","","","","","","","","","feedback",""
"","","","","","psychophysics","64","333050","0.0-7.1-0.1-0.25","577","","f","","","","","","","","","","","","","key","f","16.66310679611639","768","428","./1_3_Stimuli/C_ambi40.png","自我","Word","朋友","Mismatch","f","true","Practice",""
"","","","","","html-keyboard-response","65","333352","0.0-7.1-0.1-1.25","null","<span style='color:GreenYellow; font-size: 70px;'>正确! </span>","null","","","","","","","","","","","","","","","","","","","","","","","","","feedback",""
"","","","","","psychophysics","66","335677","0.0-7.1-0.1-0.26","1171","","j","","","","","","","","","","","","","key","j","16.66330935251807","768","428","./1_3_Stimuli/S_ambi40.png","他人","Image","他人","Match","j","true","Practice",""
"","","","","","html-keyboard-response","67","335993","0.0-7.1-0.1-1.26","null","<span style='color:GreenYellow; font-size: 70px;'>正确! </span>","null","","","","","","","","","","","","","","","","","","","","","","","","","feedback",""
"","","","","","psychophysics","68","338051","0.0-7.1-0.1-0.27","906","","f","","","","","","","","","","","","","key","f","16.66393442622951","768","428","./1_3_Stimuli/S_ambi40.png","朋友","Word","他人","Mismatch","f","true","Practice",""
"","","","","","html-keyboard-response","69","338361","0.0-7.1-0.1-1.27","null","<span style='color:GreenYellow; font-size: 70px;'>正确! </span>","null","","","","","","","","","","","","","","","","","","","","","","","","","feedback",""
"","","","","","psychophysics","70","340215","0.0-7.1-0.1-0.28","694","","j","","","","","","","","","","","","","key","j","16.663636363636364","768","428","./1_3_Stimuli/C_ambi40.png","朋友","Word","朋友","Match","j","true","Practice",""
"","","","","","html-keyboard-response","71","340525","0.0-7.1-0.1-1.28","null","<span style='color:GreenYellow; font-size: 70px;'>正确! </span>","null","","","","","","","","","","","","","","","","","","","","","","","","","feedback",""
"","","","","","psychophysics","72","342241","0.0-7.1-0.1-0.29","558","","j","","","","","","","","","","","","","key","j","16.662745098038986","768","428","./1_3_Stimuli/T_ambi40.png","自我","Image","自我","Match","j","true","Practice",""
"","","","","","html-keyboard-response","73","342543","0.0-7.1-0.1-1.29","null","<span style='color:GreenYellow; font-size: 70px;'>正确! </span>","null","","","","","","","","","","","","","","","","","","","","","","","","","feedback",""
"","","","","","psychophysics","74","344484","0.0-7.1-0.1-0.30","788","","f","","","","","","","","","","","","","key","f","16.66521739130435","768","428","./1_3_Stimuli/T_ambi40.png","朋友","Word","自我","Mismatch","f","true","Practice",""
"","","","","","html-keyboard-response","75","344800","0.0-7.1-0.1-1.30","null","<span style='color:GreenYellow; font-size: 70px;'>正确! </span>","null","","","","","","","","","","","","","","","","","","","","","","","","","feedback",""
"","","","","","psychophysics","76","346682","0.0-7.1-0.1-0.31","728","","f","","","","","","","","","","","","","key","f","16.66696428571439","768","428","./1_3_Stimuli/C_ambi40.png","他人","Image","朋友","Mismatch","f","true","Practice",""
"","","","","","html-keyboard-response","77","346998","0.0-7.1-0.1-1.31","null","<span style='color:GreenYellow; font-size: 70px;'>正确! </span>","null","","","","","","","","","","","","","","","","","","","","","","","","","feedback",""
"","","","","","psychophysics","78","348974","0.0-7.1-0.1-0.32","821","","j","","","","","","","","","","","","","key","j","16.662711864406877","768","428","./1_3_Stimuli/C_ambi40.png","朋友","Word","朋友","Match","j","true","Practice",""
"","","","","","html-keyboard-response","79","349278","0.0-7.1-0.1-1.32","null","<span style='color:GreenYellow; font-size: 70px;'>正确! </span>","null","","","","","","","","","","","","","","","","","","","","","","","","","feedback",""
"","","","","","psychophysics","80","351228","0.0-7.1-0.1-0.33","794","","f","","","","","","","","","","","","","key","f","16.664655172413593","768","428","./1_3_Stimuli/S_ambi40.png","朋友","Image","他人","Mismatch","f","true","Practice",""
"","","","","","html-keyboard-response","81","351538","0.0-7.1-0.1-1.33","null","<span style='color:GreenYellow; font-size: 70px;'>正确! </span>","null","","","","","","","","","","","","","","","","","","","","","","","","","feedback",""
"","","","","","psychophysics","82","353376","0.0-7.1-0.1-0.34","683","","j","","","","","","","","","","","","","key","j","16.660550458715598","768","428","./1_3_Stimuli/T_ambi40.png","自我","Word","自我","Match","j","true","Practice",""
"","","","","","html-keyboard-response","83","353682","0.0-7.1-0.1-1.34","null","<span style='color:GreenYellow; font-size: 70px;'>正确! </span>","null","","","","","","","","","","","","","","","","","","","","","","","","","feedback",""
"","","","","","psychophysics","84","355478","0.0-7.1-0.1-0.35","642","","f","","","","","","","","","","","","","key","f","16.660377358490567","768","428","./1_3_Stimuli/S_ambi40.png","自我","Word","他人","Mismatch","f","true","Practice",""
"","","","","","html-keyboard-response","85","355793","0.0-7.1-0.1-1.35","null","<span style='color:GreenYellow; font-size: 70px;'>正确! </span>","null","","","","","","","","","","","","","","","","","","","","","","","","","feedback",""
"","","","","","psychophysics","86","357796","0.0-7.1-0.1-0.36","845","","f","","","","","","","","","","","","","key","f","16.664705882353235","768","428","./1_3_Stimuli/T_ambi40.png","朋友","Image","自我","Mismatch","f","true","Practice",""
"","","","","","html-keyboard-response","87","358106","0.0-7.1-0.1-1.36","null","<span style='color:GreenYellow; font-size: 70px;'>正确! </span>","null","","","","","","","","","","","","","","","","","","","","","","","","","feedback",""
"","","","","","psychophysics","88","359893","0.0-7.1-0.1-0.37","628","","j","","","","","","","","","","","","","key","j","16.663207547170252","768","428","./1_3_Stimuli/T_ambi40.png","自我","Word","自我","Match","j","true","Practice",""
"","","","","","html-keyboard-response","89","360203","0.0-7.1-0.1-1.37","null","<span style='color:GreenYellow; font-size: 70px;'>正确! </span>","null","","","","","","","","","","","","","","","","","","","","","","","","","feedback",""
"","","","","","psychophysics","90","362177","0.0-7.1-0.1-0.38","819","","f","","","","","","","","","","","","","key","f","16.663247863247665","768","428","./1_3_Stimuli/C_ambi40.png","自我","Image","朋友","Mismatch","f","true","Practice",""
"","","","","","html-keyboard-response","91","362483","0.0-7.1-0.1-1.38","null","<span style='color:GreenYellow; font-size: 70px;'>正确! </span>","null","","","","","","","","","","","","","","","","","","","","","","","","","feedback",""
"","","","","","psychophysics","92","364417","0.0-7.1-0.1-0.39","783","","j","","","","","","","","","","","","","key","j","16.666666666666668","768","428","./1_3_Stimuli/C_ambi40.png","朋友","Image","朋友","Match","j","true","Practice",""
"","","","","","html-keyboard-response","93","364733","0.0-7.1-0.1-1.39","null","<span style='color:GreenYellow; font-size: 70px;'>正确! </span>","null","","","","","","","","","","","","","","","","","","","","","","","","","feedback",""
"","","","","","psychophysics","94","366525","0.0-7.1-0.1-0.40","640","","j","","","","","","","","","","","","","key","j","16.664150943396447","768","428","./1_3_Stimuli/S_ambi40.png","他人","Word","他人","Match","j","true","Practice",""
"","","","","","html-keyboard-response","95","366826","0.0-7.1-0.1-1.40","null","<span style='color:GreenYellow; font-size: 70px;'>正确! </span>","null","","","","","","","","","","","","","","","","","","","","","","","","","feedback",""
"","","","","","psychophysics","96","368603","0.0-7.1-0.1-0.41","619","","f","","","","","","","","","","","","","key","f","16.6632075471697","768","428","./1_3_Stimuli/T_ambi40.png","他人","Image","自我","Mismatch","f","true","Practice",""
"","","","","","html-keyboard-response","97","368912","0.0-7.1-0.1-1.41","null","<span style='color:GreenYellow; font-size: 70px;'>正确! </span>","null","","","","","","","","","","","","","","","","","","","","","","","","","feedback",""
"","","","","","psychophysics","98","370670","0.0-7.1-0.1-0.42","604","","j","","","","","","","","","","","","","key","j","16.663809523809082","768","428","./1_3_Stimuli/T_ambi40.png","自我","Image","自我","Match","j","true","Practice",""
"","","","","","html-keyboard-response","99","370973","0.0-7.1-0.1-1.42","null","<span style='color:GreenYellow; font-size: 70px;'>正确! </span>","null","","","","","","","","","","","","","","","","","","","","","","","","","feedback",""
"","","","","","psychophysics","100","372929","0.0-7.1-0.1-0.43","799","","f","","","","","","","","","","","","","key","f","16.663793103448278","768","428","./1_3_Stimuli/S_ambi40.png","自我","Image","他人","Mismatch","f","true","Practice",""
"","","","","","html-keyboard-response","101","373238","0.0-7.1-0.1-1.43","null","<span style='color:GreenYellow; font-size: 70px;'>正确! </span>","null","","","","","","","","","","","","","","","","","","","","","","","","","feedback",""
"","","","","","psychophysics","102","375278","0.0-7.1-0.1-0.44","886","","f","","","","","","","","","","","","","key","f","16.66446280991755","768","428","./1_3_Stimuli/C_ambi40.png","他人","Word","朋友","Mismatch","f","true","Practice",""
"","","","","","html-keyboard-response","103","375582","0.0-7.1-0.1-1.44","null","<span style='color:GreenYellow; font-size: 70px;'>正确! </span>","null","","","","","","","","","","","","","","","","","","","","","","","","","feedback",""
"","","","","","psychophysics","104","378150","0.0-7.1-0.1-0.45","1414","","j","","","","","","","","","","","","","key","j","16.66470588235302","768","428","./1_3_Stimuli/S_ambi40.png","他人","Word","他人","Match","j","true","Practice",""
"","","","","","html-keyboard-response","105","378456","0.0-7.1-0.1-1.45","null","<span style='color:GreenYellow; font-size: 70px;'>正确! </span>","null","","","","","","","","","","","","","","","","","","","","","","","","","feedback",""
"","","","","","psychophysics","106","380030","0.0-7.1-0.1-0.46","416","","j","","","","","","","","","","","","","key","j","16.66344086021518","768","428","./1_3_Stimuli/C_ambi40.png","朋友","Image","朋友","Match","j","true","Practice",""
"","","","","","html-keyboard-response","107","380335","0.0-7.1-0.1-1.46","null","<span style='color:GreenYellow; font-size: 70px;'>正确! </span>","null","","","","","","","","","","","","","","","","","","","","","","","","","feedback",""
"","","","","","psychophysics","108","382086","0.0-7.1-0.1-0.47","597","","f","","","","","","","","","","","","","key","f","16.667307692307915","768","428","./1_3_Stimuli/T_ambi40.png","他人","Word","自我","Mismatch","f","true","Practice",""
"","","","","","html-keyboard-response","109","382397","0.0-7.1-0.1-1.47","null","<span style='color:GreenYellow; font-size: 70px;'>正确! </span>","null","","","","","","","","","","","","","","","","","","","","","","","","","feedback",""
"","","","","","html-keyboard-response","110","450595","0.0-8.0","68196","<style>.context{color:white; font-size: 35px; line-height:40px}</style>                          <div><p class='context'>您正确回答了96% 的试次。</p><p class='context'>您的平均反应时为757毫秒。</p><p class='context'>恭喜您完成练习。现在请休息3~5分钟。</p><p class='context'>之后，按任意键进入正式实验。需要注意的是，正式实验将不再提供反应是否正确的反馈。</p><p class='footer' style='font-size: 35px; line-height:40px;'>请在进入正式实验实验之前将您的<span style='color: lightgreen;'>食指</span>放在电脑键盘的相应键位上进行按键。</p>","j","","","","","","","","","","","","","","","","","","","","","","","","","",""
"","","","","","psychophysics","111","452576","0.0-9.0-0.0-0.0","827","","j","","","","","","","","","","","","","key","j","16.661016949152543","768","428","./1_3_Stimuli/T_ambi40.png","自我","Word","自我","Match","j","true","Formal",""
"","","","","","psychophysics","112","454581","0.0-9.0-0.0-0.1","854","","j","","","","","","","","","","","","","key","j","16.665546218487492","768","428","./1_3_Stimuli/C_ambi40.png","朋友","Image","朋友","Match","j","true","Formal",""
"","","","","","psychophysics","113","456706","0.0-9.0-0.0-0.2","971","","f","","","","","","","","","","","","","key","f","16.661904761904484","768","428","./1_3_Stimuli/S_ambi40.png","朋友","Word","他人","Mismatch","f","true","Formal",""
"","","","","","psychophysics","114","458606","0.0-9.0-0.0-0.3","740","","f","","","","","","","","","","","","","key","f","16.664601769911297","768","428","./1_3_Stimuli/T_ambi40.png","朋友","Image","自我","Mismatch","f","true","Formal",""
"","","","","","psychophysics","115","460592","0.0-9.0-0.0-0.4","827","","f","","","","","","","","","","","","","key","f","16.661864406779465","768","428","./1_3_Stimuli/T_ambi40.png","朋友","Word","自我","Mismatch","f","true","Formal",""
"","","","","","psychophysics","116","462545","0.0-9.0-0.0-0.5","797","","f","","","","","","","","","","","","","key","f","16.663793103448278","768","428","./1_3_Stimuli/S_ambi40.png","他人","Image","他人","Match","j","false","Formal",""
"","","","","","psychophysics","117","464388","0.0-9.0-0.0-0.6","690","","f","","","","","","","","","","","","","key","f","16.66238532110049","768","428","./1_3_Stimuli/C_ambi40.png","自我","Word","朋友","Mismatch","f","true","Formal",""
"","","","","","psychophysics","118","466427","0.0-9.0-0.0-0.7","880","","j","","","","","","","","","","","","","key","j","16.663636363636268","768","428","./1_3_Stimuli/C_ambi40.png","朋友","Image","朋友","Match","j","true","Formal",""
"","","","","","psychophysics","119","468142","0.0-9.0-0.0-0.8","562","","j","","","","","","","","","","","","","key","j","16.662745098039558","768","428","./1_3_Stimuli/T_ambi40.png","自我","Image","自我","Match","j","true","Formal",""
"","","","","","psychophysics","120","469795","0.0-9.0-0.0-0.9","497","","j","","","","","","","","","","","","","key","j","16.66185567010321","768","428","./1_3_Stimuli/T_ambi40.png","自我","Word","自我","Match","j","true","Formal",""
"","","","","","psychophysics","121","471564","0.0-9.0-0.0-0.10","617","","f","","","","","","","","","","","","","key","f","16.663809523809082","768","428","./1_3_Stimuli/C_ambi40.png","朋友","Word","朋友","Match","j","false","Formal",""
"","","","","","psychophysics","122","473577","0.0-9.0-0.0-0.11","858","","j","","","","","","","","","","","","","key","j","16.66302521008423","768","428","./1_3_Stimuli/S_ambi40.png","他人","Word","他人","Match","j","true","Formal",""
"","","","","","psychophysics","123","475325","0.0-9.0-0.0-0.12","597","","j","","","","","","","","","","","","","key","j","16.66213592233021","768","428","./1_3_Stimuli/T_ambi40.png","自我","Image","自我","Match","j","true","Formal",""
"","","","","","psychophysics","124","477746","0.0-9.0-0.0-0.13","1268","","f","","","","","","","","","","","","","key","f","16.664137931034404","768","428","./1_3_Stimuli/C_ambi40.png","他人","Image","朋友","Mismatch","f","true","Formal",""
"","","","","","psychophysics","125","479562","0.0-9.0-0.0-0.14","659","","f","","","","","","","","","","","","","key","f","16.662962962962748","768","428","./1_3_Stimuli/S_ambi40.png","自我","Word","他人","Mismatch","f","true","Formal",""
"","","","","","psychophysics","126","481385","0.0-9.0-0.0-0.15","667","","j","","","","","","","","","","","","","key","j","16.663888888888998","768","428","./1_3_Stimuli/C_ambi40.png","朋友","Word","朋友","Match","j","true","Formal",""
"","","","","","psychophysics","127","483347","0.0-9.0-0.0-0.16","803","","j","","","","","","","","","","","","","key","j","16.665811965812164","768","428","./1_3_Stimuli/S_ambi40.png","他人","Word","他人","Match","j","true","Formal",""
"","","","","","psychophysics","128","485722","0.0-9.0-0.0-0.17","1212","","f","","","","","","","","","","","","","key","f","16.665957446808264","768","428","./1_3_Stimuli/T_ambi40.png","他人","Image","自我","Mismatch","f","true","Formal",""
"","","","","","psychophysics","129","487454","0.0-9.0-0.0-0.18","578","","j","","","","","","","","","","","","","key","j","16.66407766990314","768","428","./1_3_Stimuli/C_ambi40.png","自我","Image","朋友","Mismatch","f","false","Formal",""
"","","","","","psychophysics","130","489613","0.0-9.0-0.0-0.19","1004","","f","","","","","","","","","","","","","key","f","16.663565891472686","768","428","./1_3_Stimuli/S_ambi40.png","朋友","Image","他人","Mismatch","f","true","Formal",""
"","","","","","psychophysics","131","491582","0.0-9.0-0.0-0.20","811","","f","","","","","","","","","","","","","key","f","16.665811965811667","768","428","./1_3_Stimuli/S_ambi40.png","自我","Image","他人","Mismatch","f","true","Formal",""
"","","","","","psychophysics","132","493732","0.0-9.0-0.0-0.21","990","","f","","","","","","","","","","","","","key","f","16.6640625","768","428","./1_3_Stimuli/T_ambi40.png","他人","Word","自我","Mismatch","f","true","Formal",""
"","","","","","psychophysics","133","495663","0.0-9.0-0.0-0.22","772","","f","","","","","","","","","","","","","key","f","16.664912280701653","768","428","./1_3_Stimuli/C_ambi40.png","他人","Word","朋友","Mismatch","f","true","Formal",""
"","","","","","psychophysics","134","498237","0.0-9.0-0.0-0.23","1420","","j","","","","","","","","","","","","","key","j","16.663398692810457","768","428","./1_3_Stimuli/S_ambi40.png","他人","Image","他人","Match","j","true","Formal",""
"","","","","","psychophysics","135","500707","0.0-9.0-0.0-0.24","1317","","f","","","","","","","","","","","","","key","f","16.663513513513593","768","428","./1_3_Stimuli/S_ambi40.png","自我","Image","他人","Mismatch","f","true","Formal",""
"","","","","","psychophysics","136","502885","0.0-9.0-0.0-0.25","1021","","f","","","","","","","","","","","","","key","f","16.663565891472686","768","428","./1_3_Stimuli/C_ambi40.png","他人","Image","朋友","Mismatch","f","true","Formal",""
"","","","","","psychophysics","137","504634","0.0-9.0-0.0-0.26","594","","j","","","","","","","","","","","","","key","j","16.667307692307357","768","428","./1_3_Stimuli/C_ambi40.png","朋友","Image","朋友","Match","j","true","Formal",""
"","","","","","psychophysics","138","506620","0.0-9.0-0.0-0.27","830","","j","","","","","","","","","","","","","key","j","16.662711864406877","768","428","./1_3_Stimuli/T_ambi40.png","自我","Image","自我","Match","j","true","Formal",""
"","","","","","psychophysics","139","508516","0.0-9.0-0.0-0.28","744","","j","","","","","","","","","","","","","key","j","16.665486725663303","768","428","./1_3_Stimuli/C_ambi40.png","朋友","Word","朋友","Match","j","true","Formal",""
"","","","","","psychophysics","140","510244","0.0-9.0-0.0-0.29","576","","f","","","","","","","","","","","","","key","f","16.66407766990314","768","428","./1_3_Stimuli/C_ambi40.png","自我","Image","朋友","Mismatch","f","true","Formal",""
"","","","","","psychophysics","141","512595","0.0-9.0-0.0-0.30","1191","","j","","","","","","","","","","","","","key","j","16.66285714285706","768","428","./1_3_Stimuli/C_ambi40.png","朋友","Image","朋友","Match","j","true","Formal",""
"","","","","","psychophysics","142","515320","0.0-9.0-0.0-0.31","null","","null","","","","","","","","","","","","","key","null","16.66335403726701","768","428","./1_3_Stimuli/C_ambi40.png","自我","Word","朋友","Mismatch","f","false","Formal",""
"","","","","","psychophysics","143","517185","0.0-9.0-0.0-0.32","714","","j","","","","","","","","","","","","","key","j","16.66545454545465","768","428","./1_3_Stimuli/S_ambi40.png","他人","Word","他人","Match","j","true","Formal",""
"","","","","","psychophysics","144","519278","0.0-9.0-0.0-0.33","941","","j","","","","","","","","","","","","","key","j","16.666129032258347","768","428","./1_3_Stimuli/S_ambi40.png","他人","Image","他人","Match","j","true","Formal",""
"","","","","","psychophysics","145","521197","0.0-9.0-0.0-0.34","759","","f","","","","","","","","","","","","","key","f","16.66403508771991","768","428","./1_3_Stimuli/S_ambi40.png","自我","Word","他人","Mismatch","f","true","Formal",""
"","","","","","psychophysics","146","523582","0.0-9.0-0.0-0.35","1232","","f","","","","","","","","","","","","","key","f","16.662411347517896","768","428","./1_3_Stimuli/T_ambi40.png","他人","Image","自我","Mismatch","f","true","Formal",""
"","","","","","psychophysics","147","525667","0.0-9.0-0.0-0.36","932","","j","","","","","","","","","","","","","key","j","16.66370967741973","768","428","./1_3_Stimuli/T_ambi40.png","自我","Word","自我","Match","j","true","Formal",""
"","","","","","psychophysics","148","528160","0.0-9.0-0.0-0.37","1341","","j","","","","","","","","","","","","","key","j","16.663513513513198","768","428","./1_3_Stimuli/S_ambi40.png","他人","Word","他人","Match","j","true","Formal",""
"","","","","","psychophysics","149","529983","0.0-9.0-0.0-0.38","665","","f","","","","","","","","","","","","","key","f","16.663888888889534","768","428","./1_3_Stimuli/T_ambi40.png","朋友","Word","自我","Mismatch","f","true","Formal",""
"","","","","","psychophysics","150","531709","0.0-9.0-0.0-0.39","573","","j","","","","","","","","","","","","","key","j","16.66176470588235","768","428","./1_3_Stimuli/T_ambi40.png","自我","Word","自我","Match","j","true","Formal",""
"","","","","","psychophysics","151","533308","0.0-9.0-0.0-0.40","442","","j","","","","","","","","","","","","","key","j","16.66210526315814","768","428","./1_3_Stimuli/T_ambi40.png","自我","Image","自我","Match","j","true","Formal",""
"","","","","","psychophysics","152","534881","0.0-9.0-0.0-0.41","414","","f","","","","","","","","","","","","","key","f","16.66236559139885","768","428","./1_3_Stimuli/T_ambi40.png","他人","Word","自我","Mismatch","f","true","Formal",""
"","","","","","psychophysics","153","536637","0.0-9.0-0.0-0.42","604","","j","","","","","","","","","","","","","key","j","16.662500000000225","768","428","./1_3_Stimuli/C_ambi40.png","朋友","Word","朋友","Match","j","true","Formal",""
"","","","","","psychophysics","154","538514","0.0-9.0-0.0-0.43","718","","f","","","","","","","","","","","","","key","f","16.667567567567357","768","428","./1_3_Stimuli/T_ambi40.png","朋友","Image","自我","Mismatch","f","true","Formal",""
"","","","","","psychophysics","155","540330","0.0-9.0-0.0-0.44","665","","f","","","","","","","","","","","","","key","f","16.66355140186916","768","428","./1_3_Stimuli/S_ambi40.png","朋友","Word","他人","Mismatch","f","true","Formal",""
"","","","","","psychophysics","156","542457","0.0-9.0-0.0-0.45","975","","f","","","","","","","","","","","","","key","f","16.66428571428627","768","428","./1_3_Stimuli/C_ambi40.png","他人","Word","朋友","Mismatch","f","true","Formal",""
"","","","","","psychophysics","157","544743","0.0-9.0-0.0-0.46","1130","","j","","","","","","","","","","","","","key","j","16.663235294117303","768","428","./1_3_Stimuli/S_ambi40.png","他人","Image","他人","Match","j","true","Formal",""
"","","","","","psychophysics","158","546426","0.0-9.0-0.0-0.47","528","","f","","","","","","","","","","","","","key","f","16.661616161616163","768","428","./1_3_Stimuli/S_ambi40.png","朋友","Image","他人","Mismatch","f","true","Formal",""
"","","","","","psychophysics","159","548316","0.0-9.0-0.0-0.48","736","","j","","","","","","","","","","","","","key","j","16.663716814159294","768","428","./1_3_Stimuli/S_ambi40.png","他人","Word","他人","Match","j","true","Formal",""
"","","","","","psychophysics","160","550306","0.0-9.0-0.0-0.49","835","","j","","","","","","","","","","","","","key","j","16.663559322034292","768","428","./1_3_Stimuli/T_ambi40.png","自我","Image","自我","Match","j","true","Formal",""
"","","","","","psychophysics","161","552173","0.0-9.0-0.0-0.50","710","","f","","","","","","","","","","","","","key","f","16.663063063062854","768","428","./1_3_Stimuli/S_ambi40.png","自我","Image","他人","Mismatch","f","true","Formal",""
"","","","","","psychophysics","162","554030","0.0-9.0-0.0-0.51","704","","j","","","","","","","","","","","","","key","j","16.663963963964594","768","428","./1_3_Stimuli/T_ambi40.png","他人","Image","自我","Mismatch","f","false","Formal",""
"","","","","","psychophysics","163","556092","0.0-9.0-0.0-0.52","896","","f","","","","","","","","","","","","","key","f","16.66721311475429","768","428","./1_3_Stimuli/C_ambi40.png","他人","Image","朋友","Mismatch","f","true","Formal",""
"","","","","","psychophysics","164","557900","0.0-9.0-0.0-0.53","654","","j","","","","","","","","","","","","","key","j","16.664814814815244","768","428","./1_3_Stimuli/S_ambi40.png","他人","Image","他人","Match","j","true","Formal",""
"","","","","","psychophysics","165","559739","0.0-9.0-0.0-0.54","682","","f","","","","","","","","","","","","","key","f","16.66330275229294","768","428","./1_3_Stimuli/C_ambi40.png","他人","Word","朋友","Mismatch","f","true","Formal",""
"","","","","","psychophysics","166","562456","0.0-9.0-0.0-0.55","null","","null","","","","","","","","","","","","","key","null","16.663975155279648","768","428","./1_3_Stimuli/C_ambi40.png","朋友","Word","朋友","Match","j","false","Formal",""
"","","","","","psychophysics","167","564313","0.0-9.0-0.0-0.56","704","","j","","","","","","","","","","","","","key","j","16.663963963963546","768","428","./1_3_Stimuli/C_ambi40.png","朋友","Word","朋友","Match","j","true","Formal",""
"","","","","","psychophysics","168","566052","0.0-9.0-0.0-0.57","586","","f","","","","","","","","","","","","","key","f","16.66407766990201","768","428","./1_3_Stimuli/S_ambi40.png","自我","Word","他人","Mismatch","f","true","Formal",""
"","","","","","psychophysics","169","568063","0.0-9.0-0.0-0.58","853","","f","","","","","","","","","","","","","key","f","16.666666666666668","768","428","./1_3_Stimuli/T_ambi40.png","他人","Word","自我","Mismatch","f","true","Formal",""
"","","","","","psychophysics","170","570019","0.0-9.0-0.0-0.59","796","","f","","","","","","","","","","","","","key","f","16.658620689655372","768","428","./1_3_Stimuli/S_ambi40.png","朋友","Image","他人","Mismatch","f","true","Formal",""
"","","","","","psychophysics","171","571847","0.0-9.0-0.0-0.60","670","","f","","","","","","","","","","","","","key","f","16.663302752294005","768","428","./1_3_Stimuli/T_ambi40.png","朋友","Image","自我","Mismatch","f","true","Formal",""
"","","","","","psychophysics","172","573821","0.0-9.0-0.0-0.61","812","","j","","","","","","","","","","","","","key","j","16.66324786324866","768","428","./1_3_Stimuli/S_ambi40.png","他人","Word","他人","Match","j","true","Formal",""
"","","","","","psychophysics","173","575543","0.0-9.0-0.0-0.62","568","","j","","","","","","","","","","","","","key","j","16.663106796116956","768","428","./1_3_Stimuli/C_ambi40.png","自我","Image","朋友","Mismatch","f","false","Formal",""
"","","","","","psychophysics","174","577758","0.0-9.0-0.0-0.63","1052","","f","","","","","","","","","","","","","key","f","16.66287878787879","768","428","./1_3_Stimuli/T_ambi40.png","朋友","Word","自我","Mismatch","f","true","Formal",""
"","","","","","psychophysics","175","579769","0.0-9.0-0.0-0.64","856","","j","","","","","","","","","","","","","key","j","16.66386554621849","768","428","./1_3_Stimuli/S_ambi40.png","他人","Image","他人","Match","j","true","Formal",""
"","","","","","psychophysics","176","581541","0.0-9.0-0.0-0.65","617","","f","","","","","","","","","","","","","key","f","16.663809523809082","768","428","./1_3_Stimuli/C_ambi40.png","自我","Word","朋友","Mismatch","f","true","Formal",""
"","","","","","psychophysics","177","583834","0.0-9.0-0.0-0.66","1132","","j","","","","","","","","","","","","","key","j","16.66397058823478","768","428","./1_3_Stimuli/C_ambi40.png","朋友","Image","朋友","Match","j","true","Formal",""
"","","","","","psychophysics","178","585575","0.0-9.0-0.0-0.67","587","","j","","","","","","","","","","","","","key","j","16.66346153846154","768","428","./1_3_Stimuli/T_ambi40.png","自我","Word","自我","Match","j","true","Formal",""
"","","","","","psychophysics","179","587294","0.0-9.0-0.0-0.68","553","","f","","","","","","","","","","","","","key","f","16.665686274510033","768","428","./1_3_Stimuli/C_ambi40.png","朋友","Image","朋友","Match","j","false","Formal",""
"","","","","","psychophysics","180","589150","0.0-9.0-0.0-0.69","695","","j","","","","","","","","","","","","","key","j","16.66545454545518","768","428","./1_3_Stimuli/T_ambi40.png","自我","Word","自我","Match","j","true","Formal",""
"","","","","","psychophysics","181","591233","0.0-9.0-0.0-0.70","928","","j","","","","","","","","","","","","","key","j","16.66532258064516","768","428","./1_3_Stimuli/T_ambi40.png","自我","Image","自我","Match","j","true","Formal",""
"","","","","","psychophysics","182","593269","0.0-9.0-0.0-0.71","883","","f","","","","","","","","","","","","","key","f","16.66446280991755","768","428","./1_3_Stimuli/S_ambi40.png","朋友","Word","他人","Mismatch","f","true","Formal",""
"","","","","","psychophysics","183","594967","0.0-9.0-0.0-0.72","543","","j","","","","","","","","","","","","","key","j","16.663999999999067","768","428","./1_3_Stimuli/T_ambi40.png","自我","Word","自我","Match","j","true","Formal",""
"","","","","","psychophysics","184","596786","0.0-9.0-0.0-0.73","665","","f","","","","","","","","","","","","","key","f","16.662962962962748","768","428","./1_3_Stimuli/T_ambi40.png","朋友","Image","自我","Mismatch","f","true","Formal",""
"","","","","","psychophysics","185","599259","0.0-9.0-0.0-0.74","1321","","j","","","","","","","","","","","","","key","j","16.663265306122447","768","428","./1_3_Stimuli/T_ambi40.png","自我","Word","自我","Match","j","true","Formal",""
"","","","","","psychophysics","186","601409","0.0-9.0-0.0-0.75","992","","f","","","","","","","","","","","","","key","f","16.665354330708663","768","428","./1_3_Stimuli/S_ambi40.png","朋友","Image","他人","Mismatch","f","true","Formal",""
"","","","","","psychophysics","187","603351","0.0-9.0-0.0-0.76","788","","j","","","","","","","","","","","","","key","j","16.66434782608716","768","428","./1_3_Stimuli/C_ambi40.png","朋友","Word","朋友","Match","j","true","Formal",""
"","","","","","psychophysics","188","605068","0.0-9.0-0.0-0.77","564","","j","","","","","","","","","","","","","key","j","16.66138613861317","768","428","./1_3_Stimuli/C_ambi40.png","朋友","Word","朋友","Match","j","true","Formal",""
"","","","","","psychophysics","189","607340","0.0-9.0-0.0-0.78","1120","","j","","","","","","","","","","","","","key","j","16.663703703703533","768","428","./1_3_Stimuli/S_ambi40.png","他人","Image","他人","Match","j","true","Formal",""
"","","","","","psychophysics","190","609605","0.0-9.0-0.0-0.79","1110","","j","","","","","","","","","","","","","key","j","16.661481481481825","768","428","./1_3_Stimuli/C_ambi40.png","朋友","Image","朋友","Match","j","true","Formal",""
"","","","","","psychophysics","191","611958","0.0-9.0-0.0-0.80","1197","","f","","","","","","","","","","","","","key","f","16.663571428571593","768","428","./1_3_Stimuli/T_ambi40.png","他人","Image","自我","Mismatch","f","true","Formal",""
"","","","","","psychophysics","192","614193","0.0-9.0-0.0-0.81","1075","","f","","","","","","","","","","","","","key","f","16.663157894736493","768","428","./1_3_Stimuli/S_ambi40.png","自我","Image","他人","Mismatch","f","true","Formal",""
"","","","","","psychophysics","193","616097","0.0-9.0-0.0-0.82","747","","f","","","","","","","","","","","","","key","f","16.662831858407287","768","428","./1_3_Stimuli/C_ambi40.png","他人","Image","朋友","Mismatch","f","true","Formal",""
"","","","","","psychophysics","194","618666","0.0-9.0-0.0-0.83","1415","","f","","","","","","","","","","","","","key","f","16.663398692810457","768","428","./1_3_Stimuli/C_ambi40.png","自我","Image","朋友","Mismatch","f","true","Formal",""
"","","","","","psychophysics","195","620640","0.0-9.0-0.0-0.84","823","","j","","","","","","","","","","","","","key","j","16.66410256410316","768","428","./1_3_Stimuli/S_ambi40.png","他人","Word","他人","Match","j","true","Formal",""
"","","","","","psychophysics","196","623350","0.0-9.0-0.0-0.85","null","","null","","","","","","","","","","","","","key","null","16.664596273291924","768","428","./1_3_Stimuli/C_ambi40.png","自我","Word","朋友","Mismatch","f","false","Formal",""
"","","","","","psychophysics","197","625501","0.0-9.0-0.0-0.86","991","","j","","","","","","","","","","","","","key","j","16.663281250000182","768","428","./1_3_Stimuli/S_ambi40.png","朋友","Word","他人","Mismatch","f","false","Formal",""
"","","","","","psychophysics","198","627359","0.0-9.0-0.0-0.87","701","","j","","","","","","","","","","","","","key","j","16.663636363636364","768","428","./1_3_Stimuli/T_ambi40.png","自我","Image","自我","Match","j","true","Formal",""
"","","","","","psychophysics","199","629460","0.0-9.0-0.0-0.88","944","","f","","","","","","","","","","","","","key","f","16.664799999999815","768","428","./1_3_Stimuli/T_ambi40.png","他人","Word","自我","Mismatch","f","true","Formal",""
"","","","","","psychophysics","200","631451","0.0-9.0-0.0-0.89","836","","j","","","","","","","","","","","","","key","j","16.66302521008423","768","428","./1_3_Stimuli/S_ambi40.png","他人","Image","他人","Match","j","true","Formal",""
"","","","","","psychophysics","201","633895","0.0-9.0-0.0-0.90","1288","","j","","","","","","","","","","","","","key","j","16.664827586207057","768","428","./1_3_Stimuli/C_ambi40.png","朋友","Image","朋友","Match","j","true","Formal",""
"","","","","","psychophysics","202","635624","0.0-9.0-0.0-0.91","577","","j","","","","","","","","","","","","","key","j","16.66274509804013","768","428","./1_3_Stimuli/T_ambi40.png","自我","Image","自我","Match","j","true","Formal",""
"","","","","","psychophysics","203","637743","0.0-9.0-0.0-0.92","963","","j","","","","","","","","","","","","","key","j","16.66269841269841","768","428","./1_3_Stimuli/S_ambi40.png","他人","Word","他人","Match","j","true","Formal",""
"","","","","","psychophysics","204","639707","0.0-9.0-0.0-0.93","810","","f","","","","","","","","","","","","","key","f","16.666379310344226","768","428","./1_3_Stimuli/S_ambi40.png","自我","Word","他人","Mismatch","f","true","Formal",""
"","","","","","psychophysics","205","642148","0.0-9.0-0.0-0.94","1285","","f","","","","","","","","","","","","","key","f","16.663698630137144","768","428","./1_3_Stimuli/T_ambi40.png","朋友","Word","自我","Mismatch","f","true","Formal",""
"","","","","","psychophysics","206","644525","0.0-9.0-0.0-0.95","1213","","f","","","","","","","","","","","","","key","f","16.663120567375888","768","428","./1_3_Stimuli/C_ambi40.png","他人","Word","朋友","Mismatch","f","true","Formal",""
"","","","","","psychophysics","207","646296","0.0-9.0-0.0-0.96","617","","j","","","","","","","","","","","","","key","j","16.66509433962264","768","428","./1_3_Stimuli/T_ambi40.png","自我","Image","自我","Match","j","true","Formal",""
"","","","","","psychophysics","208","648082","0.0-9.0-0.0-0.97","633","","f","","","","","","","","","","","","","key","f","16.66509433962264","768","428","./1_3_Stimuli/S_ambi40.png","他人","Image","他人","Match","j","false","Formal",""
"","","","","","psychophysics","209","650458","0.0-9.0-0.0-0.98","1213","","j","","","","","","","","","","","","","key","j","16.663829787234704","768","428","./1_3_Stimuli/C_ambi40.png","朋友","Image","朋友","Match","j","true","Formal",""
"","","","","","psychophysics","210","652298","0.0-9.0-0.0-0.99","688","","f","","","","","","","","","","","","","key","f","16.664545454545244","768","428","./1_3_Stimuli/T_ambi40.png","朋友","Word","自我","Mismatch","f","true","Formal",""
"","","","","","psychophysics","211","654159","0.0-9.0-0.0-0.100","707","","j","","","","","","","","","","","","","key","j","16.663636363636364","768","428","./1_3_Stimuli/S_ambi40.png","他人","Word","他人","Match","j","true","Formal",""
"","","","","","psychophysics","212","655878","0.0-9.0-0.0-0.101","568","","f","","","","","","","","","","","","","key","f","16.66372549019562","768","428","./1_3_Stimuli/C_ambi40.png","自我","Word","朋友","Mismatch","f","true","Formal",""
"","","","","","psychophysics","213","657742","0.0-9.0-0.0-0.102","698","","j","","","","","","","","","","","","","key","j","16.6645454545463","768","428","./1_3_Stimuli/S_ambi40.png","朋友","Word","他人","Mismatch","f","false","Formal",""
"","","","","","psychophysics","214","659530","0.0-9.0-0.0-0.103","625","","j","","","","","","","","","","","","","key","j","16.663207547170252","768","428","./1_3_Stimuli/T_ambi40.png","自我","Word","自我","Match","j","true","Formal",""
"","","","","","psychophysics","215","661532","0.0-9.0-0.0-0.104","847","","j","","","","","","","","","","","","","key","j","16.664705882352745","768","428","./1_3_Stimuli/C_ambi40.png","朋友","Image","朋友","Match","j","true","Formal",""
"","","","","","psychophysics","216","664148","0.0-9.0-0.0-0.105","1457","","j","","","","","","","","","","","","","key","j","16.66346153846154","768","428","./1_3_Stimuli/S_ambi40.png","他人","Word","他人","Match","j","true","Formal",""
"","","","","","psychophysics","217","666370","0.0-9.0-0.0-0.106","1062","","f","","","","","","","","","","","","","key","f","16.66287878787879","768","428","./1_3_Stimuli/S_ambi40.png","自我","Word","他人","Mismatch","f","true","Formal",""
"","","","","","psychophysics","218","668233","0.0-9.0-0.0-0.107","709","","j","","","","","","","","","","","","","key","j","16.663063063062854","768","428","./1_3_Stimuli/T_ambi40.png","自我","Word","自我","Match","j","true","Formal",""
"","","","","","psychophysics","219","670149","0.0-9.0-0.0-0.108","758","","f","","","","","","","","","","","","","key","f","16.66491228070114","768","428","./1_3_Stimuli/T_ambi40.png","他人","Word","自我","Mismatch","f","true","Formal",""
"","","","","","psychophysics","220","672572","0.0-9.0-0.0-0.109","1266","","f","","","","","","","","","","","","","key","f","16.6652777777781","768","428","./1_3_Stimuli/C_ambi40.png","自我","Image","朋友","Mismatch","f","true","Formal",""
"","","","","","psychophysics","221","674472","0.0-9.0-0.0-0.110","749","","f","","","","","","","","","","","","","key","f","16.66607142857122","768","428","./1_3_Stimuli/T_ambi40.png","他人","Image","自我","Mismatch","f","true","Formal",""
"","","","","","psychophysics","222","677184","0.0-9.0-0.0-0.111","null","","null","","","","","","","","","","","","","key","null","16.66273291925509","768","428","./1_3_Stimuli/C_ambi40.png","朋友","Word","朋友","Match","j","false","Formal",""
"","","","","","psychophysics","223","678986","0.0-9.0-0.0-0.112","647","","f","","","","","","","","","","","","","key","f","16.662616822430124","768","428","./1_3_Stimuli/C_ambi40.png","他人","Image","朋友","Mismatch","f","true","Formal",""
"","","","","","psychophysics","224","681014","0.0-9.0-0.0-0.113","874","","f","","","","","","","","","","","","","key","f","16.662809917354988","768","428","./1_3_Stimuli/S_ambi40.png","自我","Image","他人","Mismatch","f","true","Formal",""
"","","","","","psychophysics","225","683697","0.0-9.0-0.0-0.114","1527","","j","","","","","","","","","","","","","key","j","16.663750000000437","768","428","./1_3_Stimuli/C_ambi40.png","朋友","Word","朋友","Match","j","true","Formal",""
"","","","","","psychophysics","226","685507","0.0-9.0-0.0-0.115","653","","j","","","","","","","","","","","","","key","j","16.663888888888458","768","428","./1_3_Stimuli/S_ambi40.png","他人","Image","他人","Match","j","true","Formal",""
"","","","","","psychophysics","227","687782","0.0-9.0-0.0-0.116","1113","","f","","","","","","","","","","","","","key","f","16.66296296296296","768","428","./1_3_Stimuli/T_ambi40.png","朋友","Image","自我","Mismatch","f","true","Formal",""
"","","","","","psychophysics","228","690068","0.0-9.0-0.0-0.117","1134","","f","","","","","","","","","","","","","key","f","16.662499999999827","768","428","./1_3_Stimuli/C_ambi40.png","他人","Word","朋友","Mismatch","f","true","Formal",""
"","","","","","psychophysics","229","692083","0.0-9.0-0.0-0.118","848","","f","","","","","","","","","","","","","key","f","16.66302521008423","768","428","./1_3_Stimuli/S_ambi40.png","朋友","Image","他人","Mismatch","f","true","Formal",""
"","","","","","psychophysics","230","693871","0.0-9.0-0.0-0.119","635","","j","","","","","","","","","","","","","key","j","16.66320754716915","768","428","./1_3_Stimuli/T_ambi40.png","自我","Image","自我","Match","j","true","Formal",""
"","","","","","html-keyboard-response","231","699710","0.0-9.0-1.0","5834","<style>.context{color:white; font-size: 35px; line-height:40px}</style>                        <div><p class='context'>您正确回答了89% 的试次。</p><p class='context'>您的平均反应时为861毫秒。</p><p> <div style = 'color: green'><按任意键进入休息></div></p>"," ","","","","","","","","","","","","","","","","","","","","","","","","","",""
"","","","","","html-button-response","232","766778","0.0-9.0-2.0","67063","
                  <p>您当前还剩余5组实验</p>
                  <p>现在是休息时间，当您结束休息后，您可以点击 结束休息 按钮 继续</p>
                  <p>建议休息时间还剩余<span id=""iii"">60</span>秒</p>","0","","","","","","","","","","","","","","","","","","","","","","","","","",""
"","","","","","psychophysics","233","769099","0.0-9.0-0.1-0.120","1168","","f","","","","","","","","","","","","","key","f","16.663768115942705","768","428","./1_3_Stimuli/C_ambi40.png","他人","Word","朋友","Mismatch","f","true","Formal",""
"","","","","","psychophysics","234","770924","0.0-9.0-0.1-0.121","670","","f","","","","","","","","","","","","","key","f","16.66330275229294","768","428","./1_3_Stimuli/S_ambi40.png","朋友","Word","他人","Mismatch","f","true","Formal",""
"","","","","","psychophysics","235","772757","0.0-9.0-0.1-0.122","671","","f","","","","","","","","","","","","","key","f","16.660550458715598","768","428","./1_3_Stimuli/C_ambi40.png","自我","Word","朋友","Mismatch","f","true","Formal",""
"","","","","","psychophysics","236","774601","0.0-9.0-0.1-0.123","686","","f","","","","","","","","","","","","","key","f","16.66330275229294","768","428","./1_3_Stimuli/T_ambi40.png","他人","Image","自我","Mismatch","f","true","Formal",""
"","","","","","psychophysics","237","776523","0.0-9.0-0.1-0.124","769","","j","","","","","","","","","","","","","key","j","16.66315789473664","768","428","./1_3_Stimuli/C_ambi40.png","朋友","Word","朋友","Match","j","true","Formal",""
"","","","","","psychophysics","238","778215","0.0-9.0-0.1-0.125","534","","j","","","","","","","","","","","","","key","j","16.660999999999767","768","428","./1_3_Stimuli/C_ambi40.png","朋友","Image","朋友","Match","j","true","Formal",""
"","","","","","psychophysics","239","780016","0.0-9.0-0.1-0.126","646","","f","","","","","","","","","","","","","key","f","16.662616822429037","768","428","./1_3_Stimuli/S_ambi40.png","朋友","Image","他人","Mismatch","f","true","Formal",""
"","","","","","psychophysics","240","781744","0.0-9.0-0.1-0.127","575","","j","","","","","","","","","","","","","key","j","16.663725490196764","768","428","./1_3_Stimuli/T_ambi40.png","自我","Word","自我","Match","j","true","Formal",""
"","","","","","psychophysics","241","783617","0.0-9.0-0.1-0.128","714","","f","","","","","","","","","","","","","key","f","16.665765765765975","768","428","./1_3_Stimuli/C_ambi40.png","自我","Image","朋友","Mismatch","f","true","Formal",""
"","","","","","psychophysics","242","785484","0.0-9.0-0.1-0.129","699","","f","","","","","","","","","","","","","key","f","16.65909090909091","768","428","./1_3_Stimuli/S_ambi40.png","自我","Image","他人","Mismatch","f","true","Formal",""
"","","","","","psychophysics","243","787195","0.0-9.0-0.1-0.130","554","","j","","","","","","","","","","","","","key","j","16.66633663366383","768","428","./1_3_Stimuli/T_ambi40.png","自我","Image","自我","Match","j","true","Formal",""
"","","","","","psychophysics","244","788932","0.0-9.0-0.1-0.131","586","","f","","","","","","","","","","","","","key","f","16.663106796115827","768","428","./1_3_Stimuli/C_ambi40.png","朋友","Image","朋友","Match","j","false","Formal",""
"","","","","","psychophysics","245","791194","0.0-9.0-0.1-0.132","1110","","f","","","","","","","","","","","","","key","f","16.66417910447761","768","428","./1_3_Stimuli/T_ambi40.png","朋友","Image","自我","Mismatch","f","true","Formal",""
"","","","","","psychophysics","246","792897","0.0-9.0-0.1-0.133","547","","f","","","","","","","","","","","","","key","f","16.663366336633665","768","428","./1_3_Stimuli/T_ambi40.png","他人","Word","自我","Mismatch","f","true","Formal",""
"","","","","","psychophysics","247","794856","0.0-9.0-0.1-0.134","807","","j","","","","","","","","","","","","","key","j","16.66293103448296","768","428","./1_3_Stimuli/S_ambi40.png","他人","Image","他人","Match","j","true","Formal",""
"","","","","","psychophysics","248","796530","0.0-9.0-0.1-0.135","518","","j","","","","","","","","","","","","","key","j","16.667676767676532","768","428","./1_3_Stimuli/T_ambi40.png","自我","Word","自我","Match","j","true","Formal",""
"","","","","","psychophysics","249","798362","0.0-9.0-0.1-0.136","680","","f","","","","","","","","","","","","","key","f","16.664814814815244","768","428","./1_3_Stimuli/T_ambi40.png","朋友","Word","自我","Mismatch","f","true","Formal",""
"","","","","","psychophysics","250","800126","0.0-9.0-0.1-0.137","610","","j","","","","","","","","","","","","","key","j","16.663809523809082","768","428","./1_3_Stimuli/S_ambi40.png","他人","Word","他人","Match","j","true","Formal",""
"","","","","","psychophysics","251","802127","0.0-9.0-0.1-0.138","846","","j","","","","","","","","","","","","","key","j","16.665546218487982","768","428","./1_3_Stimuli/C_ambi40.png","朋友","Word","朋友","Match","j","true","Formal",""
"","","","","","psychophysics","252","804138","0.0-9.0-0.1-0.139","856","","f","","","","","","","","","","","","","key","f","16.6625","768","428","./1_3_Stimuli/C_ambi40.png","他人","Image","朋友","Mismatch","f","true","Formal",""
"","","","","","psychophysics","253","806071","0.0-9.0-0.1-0.140","774","","f","","","","","","","","","","","","","key","f","16.661403508772135","768","428","./1_3_Stimuli/S_ambi40.png","自我","Word","他人","Mismatch","f","true","Formal",""
"","","","","","psychophysics","254","807761","0.0-9.0-0.1-0.141","536","","j","","","","","","","","","","","","","key","j","16.66363636363589","768","428","./1_3_Stimuli/S_ambi40.png","他人","Word","他人","Match","j","true","Formal",""
"","","","","","psychophysics","255","809475","0.0-9.0-0.1-0.142","561","","j","","","","","","","","","","","","","key","j","16.663366336633665","768","428","./1_3_Stimuli/S_ambi40.png","他人","Image","他人","Match","j","true","Formal",""
"","","","","","psychophysics","256","811190","0.0-9.0-0.1-0.143","560","","j","","","","","","","","","","","","","key","j","16.66237623762399","768","428","./1_3_Stimuli/T_ambi40.png","自我","Image","自我","Match","j","true","Formal",""
"","","","","","psychophysics","257","812909","0.0-9.0-0.1-0.144","564","","j","","","","","","","","","","","","","key","j","16.663725490196764","768","428","./1_3_Stimuli/S_ambi40.png","他人","Word","他人","Match","j","true","Formal",""
"","","","","","psychophysics","258","814810","0.0-9.0-0.1-0.145","749","","f","","","","","","","","","","","","","key","f","16.663716814159294","768","428","./1_3_Stimuli/S_ambi40.png","朋友","Image","他人","Mismatch","f","true","Formal",""
"","","","","","psychophysics","259","816657","0.0-9.0-0.1-0.146","694","","j","","","","","","","","","","","","","key","j","16.664220183485384","768","428","./1_3_Stimuli/S_ambi40.png","他人","Image","他人","Match","j","true","Formal",""
"","","","","","psychophysics","260","818758","0.0-9.0-0.1-0.147","947","","f","","","","","","","","","","","","","key","f","16.664","768","428","./1_3_Stimuli/S_ambi40.png","朋友","Word","他人","Mismatch","f","true","Formal",""
"","","","","","psychophysics","261","820410","0.0-9.0-0.1-0.148","498","","j","","","","","","","","","","","","","key","j","16.665306122448506","768","428","./1_3_Stimuli/T_ambi40.png","自我","Image","自我","Match","j","true","Formal",""
"","","","","","psychophysics","262","822219","0.0-9.0-0.1-0.149","650","","j","","","","","","","","","","","","","key","j","16.66448598130928","768","428","./1_3_Stimuli/S_ambi40.png","他人","Word","他人","Match","j","true","Formal",""
"","","","","","psychophysics","263","824149","0.0-9.0-0.1-0.150","772","","f","","","","","","","","","","","","","key","f","16.663478260868956","768","428","./1_3_Stimuli/C_ambi40.png","他人","Word","朋友","Mismatch","f","true","Formal",""
"","","","","","psychophysics","264","826231","0.0-9.0-0.1-0.151","926","","f","","","","","","","","","","","","","key","f","16.66370967741879","768","428","./1_3_Stimuli/S_ambi40.png","自我","Image","他人","Mismatch","f","true","Formal",""
"","","","","","psychophysics","265","828550","0.0-9.0-0.1-0.152","1163","","f","","","","","","","","","","","","","key","f","16.66376811594186","768","428","./1_3_Stimuli/S_ambi40.png","自我","Word","他人","Mismatch","f","true","Formal",""
"","","","","","psychophysics","266","830786","0.0-9.0-0.1-0.153","1077","","j","","","","","","","","","","","","","key","j","16.663157894736493","768","428","./1_3_Stimuli/S_ambi40.png","他人","Image","他人","Match","j","true","Formal",""
"","","","","","psychophysics","267","832615","0.0-9.0-0.1-0.154","673","","f","","","","","","","","","","","","","key","f","16.66238532110049","768","428","./1_3_Stimuli/T_ambi40.png","朋友","Word","自我","Mismatch","f","true","Formal",""
"","","","","","psychophysics","268","834437","0.0-9.0-0.1-0.155","665","","f","","","","","","","","","","","","","key","f","16.663888888888458","768","428","./1_3_Stimuli/T_ambi40.png","他人","Image","自我","Mismatch","f","true","Formal",""
"","","","","","psychophysics","269","836409","0.0-9.0-0.1-0.156","818","","f","","","","","","","","","","","","","key","f","16.663559322034292","768","428","./1_3_Stimuli/T_ambi40.png","他人","Word","自我","Mismatch","f","true","Formal",""
"","","","","","psychophysics","270","838153","0.0-9.0-0.1-0.157","587","","f","","","","","","","","","","","","","key","f","16.66407766990314","768","428","./1_3_Stimuli/C_ambi40.png","朋友","Image","朋友","Match","j","false","Formal",""
"","","","","","psychophysics","271","839976","0.0-9.0-0.1-0.158","669","","f","","","","","","","","","","","","","key","f","16.665137614678898","768","428","./1_3_Stimuli/C_ambi40.png","他人","Image","朋友","Mismatch","f","true","Formal",""
"","","","","","psychophysics","272","841878","0.0-9.0-0.1-0.159","743","","f","","","","","","","","","","","","","key","f","16.663716814159294","768","428","./1_3_Stimuli/C_ambi40.png","自我","Image","朋友","Mismatch","f","true","Formal",""
"","","","","","psychophysics","273","843688","0.0-9.0-0.1-0.160","648","","f","","","","","","","","","","","","","key","f","16.66448598130928","768","428","./1_3_Stimuli/T_ambi40.png","朋友","Image","自我","Mismatch","f","true","Formal",""
"","","","","","psychophysics","274","845849","0.0-9.0-0.1-0.161","1010","","j","","","","","","","","","","","","","key","j","16.663281250000182","768","428","./1_3_Stimuli/T_ambi40.png","自我","Word","自我","Match","j","true","Formal",""
"","","","","","psychophysics","275","847564","0.0-9.0-0.1-0.162","559","","j","","","","","","","","","","","","","key","j","16.663725490196764","768","428","./1_3_Stimuli/T_ambi40.png","自我","Image","自我","Match","j","true","Formal",""
"","","","","","psychophysics","276","849163","0.0-9.0-0.1-0.163","441","","j","","","","","","","","","","","","","key","j","16.66315789473684","768","428","./1_3_Stimuli/T_ambi40.png","自我","Word","自我","Match","j","true","Formal",""
"","","","","","psychophysics","277","851156","0.0-9.0-0.1-0.164","836","","j","","","","","","","","","","","","","key","j","16.664406779661213","768","428","./1_3_Stimuli/C_ambi40.png","朋友","Image","朋友","Match","j","true","Formal",""
"","","","","","psychophysics","278","852897","0.0-9.0-0.1-0.165","584","","j","","","","","","","","","","","","","key","j","16.663106796116956","768","428","./1_3_Stimuli/C_ambi40.png","朋友","Word","朋友","Match","j","true","Formal",""
"","","","","","psychophysics","279","854564","0.0-9.0-0.1-0.166","509","","j","","","","","","","","","","","","","key","j","16.66767676767771","768","428","./1_3_Stimuli/C_ambi40.png","朋友","Word","朋友","Match","j","true","Formal",""
"","","","","","psychophysics","280","856293","0.0-9.0-0.1-0.167","571","","f","","","","","","","","","","","","","key","f","16.662135922330776","768","428","./1_3_Stimuli/C_ambi40.png","自我","Word","朋友","Mismatch","f","true","Formal",""
"","","","","","psychophysics","281","858099","0.0-9.0-0.1-0.168","647","","j","","","","","","","","","","","","","key","j","16.66355140186916","768","428","./1_3_Stimuli/C_ambi40.png","朋友","Word","朋友","Match","j","true","Formal",""
"","","","","","psychophysics","282","860243","0.0-9.0-0.1-0.169","989","","j","","","","","","","","","","","","","key","j","16.6640625","768","428","./1_3_Stimuli/T_ambi40.png","自我","Image","自我","Match","j","true","Formal",""
"","","","","","psychophysics","283","862178","0.0-9.0-0.1-0.170","775","","f","","","","","","","","","","","","","key","f","16.663478260868956","768","428","./1_3_Stimuli/C_ambi40.png","自我","Image","朋友","Mismatch","f","true","Formal",""
"","","","","","psychophysics","284","864251","0.0-9.0-0.1-0.171","918","","f","","","","","","","","","","","","","key","f","16.6634146341471","768","428","./1_3_Stimuli/S_ambi40.png","朋友","Image","他人","Mismatch","f","true","Formal",""
"","","","","","psychophysics","285","866768","0.0-9.0-0.1-0.172","1366","","j","","","","","","","","","","","","","key","j","16.66308724832246","768","428","./1_3_Stimuli/S_ambi40.png","自我","Image","他人","Mismatch","f","false","Formal",""
"","","","","","psychophysics","286","868779","0.0-9.0-0.1-0.173","849","","j","","","","","","","","","","","","","key","j","16.665546218487005","768","428","./1_3_Stimuli/C_ambi40.png","朋友","Word","朋友","Match","j","true","Formal",""
"","","","","","psychophysics","287","871192","0.0-9.0-0.1-0.174","1259","","j","","","","","","","","","","","","","key","j","16.66458333333301","768","428","./1_3_Stimuli/S_ambi40.png","他人","Image","他人","Match","j","true","Formal",""
"","","","","","psychophysics","288","873913","0.0-9.0-0.1-0.175","null","","null","","","","","","","","","","","","","key","null","16.662111801242816","768","428","./1_3_Stimuli/S_ambi40.png","朋友","Word","他人","Mismatch","f","false","Formal",""
"","","","","","psychophysics","289","875843","0.0-9.0-0.1-0.176","777","","f","","","","","","","","","","","","","key","f","16.66695652173974","768","428","./1_3_Stimuli/S_ambi40.png","自我","Word","他人","Mismatch","f","true","Formal",""
"","","","","","psychophysics","290","877828","0.0-9.0-0.1-0.177","829","","j","","","","","","","","","","","","","key","j","16.665254237288135","768","428","./1_3_Stimuli/C_ambi40.png","朋友","Image","朋友","Match","j","true","Formal",""
"","","","","","psychophysics","291","880093","0.0-9.0-0.1-0.178","1110","","f","","","","","","","","","","","","","key","f","16.666666666666668","768","428","./1_3_Stimuli/T_ambi40.png","他人","Word","自我","Mismatch","f","true","Formal",""
"","","","","","psychophysics","292","882200","0.0-9.0-0.1-0.179","951","","j","","","","","","","","","","","","","key","j","16.66349206349188","768","428","./1_3_Stimuli/S_ambi40.png","他人","Image","他人","Match","j","true","Formal",""
"","","","","","psychophysics","293","884214","0.0-9.0-0.1-0.180","858","","j","","","","","","","","","","","","","key","j","16.661344537814735","768","428","./1_3_Stimuli/C_ambi40.png","朋友","Image","朋友","Match","j","true","Formal",""
"","","","","","psychophysics","294","886112","0.0-9.0-0.1-0.181","744","","j","","","","","","","","","","","","","key","j","16.66428571428592","768","428","./1_3_Stimuli/S_ambi40.png","他人","Word","他人","Match","j","true","Formal",""
"","","","","","psychophysics","295","887735","0.0-9.0-0.1-0.182","472","","j","","","","","","","","","","","","","key","j","16.65833333333285","768","428","./1_3_Stimuli/T_ambi40.png","自我","Word","自我","Match","j","true","Formal",""
"","","","","","psychophysics","296","889845","0.0-9.0-0.1-0.183","955","","j","","","","","","","","","","","","","key","j","16.661600000000558","768","428","./1_3_Stimuli/S_ambi40.png","他人","Word","他人","Match","j","true","Formal",""
"","","","","","psychophysics","297","891556","0.0-9.0-0.1-0.184","558","","f","","","","","","","","","","","","","key","f","16.663366336633665","768","428","./1_3_Stimuli/T_ambi40.png","他人","Image","自我","Mismatch","f","true","Formal",""
"","","","","","psychophysics","298","893281","0.0-9.0-0.1-0.185","568","","f","","","","","","","","","","","","","key","f","16.66407766990201","768","428","./1_3_Stimuli/T_ambi40.png","朋友","Image","自我","Mismatch","f","true","Formal",""
"","","","","","psychophysics","299","895256","0.0-9.0-0.1-0.186","820","","f","","","","","","","","","","","","","key","f","16.663247863247665","768","428","./1_3_Stimuli/C_ambi40.png","他人","Image","朋友","Mismatch","f","true","Formal",""
"","","","","","psychophysics","300","897323","0.0-9.0-0.1-0.187","911","","f","","","","","","","","","","","","","key","f","16.663414634146154","768","428","./1_3_Stimuli/T_ambi40.png","朋友","Word","自我","Mismatch","f","true","Formal",""
"","","","","","psychophysics","301","899332","0.0-9.0-0.1-0.188","853","","f","","","","","","","","","","","","","key","f","16.66416666666628","768","428","./1_3_Stimuli/C_ambi40.png","他人","Word","朋友","Mismatch","f","true","Formal",""
"","","","","","psychophysics","302","901092","0.0-9.0-0.1-0.189","599","","f","","","","","","","","","","","","","key","f","16.66442307692285","768","428","./1_3_Stimuli/C_ambi40.png","自我","Word","朋友","Mismatch","f","true","Formal",""
"","","","","","psychophysics","303","902907","0.0-9.0-0.1-0.190","662","","j","","","","","","","","","","","","","key","j","16.666666666666668","768","428","./1_3_Stimuli/T_ambi40.png","自我","Word","自我","Match","j","true","Formal",""
"","","","","","psychophysics","304","904795","0.0-9.0-0.1-0.191","738","","j","","","","","","","","","","","","","key","j","16.663716814159294","768","428","./1_3_Stimuli/T_ambi40.png","自我","Image","自我","Match","j","true","Formal",""
"","","","","","psychophysics","305","906594","0.0-9.0-0.1-0.192","640","","f","","","","","","","","","","","","","key","f","16.662616822430124","768","428","./1_3_Stimuli/C_ambi40.png","他人","Word","朋友","Mismatch","f","true","Formal",""
"","","","","","psychophysics","306","908327","0.0-9.0-0.1-0.193","581","","j","","","","","","","","","","","","","key","j","16.661165048543463","768","428","./1_3_Stimuli/T_ambi40.png","自我","Image","自我","Match","j","true","Formal",""
"","","","","","psychophysics","307","910097","0.0-9.0-0.1-0.194","616","","j","","","","","","","","","","","","","key","j","16.66476190476124","768","428","./1_3_Stimuli/S_ambi40.png","他人","Word","他人","Match","j","true","Formal",""
"","","","","","psychophysics","308","911942","0.0-9.0-0.1-0.195","682","","f","","","","","","","","","","","","","key","f","16.663302752294005","768","428","./1_3_Stimuli/C_ambi40.png","自我","Image","朋友","Mismatch","f","true","Formal",""
"","","","","","psychophysics","309","913968","0.0-9.0-0.1-0.196","867","","j","","","","","","","","","","","","","key","j","16.6625","768","428","./1_3_Stimuli/C_ambi40.png","朋友","Word","朋友","Match","j","true","Formal",""
"","","","","","psychophysics","310","915516","0.0-9.0-0.1-0.197","391","","j","","","","","","","","","","","","","key","j","16.665217391305106","768","428","./1_3_Stimuli/C_ambi40.png","朋友","Image","朋友","Match","j","true","Formal",""
"","","","","","psychophysics","311","917234","0.0-9.0-0.1-0.198","565","","f","","","","","","","","","","","","","key","f","16.664705882352255","768","428","./1_3_Stimuli/T_ambi40.png","朋友","Image","自我","Mismatch","f","true","Formal",""
"","","","","","psychophysics","312","918894","0.0-9.0-0.1-0.199","502","","j","","","","","","","","","","","","","key","j","16.663636363637067","768","428","./1_3_Stimuli/T_ambi40.png","自我","Word","自我","Match","j","true","Formal",""
"","","","","","psychophysics","313","920971","0.0-9.0-0.1-0.200","923","","j","","","","","","","","","","","","","key","j","16.663414634146154","768","428","./1_3_Stimuli/S_ambi40.png","他人","Image","他人","Match","j","true","Formal",""
"","","","","","psychophysics","314","923169","0.0-9.0-0.1-0.201","1045","","f","","","","","","","","","","","","","key","f","16.663358778626133","768","428","./1_3_Stimuli/S_ambi40.png","自我","Word","他人","Mismatch","f","true","Formal",""
"","","","","","psychophysics","315","925216","0.0-9.0-0.1-0.202","893","","j","","","","","","","","","","","","","key","j","16.6631147540976","768","428","./1_3_Stimuli/S_ambi40.png","他人","Word","他人","Match","j","true","Formal",""
"","","","","","psychophysics","316","927501","0.0-9.0-0.1-0.203","1128","","f","","","","","","","","","","","","","key","f","16.666176470588063","768","428","./1_3_Stimuli/S_ambi40.png","朋友","Image","他人","Mismatch","f","true","Formal",""
"","","","","","psychophysics","317","929716","0.0-9.0-0.1-0.204","1060","","f","","","","","","","","","","","","","key","f","16.662121212121388","768","428","./1_3_Stimuli/T_ambi40.png","他人","Image","自我","Mismatch","f","true","Formal",""
"","","","","","psychophysics","318","931700","0.0-9.0-0.1-0.205","831","","j","","","","","","","","","","","","","key","j","16.66271186440737","768","428","./1_3_Stimuli/C_ambi40.png","朋友","Word","朋友","Match","j","true","Formal",""
"","","","","","psychophysics","319","933620","0.0-9.0-0.1-0.206","769","","f","","","","","","","","","","","","","key","f","16.66403508771889","768","428","./1_3_Stimuli/S_ambi40.png","自我","Image","他人","Mismatch","f","true","Formal",""
"","","","","","psychophysics","320","935549","0.0-9.0-0.1-0.207","776","","f","","","","","","","","","","","","","key","f","16.661403508772135","768","428","./1_3_Stimuli/T_ambi40.png","他人","Word","自我","Mismatch","f","true","Formal",""
"","","","","","psychophysics","321","937370","0.0-9.0-0.1-0.208","665","","j","","","","","","","","","","","","","key","j","16.663888888889534","768","428","./1_3_Stimuli/S_ambi40.png","他人","Image","他人","Match","j","true","Formal",""
"","","","","","psychophysics","322","939133","0.0-9.0-0.1-0.209","612","","f","","","","","","","","","","","","","key","f","16.66346153846154","768","428","./1_3_Stimuli/C_ambi40.png","自我","Word","朋友","Mismatch","f","true","Formal",""
"","","","","","psychophysics","323","941100","0.0-9.0-0.1-0.210","816","","j","","","","","","","","","","","","","key","j","16.664102564102166","768","428","./1_3_Stimuli/T_ambi40.png","自我","Image","自我","Match","j","true","Formal",""
"","","","","","psychophysics","324","943051","0.0-9.0-0.1-0.211","798","","f","","","","","","","","","","","","","key","f","16.664655172414594","768","428","./1_3_Stimuli/T_ambi40.png","朋友","Word","自我","Mismatch","f","true","Formal",""
"","","","","","psychophysics","325","944832","0.0-9.0-0.1-0.212","628","","j","","","","","","","","","","","","","key","j","16.66320754716915","768","428","./1_3_Stimuli/C_ambi40.png","朋友","Image","朋友","Match","j","true","Formal",""
"","","","","","psychophysics","326","946510","0.0-9.0-0.1-0.213","523","","j","","","","","","","","","","","","","key","j","16.661999999999534","768","428","./1_3_Stimuli/T_ambi40.png","自我","Word","自我","Match","j","true","Formal",""
"","","","","","psychophysics","327","948419","0.0-9.0-0.1-0.214","749","","f","","","","","","","","","","","","","key","f","16.664601769912327","768","428","./1_3_Stimuli/C_ambi40.png","他人","Image","朋友","Mismatch","f","true","Formal",""
"","","","","","psychophysics","328","950663","0.0-9.0-0.1-0.215","1077","","f","","","","","","","","","","","","","key","f","16.66390977443644","768","428","./1_3_Stimuli/S_ambi40.png","朋友","Word","他人","Mismatch","f","true","Formal",""
"","","","","","psychophysics","329","952981","0.0-9.0-0.1-0.216","1163","","f","","","","","","","","","","","","","key","f","16.664233576642335","768","428","./1_3_Stimuli/T_ambi40.png","他人","Word","自我","Mismatch","f","true","Formal",""
"","","","","","psychophysics","330","954762","0.0-9.0-0.1-0.217","627","","j","","","","","","","","","","","","","key","j","16.663207547170252","768","428","./1_3_Stimuli/S_ambi40.png","他人","Image","他人","Match","j","true","Formal",""
"","","","","","psychophysics","331","956588","0.0-9.0-0.1-0.218","674","","j","","","","","","","","","","","","","key","j","16.663302752294005","768","428","./1_3_Stimuli/T_ambi40.png","自我","Image","自我","Match","j","true","Formal",""
"","","","","","psychophysics","332","958562","0.0-9.0-0.1-0.219","812","","f","","","","","","","","","","","","","key","f","16.66410256410316","768","428","./1_3_Stimuli/T_ambi40.png","朋友","Word","自我","Mismatch","f","true","Formal",""
"","","","","","psychophysics","333","960550","0.0-9.0-0.1-0.220","833","","j","","","","","","","","","","","","","key","j","16.663559322033308","768","428","./1_3_Stimuli/C_ambi40.png","朋友","Image","朋友","Match","j","true","Formal",""
"","","","","","psychophysics","334","962334","0.0-9.0-0.1-0.221","628","","f","","","","","","","","","","","","","key","f","16.662264150944054","768","428","./1_3_Stimuli/T_ambi40.png","朋友","Image","自我","Mismatch","f","true","Formal",""
"","","","","","psychophysics","335","964260","0.0-9.0-0.1-0.222","772","","f","","","","","","","","","","","","","key","f","16.661403508771112","768","428","./1_3_Stimuli/C_ambi40.png","自我","Image","朋友","Mismatch","f","true","Formal",""
"","","","","","psychophysics","336","966180","0.0-9.0-0.1-0.223","765","","j","","","","","","","","","","","","","key","j","16.66315789473664","768","428","./1_3_Stimuli/C_ambi40.png","朋友","Image","朋友","Match","j","true","Formal",""
"","","","","","psychophysics","337","967893","0.0-9.0-0.1-0.224","562","","f","","","","","","","","","","","","","key","f","16.65841584158416","768","428","./1_3_Stimuli/C_ambi40.png","他人","Word","朋友","Mismatch","f","true","Formal",""
"","","","","","psychophysics","338","969623","0.0-9.0-0.1-0.225","574","","f","","","","","","","","","","","","","key","f","16.66407766990201","768","428","./1_3_Stimuli/C_ambi40.png","自我","Word","朋友","Mismatch","f","true","Formal",""
"","","","","","psychophysics","339","971890","0.0-9.0-0.1-0.226","1109","","f","","","","","","","","","","","","","key","f","16.6644444444441","768","428","./1_3_Stimuli/C_ambi40.png","他人","Image","朋友","Mismatch","f","true","Formal",""
"","","","","","psychophysics","340","973572","0.0-9.0-0.1-0.227","526","","j","","","","","","","","","","","","","key","j","16.664000000000232","768","428","./1_3_Stimuli/T_ambi40.png","自我","Word","自我","Match","j","true","Formal",""
"","","","","","psychophysics","341","975280","0.0-9.0-0.1-0.228","550","","j","","","","","","","","","","","","","key","j","16.663366336633665","768","428","./1_3_Stimuli/T_ambi40.png","自我","Word","自我","Match","j","true","Formal",""
"","","","","","psychophysics","342","976947","0.0-9.0-0.1-0.229","516","","f","","","","","","","","","","","","","key","f","16.66363636363589","768","428","./1_3_Stimuli/S_ambi40.png","自我","Image","他人","Mismatch","f","true","Formal",""
"","","","","","psychophysics","343","978747","0.0-9.0-0.1-0.230","634","","f","","","","","","","","","","","","","key","f","16.66168224299","768","428","./1_3_Stimuli/S_ambi40.png","自我","Word","他人","Mismatch","f","true","Formal",""
"","","","","","psychophysics","344","981209","0.0-9.0-0.1-0.231","1299","","f","","","","","","","","","","","","","key","f","16.663698630137144","768","428","./1_3_Stimuli/T_ambi40.png","他人","Image","自我","Mismatch","f","true","Formal",""
"","","","","","psychophysics","345","983164","0.0-9.0-0.1-0.232","801","","f","","","","","","","","","","","","","key","f","16.663793103448278","768","428","./1_3_Stimuli/S_ambi40.png","朋友","Word","他人","Mismatch","f","true","Formal",""
"","","","","","psychophysics","346","985289","0.0-9.0-0.1-0.233","961","","j","","","","","","","","","","","","","key","j","16.6658730158732","768","428","./1_3_Stimuli/S_ambi40.png","他人","Image","他人","Match","j","true","Formal",""
"","","","","","psychophysics","347","987136","0.0-9.0-0.1-0.234","691","","j","","","","","","","","","","","","","key","j","16.66545454545412","768","428","./1_3_Stimuli/C_ambi40.png","朋友","Word","朋友","Match","j","true","Formal",""
"","","","","","psychophysics","348","989051","0.0-9.0-0.1-0.235","756","","j","","","","","","","","","","","","","key","j","16.661403508772135","768","428","./1_3_Stimuli/S_ambi40.png","他人","Word","他人","Match","j","true","Formal",""
"","","","","","psychophysics","349","990769","0.0-9.0-0.1-0.236","558","","j","","","","","","","","","","","","","key","j","16.66372549019562","768","428","./1_3_Stimuli/T_ambi40.png","自我","Image","自我","Match","j","true","Formal",""
"","","","","","psychophysics","350","992625","0.0-9.0-0.1-0.237","701","","j","","","","","","","","","","","","","key","j","16.663636363636364","768","428","./1_3_Stimuli/S_ambi40.png","他人","Word","他人","Match","j","true","Formal",""
"","","","","","psychophysics","351","994487","0.0-9.0-0.1-0.238","711","","j","","","","","","","","","","","","","key","j","16.663636363636364","768","428","./1_3_Stimuli/C_ambi40.png","朋友","Word","朋友","Match","j","true","Formal",""
"","","","","","psychophysics","352","996381","0.0-9.0-0.1-0.239","741","","f","","","","","","","","","","","","","key","f","16.66194690265425","768","428","./1_3_Stimuli/S_ambi40.png","朋友","Image","他人","Mismatch","f","true","Formal",""
"","","","","","html-keyboard-response","353","1000973","0.0-9.0-1.1","4588","<style>.context{color:white; font-size: 35px; line-height:40px}</style>                        <div><p class='context'>您正确回答了97% 的试次。</p><p class='context'>您的平均反应时为748毫秒。</p><p> <div style = 'color: green'><按任意键进入休息></div></p>"," ","","","","","","","","","","","","","","","","","","","","","","","","","",""
"","","","","","html-button-response","354","1081239","0.0-9.0-2.1","80263","
                  <p>您当前还剩余4组实验</p>
                  <p>现在是休息时间，当您结束休息后，您可以点击 结束休息 按钮 继续</p>
                  <p>建议休息时间还剩余<span id=""iii"">60</span>秒</p>","0","","","","","","","","","","","","","","","","","","","","","","","","","",""
"","","","","","psychophysics","355","1083128","0.0-9.0-0.2-0.240","735","","j","","","","","","","","","","","","","key","j","16.659821428572677","768","428","./1_3_Stimuli/S_ambi40.png","朋友","Image","他人","Mismatch","f","false","Formal",""
"","","","","","psychophysics","356","1084776","0.0-9.0-0.2-0.241","489","","j","","","","","","","","","","","","","key","j","16.663265306122447","768","428","./1_3_Stimuli/C_ambi40.png","朋友","Image","朋友","Match","j","true","Formal",""
"","","","","","psychophysics","357","1086524","0.0-9.0-0.2-0.242","595","","j","","","","","","","","","","","","","key","j","16.663106796116956","768","428","./1_3_Stimuli/C_ambi40.png","朋友","Word","朋友","Match","j","true","Formal",""
"","","","","","psychophysics","358","1088272","0.0-9.0-0.2-0.243","595","","f","","","","","","","","","","","","","key","f","16.661165048542333","768","428","./1_3_Stimuli/T_ambi40.png","他人","Image","自我","Mismatch","f","true","Formal",""
"","","","","","psychophysics","359","1089865","0.0-9.0-0.2-0.244","438","","j","","","","","","","","","","","","","key","j","16.6659574468095","768","428","./1_3_Stimuli/T_ambi40.png","自我","Image","自我","Match","j","true","Formal",""
"","","","","","psychophysics","360","1091851","0.0-9.0-0.2-0.245","825","","f","","","","","","","","","","","","","key","f","16.664957264957664","768","428","./1_3_Stimuli/C_ambi40.png","他人","Image","朋友","Mismatch","f","true","Formal",""
"","","","","","psychophysics","361","1093597","0.0-9.0-0.2-0.246","593","","j","","","","","","","","","","","","","key","j","16.665384615384166","768","428","./1_3_Stimuli/S_ambi40.png","他人","Word","他人","Match","j","true","Formal",""
"","","","","","psychophysics","362","1095282","0.0-9.0-0.2-0.247","523","","j","","","","","","","","","","","","","key","j","16.664646464646935","768","428","./1_3_Stimuli/T_ambi40.png","自我","Word","自我","Match","j","true","Formal",""
"","","","","","psychophysics","363","1097098","0.0-9.0-0.2-0.248","657","","f","","","","","","","","","","","","","key","f","16.663888888888458","768","428","./1_3_Stimuli/C_ambi40.png","自我","Image","朋友","Mismatch","f","true","Formal",""
"","","","","","psychophysics","364","1098923","0.0-9.0-0.2-0.249","667","","f","","","","","","","","","","","","","key","f","16.664814814815244","768","428","./1_3_Stimuli/S_ambi40.png","自我","Word","他人","Mismatch","f","true","Formal",""
"","","","","","psychophysics","365","1100701","0.0-9.0-0.2-0.250","628","","f","","","","","","","","","","","","","key","f","16.662857142855813","768","428","./1_3_Stimuli/S_ambi40.png","自我","Image","他人","Mismatch","f","true","Formal",""
"","","","","","psychophysics","366","1102785","0.0-9.0-0.2-0.251","929","","f","","","","","","","","","","","","","key","f","16.66370967741973","768","428","./1_3_Stimuli/S_ambi40.png","朋友","Word","他人","Mismatch","f","true","Formal",""
"","","","","","psychophysics","367","1104514","0.0-9.0-0.2-0.252","575","","j","","","","","","","","","","","","","key","j","16.66407766990427","768","428","./1_3_Stimuli/C_ambi40.png","朋友","Image","朋友","Match","j","true","Formal",""
"","","","","","psychophysics","368","1106240","0.0-9.0-0.2-0.253","568","","f","","","","","","","","","","","","","key","f","16.663106796116956","768","428","./1_3_Stimuli/C_ambi40.png","自我","Word","朋友","Mismatch","f","true","Formal",""
"","","","","","psychophysics","369","1108071","0.0-9.0-0.2-0.254","677","","f","","","","","","","","","","","","","key","f","16.664814814815244","768","428","./1_3_Stimuli/T_ambi40.png","朋友","Image","自我","Mismatch","f","true","Formal",""
"","","","","","psychophysics","370","1109734","0.0-9.0-0.2-0.255","512","","f","","","","","","","","","","","","","key","f","16.664285714286663","768","428","./1_3_Stimuli/T_ambi40.png","朋友","Word","自我","Mismatch","f","true","Formal",""
"","","","","","psychophysics","371","1111499","0.0-9.0-0.2-0.256","613","","f","","","","","","","","","","","","","key","f","16.6638095238113","768","428","./1_3_Stimuli/T_ambi40.png","他人","Word","自我","Mismatch","f","true","Formal",""
"","","","","","psychophysics","372","1113284","0.0-9.0-0.2-0.257","634","","j","","","","","","","","","","","","","key","j","16.66415094339535","768","428","./1_3_Stimuli/S_ambi40.png","他人","Image","他人","Match","j","true","Formal",""
"","","","","","psychophysics","373","1115190","0.0-9.0-0.2-0.258","753","","j","","","","","","","","","","","","","key","j","16.662280701754387","768","428","./1_3_Stimuli/T_ambi40.png","自我","Word","自我","Match","j","true","Formal",""
"","","","","","psychophysics","374","1116853","0.0-9.0-0.2-0.259","499","","j","","","","","","","","","","","","","key","j","16.661224489796393","768","428","./1_3_Stimuli/S_ambi40.png","他人","Word","他人","Match","j","true","Formal",""
"","","","","","psychophysics","375","1118588","0.0-9.0-0.2-0.260","584","","j","","","","","","","","","","","","","key","j","16.666019417476633","768","428","./1_3_Stimuli/T_ambi40.png","自我","Image","自我","Match","j","true","Formal",""
"","","","","","psychophysics","376","1120347","0.0-9.0-0.2-0.261","595","","j","","","","","","","","","","","","","key","j","16.664423076921732","768","428","./1_3_Stimuli/C_ambi40.png","朋友","Word","朋友","Match","j","true","Formal",""
"","","","","","psychophysics","377","1122157","0.0-9.0-0.2-0.262","654","","j","","","","","","","","","","","","","key","j","16.659259259260985","768","428","./1_3_Stimuli/S_ambi40.png","他人","Image","他人","Match","j","true","Formal",""
"","","","","","psychophysics","378","1123926","0.0-9.0-0.2-0.263","606","","f","","","","","","","","","","","","","key","f","16.664761904762347","768","428","./1_3_Stimuli/C_ambi40.png","他人","Word","朋友","Mismatch","f","true","Formal",""
"","","","","","psychophysics","379","1125747","0.0-9.0-0.2-0.264","665","","f","","","","","","","","","","","","","key","f","16.663888888888458","768","428","./1_3_Stimuli/T_ambi40.png","他人","Word","自我","Mismatch","f","true","Formal",""
"","","","","","psychophysics","380","1127298","0.0-9.0-0.2-0.265","397","","j","","","","","","","","","","","","","key","j","16.66304347826087","768","428","./1_3_Stimuli/T_ambi40.png","自我","Word","自我","Match","j","true","Formal",""
"","","","","","psychophysics","381","1129008","0.0-9.0-0.2-0.266","557","","j","","","","","","","","","","","","","key","j","16.66372549019562","768","428","./1_3_Stimuli/C_ambi40.png","朋友","Word","朋友","Match","j","true","Formal",""
"","","","","","psychophysics","382","1130978","0.0-9.0-0.2-0.267","810","","f","","","","","","","","","","","","","key","f","16.663793103448278","768","428","./1_3_Stimuli/T_ambi40.png","朋友","Image","自我","Mismatch","f","true","Formal",""
"","","","","","psychophysics","383","1133090","0.0-9.0-0.2-0.268","956","","j","","","","","","","","","","","","","key","j","16.664285714285345","768","428","./1_3_Stimuli/C_ambi40.png","朋友","Word","朋友","Match","j","true","Formal",""
"","","","","","psychophysics","384","1134828","0.0-9.0-0.2-0.269","578","","f","","","","","","","","","","","","","key","f","16.66407766990427","768","428","./1_3_Stimuli/S_ambi40.png","朋友","Word","他人","Mismatch","f","true","Formal",""
"","","","","","psychophysics","385","1136906","0.0-9.0-0.2-0.270","922","","f","","","","","","","","","","","","","key","f","16.661290322580644","768","428","./1_3_Stimuli/S_ambi40.png","自我","Image","他人","Mismatch","f","true","Formal",""
"","","","","","psychophysics","386","1139107","0.0-9.0-0.2-0.271","1040","","f","","","","","","","","","","","","","key","f","16.665648854963255","768","428","./1_3_Stimuli/C_ambi40.png","他人","Image","朋友","Mismatch","f","true","Formal",""
"","","","","","psychophysics","387","1141081","0.0-9.0-0.2-0.272","816","","f","","","","","","","","","","","","","key","f","16.66324786324667","768","428","./1_3_Stimuli/C_ambi40.png","他人","Word","朋友","Mismatch","f","true","Formal",""
"","","","","","psychophysics","388","1142936","0.0-9.0-0.2-0.273","702","","f","","","","","","","","","","","","","key","f","16.663636363636364","768","428","./1_3_Stimuli/T_ambi40.png","他人","Image","自我","Mismatch","f","true","Formal",""
"","","","","","psychophysics","389","1144660","0.0-9.0-0.2-0.274","565","","j","","","","","","","","","","","","","key","j","16.659803921569083","768","428","./1_3_Stimuli/T_ambi40.png","自我","Image","自我","Match","j","true","Formal",""
"","","","","","psychophysics","390","1146529","0.0-9.0-0.2-0.275","715","","f","","","","","","","","","","","","","key","f","16.663963963963546","768","428","./1_3_Stimuli/C_ambi40.png","自我","Word","朋友","Mismatch","f","true","Formal",""
"","","","","","psychophysics","391","1148318","0.0-9.0-0.2-0.276","638","","j","","","","","","","","","","","","","key","j","16.662616822429037","768","428","./1_3_Stimuli/T_ambi40.png","自我","Word","自我","Match","j","true","Formal",""
"","","","","","psychophysics","392","1150368","0.0-9.0-0.2-0.277","888","","j","","","","","","","","","","","","","key","j","16.66639344262333","768","428","./1_3_Stimuli/S_ambi40.png","他人","Word","他人","Match","j","true","Formal",""
"","","","","","psychophysics","393","1151977","0.0-9.0-0.2-0.278","448","","j","","","","","","","","","","","","","key","j","16.666315789474176","768","428","./1_3_Stimuli/C_ambi40.png","朋友","Image","朋友","Match","j","true","Formal",""
"","","","","","psychophysics","394","1153667","0.0-9.0-0.2-0.279","539","","f","","","","","","","","","","","","","key","f","16.663366336633665","768","428","./1_3_Stimuli/S_ambi40.png","自我","Word","他人","Mismatch","f","true","Formal",""
"","","","","","psychophysics","395","1155557","0.0-9.0-0.2-0.280","728","","f","","","","","","","","","","","","","key","f","16.663963963965642","768","428","./1_3_Stimuli/C_ambi40.png","自我","Image","朋友","Mismatch","f","true","Formal",""
"","","","","","psychophysics","396","1157723","0.0-9.0-0.2-0.281","1011","","j","","","","","","","","","","","","","key","j","16.66356589147359","768","428","./1_3_Stimuli/T_ambi40.png","自我","Image","自我","Match","j","true","Formal",""
"","","","","","psychophysics","397","1159655","0.0-9.0-0.2-0.282","776","","j","","","","","","","","","","","","","key","j","16.66260869565177","768","428","./1_3_Stimuli/S_ambi40.png","朋友","Image","他人","Mismatch","f","false","Formal",""
"","","","","","psychophysics","398","1161444","0.0-9.0-0.2-0.283","630","","j","","","","","","","","","","","","","key","j","16.663207547170252","768","428","./1_3_Stimuli/C_ambi40.png","朋友","Image","朋友","Match","j","true","Formal",""
"","","","","","psychophysics","399","1163288","0.0-9.0-0.2-0.284","693","","j","","","","","","","","","","","","","key","j","16.66238532110049","768","428","./1_3_Stimuli/S_ambi40.png","他人","Image","他人","Match","j","true","Formal",""
"","","","","","psychophysics","400","1164960","0.0-9.0-0.2-0.285","516","","j","","","","","","","","","","","","","key","j","16.66767676767771","768","428","./1_3_Stimuli/S_ambi40.png","他人","Word","他人","Match","j","true","Formal",""
"","","","","","psychophysics","401","1166839","0.0-9.0-0.2-0.286","717","","f","","","","","","","","","","","","","key","f","16.665765765764927","768","428","./1_3_Stimuli/T_ambi40.png","朋友","Word","自我","Mismatch","f","true","Formal",""
"","","","","","psychophysics","402","1168521","0.0-9.0-0.2-0.287","528","","j","","","","","","","","","","","","","key","j","16.663999999999067","768","428","./1_3_Stimuli/S_ambi40.png","他人","Image","他人","Match","j","true","Formal",""
"","","","","","psychophysics","403","1170570","0.0-9.0-0.2-0.288","893","","f","","","","","","","","","","","","","key","f","16.667213114753334","768","428","./1_3_Stimuli/C_ambi40.png","朋友","Image","朋友","Match","j","false","Formal",""
"","","","","","psychophysics","404","1172406","0.0-9.0-0.2-0.289","680","","f","","","","","","","","","","","","","key","f","16.66238532110049","768","428","./1_3_Stimuli/S_ambi40.png","自我","Image","他人","Mismatch","f","true","Formal",""
"","","","","","psychophysics","405","1174684","0.0-9.0-0.2-0.290","1125","","f","","","","","","","","","","","","","key","f","16.66370370370267","768","428","./1_3_Stimuli/T_ambi40.png","朋友","Word","自我","Mismatch","f","true","Formal",""
"","","","","","psychophysics","406","1176710","0.0-9.0-0.2-0.291","868","","f","","","","","","","","","","","","","key","f","16.66115702479339","768","428","./1_3_Stimuli/T_ambi40.png","他人","Word","自我","Mismatch","f","true","Formal",""
"","","","","","psychophysics","407","1179424","0.0-9.0-0.2-0.292","null","","null","","","","","","","","","","","","","key","null","16.66335403726737","768","428","./1_3_Stimuli/S_ambi40.png","朋友","Word","他人","Mismatch","f","false","Formal",""
"","","","","","psychophysics","408","1181180","0.0-9.0-0.2-0.293","596","","j","","","","","","","","","","","","","key","j","16.662500000001344","768","428","./1_3_Stimuli/T_ambi40.png","自我","Word","自我","Match","j","true","Formal",""
"","","","","","psychophysics","409","1183456","0.0-9.0-0.2-0.294","1115","","f","","","","","","","","","","","","","key","f","16.66074074074212","768","428","./1_3_Stimuli/C_ambi40.png","他人","Image","朋友","Mismatch","f","true","Formal",""
"","","","","","psychophysics","410","1185529","0.0-9.0-0.2-0.295","920","","j","","","","","","","","","","","","","key","j","16.665040650406883","768","428","./1_3_Stimuli/S_ambi40.png","他人","Word","他人","Match","j","true","Formal",""
"","","","","","psychophysics","411","1187299","0.0-9.0-0.2-0.296","610","","f","","","","","","","","","","","","","key","f","16.664423076923974","768","428","./1_3_Stimuli/C_ambi40.png","他人","Word","朋友","Mismatch","f","true","Formal",""
"","","","","","psychophysics","412","1189404","0.0-9.0-0.2-0.297","947","","f","","","","","","","","","","","","","key","f","16.663199999999254","768","428","./1_3_Stimuli/T_ambi40.png","朋友","Image","自我","Mismatch","f","true","Formal",""
"","","","","","psychophysics","413","1192122","0.0-9.0-0.2-0.298","null","","null","","","","","","","","","","","","","key","null","16.664197530863333","768","428","./1_3_Stimuli/S_ambi40.png","他人","Image","他人","Match","j","false","Formal",""
"","","","","","psychophysics","414","1193923","0.0-9.0-0.2-0.299","641","","j","","","","","","","","","","","","","key","j","16.660747663550968","768","428","./1_3_Stimuli/T_ambi40.png","自我","Image","自我","Match","j","true","Formal",""
"","","","","","psychophysics","415","1195632","0.0-9.0-0.2-0.300","554","","j","","","","","","","","","","","","","key","j","16.664356435644486","768","428","./1_3_Stimuli/S_ambi40.png","他人","Image","他人","Match","j","true","Formal",""
"","","","","","psychophysics","416","1197306","0.0-9.0-0.2-0.301","518","","j","","","","","","","","","","","","","key","j","16.665","768","428","./1_3_Stimuli/T_ambi40.png","自我","Word","自我","Match","j","true","Formal",""
