"success","timeout","failed_images","failed_audio","failed_video","trial_type","trial_index","time_elapsed","internal_node_id","rt","stimulus","response","value","item_width_mm","item_height_mm","item_width_px","px2mm","view_dist_mm","item_width_deg","px2deg","scale_factor","win_width_deg","win_height_deg","view_history","response_type","key_press","avg_frame_time","center_x","center_y","image","word","target","valence","matchness","correct_response","correct","exp_condition","question_order"
"true","false","[]","[]","[]","preload","0","522","0.0-0.0","","","","","","","","","","","","","","","","","","","","","","","","","","","","",""
"","","","","","html-keyboard-response","1","9899","0.0-1.0","9376","
     <p>您好，欢迎参加本次实验。</p>
     <p>为充分保障您的权利，请确保您已经知晓并同意《参与实验同意书》以及《数据公开知情同意书》。</p>
     <p>如果您未见过上述内容，请咨询实验员。</p>
     <p>如果您选择继续实验，则表示您已经清楚两份知情同意书的内容并同意。</p>
     <p> <div style = ""color: green""><按任意键至下页></div> </p>
     "," ","","","","","","","","","","","","","","","","","","","","","","","","","",""
"","","","","","html-keyboard-response","2","11361","0.0-2.0-0.0","1462","
      <p>本实验首先需要您填写一些基本个人信息。</p>
      <p> <div style = ""color: green""><按任意键至下页></div></p>
      "," ","","","","","","","","","","","","","","","","","","","","","","","","","",""
"","","","","","call-function","3","11362","0.0-2.0-1.0","","","","","","","","","","","","","","","","","","","","","","","","","","","","",""
"","","","","","survey-html-form","4","20313","0.0-2.0-2.0","8949","","{""Q0"":""1022""}","","","","","","","","","","","","","","","","","","","","","","","","","",""
"","","","","","html-button-response","5","21777","0.0-2.0-3.0","1463","<p style = 'color : white'>您的性别</p>","1","","","","","","","","","","","","","","","","","","","","","","","","","",""
"","","","","","survey-html-form","6","28731","0.0-2.0-4.0","6953","","{""Q0"":""2003""}","","","","","","","","","","","","","","","","","","","","","","","","","",""
"","","","","","survey-html-form","7","33643","0.0-2.0-5.0","4911","","{""Q0"":""5""}","","","","","","","","","","","","","","","","","","","","","","","","","",""
"","","","","","virtual-chinrest","8","195864","0.0-3.0","162221","","","","85.6","53.98","368.17007507557037","4.304905304920081","665.15","7.363401501511408","50","1.042996229177997","30.36","14.68","","","","","","","","","","","","","","",""
"true","","","","","fullscreen","9","198713","0.0-4.0","","","","","","","","","","","","","","","","","","","","","","","","","","","","",""
"","","","","","instructions","10","253326","0.0-5.0","54612","","","","","","","","","","","","","","[{""page_index"":0,""viewing_time"":4848},{""page_index"":1,""viewing_time"":33480},{""page_index"":2,""viewing_time"":10860},{""page_index"":3,""viewing_time"":5424}]","","","","","","","","","","","","","",""
"","","","","","html-keyboard-response","11","256982","0.0-6.0","null","<count-down title=""""></count-down>","null","","","","","","","","","","","","","","","","","","","","","","","","","",""
"","","","","","psychophysics","12","259701","0.0-7.0-0.0-0.0","null","","null","","","","","","","","","","","","","key","null","16.62219753086421","758.8","417.2","./1_3_Stimuli/T_ambi40.png","朋友","Word","他人","Mismatch","j","false","Practice",""
"","","","","","html-keyboard-response","13","260014","0.0-7.0-0.0-1.0","null","<span class='add_' style='color:yellow; font-size: 70px;'> 太慢! </span>","null","","","","","","","","","","","","","","","","","","","","","","","","","feedback",""
"","","","","","psychophysics","14","262204","0.0-7.0-0.0-0.1","1034","","j","","","","","","","","","","","","","key","j","16.62220610687016","758.8","417.2","./1_3_Stimuli/S_ambi40.png","朋友","Word","自我","Mismatch","j","true","Practice",""
"","","","","","html-keyboard-response","15","262516","0.0-7.0-0.0-1.1","null","<span style='color:GreenYellow; font-size: 70px;'>正确! </span>","null","","","","","","","","","","","","","","","","","","","","","","","","","feedback",""
"","","","","","psychophysics","16","264790","0.0-7.0-0.0-0.2","1117","","j","","","","","","","","","","","","","key","j","16.61994814814836","758.8","417.2","./1_3_Stimuli/T_ambi40.png","他人","Image","他人","Match","f","false","Practice",""
"","","","","","html-keyboard-response","17","265102","0.0-7.0-0.0-1.2","null","<span style='color:red; font-size: 70px;'>错误! </span>","null","","","","","","","","","","","","","","","","","","","","","","","","","feedback",""
"","","","","","psychophysics","18","267199","0.0-7.0-0.0-0.3","947","","j","","","","","","","","","","","","","key","j","16.621183999999893","758.8","417.2","./1_3_Stimuli/S_ambi40.png","他人","Image","自我","Mismatch","j","true","Practice",""
"","","","","","html-keyboard-response","19","267506","0.0-7.0-0.0-1.3","null","<span style='color:GreenYellow; font-size: 70px;'>正确! </span>","null","","","","","","","","","","","","","","","","","","","","","","","","","feedback",""
"","","","","","psychophysics","20","270002","0.0-7.0-0.0-0.4","1336","","j","","","","","","","","","","","","","key","j","16.62222818791946","758.8","417.2","./1_3_Stimuli/C_ambi40.png","自我","Word","朋友","Mismatch","j","true","Practice",""
"","","","","","html-keyboard-response","21","270314","0.0-7.0-0.0-1.4","null","<span style='color:GreenYellow; font-size: 70px;'>正确! </span>","null","","","","","","","","","","","","","","","","","","","","","","","","","feedback",""
"","","","","","psychophysics","22","272304","0.0-7.0-0.0-0.5","839","","f","","","","","","","","","","","","","key","f","16.620571428571413","758.8","417.2","./1_3_Stimuli/S_ambi40.png","自我","Image","自我","Match","f","true","Practice",""
"","","","","","html-keyboard-response","23","272617","0.0-7.0-0.0-1.5","null","<span style='color:GreenYellow; font-size: 70px;'>正确! </span>","null","","","","","","","","","","","","","","","","","","","","","","","","","feedback",""
"","","","","","psychophysics","24","274848","0.0-7.0-0.0-0.6","1079","","j","","","","","","","","","","","","","key","j","16.621556390977126","758.8","417.2","./1_3_Stimuli/T_ambi40.png","他人","Word","他人","Match","f","false","Practice",""
"","","","","","html-keyboard-response","25","275161","0.0-7.0-0.0-1.6","null","<span style='color:red; font-size: 70px;'>错误! </span>","null","","","","","","","","","","","","","","","","","","","","","","","","","feedback",""
"","","","","","psychophysics","26","277716","0.0-7.0-0.0-0.7","1404","","j","","","","","","","","","","","","","key","j","16.62104575163411","758.8","417.2","./1_3_Stimuli/C_ambi40.png","朋友","Word","朋友","Match","f","false","Practice",""
"","","","","","html-keyboard-response","27","278027","0.0-7.0-0.0-1.7","null","<span style='color:red; font-size: 70px;'>错误! </span>","null","","","","","","","","","","","","","","","","","","","","","","","","","feedback",""
"","","","","","psychophysics","28","280507","0.0-7.0-0.0-0.8","1326","","f","","","","","","","","","","","","","key","f","16.621243243243363","758.8","417.2","./1_3_Stimuli/T_ambi40.png","朋友","Image","他人","Mismatch","j","false","Practice",""
"","","","","","html-keyboard-response","29","280809","0.0-7.0-0.0-1.8","null","<span style='color:red; font-size: 70px;'>错误! </span>","null","","","","","","","","","","","","","","","","","","","","","","","","","feedback",""
"","","","","","psychophysics","30","283037","0.0-7.0-0.0-0.9","1074","","j","","","","","","","","","","","","","key","j","16.619571428571362","758.8","417.2","./1_3_Stimuli/S_ambi40.png","他人","Word","自我","Mismatch","j","true","Practice",""
"","","","","","html-keyboard-response","31","283348","0.0-7.0-0.0-1.9","null","<span style='color:GreenYellow; font-size: 70px;'>正确! </span>","null","","","","","","","","","","","","","","","","","","","","","","","","","feedback",""
"","","","","","psychophysics","32","285556","0.0-7.0-0.0-0.10","1050","","f","","","","","","","","","","","","","key","f","16.621810606060368","758.8","417.2","./1_3_Stimuli/T_ambi40.png","他人","Word","他人","Match","f","true","Practice",""
"","","","","","html-keyboard-response","33","285864","0.0-7.0-0.0-1.10","null","<span style='color:GreenYellow; font-size: 70px;'>正确! </span>","null","","","","","","","","","","","","","","","","","","","","","","","","","feedback",""
"","","","","","psychophysics","34","287877","0.0-7.0-0.0-0.11","861","","j","","","","","","","","","","","","","key","j","16.620349999999842","758.8","417.2","./1_3_Stimuli/C_ambi40.png","他人","Word","朋友","Mismatch","j","true","Practice",""
"","","","","","html-keyboard-response","35","288190","0.0-7.0-0.0-1.11","null","<span style='color:GreenYellow; font-size: 70px;'>正确! </span>","null","","","","","","","","","","","","","","","","","","","","","","","","","feedback",""
"","","","","","psychophysics","36","290898","0.0-7.0-0.0-0.12","null","","null","","","","","","","","","","","","","key","null","16.621882716049353","758.8","417.2","./1_3_Stimuli/S_ambi40.png","朋友","Image","自我","Mismatch","j","false","Practice",""
"","","","","","html-keyboard-response","37","291211","0.0-7.0-0.0-1.12","null","<span class='add_' style='color:yellow; font-size: 70px;'> 太慢! </span>","null","","","","","","","","","","","","","","","","","","","","","","","","","feedback",""
"","","","","","psychophysics","38","293258","0.0-7.0-0.0-0.13","889","","j","","","","","","","","","","","","","key","j","16.62029508196703","758.8","417.2","./1_3_Stimuli/C_ambi40.png","自我","Image","朋友","Mismatch","j","true","Practice",""
"","","","","","html-keyboard-response","39","293563","0.0-7.0-0.0-1.13","null","<span style='color:GreenYellow; font-size: 70px;'>正确! </span>","null","","","","","","","","","","","","","","","","","","","","","","","","","feedback",""
"","","","","","psychophysics","40","296043","0.0-7.0-0.0-0.14","1327","","f","","","","","","","","","","","","","key","f","16.52803378378362","758.8","417.2","./1_3_Stimuli/C_ambi40.png","朋友","Image","朋友","Match","f","true","Practice",""
"","","","","","html-keyboard-response","41","296359","0.0-7.0-0.0-1.14","null","<span style='color:GreenYellow; font-size: 70px;'>正确! </span>","null","","","","","","","","","","","","","","","","","","","","","","","","","feedback",""
"","","","","","psychophysics","42","298249","0.0-7.0-0.0-0.15","728","","f","","","","","","","","","","","","","key","f","16.620848214286006","758.8","417.2","./1_3_Stimuli/S_ambi40.png","自我","Image","自我","Match","f","true","Practice",""
"","","","","","html-keyboard-response","43","298558","0.0-7.0-0.0-1.15","null","<span style='color:GreenYellow; font-size: 70px;'>正确! </span>","null","","","","","","","","","","","","","","","","","","","","","","","","","feedback",""
"","","","","","psychophysics","44","300578","0.0-7.0-0.0-0.16","865","","j","","","","","","","","","","","","","key","j","16.621866666666754","758.8","417.2","./1_3_Stimuli/C_ambi40.png","他人","Image","朋友","Mismatch","j","true","Practice",""
"","","","","","html-keyboard-response","45","300894","0.0-7.0-0.0-1.16","null","<span style='color:GreenYellow; font-size: 70px;'>正确! </span>","null","","","","","","","","","","","","","","","","","","","","","","","","","feedback",""
"","","","","","psychophysics","46","303143","0.0-7.0-0.0-0.17","1097","","f","","","","","","","","","","","","","key","f","16.621768656716274","758.8","417.2","./1_3_Stimuli/C_ambi40.png","朋友","Word","朋友","Match","f","true","Practice",""
"","","","","","html-keyboard-response","47","303452","0.0-7.0-0.0-1.17","null","<span style='color:GreenYellow; font-size: 70px;'>正确! </span>","null","","","","","","","","","","","","","","","","","","","","","","","","","feedback",""
"","","","","","psychophysics","48","305560","0.0-7.0-0.0-0.18","948","","f","","","","","","","","","","","","","key","f","16.6219126984125","758.8","417.2","./1_3_Stimuli/C_ambi40.png","朋友","Image","朋友","Match","f","true","Practice",""
"","","","","","html-keyboard-response","49","305861","0.0-7.0-0.0-1.18","null","<span style='color:GreenYellow; font-size: 70px;'>正确! </span>","null","","","","","","","","","","","","","","","","","","","","","","","","","feedback",""
"","","","","","psychophysics","50","307820","0.0-7.0-0.0-0.19","807","","j","","","","","","","","","","","","","key","j","16.621717948717777","758.8","417.2","./1_3_Stimuli/T_ambi40.png","自我","Image","他人","Mismatch","j","true","Practice",""
"","","","","","html-keyboard-response","51","308131","0.0-7.0-0.0-1.19","null","<span style='color:GreenYellow; font-size: 70px;'>正确! </span>","null","","","","","","","","","","","","","","","","","","","","","","","","","feedback",""
"","","","","","psychophysics","52","310413","0.0-7.0-0.0-0.20","1125","","f","","","","","","","","","","","","","key","f","16.621514705882447","758.8","417.2","./1_3_Stimuli/T_ambi40.png","他人","Image","他人","Match","f","true","Practice",""
"","","","","","html-keyboard-response","53","310724","0.0-7.0-0.0-1.20","null","<span style='color:GreenYellow; font-size: 70px;'>正确! </span>","null","","","","","","","","","","","","","","","","","","","","","","","","","feedback",""
"","","","","","psychophysics","54","313223","0.0-7.0-0.0-0.21","1342","","f","","","","","","","","","","","","","key","f","16.621483221476673","758.8","417.2","./1_3_Stimuli/T_ambi40.png","自我","Word","他人","Mismatch","j","false","Practice",""
"","","","","","html-keyboard-response","55","313534","0.0-7.0-0.0-1.21","null","<span style='color:red; font-size: 70px;'>错误! </span>","null","","","","","","","","","","","","","","","","","","","","","","","","","feedback",""
"","","","","","psychophysics","56","315426","0.0-7.0-0.0-0.22","735","","f","","","","","","","","","","","","","key","f","16.620902654867354","758.8","417.2","./1_3_Stimuli/S_ambi40.png","自我","Word","自我","Match","f","true","Practice",""
"","","","","","html-keyboard-response","57","315740","0.0-7.0-0.0-1.22","null","<span style='color:GreenYellow; font-size: 70px;'>正确! </span>","null","","","","","","","","","","","","","","","","","","","","","","","","","feedback",""
"","","","","","psychophysics","58","317539","0.0-7.0-0.0-0.23","638","","f","","","","","","","","","","","","","key","f","16.62047663551405","758.8","417.2","./1_3_Stimuli/S_ambi40.png","自我","Word","自我","Match","f","true","Practice",""
"","","","","","html-keyboard-response","59","317844","0.0-7.0-0.0-1.23","null","<span style='color:GreenYellow; font-size: 70px;'>正确! </span>","null","","","","","","","","","","","","","","","","","","","","","","","","","feedback",""
"","","","","","html-keyboard-response","60","322441","0.0-7.0-1.0-0.0","4596","<style>.context{color:white; font-size: 35px; line-height:40px}</style>                        <div><p class='context'>您正确回答了71% 的试次。</p><p class='context'>您的平均反应时为959毫秒。</p><p> <div style = 'color: green'><按空格键至下页></div></p>"," ","","","","","","","","","","","","","","","","","","","","","","","","","",""
"","","","","","instructions","61","344384","0.0-7.0-1.0-1.0","21941","","","","","","","","","","","","","","[{""page_index"":0,""viewing_time"":4455},{""page_index"":1,""viewing_time"":16077},{""page_index"":2,""viewing_time"":1408}]","","","","","","","","","","","","","",""
"","","","","","psychophysics","62","346403","0.0-7.1-0.1-0.24","863","","j","","","","","","","","","","","","","key","j","16.621191666666224","758.8","417.2","./1_3_Stimuli/C_ambi40.png","自我","Image","朋友","Mismatch","j","true","Practice",""
"","","","","","html-keyboard-response","63","346706","0.0-7.1-0.1-1.24","null","<span style='color:GreenYellow; font-size: 70px;'>正确! </span>","null","","","","","","","","","","","","","","","","","","","","","","","","","feedback",""
"","","","","","psychophysics","64","348653","0.0-7.1-0.1-0.25","785","","j","","","","","","","","","","","","","key","j","16.621456896551535","758.8","417.2","./1_3_Stimuli/C_ambi40.png","他人","Word","朋友","Mismatch","j","true","Practice",""
"","","","","","html-keyboard-response","65","348953","0.0-7.1-0.1-1.25","null","<span style='color:GreenYellow; font-size: 70px;'>正确! </span>","null","","","","","","","","","","","","","","","","","","","","","","","","","feedback",""
"","","","","","psychophysics","66","351572","0.0-7.1-0.1-0.26","1465","","f","","","","","","","","","","","","","key","f","16.62079487179476","758.8","417.2","./1_3_Stimuli/S_ambi40.png","他人","Image","自我","Mismatch","j","false","Practice",""
"","","","","","html-keyboard-response","67","351879","0.0-7.1-0.1-1.26","null","<span style='color:red; font-size: 70px;'>错误! </span>","null","","","","","","","","","","","","","","","","","","","","","","","","","feedback",""
"","","","","","psychophysics","68","353906","0.0-7.1-0.1-0.27","872","","f","","","","","","","","","","","","","key","f","16.621421487603147","758.8","417.2","./1_3_Stimuli/S_ambi40.png","自我","Word","自我","Match","f","true","Practice",""
"","","","","","html-keyboard-response","69","354215","0.0-7.1-0.1-1.27","null","<span style='color:GreenYellow; font-size: 70px;'>正确! </span>","null","","","","","","","","","","","","","","","","","","","","","","","","","feedback",""
"","","","","","psychophysics","70","356459","0.0-7.1-0.1-0.28","1079","","j","","","","","","","","","","","","","key","j","16.517308270676445","758.8","417.2","./1_3_Stimuli/S_ambi40.png","朋友","Image","自我","Mismatch","j","true","Practice",""
"","","","","","html-keyboard-response","71","356766","0.0-7.1-0.1-1.28","null","<span style='color:GreenYellow; font-size: 70px;'>正确! </span>","null","","","","","","","","","","","","","","","","","","","","","","","","","feedback",""
"","","","","","psychophysics","72","358544","0.0-7.1-0.1-0.29","621","","f","","","","","","","","","","","","","key","f","16.622141509433828","758.8","417.2","./1_3_Stimuli/S_ambi40.png","自我","Word","自我","Match","f","true","Practice",""
"","","","","","html-keyboard-response","73","358848","0.0-7.1-0.1-1.29","null","<span style='color:GreenYellow; font-size: 70px;'>正确! </span>","null","","","","","","","","","","","","","","","","","","","","","","","","","feedback",""
"","","","","","psychophysics","74","360911","0.0-7.1-0.1-0.30","911","","f","","","","","","","","","","","","","key","f","16.621121951219404","758.8","417.2","./1_3_Stimuli/T_ambi40.png","他人","Word","他人","Match","f","true","Practice",""
"","","","","","html-keyboard-response","75","361222","0.0-7.1-0.1-1.30","null","<span style='color:GreenYellow; font-size: 70px;'>正确! </span>","null","","","","","","","","","","","","","","","","","","","","","","","","","feedback",""
"","","","","","psychophysics","76","363507","0.0-7.1-0.1-0.31","1129","","j","","","","","","","","","","","","","key","j","16.621411764705794","758.8","417.2","./1_3_Stimuli/S_ambi40.png","朋友","Word","自我","Mismatch","j","true","Practice",""
"","","","","","html-keyboard-response","77","363812","0.0-7.1-0.1-1.31","null","<span style='color:GreenYellow; font-size: 70px;'>正确! </span>","null","","","","","","","","","","","","","","","","","","","","","","","","","feedback",""
"","","","","","psychophysics","78","365594","0.0-7.1-0.1-0.32","627","","f","","","","","","","","","","","","","key","f","16.620849056603753","758.8","417.2","./1_3_Stimuli/C_ambi40.png","朋友","Word","朋友","Match","f","true","Practice",""
"","","","","","html-keyboard-response","79","365906","0.0-7.1-0.1-1.32","null","<span style='color:GreenYellow; font-size: 70px;'>正确! </span>","null","","","","","","","","","","","","","","","","","","","","","","","","","feedback",""
"","","","","","psychophysics","80","367957","0.0-7.1-0.1-0.33","892","","f","","","","","","","","","","","","","key","f","16.62204098360676","758.8","417.2","./1_3_Stimuli/S_ambi40.png","自我","Image","自我","Match","f","true","Practice",""
"","","","","","html-keyboard-response","81","368271","0.0-7.1-0.1-1.33","null","<span style='color:GreenYellow; font-size: 70px;'>正确! </span>","null","","","","","","","","","","","","","","","","","","","","","","","","","feedback",""
"","","","","","psychophysics","82","370181","0.0-7.1-0.1-0.34","756","","j","","","","","","","","","","","","","key","j","16.62160526315749","758.8","417.2","./1_3_Stimuli/T_ambi40.png","他人","Word","他人","Match","f","false","Practice",""
"","","","","","html-keyboard-response","83","370492","0.0-7.1-0.1-1.34","null","<span style='color:red; font-size: 70px;'>错误! </span>","null","","","","","","","","","","","","","","","","","","","","","","","","","feedback",""
"","","","","","psychophysics","84","372564","0.0-7.1-0.1-0.35","912","","j","","","","","","","","","","","","","key","j","16.62137398373987","758.8","417.2","./1_3_Stimuli/T_ambi40.png","自我","Image","他人","Mismatch","j","true","Practice",""
"","","","","","html-keyboard-response","85","372870","0.0-7.1-0.1-1.35","null","<span style='color:GreenYellow; font-size: 70px;'>正确! </span>","null","","","","","","","","","","","","","","","","","","","","","","","","","feedback",""
"","","","","","psychophysics","86","374814","0.0-7.1-0.1-0.36","785","","f","","","","","","","","","","","","","key","f","16.620974137930997","758.8","417.2","./1_3_Stimuli/C_ambi40.png","自我","Word","朋友","Mismatch","j","false","Practice",""
"","","","","","html-keyboard-response","87","375122","0.0-7.1-0.1-1.36","null","<span style='color:red; font-size: 70px;'>错误! </span>","null","","","","","","","","","","","","","","","","","","","","","","","","","feedback",""
"","","","","","psychophysics","88","377396","0.0-7.1-0.1-0.37","1123","","j","","","","","","","","","","","","","key","j","16.621117647058888","758.8","417.2","./1_3_Stimuli/C_ambi40.png","他人","Image","朋友","Mismatch","j","true","Practice",""
"","","","","","html-keyboard-response","89","377702","0.0-7.1-0.1-1.37","null","<span style='color:GreenYellow; font-size: 70px;'>正确! </span>","null","","","","","","","","","","","","","","","","","","","","","","","","","feedback",""
"","","","","","psychophysics","90","379498","0.0-7.1-0.1-0.38","632","","f","","","","","","","","","","","","","key","f","16.62103738317758","758.8","417.2","./1_3_Stimuli/S_ambi40.png","自我","Image","自我","Match","f","true","Practice",""
"","","","","","html-keyboard-response","91","379805","0.0-7.1-0.1-1.38","null","<span style='color:GreenYellow; font-size: 70px;'>正确! </span>","null","","","","","","","","","","","","","","","","","","","","","","","","","feedback",""
"","","","","","psychophysics","92","382150","0.0-7.1-0.1-0.39","1190","","f","","","","","","","","","","","","","key","f","16.620257142857216","758.8","417.2","./1_3_Stimuli/T_ambi40.png","他人","Image","他人","Match","f","true","Practice",""
"","","","","","html-keyboard-response","93","382455","0.0-7.1-0.1-1.39","null","<span style='color:GreenYellow; font-size: 70px;'>正确! </span>","null","","","","","","","","","","","","","","","","","","","","","","","","","feedback",""
"","","","","","psychophysics","94","384712","0.0-7.1-0.1-0.40","1094","","f","","","","","","","","","","","","","key","f","16.6212518518519","758.8","417.2","./1_3_Stimuli/T_ambi40.png","他人","Image","他人","Match","f","true","Practice",""
"","","","","","html-keyboard-response","95","385013","0.0-7.1-0.1-1.40","null","<span style='color:GreenYellow; font-size: 70px;'>正确! </span>","null","","","","","","","","","","","","","","","","","","","","","","","","","feedback",""
"","","","","","psychophysics","96","386820","0.0-7.1-0.1-0.41","654","","f","","","","","","","","","","","","","key","f","16.621694444444277","758.8","417.2","./1_3_Stimuli/C_ambi40.png","朋友","Image","朋友","Match","f","true","Practice",""
"","","","","","html-keyboard-response","97","387133","0.0-7.1-0.1-1.41","null","<span style='color:GreenYellow; font-size: 70px;'>正确! </span>","null","","","","","","","","","","","","","","","","","","","","","","","","","feedback",""
"","","","","","psychophysics","98","389488","0.0-7.1-0.1-0.42","1197","","j","","","","","","","","","","","","","key","j","16.62189361702152","758.8","417.2","./1_3_Stimuli/S_ambi40.png","他人","Word","自我","Mismatch","j","true","Practice",""
"","","","","","html-keyboard-response","99","389795","0.0-7.1-0.1-1.42","null","<span style='color:GreenYellow; font-size: 70px;'>正确! </span>","null","","","","","","","","","","","","","","","","","","","","","","","","","feedback",""
"","","","","","psychophysics","100","392105","0.0-7.1-0.1-0.43","1155","","j","","","","","","","","","","","","","key","j","16.620151079136697","758.8","417.2","./1_3_Stimuli/T_ambi40.png","朋友","Word","他人","Mismatch","j","true","Practice",""
"","","","","","html-keyboard-response","101","392411","0.0-7.1-0.1-1.43","null","<span style='color:GreenYellow; font-size: 70px;'>正确! </span>","null","","","","","","","","","","","","","","","","","","","","","","","","","feedback",""
"","","","","","psychophysics","102","394236","0.0-7.1-0.1-0.44","660","","j","","","","","","","","","","","","","key","j","16.48606481481477","758.8","417.2","./1_3_Stimuli/T_ambi40.png","自我","Word","他人","Mismatch","j","true","Practice",""
"","","","","","html-keyboard-response","103","394540","0.0-7.1-0.1-1.44","null","<span style='color:GreenYellow; font-size: 70px;'>正确! </span>","null","","","","","","","","","","","","","","","","","","","","","","","","","feedback",""
"","","","","","psychophysics","104","396524","0.0-7.1-0.1-0.45","828","","f","","","","","","","","","","","","","key","f","16.621652542373216","758.8","417.2","./1_3_Stimuli/C_ambi40.png","朋友","Word","朋友","Match","f","true","Practice",""
"","","","","","html-keyboard-response","105","396826","0.0-7.1-0.1-1.45","null","<span style='color:GreenYellow; font-size: 70px;'>正确! </span>","null","","","","","","","","","","","","","","","","","","","","","","","","","feedback",""
"","","","","","psychophysics","106","398479","0.0-7.1-0.1-0.46","499","","f","","","","","","","","","","","","","key","f","16.62211111111148","758.8","417.2","./1_3_Stimuli/C_ambi40.png","朋友","Image","朋友","Match","f","true","Practice",""
"","","","","","html-keyboard-response","107","398787","0.0-7.1-0.1-1.46","null","<span style='color:GreenYellow; font-size: 70px;'>正确! </span>","null","","","","","","","","","","","","","","","","","","","","","","","","","feedback",""
"","","","","","psychophysics","108","400737","0.0-7.1-0.1-0.47","796","","j","","","","","","","","","","","","","key","j","16.62046551724127","758.8","417.2","./1_3_Stimuli/T_ambi40.png","朋友","Image","他人","Mismatch","j","true","Practice",""
"","","","","","html-keyboard-response","109","401040","0.0-7.1-0.1-1.47","null","<span style='color:GreenYellow; font-size: 70px;'>正确! </span>","null","","","","","","","","","","","","","","","","","","","","","","","","","feedback",""
"","","","","","html-keyboard-response","110","490457","0.0-8.0","89416","<style>.context{color:white; font-size: 35px; line-height:40px}</style>                          <div><p class='context'>您正确回答了88% 的试次。</p><p class='context'>您的平均反应时为882毫秒。</p><p class='context'>恭喜您完成练习。现在请休息3~5分钟。</p><p class='context'>之后，按任意键进入正式实验。需要注意的是，正式实验将不再提供反应是否正确的反馈。</p><p class='footer' style='font-size: 35px; line-height:40px;'>请在进入正式实验实验之前将您的<span style='color: lightgreen;'>食指</span>放在电脑键盘的相应键位上进行按键。</p>"," ","","","","","","","","","","","","","","","","","","","","","","","","","",""
"","","","","","psychophysics","111","492779","0.0-9.0-0.0-0.0","1156","","j","","","","","","","","","","","","","key","j","16.622510791366764","758.8","417.2","./1_3_Stimuli/S_ambi40.png","朋友","Image","自我","Mismatch","j","true","Formal",""
"","","","","","psychophysics","112","495481","0.0-9.0-0.0-0.1","null","","null","","","","","","","","","","","","","key","null","16.621648148148118","758.8","417.2","./1_3_Stimuli/S_ambi40.png","他人","Word","自我","Mismatch","j","false","Formal",""
"","","","","","psychophysics","113","497373","0.0-9.0-0.0-0.2","730","","f","","","","","","","","","","","","","key","f","16.62234821428553","758.8","417.2","./1_3_Stimuli/C_ambi40.png","朋友","Word","朋友","Match","f","true","Formal",""
"","","","","","psychophysics","114","499194","0.0-9.0-0.0-0.3","669","","j","","","","","","","","","","","","","key","j","16.622045871559767","758.8","417.2","./1_3_Stimuli/T_ambi40.png","自我","Word","他人","Mismatch","j","true","Formal",""
"","","","","","psychophysics","115","501293","0.0-9.0-0.0-0.4","947","","f","","","","","","","","","","","","","key","f","16.621055999999864","758.8","417.2","./1_3_Stimuli/T_ambi40.png","他人","Image","他人","Match","f","true","Formal",""
"","","","","","psychophysics","116","503481","0.0-9.0-0.0-0.5","1036","","f","","","","","","","","","","","","","key","f","16.62138167938941","758.8","417.2","./1_3_Stimuli/S_ambi40.png","他人","Image","自我","Mismatch","j","false","Formal",""
"","","","","","psychophysics","117","505958","0.0-9.0-0.0-0.6","1321","","f","","","","","","","","","","","","","key","f","16.621290540540546","758.8","417.2","./1_3_Stimuli/T_ambi40.png","朋友","Word","他人","Mismatch","j","false","Formal",""
"","","","","","psychophysics","118","507999","0.0-9.0-0.0-0.7","884","","f","","","","","","","","","","","","","key","f","16.620680327868836","758.8","417.2","./1_3_Stimuli/T_ambi40.png","他人","Word","他人","Match","f","true","Formal",""
"","","","","","psychophysics","119","510148","0.0-9.0-0.0-0.8","993","","f","","","","","","","","","","","","","key","f","16.62084374999995","758.8","417.2","./1_3_Stimuli/S_ambi40.png","自我","Image","自我","Match","f","true","Formal",""
"","","","","","psychophysics","120","512043","0.0-9.0-0.0-0.9","740","","j","","","","","","","","","","","","","key","j","16.62685840707983","758.8","417.2","./1_3_Stimuli/S_ambi40.png","朋友","Word","自我","Mismatch","j","true","Formal",""
"","","","","","psychophysics","121","514258","0.0-9.0-0.0-0.10","1060","","j","","","","","","","","","","","","","key","j","16.621598484848757","758.8","417.2","./1_3_Stimuli/C_ambi40.png","他人","Word","朋友","Mismatch","j","true","Formal",""
"","","","","","psychophysics","122","516370","0.0-9.0-0.0-0.11","961","","j","","","","","","","","","","","","","key","j","16.62096031746016","758.8","417.2","./1_3_Stimuli/C_ambi40.png","他人","Image","朋友","Mismatch","j","true","Formal",""
"","","","","","psychophysics","123","518554","0.0-9.0-0.0-0.12","1026","","f","","","","","","","","","","","","","key","f","16.62095419847307","758.8","417.2","./1_3_Stimuli/C_ambi40.png","朋友","Image","朋友","Match","f","true","Formal",""
"","","","","","psychophysics","124","520396","0.0-9.0-0.0-0.13","691","","f","","","","","","","","","","","","","key","f","16.622372727272822","758.8","417.2","./1_3_Stimuli/C_ambi40.png","朋友","Word","朋友","Match","f","true","Formal",""
"","","","","","psychophysics","125","522177","0.0-9.0-0.0-0.14","618","","f","","","","","","","","","","","","","key","f","16.621075471697864","758.8","417.2","./1_3_Stimuli/S_ambi40.png","自我","Word","自我","Match","f","true","Formal",""
"","","","","","psychophysics","126","524036","0.0-9.0-0.0-0.15","707","","j","","","","","","","","","","","","","key","j","16.620281818181553","758.8","417.2","./1_3_Stimuli/C_ambi40.png","自我","Word","朋友","Mismatch","j","true","Formal",""
"","","","","","psychophysics","127","525891","0.0-9.0-0.0-0.16","695","","j","","","","","","","","","","","","","key","j","16.620718181818003","758.8","417.2","./1_3_Stimuli/C_ambi40.png","自我","Image","朋友","Mismatch","j","true","Formal",""
"","","","","","psychophysics","128","527783","0.0-9.0-0.0-0.17","739","","f","","","","","","","","","","","","","key","f","16.622805309734325","758.8","417.2","./1_3_Stimuli/T_ambi40.png","他人","Image","他人","Match","f","true","Formal",""
"","","","","","psychophysics","129","529722","0.0-9.0-0.0-0.18","783","","f","","","","","","","","","","","","","key","f","16.620500000000025","758.8","417.2","./1_3_Stimuli/S_ambi40.png","自我","Word","自我","Match","f","true","Formal",""
"","","","","","psychophysics","130","531521","0.0-9.0-0.0-0.19","648","","f","","","","","","","","","","","","","key","f","16.621084112149585","758.8","417.2","./1_3_Stimuli/C_ambi40.png","朋友","Image","朋友","Match","f","true","Formal",""
"","","","","","psychophysics","131","533403","0.0-9.0-0.0-0.20","724","","j","","","","","","","","","","","","","key","j","16.621589285714435","758.8","417.2","./1_3_Stimuli/T_ambi40.png","自我","Image","他人","Mismatch","j","true","Formal",""
"","","","","","psychophysics","132","535358","0.0-9.0-0.0-0.21","801","","f","","","","","","","","","","","","","key","f","16.622384615384767","758.8","417.2","./1_3_Stimuli/S_ambi40.png","自我","Image","自我","Match","f","true","Formal",""
"","","","","","psychophysics","133","537491","0.0-9.0-0.0-0.22","980","","f","","","","","","","","","","","","","key","f","16.62258267716512","758.8","417.2","./1_3_Stimuli/T_ambi40.png","他人","Word","他人","Match","f","true","Formal",""
"","","","","","psychophysics","134","539478","0.0-9.0-0.0-0.23","832","","j","","","","","","","","","","","","","key","j","16.62104201680656","758.8","417.2","./1_3_Stimuli/T_ambi40.png","朋友","Image","他人","Mismatch","j","true","Formal",""
"","","","","","psychophysics","135","542046","0.0-9.0-0.0-0.24","1413","","j","","","","","","","","","","","","","key","j","16.621098039216008","758.8","417.2","./1_3_Stimuli/S_ambi40.png","他人","Word","自我","Mismatch","j","true","Formal",""
"","","","","","psychophysics","136","543888","0.0-9.0-0.0-0.25","688","","f","","","","","","","","","","","","","key","f","16.62086363636296","758.8","417.2","./1_3_Stimuli/S_ambi40.png","自我","Image","自我","Match","f","true","Formal",""
"","","","","","psychophysics","137","545889","0.0-9.0-0.0-0.26","849","","f","","","","","","","","","","","","","key","f","16.621613445378713","758.8","417.2","./1_3_Stimuli/C_ambi40.png","朋友","Image","朋友","Match","f","true","Formal",""
"","","","","","psychophysics","138","547698","0.0-9.0-0.0-0.27","658","","f","","","","","","","","","","","","","key","f","16.62125925925944","758.8","417.2","./1_3_Stimuli/C_ambi40.png","朋友","Word","朋友","Match","f","true","Formal",""
"","","","","","psychophysics","139","549493","0.0-9.0-0.0-0.28","641","","f","","","","","","","","","","","","","key","f","16.62174766355142","758.8","417.2","./1_3_Stimuli/S_ambi40.png","自我","Image","自我","Match","f","true","Formal",""
"","","","","","psychophysics","140","551907","0.0-9.0-0.0-0.29","1260","","f","","","","","","","","","","","","","key","f","16.62202083333331","758.8","417.2","./1_3_Stimuli/S_ambi40.png","他人","Image","自我","Mismatch","j","false","Formal",""
"","","","","","psychophysics","141","554090","0.0-9.0-0.0-0.30","1023","","f","","","","","","","","","","","","","key","f","16.621862595419238","758.8","417.2","./1_3_Stimuli/T_ambi40.png","他人","Image","他人","Match","f","true","Formal",""
"","","","","","psychophysics","142","555902","0.0-9.0-0.0-0.31","651","","j","","","","","","","","","","","","","key","j","16.620731481481386","758.8","417.2","./1_3_Stimuli/S_ambi40.png","朋友","Word","自我","Mismatch","j","true","Formal",""
"","","","","","psychophysics","143","557934","0.0-9.0-0.0-0.32","880","","j","","","","","","","","","","","","","key","j","16.620206611570595","758.8","417.2","./1_3_Stimuli/T_ambi40.png","他人","Word","他人","Match","f","false","Formal",""
"","","","","","psychophysics","144","559650","0.0-9.0-0.0-0.33","560","","f","","","","","","","","","","","","","key","f","16.622137254901805","758.8","417.2","./1_3_Stimuli/S_ambi40.png","自我","Word","自我","Match","f","true","Formal",""
"","","","","","psychophysics","145","562021","0.0-9.0-0.0-0.34","1219","","j","","","","","","","","","","","","","key","j","16.6222887323943","758.8","417.2","./1_3_Stimuli/T_ambi40.png","朋友","Image","他人","Mismatch","j","true","Formal",""
"","","","","","psychophysics","146","564041","0.0-9.0-0.0-0.35","868","","j","","","","","","","","","","","","","key","j","16.62096666666621","758.8","417.2","./1_3_Stimuli/T_ambi40.png","自我","Word","他人","Mismatch","j","true","Formal",""
"","","","","","psychophysics","147","565993","0.0-9.0-0.0-0.36","798","","j","","","","","","","","","","","","","key","j","16.622623931623508","758.8","417.2","./1_3_Stimuli/C_ambi40.png","自我","Image","朋友","Mismatch","j","true","Formal",""
"","","","","","psychophysics","148","567879","0.0-9.0-0.0-0.37","727","","j","","","","","","","","","","","","","key","j","16.62046428571401","758.8","417.2","./1_3_Stimuli/T_ambi40.png","自我","Image","他人","Mismatch","j","true","Formal",""
"","","","","","psychophysics","149","569905","0.0-9.0-0.0-0.38","875","","j","","","","","","","","","","","","","key","j","16.622330578512603","758.8","417.2","./1_3_Stimuli/T_ambi40.png","朋友","Word","他人","Mismatch","j","true","Formal",""
"","","","","","psychophysics","150","572052","0.0-9.0-0.0-0.39","995","","j","","","","","","","","","","","","","key","j","16.621484374999454","758.8","417.2","./1_3_Stimuli/C_ambi40.png","自我","Word","朋友","Mismatch","j","true","Formal",""
"","","","","","psychophysics","151","574059","0.0-9.0-0.0-0.40","842","","j","","","","","","","","","","","","","key","j","16.621183333333466","758.8","417.2","./1_3_Stimuli/C_ambi40.png","他人","Image","朋友","Mismatch","j","true","Formal",""
"","","","","","psychophysics","152","575812","0.0-9.0-0.0-0.41","599","","j","","","","","","","","","","","","","key","j","16.621817307692254","758.8","417.2","./1_3_Stimuli/C_ambi40.png","他人","Word","朋友","Mismatch","j","true","Formal",""
"","","","","","psychophysics","153","577734","0.0-9.0-0.0-0.42","762","","f","","","","","","","","","","","","","key","f","16.620894736842164","758.8","417.2","./1_3_Stimuli/C_ambi40.png","朋友","Word","朋友","Match","f","true","Formal",""
"","","","","","psychophysics","154","579926","0.0-9.0-0.0-0.43","1040","","j","","","","","","","","","","","","","key","j","16.620633587785925","758.8","417.2","./1_3_Stimuli/S_ambi40.png","朋友","Image","自我","Mismatch","j","true","Formal",""
"","","","","","psychophysics","155","581867","0.0-9.0-0.0-0.44","787","","f","","","","","","","","","","","","","key","f","16.62083620689749","758.8","417.2","./1_3_Stimuli/C_ambi40.png","朋友","Image","朋友","Match","f","true","Formal",""
"","","","","","psychophysics","156","583870","0.0-9.0-0.0-0.45","850","","f","","","","","","","","","","","","","key","f","16.620042016806998","758.8","417.2","./1_3_Stimuli/T_ambi40.png","他人","Image","他人","Match","f","true","Formal",""
"","","","","","psychophysics","157","585645","0.0-9.0-0.0-0.46","625","","f","","","","","","","","","","","","","key","f","16.621462264150942","758.8","417.2","./1_3_Stimuli/T_ambi40.png","他人","Word","他人","Match","f","true","Formal",""
"","","","","","psychophysics","158","587462","0.0-9.0-0.0-0.47","663","","f","","","","","","","","","","","","","key","f","16.621509259259458","758.8","417.2","./1_3_Stimuli/S_ambi40.png","自我","Word","自我","Match","f","true","Formal",""
"","","","","","psychophysics","159","589602","0.0-9.0-0.0-0.48","984","","f","","","","","","","","","","","","","key","f","16.621244094488542","758.8","417.2","./1_3_Stimuli/T_ambi40.png","他人","Word","他人","Match","f","true","Formal",""
"","","","","","psychophysics","160","591379","0.0-9.0-0.0-0.49","625","","f","","","","","","","","","","","","","key","f","16.622575471698273","758.8","417.2","./1_3_Stimuli/C_ambi40.png","朋友","Word","朋友","Match","f","true","Formal",""
"","","","","","psychophysics","161","593489","0.0-9.0-0.0-0.50","957","","j","","","","","","","","","","","","","key","j","16.621968253968387","758.8","417.2","./1_3_Stimuli/T_ambi40.png","朋友","Word","他人","Mismatch","j","true","Formal",""
"","","","","","psychophysics","162","595294","0.0-9.0-0.0-0.51","651","","f","","","","","","","","","","","","","key","f","16.62051851851801","758.8","417.2","./1_3_Stimuli/C_ambi40.png","朋友","Image","朋友","Match","f","true","Formal",""
"","","","","","psychophysics","163","597250","0.0-9.0-0.0-0.52","801","","j","","","","","","","","","","","","","key","j","16.61992241379279","758.8","417.2","./1_3_Stimuli/C_ambi40.png","自我","Word","朋友","Mismatch","j","true","Formal",""
"","","","","","psychophysics","164","599883","0.0-9.0-0.0-0.53","1477","","j","","","","","","","","","","","","","key","j","16.620675159235645","758.8","417.2","./1_3_Stimuli/T_ambi40.png","自我","Word","他人","Mismatch","j","true","Formal",""
"","","","","","psychophysics","165","601741","0.0-9.0-0.0-0.54","703","","f","","","","","","","","","","","","","key","f","16.621327272727452","758.8","417.2","./1_3_Stimuli/C_ambi40.png","朋友","Word","朋友","Match","f","true","Formal",""
"","","","","","psychophysics","166","603697","0.0-9.0-0.0-0.55","802","","f","","","","","","","","","","","","","key","f","16.622077586206583","758.8","417.2","./1_3_Stimuli/T_ambi40.png","他人","Image","他人","Match","f","true","Formal",""
"","","","","","psychophysics","167","606073","0.0-9.0-0.0-0.56","1225","","j","","","","","","","","","","","","","key","j","16.6213098591551","758.8","417.2","./1_3_Stimuli/S_ambi40.png","他人","Image","自我","Mismatch","j","true","Formal",""
"","","","","","psychophysics","168","608067","0.0-9.0-0.0-0.57","840","","j","","","","","","","","","","","","","key","j","16.62248739495799","758.8","417.2","./1_3_Stimuli/C_ambi40.png","他人","Word","朋友","Mismatch","j","true","Formal",""
"","","","","","psychophysics","169","609912","0.0-9.0-0.0-0.58","691","","f","","","","","","","","","","","","","key","f","16.621227272726934","758.8","417.2","./1_3_Stimuli/C_ambi40.png","朋友","Image","朋友","Match","f","true","Formal",""
"","","","","","psychophysics","170","612614","0.0-9.0-0.0-0.59","null","","null","","","","","","","","","","","","","key","null","16.620777777777725","758.8","417.2","./1_3_Stimuli/T_ambi40.png","他人","Word","他人","Match","f","false","Formal",""
"","","","","","psychophysics","171","614814","0.0-9.0-0.0-0.60","1043","","j","","","","","","","","","","","","","key","j","16.620274809160705","758.8","417.2","./1_3_Stimuli/C_ambi40.png","他人","Image","朋友","Mismatch","j","true","Formal",""
"","","","","","psychophysics","172","616792","0.0-9.0-0.0-0.61","823","","j","","","","","","","","","","","","","key","j","16.620559322033117","758.8","417.2","./1_3_Stimuli/S_ambi40.png","朋友","Word","自我","Mismatch","j","true","Formal",""
"","","","","","psychophysics","173","618501","0.0-9.0-0.0-0.62","555","","f","","","","","","","","","","","","","key","f","16.620794117647023","758.8","417.2","./1_3_Stimuli/S_ambi40.png","自我","Image","自我","Match","f","true","Formal",""
"","","","","","psychophysics","174","620291","0.0-9.0-0.0-0.63","633","","j","","","","","","","","","","","","","key","j","16.620654205606694","758.8","417.2","./1_3_Stimuli/C_ambi40.png","自我","Image","朋友","Mismatch","j","true","Formal",""
"","","","","","psychophysics","175","622162","0.0-9.0-0.0-0.64","719","","j","","","","","","","","","","","","","key","j","16.622891891891395","758.8","417.2","./1_3_Stimuli/T_ambi40.png","自我","Image","他人","Mismatch","j","true","Formal",""
"","","","","","psychophysics","176","624003","0.0-9.0-0.0-0.65","687","","j","","","","","","","","","","","","","key","j","16.625490909090942","758.8","417.2","./1_3_Stimuli/S_ambi40.png","朋友","Image","自我","Mismatch","j","true","Formal",""
"","","","","","psychophysics","177","625934","0.0-9.0-0.0-0.66","775","","f","","","","","","","","","","","","","key","f","16.621382608695928","758.8","417.2","./1_3_Stimuli/T_ambi40.png","他人","Image","他人","Match","f","true","Formal",""
"","","","","","psychophysics","178","628018","0.0-9.0-0.0-0.67","930","","f","","","","","","","","","","","","","key","f","16.61087096774211","758.8","417.2","./1_3_Stimuli/S_ambi40.png","自我","Image","自我","Match","f","true","Formal",""
"","","","","","psychophysics","179","629760","0.0-9.0-0.0-0.68","583","","f","","","","","","","","","","","","","key","f","16.621203883495678","758.8","417.2","./1_3_Stimuli/S_ambi40.png","自我","Word","自我","Match","f","true","Formal",""
"","","","","","psychophysics","180","631546","0.0-9.0-0.0-0.69","635","","j","","","","","","","","","","","","","key","j","16.620532710280347","758.8","417.2","./1_3_Stimuli/S_ambi40.png","他人","Word","自我","Mismatch","j","true","Formal",""
"","","","","","psychophysics","181","633523","0.0-9.0-0.0-0.70","818","","j","","","","","","","","","","","","","key","j","16.62115254237364","758.8","417.2","./1_3_Stimuli/T_ambi40.png","朋友","Image","他人","Mismatch","j","true","Formal",""
"","","","","","psychophysics","182","635363","0.0-9.0-0.0-0.71","679","","f","","","","","","","","","","","","","key","f","16.62233944954094","758.8","417.2","./1_3_Stimuli/S_ambi40.png","自我","Word","自我","Match","f","true","Formal",""
"","","","","","psychophysics","183","637227","0.0-9.0-0.0-0.72","698","","f","","","","","","","","","","","","","key","f","16.622572727272797","758.8","417.2","./1_3_Stimuli/C_ambi40.png","朋友","Word","朋友","Match","f","true","Formal",""
"","","","","","psychophysics","184","639209","0.0-9.0-0.0-0.73","828","","j","","","","","","","","","","","","","key","j","16.6218644067797","758.8","417.2","./1_3_Stimuli/T_ambi40.png","自我","Image","他人","Mismatch","j","true","Formal",""
"","","","","","psychophysics","185","641108","0.0-9.0-0.0-0.74","740","","f","","","","","","","","","","","","","key","f","16.622300884956328","758.8","417.2","./1_3_Stimuli/S_ambi40.png","自我","Word","自我","Match","f","true","Formal",""
"","","","","","psychophysics","186","642855","0.0-9.0-0.0-0.75","592","","j","","","","","","","","","","","","","key","j","16.620778846154842","758.8","417.2","./1_3_Stimuli/T_ambi40.png","自我","Word","他人","Mismatch","j","true","Formal",""
"","","","","","psychophysics","187","644727","0.0-9.0-0.0-0.76","719","","f","","","","","","","","","","","","","key","f","16.619294642857444","758.8","417.2","./1_3_Stimuli/T_ambi40.png","他人","Word","他人","Match","f","true","Formal",""
"","","","","","psychophysics","188","646631","0.0-9.0-0.0-0.77","744","","j","","","","","","","","","","","","","key","j","16.621097345132817","758.8","417.2","./1_3_Stimuli/S_ambi40.png","朋友","Word","自我","Mismatch","j","true","Formal",""
"","","","","","psychophysics","189","648530","0.0-9.0-0.0-0.78","749","","f","","","","","","","","","","","","","key","f","16.62217543859713","758.8","417.2","./1_3_Stimuli/C_ambi40.png","朋友","Image","朋友","Match","f","true","Formal",""
"","","","","","psychophysics","190","650611","0.0-9.0-0.0-0.79","918","","f","","","","","","","","","","","","","key","f","16.62085483870995","758.8","417.2","./1_3_Stimuli/T_ambi40.png","他人","Image","他人","Match","f","true","Formal",""
"","","","","","psychophysics","191","652448","0.0-9.0-0.0-0.80","686","","j","","","","","","","","","","","","","key","j","16.621394495412478","758.8","417.2","./1_3_Stimuli/C_ambi40.png","自我","Image","朋友","Mismatch","j","true","Formal",""
"","","","","","psychophysics","192","654567","0.0-9.0-0.0-0.81","968","","j","","","","","","","","","","","","","key","j","16.621503937007734","758.8","417.2","./1_3_Stimuli/C_ambi40.png","他人","Word","朋友","Mismatch","j","true","Formal",""
"","","","","","psychophysics","193","656682","0.0-9.0-0.0-0.82","958","","f","","","","","","","","","","","","","key","f","16.621031746031747","758.8","417.2","./1_3_Stimuli/C_ambi40.png","朋友","Word","朋友","Match","f","true","Formal",""
"","","","","","psychophysics","194","658782","0.0-9.0-0.0-0.83","945","","f","","","","","","","","","","","","","key","f","16.621224000000396","758.8","417.2","./1_3_Stimuli/T_ambi40.png","朋友","Image","他人","Mismatch","j","false","Formal",""
"","","","","","psychophysics","195","660675","0.0-9.0-0.0-0.84","737","","j","","","","","","","","","","","","","key","j","16.621151785714442","758.8","417.2","./1_3_Stimuli/S_ambi40.png","他人","Image","自我","Mismatch","j","true","Formal",""
"","","","","","psychophysics","196","662462","0.0-9.0-0.0-0.85","636","","f","","","","","","","","","","","","","key","f","16.619457943925294","758.8","417.2","./1_3_Stimuli/S_ambi40.png","自我","Image","自我","Match","f","true","Formal",""
"","","","","","psychophysics","197","664222","0.0-9.0-0.0-0.86","609","","f","","","","","","","","","","","","","key","f","16.62120000000023","758.8","417.2","./1_3_Stimuli/C_ambi40.png","朋友","Image","朋友","Match","f","true","Formal",""
"","","","","","psychophysics","198","665988","0.0-9.0-0.0-0.87","614","","f","","","","","","","","","","","","","key","f","16.621180952381387","758.8","417.2","./1_3_Stimuli/T_ambi40.png","他人","Word","他人","Match","f","true","Formal",""
"","","","","","psychophysics","199","667856","0.0-9.0-0.0-0.88","716","","j","","","","","","","","","","","","","key","j","16.61981981982024","758.8","417.2","./1_3_Stimuli/S_ambi40.png","朋友","Image","自我","Mismatch","j","true","Formal",""
"","","","","","psychophysics","200","669839","0.0-9.0-0.0-0.89","832","","f","","","","","","","","","","","","","key","f","16.620361344538583","758.8","417.2","./1_3_Stimuli/T_ambi40.png","他人","Image","他人","Match","f","true","Formal",""
"","","","","","psychophysics","201","671807","0.0-9.0-0.0-0.90","817","","f","","","","","","","","","","","","","key","f","16.62129059829053","758.8","417.2","./1_3_Stimuli/S_ambi40.png","自我","Image","自我","Match","f","true","Formal",""
"","","","","","psychophysics","202","674050","0.0-9.0-0.0-0.91","1090","","f","","","","","","","","","","","","","key","f","16.620298507462653","758.8","417.2","./1_3_Stimuli/S_ambi40.png","自我","Word","自我","Match","f","true","Formal",""
"","","","","","psychophysics","203","676049","0.0-9.0-0.0-0.92","847","","j","","","","","","","","","","","","","key","j","16.62024369747906","758.8","417.2","./1_3_Stimuli/C_ambi40.png","他人","Image","朋友","Mismatch","j","true","Formal",""
"","","","","","psychophysics","204","678026","0.0-9.0-0.0-0.93","825","","j","","","","","","","","","","","","","key","j","16.62078813559344","758.8","417.2","./1_3_Stimuli/T_ambi40.png","朋友","Word","他人","Mismatch","j","true","Formal",""
"","","","","","psychophysics","205","679891","0.0-9.0-0.0-0.94","712","","j","","","","","","","","","","","","","key","j","16.621360360360537","758.8","417.2","./1_3_Stimuli/C_ambi40.png","自我","Word","朋友","Mismatch","j","true","Formal",""
"","","","","","psychophysics","206","681770","0.0-9.0-0.0-0.95","728","","j","","","","","","","","","","","","","key","j","16.622214285713977","758.8","417.2","./1_3_Stimuli/S_ambi40.png","他人","Word","自我","Mismatch","j","true","Formal",""
"","","","","","psychophysics","207","683702","0.0-9.0-0.0-0.96","767","","j","","","","","","","","","","","","","key","j","16.621808695651428","758.8","417.2","./1_3_Stimuli/T_ambi40.png","朋友","Image","他人","Mismatch","j","true","Formal",""
"","","","","","psychophysics","208","685741","0.0-9.0-0.0-0.97","885","","f","","","","","","","","","","","","","key","f","16.622685950413953","758.8","417.2","./1_3_Stimuli/C_ambi40.png","朋友","Image","朋友","Match","f","true","Formal",""
"","","","","","psychophysics","209","687661","0.0-9.0-0.0-0.98","770","","j","","","","","","","","","","","","","key","j","16.621643478261387","758.8","417.2","./1_3_Stimuli/S_ambi40.png","朋友","Word","自我","Mismatch","j","true","Formal",""
"","","","","","psychophysics","210","689572","0.0-9.0-0.0-0.99","752","","j","","","","","","","","","","","","","key","j","16.621271929824154","758.8","417.2","./1_3_Stimuli/T_ambi40.png","自我","Image","他人","Mismatch","j","true","Formal",""
"","","","","","psychophysics","211","691641","0.0-9.0-0.0-0.100","910","","f","","","","","","","","","","","","","key","f","16.622154471544906","758.8","417.2","./1_3_Stimuli/T_ambi40.png","他人","Image","他人","Match","f","true","Formal",""
"","","","","","psychophysics","212","693380","0.0-9.0-0.0-0.101","587","","j","","","","","","","","","","","","","key","j","16.623019230769177","758.8","417.2","./1_3_Stimuli/S_ambi40.png","他人","Word","自我","Mismatch","j","true","Formal",""
"","","","","","psychophysics","213","695376","0.0-9.0-0.0-0.102","844","","j","","","","","","","","","","","","","key","j","16.621521008403448","758.8","417.2","./1_3_Stimuli/S_ambi40.png","朋友","Image","自我","Mismatch","j","true","Formal",""
"","","","","","psychophysics","214","697404","0.0-9.0-0.0-0.103","873","","j","","","","","","","","","","","","","key","j","16.622231404958022","758.8","417.2","./1_3_Stimuli/T_ambi40.png","朋友","Word","他人","Mismatch","j","true","Formal",""
"","","","","","psychophysics","215","699191","0.0-9.0-0.0-0.104","633","","j","","","","","","","","","","","","","key","j","16.62093457943982","758.8","417.2","./1_3_Stimuli/C_ambi40.png","自我","Word","朋友","Mismatch","j","true","Formal",""
"","","","","","psychophysics","216","700901","0.0-9.0-0.0-0.105","546","","f","","","","","","","","","","","","","key","f","16.621762376237143","758.8","417.2","./1_3_Stimuli/S_ambi40.png","自我","Word","自我","Match","f","true","Formal",""
"","","","","","psychophysics","217","702694","0.0-9.0-0.0-0.106","639","","f","","","","","","","","","","","","","key","f","16.621925233645694","758.8","417.2","./1_3_Stimuli/T_ambi40.png","他人","Word","他人","Match","f","true","Formal",""
"","","","","","psychophysics","218","704516","0.0-9.0-0.0-0.107","671","","f","","","","","","","","","","","","","key","f","16.622651376147378","758.8","417.2","./1_3_Stimuli/S_ambi40.png","自我","Image","自我","Match","f","true","Formal",""
"","","","","","psychophysics","219","706312","0.0-9.0-0.0-0.108","640","","j","","","","","","","","","","","","","key","j","16.620532710280347","758.8","417.2","./1_3_Stimuli/C_ambi40.png","自我","Image","朋友","Mismatch","j","true","Formal",""
"","","","","","psychophysics","220","708036","0.0-9.0-0.0-0.109","570","","f","","","","","","","","","","","","","key","f","16.625174757281943","758.8","417.2","./1_3_Stimuli/C_ambi40.png","朋友","Word","朋友","Match","f","true","Formal",""
"","","","","","psychophysics","221","709682","0.0-9.0-0.0-0.110","485","","j","","","","","","","","","","","","","key","j","16.621428571428808","758.8","417.2","./1_3_Stimuli/C_ambi40.png","朋友","Image","朋友","Match","f","false","Formal",""
"","","","","","psychophysics","222","711352","0.0-9.0-0.0-0.111","519","","f","","","","","","","","","","","","","key","f","16.62116161616157","758.8","417.2","./1_3_Stimuli/S_ambi40.png","自我","Image","自我","Match","f","true","Formal",""
"","","","","","psychophysics","223","713160","0.0-9.0-0.0-0.112","655","","f","","","","","","","","","","","","","key","f","16.621398148148458","758.8","417.2","./1_3_Stimuli/C_ambi40.png","朋友","Word","朋友","Match","f","true","Formal",""
"","","","","","psychophysics","224","715381","0.0-9.0-0.0-0.113","1066","","f","","","","","","","","","","","","","key","f","16.620669172932324","758.8","417.2","./1_3_Stimuli/S_ambi40.png","他人","Image","自我","Mismatch","j","false","Formal",""
"","","","","","psychophysics","225","717432","0.0-9.0-0.0-0.114","897","","f","","","","","","","","","","","","","key","f","16.62127868852437","758.8","417.2","./1_3_Stimuli/T_ambi40.png","他人","Word","他人","Match","f","true","Formal",""
"","","","","","psychophysics","226","719196","0.0-9.0-0.0-0.115","608","","f","","","","","","","","","","","","","key","f","16.620295238095736","758.8","417.2","./1_3_Stimuli/T_ambi40.png","他人","Image","他人","Match","f","true","Formal",""
"","","","","","psychophysics","227","720986","0.0-9.0-0.0-0.116","636","","j","","","","","","","","","","","","","key","j","16.621009345794157","758.8","417.2","./1_3_Stimuli/T_ambi40.png","自我","Word","他人","Mismatch","j","true","Formal",""
"","","","","","psychophysics","228","723135","0.0-9.0-0.0-0.117","990","","j","","","","","","","","","","","","","key","j","16.621171875000073","758.8","417.2","./1_3_Stimuli/C_ambi40.png","他人","Image","朋友","Mismatch","j","true","Formal",""
"","","","","","psychophysics","229","724883","0.0-9.0-0.0-0.118","594","","f","","","","","","","","","","","","","key","f","16.62139423076923","758.8","417.2","./1_3_Stimuli/S_ambi40.png","自我","Word","自我","Match","f","true","Formal",""
"","","","","","psychophysics","230","726815","0.0-9.0-0.0-0.119","780","","j","","","","","","","","","","","","","key","j","16.62140000000009","758.8","417.2","./1_3_Stimuli/C_ambi40.png","他人","Word","朋友","Mismatch","j","true","Formal",""
"","","","","","html-keyboard-response","231","733807","0.0-9.0-1.0","6990","<style>.context{color:white; font-size: 35px; line-height:40px}</style>                        <div><p class='context'>您正确回答了93% 的试次。</p><p class='context'>您的平均反应时为790毫秒。</p><p> <div style = 'color: green'><按任意键进入休息></div></p>"," ","","","","","","","","","","","","","","","","","","","","","","","","","",""
"","","","","","html-button-response","232","801421","0.0-9.0-2.0","67609","
                  <p>您当前还剩余5组实验</p>
                  <p>现在是休息时间，当您结束休息后，您可以点击 结束休息 按钮 继续</p>
                  <p>建议休息时间还剩余<span id=""iii"">60</span>秒</p>","0","","","","","","","","","","","","","","","","","","","","","","","","","",""
"","","","","","psychophysics","233","803524","0.0-9.0-0.1-0.120","947","","j","","","","","","","","","","","","","key","j","16.621928000000306","758.8","417.2","./1_3_Stimuli/C_ambi40.png","自我","Word","朋友","Mismatch","j","true","Formal",""
"","","","","","psychophysics","234","805435","0.0-9.0-0.1-0.121","760","","j","","","","","","","","","","","","","key","j","16.619859649122716","758.8","417.2","./1_3_Stimuli/S_ambi40.png","朋友","Image","自我","Mismatch","j","true","Formal",""
"","","","","","psychophysics","235","807218","0.0-9.0-0.1-0.122","628","","f","","","","","","","","","","","","","key","f","16.621990566037567","758.8","417.2","./1_3_Stimuli/T_ambi40.png","他人","Word","他人","Match","f","true","Formal",""
"","","","","","psychophysics","236","808991","0.0-9.0-0.1-0.123","622","","f","","","","","","","","","","","","","key","f","16.622190476191186","758.8","417.2","./1_3_Stimuli/T_ambi40.png","他人","Image","他人","Match","f","true","Formal",""
"","","","","","psychophysics","237","810707","0.0-9.0-0.1-0.124","565","","j","","","","","","","","","","","","","key","j","16.620774509802953","758.8","417.2","./1_3_Stimuli/T_ambi40.png","自我","Image","他人","Mismatch","j","true","Formal",""
"","","","","","psychophysics","238","812592","0.0-9.0-0.1-0.125","724","","f","","","","","","","","","","","","","key","f","16.62095535714304","758.8","417.2","./1_3_Stimuli/S_ambi40.png","自我","Word","自我","Match","f","true","Formal",""
"","","","","","psychophysics","239","814564","0.0-9.0-0.1-0.126","819","","j","","","","","","","","","","","","","key","j","16.620364406780475","758.8","417.2","./1_3_Stimuli/S_ambi40.png","他人","Image","自我","Mismatch","j","true","Formal",""
"","","","","","psychophysics","240","816375","0.0-9.0-0.1-0.127","661","","j","","","","","","","","","","","","","key","j","16.62237962962913","758.8","417.2","./1_3_Stimuli/C_ambi40.png","他人","Image","朋友","Mismatch","j","true","Formal",""
"","","","","","psychophysics","241","818096","0.0-9.0-0.1-0.128","568","","f","","","","","","","","","","","","","key","f","16.621009803921506","758.8","417.2","./1_3_Stimuli/S_ambi40.png","自我","Image","自我","Match","f","true","Formal",""
"","","","","","psychophysics","242","819765","0.0-9.0-0.1-0.129","518","","f","","","","","","","","","","","","","key","f","16.62030000000028","758.8","417.2","./1_3_Stimuli/T_ambi40.png","他人","Image","他人","Match","f","true","Formal",""
"","","","","","psychophysics","243","821367","0.0-9.0-0.1-0.130","449","","f","","","","","","","","","","","","","key","f","16.62167368420939","758.8","417.2","./1_3_Stimuli/T_ambi40.png","他人","Word","他人","Match","f","true","Formal",""
"","","","","","psychophysics","244","823180","0.0-9.0-0.1-0.131","659","","j","","","","","","","","","","","","","key","j","16.62059259259237","758.8","417.2","./1_3_Stimuli/C_ambi40.png","自我","Image","朋友","Mismatch","j","true","Formal",""
"","","","","","psychophysics","245","824944","0.0-9.0-0.1-0.132","611","","f","","","","","","","","","","","","","key","f","16.6217999999999","758.8","417.2","./1_3_Stimuli/C_ambi40.png","朋友","Word","朋友","Match","f","true","Formal",""
"","","","","","psychophysics","246","826665","0.0-9.0-0.1-0.133","570","","j","","","","","","","","","","","","","key","j","16.62152427184459","758.8","417.2","./1_3_Stimuli/T_ambi40.png","朋友","Word","他人","Mismatch","j","true","Formal",""
"","","","","","psychophysics","247","828526","0.0-9.0-0.1-0.134","708","","f","","","","","","","","","","","","","key","f","16.62145045044966","758.8","417.2","./1_3_Stimuli/C_ambi40.png","朋友","Word","朋友","Match","f","true","Formal",""
"","","","","","psychophysics","248","830126","0.0-9.0-0.1-0.135","441","","f","","","","","","","","","","","","","key","f","16.622073684211234","758.8","417.2","./1_3_Stimuli/C_ambi40.png","朋友","Image","朋友","Match","f","true","Formal",""
"","","","","","psychophysics","249","831773","0.0-9.0-0.1-0.136","492","","f","","","","","","","","","","","","","key","f","16.620408163265783","758.8","417.2","./1_3_Stimuli/S_ambi40.png","自我","Word","自我","Match","f","true","Formal",""
"","","","","","psychophysics","250","833369","0.0-9.0-0.1-0.137","443","","f","","","","","","","","","","","","","key","f","16.621515789473627","758.8","417.2","./1_3_Stimuli/S_ambi40.png","自我","Image","自我","Match","f","true","Formal",""
"","","","","","psychophysics","251","835406","0.0-9.0-0.1-0.138","885","","j","","","","","","","","","","","","","key","j","16.620614754098092","758.8","417.2","./1_3_Stimuli/C_ambi40.png","他人","Word","朋友","Mismatch","j","true","Formal",""
"","","","","","psychophysics","252","837337","0.0-9.0-0.1-0.139","771","","j","","","","","","","","","","","","","key","j","16.6212521739132","758.8","417.2","./1_3_Stimuli/S_ambi40.png","朋友","Word","自我","Mismatch","j","true","Formal",""
"","","","","","psychophysics","253","840012","0.0-9.0-0.1-0.140","1520","","j","","","","","","","","","","","","","key","j","16.621037500000238","758.8","417.2","./1_3_Stimuli/S_ambi40.png","他人","Word","自我","Mismatch","j","true","Formal",""
"","","","","","psychophysics","254","842114","0.0-9.0-0.1-0.141","947","","j","","","","","","","","","","","","","key","j","16.620927999999374","758.8","417.2","./1_3_Stimuli/T_ambi40.png","朋友","Image","他人","Mismatch","j","true","Formal",""
"","","","","","psychophysics","255","844105","0.0-9.0-0.1-0.142","840","","f","","","","","","","","","","","","","key","f","16.621033613445793","758.8","417.2","./1_3_Stimuli/C_ambi40.png","朋友","Image","朋友","Match","f","true","Formal",""
"","","","","","psychophysics","256","845999","0.0-9.0-0.1-0.143","740","","j","","","","","","","","","","","","","key","j","16.62330973451335","758.8","417.2","./1_3_Stimuli/T_ambi40.png","自我","Word","他人","Mismatch","j","true","Formal",""
"","","","","","psychophysics","257","847903","0.0-9.0-0.1-0.144","748","","j","","","","","","","","","","","","","key","j","16.62076315789467","758.8","417.2","./1_3_Stimuli/S_ambi40.png","朋友","Word","自我","Mismatch","j","true","Formal",""
"","","","","","psychophysics","258","849594","0.0-9.0-0.1-0.145","537","","j","","","","","","","","","","","","","key","j","16.621350000000092","758.8","417.2","./1_3_Stimuli/T_ambi40.png","自我","Word","他人","Mismatch","j","true","Formal",""
"","","","","","psychophysics","259","851236","0.0-9.0-0.1-0.146","492","","f","","","","","","","","","","","","","key","f","16.62126530612206","758.8","417.2","./1_3_Stimuli/S_ambi40.png","自我","Word","自我","Match","f","true","Formal",""
"","","","","","psychophysics","260","853303","0.0-9.0-0.1-0.147","913","","f","","","","","","","","","","","","","key","f","16.621886178861537","758.8","417.2","./1_3_Stimuli/C_ambi40.png","朋友","Image","朋友","Match","f","true","Formal",""
"","","","","","psychophysics","261","855020","0.0-9.0-0.1-0.148","553","","f","","","","","","","","","","","","","key","f","16.620990196078576","758.8","417.2","./1_3_Stimuli/T_ambi40.png","他人","Image","他人","Match","f","true","Formal",""
"","","","","","psychophysics","262","856901","0.0-9.0-0.1-0.149","721","","j","","","","","","","","","","","","","key","j","16.61943749999981","758.8","417.2","./1_3_Stimuli/C_ambi40.png","自我","Image","朋友","Mismatch","j","true","Formal",""
"","","","","","psychophysics","263","858714","0.0-9.0-0.1-0.150","659","","f","","","","","","","","","","","","","key","f","16.61957407407398","758.8","417.2","./1_3_Stimuli/T_ambi40.png","他人","Word","他人","Match","f","true","Formal",""
"","","","","","psychophysics","264","860428","0.0-9.0-0.1-0.151","560","","f","","","","","","","","","","","","","key","f","16.622323529411325","758.8","417.2","./1_3_Stimuli/S_ambi40.png","自我","Word","自我","Match","f","true","Formal",""
"","","","","","psychophysics","265","862360","0.0-9.0-0.1-0.152","779","","f","","","","","","","","","","","","","key","f","16.62135652173918","758.8","417.2","./1_3_Stimuli/T_ambi40.png","他人","Image","他人","Match","f","true","Formal",""
"","","","","","psychophysics","266","863959","0.0-9.0-0.1-0.153","448","","f","","","","","","","","","","","","","key","f","16.621197916666762","758.8","417.2","./1_3_Stimuli/T_ambi40.png","他人","Word","他人","Match","f","true","Formal",""
"","","","","","psychophysics","267","865764","0.0-9.0-0.1-0.154","648","","f","","","","","","","","","","","","","key","f","16.620532710280347","758.8","417.2","./1_3_Stimuli/S_ambi40.png","自我","Image","自我","Match","f","true","Formal",""
"","","","","","psychophysics","268","867642","0.0-9.0-0.1-0.155","726","","j","","","","","","","","","","","","","key","j","16.62270535714301","758.8","417.2","./1_3_Stimuli/S_ambi40.png","他人","Word","自我","Mismatch","j","true","Formal",""
"","","","","","psychophysics","269","869450","0.0-9.0-0.1-0.156","654","","f","","","","","","","","","","","","","key","f","16.62051851851801","758.8","417.2","./1_3_Stimuli/C_ambi40.png","朋友","Word","朋友","Match","f","true","Formal",""
"","","","","","psychophysics","270","871142","0.0-9.0-0.1-0.157","535","","f","","","","","","","","","","","","","key","f","16.621435643564496","758.8","417.2","./1_3_Stimuli/C_ambi40.png","朋友","Word","朋友","Match","f","true","Formal",""
"","","","","","psychophysics","271","872868","0.0-9.0-0.1-0.158","574","","j","","","","","","","","","","","","","key","j","16.620242718446693","758.8","417.2","./1_3_Stimuli/C_ambi40.png","自我","Word","朋友","Mismatch","j","true","Formal",""
"","","","","","psychophysics","272","874594","0.0-9.0-0.1-0.159","563","","f","","","","","","","","","","","","","key","f","16.62151960784332","758.8","417.2","./1_3_Stimuli/C_ambi40.png","朋友","Image","朋友","Match","f","true","Formal",""
"","","","","","psychophysics","273","876419","0.0-9.0-0.1-0.160","666","","j","","","","","","","","","","","","","key","j","16.62169724770655","758.8","417.2","./1_3_Stimuli/S_ambi40.png","朋友","Image","自我","Mismatch","j","true","Formal",""
"","","","","","psychophysics","274","878082","0.0-9.0-0.1-0.161","511","","f","","","","","","","","","","","","","key","f","16.62179797979876","758.8","417.2","./1_3_Stimuli/S_ambi40.png","自我","Image","自我","Match","f","true","Formal",""
"","","","","","psychophysics","275","879728","0.0-9.0-0.1-0.162","494","","f","","","","","","","","","","","","","key","f","16.62147959183702","758.8","417.2","./1_3_Stimuli/T_ambi40.png","朋友","Word","他人","Mismatch","j","false","Formal",""
"","","","","","psychophysics","276","881682","0.0-9.0-0.1-0.163","803","","j","","","","","","","","","","","","","key","j","16.620991452991102","758.8","417.2","./1_3_Stimuli/S_ambi40.png","他人","Image","自我","Mismatch","j","true","Formal",""
"","","","","","psychophysics","277","883530","0.0-9.0-0.1-0.164","691","","j","","","","","","","","","","","","","key","j","16.62014545454559","758.8","417.2","./1_3_Stimuli/T_ambi40.png","朋友","Image","他人","Mismatch","j","true","Formal",""
"","","","","","psychophysics","278","885305","0.0-9.0-0.1-0.165","621","","j","","","","","","","","","","","","","key","j","16.62213207547166","758.8","417.2","./1_3_Stimuli/T_ambi40.png","自我","Image","他人","Mismatch","j","true","Formal",""
"","","","","","psychophysics","279","887213","0.0-9.0-0.1-0.166","750","","j","","","","","","","","","","","","","key","j","16.622912280701648","758.8","417.2","./1_3_Stimuli/C_ambi40.png","他人","Image","朋友","Mismatch","j","true","Formal",""
"","","","","","psychophysics","280","889003","0.0-9.0-0.1-0.167","631","","j","","","","","","","","","","","","","key","j","16.62215094339599","758.8","417.2","./1_3_Stimuli/C_ambi40.png","他人","Word","朋友","Mismatch","j","true","Formal",""
"","","","","","psychophysics","281","890616","0.0-9.0-0.1-0.168","462","","f","","","","","","","","","","","","","key","f","16.62082291666593","758.8","417.2","./1_3_Stimuli/S_ambi40.png","自我","Image","自我","Match","f","true","Formal",""
"","","","","","psychophysics","282","892669","0.0-9.0-0.1-0.169","902","","f","","","","","","","","","","","","","key","f","16.62027642276418","758.8","417.2","./1_3_Stimuli/T_ambi40.png","他人","Word","他人","Match","f","true","Formal",""
"","","","","","psychophysics","283","894407","0.0-9.0-0.1-0.170","581","","j","","","","","","","","","","","","","key","j","16.61978640776688","758.8","417.2","./1_3_Stimuli/T_ambi40.png","自我","Image","他人","Mismatch","j","true","Formal",""
"","","","","","psychophysics","284","896173","0.0-9.0-0.1-0.171","615","","j","","","","","","","","","","","","","key","j","16.62142857142857","758.8","417.2","./1_3_Stimuli/S_ambi40.png","朋友","Word","自我","Mismatch","j","true","Formal",""
"","","","","","psychophysics","285","897964","0.0-9.0-0.1-0.172","636","","f","","","","","","","","","","","","","key","f","16.621424528302292","758.8","417.2","./1_3_Stimuli/C_ambi40.png","朋友","Image","朋友","Match","f","true","Formal",""
"","","","","","psychophysics","286","899704","0.0-9.0-0.1-0.173","585","","f","","","","","","","","","","","","","key","f","16.622126213591365","758.8","417.2","./1_3_Stimuli/C_ambi40.png","朋友","Image","朋友","Match","f","true","Formal",""
"","","","","","psychophysics","287","901343","0.0-9.0-0.1-0.174","485","","j","","","","","","","","","","","","","key","j","16.620091836735586","758.8","417.2","./1_3_Stimuli/C_ambi40.png","自我","Word","朋友","Mismatch","j","true","Formal",""
"","","","","","psychophysics","288","903076","0.0-9.0-0.1-0.175","574","","j","","","","","","","","","","","","","key","j","16.62124271844672","758.8","417.2","./1_3_Stimuli/C_ambi40.png","朋友","Word","朋友","Match","f","false","Formal",""
"","","","","","psychophysics","289","905182","0.0-9.0-0.1-0.176","950","","f","","","","","","","","","","","","","key","f","16.621674603174647","758.8","417.2","./1_3_Stimuli/T_ambi40.png","他人","Image","他人","Match","f","true","Formal",""
"","","","","","psychophysics","290","906886","0.0-9.0-0.1-0.177","543","","f","","","","","","","","","","","","","key","f","16.62075247524749","758.8","417.2","./1_3_Stimuli/S_ambi40.png","自我","Image","自我","Match","f","true","Formal",""
"","","","","","psychophysics","291","908992","0.0-9.0-0.1-0.178","955","","j","","","","","","","","","","","","","key","j","16.622214285715017","758.8","417.2","./1_3_Stimuli/S_ambi40.png","他人","Image","自我","Mismatch","j","true","Formal",""
"","","","","","psychophysics","292","910829","0.0-9.0-0.1-0.179","681","","j","","","","","","","","","","","","","key","j","16.621559633027523","758.8","417.2","./1_3_Stimuli/T_ambi40.png","朋友","Word","他人","Mismatch","j","true","Formal",""
"","","","","","psychophysics","293","912914","0.0-9.0-0.1-0.180","923","","j","","","","","","","","","","","","","key","j","16.62115322580681","758.8","417.2","./1_3_Stimuli/S_ambi40.png","他人","Word","自我","Mismatch","j","true","Formal",""
"","","","","","psychophysics","294","914930","0.0-9.0-0.1-0.181","863","","f","","","","","","","","","","","","","key","f","16.620450000000226","758.8","417.2","./1_3_Stimuli/T_ambi40.png","他人","Image","他人","Match","f","true","Formal",""
"","","","","","psychophysics","295","916567","0.0-9.0-0.1-0.182","484","","f","","","","","","","","","","","","","key","f","16.621153061224707","758.8","417.2","./1_3_Stimuli/T_ambi40.png","他人","Word","他人","Match","f","true","Formal",""
"","","","","","psychophysics","296","918357","0.0-9.0-0.1-0.183","630","","j","","","","","","","","","","","","","key","j","16.620066037735427","758.8","417.2","./1_3_Stimuli/C_ambi40.png","他人","Image","朋友","Mismatch","j","true","Formal",""
"","","","","","psychophysics","297","920095","0.0-9.0-0.1-0.184","585","","j","","","","","","","","","","","","","key","j","16.622182692308204","758.8","417.2","./1_3_Stimuli/T_ambi40.png","朋友","Image","他人","Mismatch","j","true","Formal",""
"","","","","","psychophysics","298","921749","0.0-9.0-0.1-0.185","498","","f","","","","","","","","","","","","","key","f","16.62254081632614","758.8","417.2","./1_3_Stimuli/S_ambi40.png","自我","Word","自我","Match","f","true","Formal",""
"","","","","","psychophysics","299","923563","0.0-9.0-0.1-0.186","653","","j","","","","","","","","","","","","","key","j","16.620342592593428","758.8","417.2","./1_3_Stimuli/C_ambi40.png","自我","Image","朋友","Mismatch","j","true","Formal",""
"","","","","","psychophysics","300","925351","0.0-9.0-0.1-0.187","628","","f","","","","","","","","","","","","","key","f","16.622198113207354","758.8","417.2","./1_3_Stimuli/S_ambi40.png","自我","Word","自我","Match","f","true","Formal",""
"","","","","","psychophysics","301","927096","0.0-9.0-0.1-0.188","593","","j","","","","","","","","","","","","","key","j","16.620721153846645","758.8","417.2","./1_3_Stimuli/S_ambi40.png","朋友","Image","自我","Mismatch","j","true","Formal",""
"","","","","","psychophysics","302","929121","0.0-9.0-0.1-0.189","872","","j","","","","","","","","","","","","","key","j","16.62204958677719","758.8","417.2","./1_3_Stimuli/T_ambi40.png","自我","Word","他人","Mismatch","j","true","Formal",""
"","","","","","psychophysics","303","930897","0.0-9.0-0.1-0.190","621","","j","","","","","","","","","","","","","key","j","16.62125471698116","758.8","417.2","./1_3_Stimuli/C_ambi40.png","他人","Word","朋友","Mismatch","j","true","Formal",""
"","","","","","psychophysics","304","932768","0.0-9.0-0.1-0.191","714","","f","","","","","","","","","","","","","key","f","16.620315315315146","758.8","417.2","./1_3_Stimuli/C_ambi40.png","朋友","Word","朋友","Match","f","true","Formal",""
"","","","","","psychophysics","305","934505","0.0-9.0-0.1-0.192","572","","j","","","","","","","","","","","","","key","j","16.622291262136113","758.8","417.2","./1_3_Stimuli/T_ambi40.png","自我","Image","他人","Mismatch","j","true","Formal",""
"","","","","","psychophysics","306","936207","0.0-9.0-0.1-0.193","544","","f","","","","","","","","","","","","","key","f","16.622495049504693","758.8","417.2","./1_3_Stimuli/S_ambi40.png","自我","Word","自我","Match","f","true","Formal",""
"","","","","","psychophysics","307","938037","0.0-9.0-0.1-0.194","680","","j","","","","","","","","","","","","","key","j","16.620238532109287","758.8","417.2","./1_3_Stimuli/S_ambi40.png","他人","Word","自我","Mismatch","j","true","Formal",""
"","","","","","psychophysics","308","939707","0.0-9.0-0.1-0.195","517","","f","","","","","","","","","","","","","key","f","16.621650000000372","758.8","417.2","./1_3_Stimuli/C_ambi40.png","朋友","Word","朋友","Match","f","true","Formal",""
"","","","","","psychophysics","309","941408","0.0-9.0-0.1-0.196","545","","j","","","","","","","","","","","","","key","j","16.62118811881179","758.8","417.2","./1_3_Stimuli/T_ambi40.png","他人","Word","他人","Match","f","false","Formal",""
"","","","","","psychophysics","310","943260","0.0-9.0-0.1-0.197","700","","j","","","","","","","","","","","","","key","j","16.622135135134354","758.8","417.2","./1_3_Stimuli/C_ambi40.png","自我","Word","朋友","Mismatch","j","true","Formal",""
"","","","","","psychophysics","311","944899","0.0-9.0-0.1-0.198","478","","f","","","","","","","","","","","","","key","f","16.6197835051553","758.8","417.2","./1_3_Stimuli/T_ambi40.png","他人","Word","他人","Match","f","true","Formal",""
"","","","","","psychophysics","312","946646","0.0-9.0-0.1-0.199","595","","j","","","","","","","","","","","","","key","j","16.621576923076645","758.8","417.2","./1_3_Stimuli/S_ambi40.png","他人","Image","自我","Mismatch","j","true","Formal",""
"","","","","","psychophysics","313","948551","0.0-9.0-0.1-0.200","754","","f","","","","","","","","","","","","","key","f","16.62122123893783","758.8","417.2","./1_3_Stimuli/C_ambi40.png","朋友","Image","朋友","Match","f","true","Formal",""
"","","","","","psychophysics","314","950259","0.0-9.0-0.1-0.201","557","","f","","","","","","","","","","","","","key","f","16.620843137254912","758.8","417.2","./1_3_Stimuli/S_ambi40.png","自我","Image","自我","Match","f","true","Formal",""
"","","","","","psychophysics","315","952149","0.0-9.0-0.1-0.202","736","","j","","","","","","","","","","","","","key","j","16.62110714285726","758.8","417.2","./1_3_Stimuli/T_ambi40.png","朋友","Image","他人","Mismatch","j","true","Formal",""
"","","","","","psychophysics","316","953809","0.0-9.0-0.1-0.203","504","","f","","","","","","","","","","","","","key","f","16.62069387755081","758.8","417.2","./1_3_Stimuli/S_ambi40.png","自我","Image","自我","Match","f","true","Formal",""
"","","","","","psychophysics","317","955605","0.0-9.0-0.1-0.204","645","","f","","","","","","","","","","","","","key","f","16.622607476636116","758.8","417.2","./1_3_Stimuli/C_ambi40.png","朋友","Image","朋友","Match","f","true","Formal",""
"","","","","","psychophysics","318","957302","0.0-9.0-0.1-0.205","546","","j","","","","","","","","","","","","","key","j","16.621376237623384","758.8","417.2","./1_3_Stimuli/S_ambi40.png","朋友","Image","自我","Mismatch","j","true","Formal",""
"","","","","","psychophysics","319","958947","0.0-9.0-0.1-0.206","485","","f","","","","","","","","","","","","","key","f","16.62207216494861","758.8","417.2","./1_3_Stimuli/C_ambi40.png","自我","Image","朋友","Mismatch","j","false","Formal",""
"","","","","","psychophysics","320","960718","0.0-9.0-0.1-0.207","617","","f","","","","","","","","","","","","","key","f","16.620962264150258","758.8","417.2","./1_3_Stimuli/C_ambi40.png","朋友","Word","朋友","Match","f","true","Formal",""
"","","","","","psychophysics","321","962459","0.0-9.0-0.1-0.208","585","","j","","","","","","","","","","","","","key","j","16.621086538461476","758.8","417.2","./1_3_Stimuli/T_ambi40.png","朋友","Word","他人","Mismatch","j","true","Formal",""
"","","","","","psychophysics","322","964449","0.0-9.0-0.1-0.209","839","","j","","","","","","","","","","","","","key","j","16.620949152542348","758.8","417.2","./1_3_Stimuli/C_ambi40.png","他人","Image","朋友","Mismatch","j","true","Formal",""
"","","","","","psychophysics","323","966547","0.0-9.0-0.1-0.210","935","","j","","","","","","","","","","","","","key","j","16.6222639999995","758.8","417.2","./1_3_Stimuli/S_ambi40.png","朋友","Word","自我","Mismatch","j","true","Formal",""
"","","","","","psychophysics","324","968558","0.0-9.0-0.1-0.211","850","","f","","","","","","","","","","","","","key","f","16.62114166666676","758.8","417.2","./1_3_Stimuli/T_ambi40.png","他人","Image","他人","Match","f","true","Formal",""
"","","","","","psychophysics","325","970275","0.0-9.0-0.1-0.212","558","","f","","","","","","","","","","","","","key","f","16.61974509803843","758.8","417.2","./1_3_Stimuli/T_ambi40.png","他人","Image","他人","Match","f","true","Formal",""
"","","","","","psychophysics","326","971997","0.0-9.0-0.1-0.213","565","","j","","","","","","","","","","","","","key","j","16.62120588235192","758.8","417.2","./1_3_Stimuli/C_ambi40.png","他人","Word","朋友","Mismatch","j","true","Formal",""
"","","","","","psychophysics","327","973763","0.0-9.0-0.1-0.214","606","","f","","","","","","","","","","","","","key","f","16.622276190476537","758.8","417.2","./1_3_Stimuli/S_ambi40.png","自我","Word","自我","Match","f","true","Formal",""
"","","","","","psychophysics","328","975517","0.0-9.0-0.1-0.215","595","","j","","","","","","","","","","","","","key","j","16.620374999999722","758.8","417.2","./1_3_Stimuli/T_ambi40.png","自我","Word","他人","Mismatch","j","true","Formal",""
"","","","","","psychophysics","329","977297","0.0-9.0-0.1-0.216","629","","f","","","","","","","","","","","","","key","f","16.621276190475605","758.8","417.2","./1_3_Stimuli/T_ambi40.png","自我","Image","他人","Mismatch","j","false","Formal",""
"","","","","","psychophysics","330","979115","0.0-9.0-0.1-0.217","664","","f","","","","","","","","","","","","","key","f","16.62175229357752","758.8","417.2","./1_3_Stimuli/C_ambi40.png","朋友","Image","朋友","Match","f","true","Formal",""
"","","","","","psychophysics","331","980877","0.0-9.0-0.1-0.218","603","","f","","","","","","","","","","","","","key","f","16.622942857142714","758.8","417.2","./1_3_Stimuli/T_ambi40.png","他人","Image","他人","Match","f","true","Formal",""
"","","","","","psychophysics","332","982590","0.0-9.0-0.1-0.219","554","","j","","","","","","","","","","","","","key","j","16.6204509803918","758.8","417.2","./1_3_Stimuli/C_ambi40.png","他人","Word","朋友","Mismatch","j","true","Formal",""
"","","","","","psychophysics","333","984286","0.0-9.0-0.1-0.220","541","","f","","","","","","","","","","","","","key","f","16.620702970296946","758.8","417.2","./1_3_Stimuli/C_ambi40.png","朋友","Word","朋友","Match","f","true","Formal",""
"","","","","","psychophysics","334","986143","0.0-9.0-0.1-0.221","700","","j","","","","","","","","","","","","","key","j","16.621360360360537","758.8","417.2","./1_3_Stimuli/C_ambi40.png","他人","Image","朋友","Mismatch","j","true","Formal",""
"","","","","","psychophysics","335","987866","0.0-9.0-0.1-0.222","561","","f","","","","","","","","","","","","","key","f","16.621303921567698","758.8","417.2","./1_3_Stimuli/S_ambi40.png","朋友","Image","自我","Mismatch","j","false","Formal",""
"","","","","","psychophysics","336","989662","0.0-9.0-0.1-0.223","645","","f","","","","","","","","","","","","","key","f","16.62176635514109","758.8","417.2","./1_3_Stimuli/S_ambi40.png","自我","Word","自我","Match","f","true","Formal",""
"","","","","","psychophysics","337","991366","0.0-9.0-0.1-0.224","554","","j","","","","","","","","","","","","","key","j","16.621431372548436","758.8","417.2","./1_3_Stimuli/T_ambi40.png","自我","Word","他人","Mismatch","j","true","Formal",""
"","","","","","psychophysics","338","993329","0.0-9.0-0.1-0.225","806","","j","","","","","","","","","","","","","key","j","16.6212393162388","758.8","417.2","./1_3_Stimuli/S_ambi40.png","朋友","Word","自我","Mismatch","j","true","Formal",""
"","","","","","psychophysics","339","995022","0.0-9.0-0.1-0.226","537","","f","","","","","","","","","","","","","key","f","16.619594059405056","758.8","417.2","./1_3_Stimuli/S_ambi40.png","自我","Word","自我","Match","f","true","Formal",""
"","","","","","psychophysics","340","996858","0.0-9.0-0.1-0.227","679","","f","","","","","","","","","","","","","key","f","16.62207339449632","758.8","417.2","./1_3_Stimuli/T_ambi40.png","他人","Word","他人","Match","f","true","Formal",""
"","","","","","psychophysics","341","998710","0.0-9.0-0.1-0.228","701","","f","","","","","","","","","","","","","key","f","16.621504504504184","758.8","417.2","./1_3_Stimuli/S_ambi40.png","自我","Image","自我","Match","f","true","Formal",""
"","","","","","psychophysics","342","1000693","0.0-9.0-0.1-0.229","829","","f","","","","","","","","","","","","","key","f","16.621618644068","758.8","417.2","./1_3_Stimuli/T_ambi40.png","他人","Image","他人","Match","f","true","Formal",""
"","","","","","psychophysics","343","1002390","0.0-9.0-0.1-0.230","542","","j","","","","","","","","","","","","","key","j","16.620485148514796","758.8","417.2","./1_3_Stimuli/S_ambi40.png","他人","Word","自我","Mismatch","j","true","Formal",""
"","","","","","psychophysics","344","1004100","0.0-9.0-0.1-0.231","557","","f","","","","","","","","","","","","","key","f","16.621333333332657","758.8","417.2","./1_3_Stimuli/C_ambi40.png","朋友","Image","朋友","Match","f","true","Formal",""
"","","","","","psychophysics","345","1005828","0.0-9.0-0.1-0.232","575","","j","","","","","","","","","","","","","key","j","16.622310679611633","758.8","417.2","./1_3_Stimuli/C_ambi40.png","自我","Word","朋友","Mismatch","j","true","Formal",""
"","","","","","psychophysics","346","1007604","0.0-9.0-0.1-0.233","620","","f","","","","","","","","","","","","","key","f","16.62253773584962","758.8","417.2","./1_3_Stimuli/C_ambi40.png","朋友","Word","朋友","Match","f","true","Formal",""
"","","","","","psychophysics","347","1009341","0.0-9.0-0.1-0.234","578","","j","","","","","","","","","","","","","key","j","16.62118446602016","758.8","417.2","./1_3_Stimuli/C_ambi40.png","自我","Image","朋友","Mismatch","j","true","Formal",""
"","","","","","psychophysics","348","1011010","0.0-9.0-0.1-0.235","518","","f","","","","","","","","","","","","","key","f","16.620770000000483","758.8","417.2","./1_3_Stimuli/S_ambi40.png","自我","Image","自我","Match","f","true","Formal",""
"","","","","","psychophysics","349","1013001","0.0-9.0-0.1-0.236","831","","j","","","","","","","","","","","","","key","j","16.620974576271383","758.8","417.2","./1_3_Stimuli/T_ambi40.png","朋友","Image","他人","Mismatch","j","true","Formal",""
"","","","","","psychophysics","350","1014778","0.0-9.0-0.1-0.237","623","","f","","","","","","","","","","","","","key","f","16.619238095238273","758.8","417.2","./1_3_Stimuli/T_ambi40.png","他人","Word","他人","Match","f","true","Formal",""
"","","","","","psychophysics","351","1016559","0.0-9.0-0.1-0.238","624","","j","","","","","","","","","","","","","key","j","16.621962616821776","758.8","417.2","./1_3_Stimuli/S_ambi40.png","他人","Image","自我","Mismatch","j","true","Formal",""
"","","","","","psychophysics","352","1018487","0.0-9.0-0.1-0.239","770","","j","","","","","","","","","","","","","key","j","16.621147826087217","758.8","417.2","./1_3_Stimuli/T_ambi40.png","朋友","Word","他人","Mismatch","j","true","Formal",""
"","","","","","html-keyboard-response","353","1024566","0.0-9.0-1.1","6077","<style>.context{color:white; font-size: 35px; line-height:40px}</style>                        <div><p class='context'>您正确回答了95% 的试次。</p><p class='context'>您的平均反应时为659毫秒。</p><p> <div style = 'color: green'><按任意键进入休息></div></p>"," ","","","","","","","","","","","","","","","","","","","","","","","","","",""
"","","","","","html-button-response","354","1113242","0.0-9.0-2.1","88673","
                  <p>您当前还剩余4组实验</p>
                  <p>现在是休息时间，当您结束休息后，您可以点击 结束休息 按钮 继续</p>
                  <p>建议休息时间还剩余<span id=""iii"">60</span>秒</p>","0","","","","","","","","","","","","","","","","","","","","","","","","","",""
"","","","","","psychophysics","355","1115242","0.0-9.0-0.2-0.240","843","","f","","","","","","","","","","","","","key","f","16.621310924369638","758.8","417.2","./1_3_Stimuli/C_ambi40.png","朋友","Word","朋友","Match","f","true","Formal",""
"","","","","","psychophysics","356","1116902","0.0-9.0-0.2-0.241","501","","j","","","","","","","","","","","","","key","j","16.622070707070332","758.8","417.2","./1_3_Stimuli/C_ambi40.png","自我","Image","朋友","Mismatch","j","true","Formal",""
"","","","","","psychophysics","357","1118602","0.0-9.0-0.2-0.242","545","","j","","","","","","","","","","","","","key","j","16.62195049504989","758.8","417.2","./1_3_Stimuli/S_ambi40.png","朋友","Word","自我","Mismatch","j","true","Formal",""
"","","","","","psychophysics","358","1120349","0.0-9.0-0.2-0.243","590","","f","","","","","","","","","","","","","key","f","16.62090384615406","758.8","417.2","./1_3_Stimuli/S_ambi40.png","自我","Word","自我","Match","f","true","Formal",""
"","","","","","psychophysics","359","1122016","0.0-9.0-0.2-0.244","511","","j","","","","","","","","","","","","","key","j","16.621272727273254","758.8","417.2","./1_3_Stimuli/C_ambi40.png","自我","Word","朋友","Mismatch","j","true","Formal",""
"","","","","","psychophysics","360","1123800","0.0-9.0-0.2-0.245","633","","j","","","","","","","","","","","","","key","j","16.620439252337423","758.8","417.2","./1_3_Stimuli/T_ambi40.png","朋友","Word","他人","Mismatch","j","true","Formal",""
"","","","","","psychophysics","361","1125746","0.0-9.0-0.2-0.246","784","","j","","","","","","","","","","","","","key","j","16.620500000001027","758.8","417.2","./1_3_Stimuli/S_ambi40.png","他人","Image","自我","Mismatch","j","true","Formal",""
"","","","","","psychophysics","362","1127502","0.0-9.0-0.2-0.247","596","","f","","","","","","","","","","","","","key","f","16.622240384615278","758.8","417.2","./1_3_Stimuli/S_ambi40.png","自我","Image","自我","Match","f","true","Formal",""
"","","","","","psychophysics","363","1129850","0.0-9.0-0.2-0.248","1197","","f","","","","","","","","","","","","","key","f","16.621460992907313","758.8","417.2","./1_3_Stimuli/C_ambi40.png","朋友","Image","朋友","Match","f","true","Formal",""
"","","","","","psychophysics","364","1131683","0.0-9.0-0.2-0.249","671","","j","","","","","","","","","","","","","key","j","16.62227522935761","758.8","417.2","./1_3_Stimuli/T_ambi40.png","自我","Image","他人","Mismatch","j","true","Formal",""
"","","","","","psychophysics","365","1133656","0.0-9.0-0.2-0.250","818","","f","","","","","","","","","","","","","key","f","16.620008474574977","758.8","417.2","./1_3_Stimuli/T_ambi40.png","他人","Word","他人","Match","f","true","Formal",""
"","","","","","psychophysics","366","1135538","0.0-9.0-0.2-0.251","720","","j","","","","","","","","","","","","","key","j","16.622062500000798","758.8","417.2","./1_3_Stimuli/C_ambi40.png","他人","Image","朋友","Mismatch","j","true","Formal",""
"","","","","","psychophysics","367","1137161","0.0-9.0-0.2-0.252","466","","f","","","","","","","","","","","","","key","f","16.62084375000025","758.8","417.2","./1_3_Stimuli/S_ambi40.png","自我","Image","自我","Match","f","true","Formal",""
"","","","","","psychophysics","368","1138781","0.0-9.0-0.2-0.253","459","","j","","","","","","","","","","","","","key","j","16.62136458333407","758.8","417.2","./1_3_Stimuli/S_ambi40.png","他人","Word","自我","Mismatch","j","true","Formal",""
"","","","","","psychophysics","369","1140457","0.0-9.0-0.2-0.254","520","","f","","","","","","","","","","","","","key","f","16.621029999998864","758.8","417.2","./1_3_Stimuli/C_ambi40.png","朋友","Word","朋友","Match","f","true","Formal",""
"","","","","","psychophysics","370","1142362","0.0-9.0-0.2-0.255","748","","j","","","","","","","","","","","","","key","j","16.62141592920329","758.8","417.2","./1_3_Stimuli/S_ambi40.png","朋友","Image","自我","Mismatch","j","true","Formal",""
"","","","","","psychophysics","371","1144253","0.0-9.0-0.2-0.256","732","","j","","","","","","","","","","","","","key","j","16.621035398231342","758.8","417.2","./1_3_Stimuli/C_ambi40.png","他人","Word","朋友","Mismatch","j","true","Formal",""
"","","","","","psychophysics","372","1145972","0.0-9.0-0.2-0.257","566","","j","","","","","","","","","","","","","key","j","16.621048543688126","758.8","417.2","./1_3_Stimuli/T_ambi40.png","自我","Word","他人","Mismatch","j","true","Formal",""
"","","","","","psychophysics","373","1147957","0.0-9.0-0.2-0.258","828","","f","","","","","","","","","","","","","key","f","16.6219830508482","758.8","417.2","./1_3_Stimuli/C_ambi40.png","朋友","Image","朋友","Match","f","true","Formal",""
"","","","","","psychophysics","374","1149641","0.0-9.0-0.2-0.259","529","","f","","","","","","","","","","","","","key","f","16.620600000000557","758.8","417.2","./1_3_Stimuli/S_ambi40.png","自我","Word","自我","Match","f","true","Formal",""
"","","","","","psychophysics","375","1151265","0.0-9.0-0.2-0.260","473","","f","","","","","","","","","","","","","key","f","16.622670103092535","758.8","417.2","./1_3_Stimuli/T_ambi40.png","他人","Image","他人","Match","f","true","Formal",""
"","","","","","psychophysics","376","1152920","0.0-9.0-0.2-0.261","503","","j","","","","","","","","","","","","","key","j","16.621575757574213","758.8","417.2","./1_3_Stimuli/T_ambi40.png","朋友","Image","他人","Mismatch","j","true","Formal",""
"","","","","","psychophysics","377","1154612","0.0-9.0-0.2-0.262","530","","f","","","","","","","","","","","","","key","f","16.622679999999235","758.8","417.2","./1_3_Stimuli/T_ambi40.png","他人","Image","他人","Match","f","true","Formal",""
"","","","","","psychophysics","378","1156261","0.0-9.0-0.2-0.263","487","","f","","","","","","","","","","","","","key","f","16.620989898991102","758.8","417.2","./1_3_Stimuli/T_ambi40.png","他人","Word","他人","Match","f","true","Formal",""
"","","","","","psychophysics","379","1157989","0.0-9.0-0.2-0.264","571","","j","","","","","","","","","","","","","key","j","16.622640776698866","758.8","417.2","./1_3_Stimuli/T_ambi40.png","自我","Word","他人","Mismatch","j","true","Formal",""
"","","","","","psychophysics","380","1159836","0.0-9.0-0.2-0.265","691","","j","","","","","","","","","","","","","key","j","16.62194545454642","758.8","417.2","./1_3_Stimuli/C_ambi40.png","他人","Image","朋友","Mismatch","j","true","Formal",""
"","","","","","psychophysics","381","1161500","0.0-9.0-0.2-0.266","506","","f","","","","","","","","","","","","","key","f","16.620292929292777","758.8","417.2","./1_3_Stimuli/S_ambi40.png","自我","Image","自我","Match","f","true","Formal",""
"","","","","","psychophysics","382","1163368","0.0-9.0-0.2-0.267","712","","f","","","","","","","","","","","","","key","f","16.621261261260926","758.8","417.2","./1_3_Stimuli/C_ambi40.png","朋友","Word","朋友","Match","f","true","Formal",""
"","","","","","psychophysics","383","1165061","0.0-9.0-0.2-0.268","541","","j","","","","","","","","","","","","","key","j","16.62145544554448","758.8","417.2","./1_3_Stimuli/S_ambi40.png","他人","Image","自我","Mismatch","j","true","Formal",""
"","","","","","psychophysics","384","1166857","0.0-9.0-0.2-0.269","641","","f","","","","","","","","","","","","","key","f","16.621158878503923","758.8","417.2","./1_3_Stimuli/T_ambi40.png","他人","Image","他人","Match","f","true","Formal",""
"","","","","","psychophysics","385","1168526","0.0-9.0-0.2-0.270","515","","j","","","","","","","","","","","","","key","j","16.62056999999797","758.8","417.2","./1_3_Stimuli/T_ambi40.png","朋友","Word","他人","Mismatch","j","true","Formal",""
"","","","","","psychophysics","386","1170342","0.0-9.0-0.2-0.271","662","","j","","","","","","","","","","","","","key","j","16.6213518518532","758.8","417.2","./1_3_Stimuli/C_ambi40.png","自我","Word","朋友","Mismatch","j","true","Formal",""
"","","","","","psychophysics","387","1172188","0.0-9.0-0.2-0.272","692","","j","","","","","","","","","","","","","key","j","16.621227272726934","758.8","417.2","./1_3_Stimuli/T_ambi40.png","他人","Word","他人","Match","f","false","Formal",""
"","","","","","psychophysics","388","1173987","0.0-9.0-0.2-0.273","644","","j","","","","","","","","","","","","","key","j","16.62171028037425","758.8","417.2","./1_3_Stimuli/S_ambi40.png","朋友","Word","自我","Mismatch","j","true","Formal",""
"","","","","","psychophysics","389","1175642","0.0-9.0-0.2-0.274","500","","f","","","","","","","","","","","","","key","f","16.622151515152627","758.8","417.2","./1_3_Stimuli/T_ambi40.png","他人","Image","他人","Match","f","true","Formal",""
"","","","","","psychophysics","390","1177382","0.0-9.0-0.2-0.275","579","","f","","","","","","","","","","","","","key","f","16.621485436893547","758.8","417.2","./1_3_Stimuli/T_ambi40.png","他人","Word","他人","Match","f","true","Formal",""
"","","","","","psychophysics","391","1179061","0.0-9.0-0.2-0.276","528","","f","","","","","","","","","","","","","key","f","16.621729999999516","758.8","417.2","./1_3_Stimuli/C_ambi40.png","朋友","Image","朋友","Match","f","true","Formal",""
"","","","","","psychophysics","392","1180613","0.0-9.0-0.2-0.277","401","","f","","","","","","","","","","","","","key","f","16.620322580647063","758.8","417.2","./1_3_Stimuli/S_ambi40.png","自我","Word","自我","Match","f","true","Formal",""
"","","","","","psychophysics","393","1182345","0.0-9.0-0.2-0.278","572","","f","","","","","","","","","","","","","key","f","16.62067961164985","758.8","417.2","./1_3_Stimuli/S_ambi40.png","自我","Image","自我","Match","f","true","Formal",""
"","","","","","psychophysics","394","1184137","0.0-9.0-0.2-0.279","641","","j","","","","","","","","","","","","","key","j","16.62039252336433","758.8","417.2","./1_3_Stimuli/T_ambi40.png","自我","Image","他人","Mismatch","j","true","Formal",""
"","","","","","psychophysics","395","1185793","0.0-9.0-0.2-0.280","502","","f","","","","","","","","","","","","","key","f","16.621551020408276","758.8","417.2","./1_3_Stimuli/S_ambi40.png","自我","Word","自我","Match","f","true","Formal",""
"","","","","","psychophysics","396","1187604","0.0-9.0-0.2-0.281","655","","j","","","","","","","","","","","","","key","j","16.62143925233596","758.8","417.2","./1_3_Stimuli/C_ambi40.png","他人","Word","朋友","Mismatch","j","true","Formal",""
"","","","","","psychophysics","397","1189229","0.0-9.0-0.2-0.282","474","","f","","","","","","","","","","","","","key","f","16.62079381443243","758.8","417.2","./1_3_Stimuli/C_ambi40.png","朋友","Word","朋友","Match","f","true","Formal",""
"","","","","","psychophysics","398","1191005","0.0-9.0-0.2-0.283","622","","j","","","","","","","","","","","","","key","j","16.622867924528073","758.8","417.2","./1_3_Stimuli/T_ambi40.png","朋友","Image","他人","Mismatch","j","true","Formal",""
"","","","","","psychophysics","399","1192677","0.0-9.0-0.2-0.284","516","","f","","","","","","","","","","","","","key","f","16.62134000000078","758.8","417.2","./1_3_Stimuli/C_ambi40.png","朋友","Image","朋友","Match","f","true","Formal",""
"","","","","","psychophysics","400","1194485","0.0-9.0-0.2-0.285","654","","j","","","","","","","","","","","","","key","j","16.62181308411201","758.8","417.2","./1_3_Stimuli/S_ambi40.png","他人","Word","自我","Mismatch","j","true","Formal",""
"","","","","","psychophysics","401","1196441","0.0-9.0-0.2-0.286","805","","j","","","","","","","","","","","","","key","j","16.6207435897444","758.8","417.2","./1_3_Stimuli/S_ambi40.png","朋友","Image","自我","Mismatch","j","true","Formal",""
"","","","","","psychophysics","402","1198464","0.0-9.0-0.2-0.287","868","","j","","","","","","","","","","","","","key","j","16.62110743801733","758.8","417.2","./1_3_Stimuli/C_ambi40.png","自我","Image","朋友","Mismatch","j","true","Formal",""
"","","","","","psychophysics","403","1200457","0.0-9.0-0.2-0.288","832","","j","","","","","","","","","","","","","key","j","16.62290756302463","758.8","417.2","./1_3_Stimuli/C_ambi40.png","他人","Image","朋友","Mismatch","j","true","Formal",""
"","","","","","psychophysics","404","1202294","0.0-9.0-0.2-0.289","675","","j","","","","","","","","","","","","","key","j","16.620926605505492","758.8","417.2","./1_3_Stimuli/T_ambi40.png","自我","Image","他人","Mismatch","j","true","Formal",""
"","","","","","psychophysics","405","1204121","0.0-9.0-0.2-0.290","674","","j","","","","","","","","","","","","","key","j","16.61906422018458","758.8","417.2","./1_3_Stimuli/S_ambi40.png","他人","Image","自我","Mismatch","j","true","Formal",""
"","","","","","psychophysics","406","1205869","0.0-9.0-0.2-0.291","594","","f","","","","","","","","","","","","","key","f","16.621038461538355","758.8","417.2","./1_3_Stimuli/C_ambi40.png","朋友","Image","朋友","Match","f","true","Formal",""
"","","","","","psychophysics","407","1207630","0.0-9.0-0.2-0.292","609","","j","","","","","","","","","","","","","key","j","16.620038095236357","758.8","417.2","./1_3_Stimuli/C_ambi40.png","他人","Word","朋友","Mismatch","j","true","Formal",""
"","","","","","psychophysics","408","1209746","0.0-9.0-0.2-0.293","963","","j","","","","","","","","","","","","","key","j","16.62130158730147","758.8","417.2","./1_3_Stimuli/S_ambi40.png","朋友","Word","自我","Mismatch","j","true","Formal",""
"","","","","","psychophysics","409","1211971","0.0-9.0-0.2-0.294","1066","","j","","","","","","","","","","","","","key","j","16.620871212121777","758.8","417.2","./1_3_Stimuli/S_ambi40.png","他人","Word","自我","Mismatch","j","true","Formal",""
"","","","","","psychophysics","410","1213726","0.0-9.0-0.2-0.295","594","","f","","","","","","","","","","","","","key","f","16.620990384616352","758.8","417.2","./1_3_Stimuli/S_ambi40.png","自我","Word","自我","Match","f","true","Formal",""
