"success","timeout","failed_images","failed_audio","failed_video","trial_type","trial_index","time_elapsed","internal_node_id","rt","stimulus","response","value","item_width_mm","item_height_mm","item_width_px","px2mm","view_dist_mm","item_width_deg","px2deg","scale_factor","win_width_deg","win_height_deg","view_history","response_type","key_press","avg_frame_time","center_x","center_y","image","word","target","valence","matchness","correct_response","correct","exp_condition","question_order","result"
"true","false","[]","[]","[]","preload","0","6","0.0-0.0","","","","","","","","","","","","","","","","","","","","","","","","","","","","","",""
"","","","","","html-keyboard-response","1","1311","0.0-1.0","1305","
     <p>您好，欢迎参加本次实验。</p>
     <p>为充分保障您的权利，请确保您已经知晓并同意《参与实验同意书》以及《数据公开知情同意书》。</p>
     <p>如果您未见过上述内容，请咨询实验员。</p>
     <p>如果您选择继续实验，则表示您已经清楚两份知情同意书的内容并同意。</p>
     <p> <div style = ""color: green""><按任意键至下页></div> </p>
     "," ","","","","","","","","","","","","","","","","","","","","","","","","","","",""
"","","","","","html-keyboard-response","2","1687","0.0-2.0-0.0","376","
      <p>本实验首先需要您填写一些基本个人信息。</p>
      <p> <div style = ""color: green""><按任意键至下页></div></p>
      "," ","","","","","","","","","","","","","","","","","","","","","","","","","","",""
"","","","","","call-function","3","1688","0.0-2.0-1.0","","","","","","","","","","","","","","","","","","","","","","","","","","","","","",""
"","","","","","survey-html-form","4","6496","0.0-2.0-2.0","4807","","{""Q0"":""1037""}","","","","","","","","","","","","","","","","","","","","","","","","","","",""
"","","","","","html-button-response","5","7383","0.0-2.0-3.0","887","<p style = 'color : white'>您的性别</p>","1","","","","","","","","","","","","","","","","","","","","","","","","","","",""
"","","","","","survey-html-form","6","13722","0.0-2.0-4.0","6338","","{""Q0"":""2003""}","","","","","","","","","","","","","","","","","","","","","","","","","","",""
"","","","","","survey-html-form","7","20031","0.0-2.0-5.0","6308","","{""Q0"":""5""}","","","","","","","","","","","","","","","","","","","","","","","","","","",""
"","","","","","virtual-chinrest","8","260485","0.0-3.0","240451","","","","85.6","53.98","478.5902563599366","5.588009138504287","511.2","9.571805127198733","49.99999999999999","0.7480302727491313","25.600000000000005","11.540000000000001","","","","","","","","","","","","","","","",""
"true","","","","","fullscreen","9","271493","0.0-4.0","","","","","","","","","","","","","","","","","","","","","","","","","","","","","",""
"","","","","","instructions","10","395519","0.0-5.0","124025","","","","","","","","","","","","","","[{""page_index"":0,""viewing_time"":8709},{""page_index"":1,""viewing_time"":36062},{""page_index"":2,""viewing_time"":49525},{""page_index"":1,""viewing_time"":23398},{""page_index"":2,""viewing_time"":4566},{""page_index"":3,""viewing_time"":1764}]","","","","","","","","","","","","","","",""
"","","","","","html-keyboard-response","11","399174","0.0-6.0","null","<count-down title=""""></count-down>","null","","","","","","","","","","","","","","","","","","","","","","","","","","",""
"","","","","","psychophysics","12","401888","0.0-7.0-0.0-0.0","null","","null","","","","","","","","","","","","","key","null","16.667639751552738","640","356","./1_3_Stimuli/S_ambi40.png","朋友","Image","朋友","Match","j","false","Practice","",""
"","","","","","html-keyboard-response","13","402201","0.0-7.0-0.0-1.0","null","<span class='add_' style='color:yellow; font-size: 70px;'> 太慢! </span>","null","","","","","","","","","","","","","","","","","","","","","","","","","feedback","",""
"","","","","","psychophysics","14","404905","0.0-7.0-0.0-0.1","null","","null","","","","","","","","","","","","","key","null","16.667521739130194","640","356","./1_3_Stimuli/C_ambi40.png","他人","Word","他人","Match","j","false","Practice","",""
"","","","","","html-keyboard-response","15","405218","0.0-7.0-0.0-1.1","null","<span class='add_' style='color:yellow; font-size: 70px;'> 太慢! </span>","null","","","","","","","","","","","","","","","","","","","","","","","","","feedback","",""
"","","","","","psychophysics","16","407475","0.0-7.0-0.0-0.2","1100","","j","","","","","","","","","","","","","key","j","16.66734328358208","640","356","./1_3_Stimuli/T_ambi40.png","朋友","Word","自我","Mismatch","f","false","Practice","",""
"","","","","","html-keyboard-response","17","407787","0.0-7.0-0.0-1.2","null","<span style='color:red; font-size: 70px;'>错误! </span>","null","","","","","","","","","","","","","","","","","","","","","","","","","feedback","",""
"","","","","","psychophysics","18","409878","0.0-7.0-0.0-0.3","939","","j","","","","","","","","","","","","","key","j","16.667040322580554","640","356","./1_3_Stimuli/S_ambi40.png","自我","Image","朋友","Mismatch","f","false","Practice","",""
"","","","","","html-keyboard-response","19","410187","0.0-7.0-0.0-1.3","null","<span style='color:red; font-size: 70px;'>错误! </span>","null","","","","","","","","","","","","","","","","","","","","","","","","","feedback","",""
"","","","","","psychophysics","20","412498","0.0-7.0-0.0-0.4","1159","","j","","","","","","","","","","","","","key","j","16.667189781021676","640","356","./1_3_Stimuli/S_ambi40.png","朋友","Word","朋友","Match","j","true","Practice","",""
"","","","","","html-keyboard-response","21","412802","0.0-7.0-0.0-1.4","null","<span style='color:GreenYellow; font-size: 70px;'>正确! </span>","null","","","","","","","","","","","","","","","","","","","","","","","","","feedback","",""
"","","","","","psychophysics","22","415507","0.0-7.0-0.0-0.5","null","","null","","","","","","","","","","","","","key","null","16.667099378881932","640","356","./1_3_Stimuli/T_ambi40.png","他人","Word","自我","Mismatch","f","false","Practice","",""
"","","","","","html-keyboard-response","23","415820","0.0-7.0-0.0-1.5","null","<span class='add_' style='color:yellow; font-size: 70px;'> 太慢! </span>","null","","","","","","","","","","","","","","","","","","","","","","","","","feedback","",""
"","","","","","psychophysics","24","417991","0.0-7.0-0.0-0.6","1020","","j","","","","","","","","","","","","","key","j","16.667209302325634","640","356","./1_3_Stimuli/C_ambi40.png","自我","Image","他人","Mismatch","f","false","Practice","",""
"","","","","","html-keyboard-response","25","418296","0.0-7.0-0.0-1.6","null","<span style='color:red; font-size: 70px;'>错误! </span>","null","","","","","","","","","","","","","","","","","","","","","","","","","feedback","",""
"","","","","","psychophysics","26","420999","0.0-7.0-0.0-0.7","null","","null","","","","","","","","","","","","","key","null","16.667248447204763","640","356","./1_3_Stimuli/T_ambi40.png","自我","Image","自我","Match","j","false","Practice","",""
"","","","","","html-keyboard-response","27","421308","0.0-7.0-0.0-1.7","null","<span class='add_' style='color:yellow; font-size: 70px;'> 太慢! </span>","null","","","","","","","","","","","","","","","","","","","","","","","","","feedback","",""
"","","","","","psychophysics","28","423538","0.0-7.0-0.0-0.8","1080","","f","","","","","","","","","","","","","key","f","16.666932330826995","640","356","./1_3_Stimuli/S_ambi40.png","他人","Word","朋友","Mismatch","f","true","Practice","",""
"","","","","","html-keyboard-response","29","423843","0.0-7.0-0.0-1.8","null","<span style='color:GreenYellow; font-size: 70px;'>正确! </span>","null","","","","","","","","","","","","","","","","","","","","","","","","","feedback","",""
"","","","","","psychophysics","30","426133","0.0-7.0-0.0-0.9","1139","","f","","","","","","","","","","","","","key","f","16.66758088235271","640","356","./1_3_Stimuli/C_ambi40.png","朋友","Word","他人","Mismatch","f","true","Practice","",""
"","","","","","html-keyboard-response","31","426438","0.0-7.0-0.0-1.9","null","<span style='color:GreenYellow; font-size: 70px;'>正确! </span>","null","","","","","","","","","","","","","","","","","","","","","","","","","feedback","",""
"","","","","","psychophysics","32","428566","0.0-7.0-0.0-0.10","976","","j","","","","","","","","","","","","","key","j","16.6666349206348","640","356","./1_3_Stimuli/S_ambi40.png","朋友","Word","朋友","Match","j","true","Practice","",""
"","","","","","html-keyboard-response","33","428874","0.0-7.0-0.0-1.10","null","<span style='color:GreenYellow; font-size: 70px;'>正确! </span>","null","","","","","","","","","","","","","","","","","","","","","","","","","feedback","",""
"","","","","","psychophysics","34","430708","0.0-7.0-0.0-0.11","682","","f","","","","","","","","","","","","","key","f","16.667394495412704","640","356","./1_3_Stimuli/T_ambi40.png","朋友","Image","自我","Mismatch","f","true","Practice","",""
"","","","","","html-keyboard-response","35","431021","0.0-7.0-0.0-1.11","null","<span style='color:GreenYellow; font-size: 70px;'>正确! </span>","null","","","","","","","","","","","","","","","","","","","","","","","","","feedback","",""
"","","","","","psychophysics","36","433384","0.0-7.0-0.0-0.12","1212","","j","","","","","","","","","","","","","key","j","16.667221428571168","640","356","./1_3_Stimuli/C_ambi40.png","他人","Image","他人","Match","j","true","Practice","",""
"","","","","","html-keyboard-response","37","433691","0.0-7.0-0.0-1.12","null","<span style='color:GreenYellow; font-size: 70px;'>正确! </span>","null","","","","","","","","","","","","","","","","","","","","","","","","","feedback","",""
"","","","","","psychophysics","38","436165","0.0-7.0-0.0-0.13","1323","","f","","","","","","","","","","","","","key","f","16.66696598639452","640","356","./1_3_Stimuli/T_ambi40.png","自我","Word","自我","Match","j","false","Practice","",""
"","","","","","html-keyboard-response","39","436475","0.0-7.0-0.0-1.13","null","<span style='color:red; font-size: 70px;'>错误! </span>","null","","","","","","","","","","","","","","","","","","","","","","","","","feedback","",""
"","","","","","psychophysics","40","438575","0.0-7.0-0.0-0.14","949","","f","","","","","","","","","","","","","key","f","16.667024000000207","640","356","./1_3_Stimuli/C_ambi40.png","他人","Image","他人","Match","j","false","Practice","",""
"","","","","","html-keyboard-response","41","438880","0.0-7.0-0.0-1.14","null","<span style='color:red; font-size: 70px;'>错误! </span>","null","","","","","","","","","","","","","","","","","","","","","","","","","feedback","",""
"","","","","","psychophysics","42","441543","0.0-7.0-0.0-0.15","1511","","f","","","","","","","","","","","","","key","f","16.66242138364787","640","356","./1_3_Stimuli/T_ambi40.png","他人","Image","自我","Mismatch","f","true","Practice","",""
"","","","","","html-keyboard-response","43","441851","0.0-7.0-0.0-1.15","null","<span class='add_' style='color:yellow; font-size: 70px;'> 太慢! </span>","null","","","","","","","","","","","","","","","","","","","","","","","","","feedback","",""
"","","","","","psychophysics","44","443824","0.0-7.0-0.0-0.16","822","","j","","","","","","","","","","","","","key","j","16.667239316239154","640","356","./1_3_Stimuli/C_ambi40.png","他人","Word","他人","Match","j","true","Practice","",""
"","","","","","html-keyboard-response","45","444139","0.0-7.0-0.0-1.16","null","<span style='color:GreenYellow; font-size: 70px;'>正确! </span>","null","","","","","","","","","","","","","","","","","","","","","","","","","feedback","",""
"","","","","","psychophysics","46","445944","0.0-7.0-0.0-0.17","654","","f","","","","","","","","","","","","","key","f","16.666794392523446","640","356","./1_3_Stimuli/C_ambi40.png","自我","Word","他人","Mismatch","f","true","Practice","",""
"","","","","","html-keyboard-response","47","446255","0.0-7.0-0.0-1.17","null","<span style='color:GreenYellow; font-size: 70px;'>正确! </span>","null","","","","","","","","","","","","","","","","","","","","","","","","","feedback","",""
"","","","","","psychophysics","48","448067","0.0-7.0-0.0-0.18","659","","j","","","","","","","","","","","","","key","j","16.666962616822342","640","356","./1_3_Stimuli/T_ambi40.png","自我","Word","自我","Match","j","true","Practice","",""
"","","","","","html-keyboard-response","49","448370","0.0-7.0-0.0-1.18","null","<span style='color:GreenYellow; font-size: 70px;'>正确! </span>","null","","","","","","","","","","","","","","","","","","","","","","","","","feedback","",""
"","","","","","psychophysics","50","450699","0.0-7.0-0.0-0.19","1178","","f","","","","","","","","","","","","","key","f","16.66700724637696","640","356","./1_3_Stimuli/S_ambi40.png","朋友","Image","朋友","Match","j","false","Practice","",""
"","","","","","html-keyboard-response","51","451014","0.0-7.0-0.0-1.19","null","<span style='color:red; font-size: 70px;'>错误! </span>","null","","","","","","","","","","","","","","","","","","","","","","","","","feedback","",""
"","","","","","psychophysics","52","453205","0.0-7.0-0.0-0.20","1037","","f","","","","","","","","","","","","","key","f","16.667442748091585","640","356","./1_3_Stimuli/S_ambi40.png","自我","Word","朋友","Mismatch","f","true","Practice","",""
"","","","","","html-keyboard-response","53","453520","0.0-7.0-0.0-1.20","null","<span style='color:GreenYellow; font-size: 70px;'>正确! </span>","null","","","","","","","","","","","","","","","","","","","","","","","","","feedback","",""
"","","","","","psychophysics","54","455658","0.0-7.0-0.0-0.21","987","","f","","","","","","","","","","","","","key","f","16.667125984252245","640","356","./1_3_Stimuli/C_ambi40.png","朋友","Image","他人","Mismatch","f","true","Practice","",""
"","","","","","html-keyboard-response","55","455967","0.0-7.0-0.0-1.21","null","<span style='color:GreenYellow; font-size: 70px;'>正确! </span>","null","","","","","","","","","","","","","","","","","","","","","","","","","feedback","",""
"","","","","","psychophysics","56","458671","0.0-7.0-0.0-0.22","null","","null","","","","","","","","","","","","","key","null","16.580751552794965","640","356","./1_3_Stimuli/S_ambi40.png","他人","Image","朋友","Mismatch","f","false","Practice","",""
"","","","","","html-keyboard-response","57","458980","0.0-7.0-0.0-1.22","null","<span class='add_' style='color:yellow; font-size: 70px;'> 太慢! </span>","null","","","","","","","","","","","","","","","","","","","","","","","","","feedback","",""
"","","","","","psychophysics","58","461686","0.0-7.0-0.0-0.23","null","","null","","","","","","","","","","","","","key","null","16.66661490683201","640","356","./1_3_Stimuli/T_ambi40.png","自我","Image","自我","Match","j","false","Practice","",""
"","","","","","html-keyboard-response","59","461995","0.0-7.0-0.0-1.23","null","<span class='add_' style='color:yellow; font-size: 70px;'> 太慢! </span>","null","","","","","","","","","","","","","","","","","","","","","","","","","feedback","",""
"","","","","","html-keyboard-response","60","474672","0.0-7.0-1.0-0.0","12674","<style>.context{color:white; font-size: 35px; line-height:40px}</style>                        <div><p class='context'>您正确回答了50% 的试次。</p><p class='context'>您的平均反应时为993毫秒。</p><p> <div style = 'color: green'><按空格键至下页></div></p>"," ","","","","","","","","","","","","","","","","","","","","","","","","","","",""
"","","","","","instructions","61","488771","0.0-7.0-1.0-1.0","14097","","","","","","","","","","","","","","[{""page_index"":0,""viewing_time"":4723},{""page_index"":1,""viewing_time"":6987},{""page_index"":2,""viewing_time"":2386}]","","","","","","","","","","","","","","",""
"","","","","","psychophysics","62","491477","0.0-7.1-0.1-0.24","null","","null","","","","","","","","","","","","","key","null","16.667236024844648","640","356","./1_3_Stimuli/C_ambi40.png","他人","Word","他人","Match","j","false","Practice","",""
"","","","","","html-keyboard-response","63","491787","0.0-7.1-0.1-1.24","null","<span class='add_' style='color:yellow; font-size: 70px;'> 太慢! </span>","null","","","","","","","","","","","","","","","","","","","","","","","","","feedback","",""
"","","","","","psychophysics","64","494490","0.0-7.1-0.1-0.25","null","","null","","","","","","","","","","","","","key","null","16.66726708074566","640","356","./1_3_Stimuli/C_ambi40.png","自我","Image","他人","Mismatch","f","false","Practice","",""
"","","","","","html-keyboard-response","65","494803","0.0-7.1-0.1-1.25","null","<span class='add_' style='color:yellow; font-size: 70px;'> 太慢! </span>","null","","","","","","","","","","","","","","","","","","","","","","","","","feedback","",""
"","","","","","psychophysics","66","496973","0.0-7.1-0.1-0.26","1018","","j","","","","","","","","","","","","","key","j","16.66696124031008","640","356","./1_3_Stimuli/C_ambi40.png","他人","Image","他人","Match","j","true","Practice","",""
"","","","","","html-keyboard-response","67","497290","0.0-7.1-0.1-1.26","null","<span style='color:GreenYellow; font-size: 70px;'>正确! </span>","null","","","","","","","","","","","","","","","","","","","","","","","","","feedback","",""
"","","","","","psychophysics","68","499024","0.0-7.1-0.1-0.27","583","","j","","","","","","","","","","","","","key","j","16.667155339805866","640","356","./1_3_Stimuli/C_ambi40.png","他人","Image","他人","Match","j","true","Practice","",""
"","","","","","html-keyboard-response","69","499334","0.0-7.1-0.1-1.27","null","<span style='color:GreenYellow; font-size: 70px;'>正确! </span>","null","","","","","","","","","","","","","","","","","","","","","","","","","feedback","",""
"","","","","","psychophysics","70","500978","0.0-7.1-0.1-0.28","489","","j","","","","","","","","","","","","","key","j","16.534711340206467","640","356","./1_3_Stimuli/S_ambi40.png","他人","Word","朋友","Mismatch","f","false","Practice","",""
"","","","","","html-keyboard-response","71","501283","0.0-7.1-0.1-1.28","null","<span style='color:red; font-size: 70px;'>错误! </span>","null","","","","","","","","","","","","","","","","","","","","","","","","","feedback","",""
"","","","","","psychophysics","72","503039","0.0-7.1-0.1-0.29","605","","j","","","","","","","","","","","","","key","j","16.667761904761814","640","356","./1_3_Stimuli/C_ambi40.png","他人","Word","他人","Match","j","true","Practice","",""
"","","","","","html-keyboard-response","73","503342","0.0-7.1-0.1-1.29","null","<span style='color:GreenYellow; font-size: 70px;'>正确! </span>","null","","","","","","","","","","","","","","","","","","","","","","","","","feedback","",""
"","","","","","psychophysics","74","505136","0.0-7.1-0.1-0.30","643","","j","","","","","","","","","","","","","key","j","16.667113207546965","640","356","./1_3_Stimuli/T_ambi40.png","自我","Image","自我","Match","j","true","Practice","",""
"","","","","","html-keyboard-response","75","505443","0.0-7.1-0.1-1.30","null","<span style='color:GreenYellow; font-size: 70px;'>正确! </span>","null","","","","","","","","","","","","","","","","","","","","","","","","","feedback","",""
"","","","","","psychophysics","76","507502","0.0-7.1-0.1-0.31","906","","f","","","","","","","","","","","","","key","f","16.666836065573705","640","356","./1_3_Stimuli/S_ambi40.png","自我","Image","朋友","Mismatch","f","true","Practice","",""
"","","","","","html-keyboard-response","77","507812","0.0-7.1-0.1-1.31","null","<span style='color:GreenYellow; font-size: 70px;'>正确! </span>","null","","","","","","","","","","","","","","","","","","","","","","","","","feedback","",""
"","","","","","psychophysics","78","509810","0.0-7.1-0.1-0.32","845","","j","","","","","","","","","","","","","key","j","16.666932773109167","640","356","./1_3_Stimuli/S_ambi40.png","朋友","Word","朋友","Match","j","true","Practice","",""
"","","","","","html-keyboard-response","79","510120","0.0-7.1-0.1-1.32","null","<span style='color:GreenYellow; font-size: 70px;'>正确! </span>","null","","","","","","","","","","","","","","","","","","","","","","","","","feedback","",""
"","","","","","psychophysics","80","512555","0.0-7.1-0.1-0.33","1285","","j","","","","","","","","","","","","","key","j","16.666855172413513","640","356","./1_3_Stimuli/T_ambi40.png","他人","Image","自我","Mismatch","f","false","Practice","",""
"","","","","","html-keyboard-response","81","512864","0.0-7.1-0.1-1.33","null","<span style='color:red; font-size: 70px;'>错误! </span>","null","","","","","","","","","","","","","","","","","","","","","","","","","feedback","",""
"","","","","","psychophysics","82","514672","0.0-7.1-0.1-0.34","656","","j","","","","","","","","","","","","","key","j","16.66720370370388","640","356","./1_3_Stimuli/T_ambi40.png","自我","Word","自我","Match","j","true","Practice","",""
"","","","","","html-keyboard-response","83","514978","0.0-7.1-0.1-1.34","null","<span style='color:GreenYellow; font-size: 70px;'>正确! </span>","null","","","","","","","","","","","","","","","","","","","","","","","","","feedback","",""
"","","","","","psychophysics","84","516924","0.0-7.1-0.1-0.35","795","","f","","","","","","","","","","","","","key","f","16.667189655172166","640","356","./1_3_Stimuli/S_ambi40.png","自我","Word","朋友","Mismatch","f","true","Practice","",""
"","","","","","html-keyboard-response","85","517233","0.0-7.1-0.1-1.35","null","<span style='color:GreenYellow; font-size: 70px;'>正确! </span>","null","","","","","","","","","","","","","","","","","","","","","","","","","feedback","",""
"","","","","","psychophysics","86","519312","0.0-7.1-0.1-0.36","925","","j","","","","","","","","","","","","","key","j","16.667314516128823","640","356","./1_3_Stimuli/S_ambi40.png","朋友","Word","朋友","Match","j","true","Practice","",""
"","","","","","html-keyboard-response","87","519614","0.0-7.1-0.1-1.36","null","<span style='color:GreenYellow; font-size: 70px;'>正确! </span>","null","","","","","","","","","","","","","","","","","","","","","","","","","feedback","",""
"","","","","","psychophysics","88","521464","0.0-7.1-0.1-0.37","698","","f","","","","","","","","","","","","","key","f","16.66794545454534","640","356","./1_3_Stimuli/T_ambi40.png","朋友","Image","自我","Mismatch","f","true","Practice","",""
"","","","","","html-keyboard-response","89","521773","0.0-7.1-0.1-1.37","null","<span style='color:GreenYellow; font-size: 70px;'>正确! </span>","null","","","","","","","","","","","","","","","","","","","","","","","","","feedback","",""
"","","","","","psychophysics","90","523571","0.0-7.1-0.1-0.38","647","","j","","","","","","","","","","","","","key","j","16.666785046729157","640","356","./1_3_Stimuli/C_ambi40.png","自我","Word","他人","Mismatch","f","false","Practice","",""
"","","","","","html-keyboard-response","91","523876","0.0-7.1-0.1-1.38","null","<span style='color:red; font-size: 70px;'>错误! </span>","null","","","","","","","","","","","","","","","","","","","","","","","","","feedback","",""
"","","","","","psychophysics","92","525547","0.0-7.1-0.1-0.39","519","","j","","","","","","","","","","","","","key","j","16.66679797979716","640","356","./1_3_Stimuli/T_ambi40.png","自我","Image","自我","Match","j","true","Practice","",""
"","","","","","html-keyboard-response","93","525859","0.0-7.1-0.1-1.39","null","<span style='color:GreenYellow; font-size: 70px;'>正确! </span>","null","","","","","","","","","","","","","","","","","","","","","","","","","feedback","",""
"","","","","","psychophysics","94","527687","0.0-7.1-0.1-0.40","676","","f","","","","","","","","","","","","","key","f","16.667120370370363","640","356","./1_3_Stimuli/T_ambi40.png","他人","Word","自我","Mismatch","f","true","Practice","",""
"","","","","","html-keyboard-response","95","527997","0.0-7.1-0.1-1.40","null","<span style='color:GreenYellow; font-size: 70px;'>正确! </span>","null","","","","","","","","","","","","","","","","","","","","","","","","","feedback","",""
"","","","","","psychophysics","96","529989","0.0-7.1-0.1-0.41","840","","j","","","","","","","","","","","","","key","j","16.666689075630337","640","356","./1_3_Stimuli/T_ambi40.png","自我","Word","自我","Match","j","true","Practice","",""
"","","","","","html-keyboard-response","97","530299","0.0-7.1-0.1-1.41","null","<span style='color:GreenYellow; font-size: 70px;'>正确! </span>","null","","","","","","","","","","","","","","","","","","","","","","","","","feedback","",""
"","","","","","psychophysics","98","532317","0.0-7.1-0.1-0.42","866","","f","","","","","","","","","","","","","key","f","16.667525000000023","640","356","./1_3_Stimuli/C_ambi40.png","朋友","Image","他人","Mismatch","f","true","Practice","",""
"","","","","","html-keyboard-response","99","532619","0.0-7.1-0.1-1.42","null","<span style='color:GreenYellow; font-size: 70px;'>正确! </span>","null","","","","","","","","","","","","","","","","","","","","","","","","","feedback","",""
"","","","","","psychophysics","100","534545","0.0-7.1-0.1-0.43","773","","f","","","","","","","","","","","","","key","f","16.55070175438621","640","356","./1_3_Stimuli/C_ambi40.png","朋友","Word","他人","Mismatch","f","true","Practice","",""
"","","","","","html-keyboard-response","101","534849","0.0-7.1-0.1-1.43","null","<span style='color:GreenYellow; font-size: 70px;'>正确! </span>","null","","","","","","","","","","","","","","","","","","","","","","","","","feedback","",""
"","","","","","psychophysics","102","536473","0.0-7.1-0.1-0.44","472","","f","","","","","","","","","","","","","key","f","16.666618556701145","640","356","./1_3_Stimuli/S_ambi40.png","朋友","Image","朋友","Match","j","false","Practice","",""
"","","","","","html-keyboard-response","103","536788","0.0-7.1-0.1-1.44","null","<span style='color:red; font-size: 70px;'>错误! </span>","null","","","","","","","","","","","","","","","","","","","","","","","","","feedback","",""
"","","","","","psychophysics","104","538920","0.0-7.1-0.1-0.45","981","","f","","","","","","","","","","","","","key","f","16.666880952380968","640","356","./1_3_Stimuli/S_ambi40.png","他人","Image","朋友","Mismatch","f","true","Practice","",""
"","","","","","html-keyboard-response","105","539229","0.0-7.1-0.1-1.45","null","<span style='color:GreenYellow; font-size: 70px;'>正确! </span>","null","","","","","","","","","","","","","","","","","","","","","","","","","feedback","",""
"","","","","","psychophysics","106","541001","0.0-7.1-0.1-0.46","621","","j","","","","","","","","","","","","","key","j","16.66677142857086","640","356","./1_3_Stimuli/S_ambi40.png","朋友","Image","朋友","Match","j","true","Practice","",""
"","","","","","html-keyboard-response","107","541309","0.0-7.1-0.1-1.46","null","<span style='color:GreenYellow; font-size: 70px;'>正确! </span>","null","","","","","","","","","","","","","","","","","","","","","","","","","feedback","",""
"","","","","","psychophysics","108","543033","0.0-7.1-0.1-0.47","572","","f","","","","","","","","","","","","","key","f","16.666852941176188","640","356","./1_3_Stimuli/T_ambi40.png","朋友","Word","自我","Mismatch","f","true","Practice","",""
"","","","","","html-keyboard-response","109","543343","0.0-7.1-0.1-1.47","null","<span style='color:GreenYellow; font-size: 70px;'>正确! </span>","null","","","","","","","","","","","","","","","","","","","","","","","","","feedback","",""
"","","","","","html-keyboard-response","110","546814","0.0-7.1-1.1-0.1","3469","<style>.context{color:white; font-size: 35px; line-height:40px}</style>                        <div><p class='context'>您正确回答了75% 的试次。</p><p class='context'>您的平均反应时为751毫秒。</p><p> <div style = 'color: green'><按空格键至下页></div></p>"," ","","","","","","","","","","","","","","","","","","","","","","","","","","",""
"","","","","","instructions","111","555402","0.0-7.1-1.1-1.1","8585","","","","","","","","","","","","","","[{""page_index"":0,""viewing_time"":2902},{""page_index"":1,""viewing_time"":4192},{""page_index"":2,""viewing_time"":1491}]","","","","","","","","","","","","","","",""
"","","","","","psychophysics","112","557275","0.0-7.2-0.2-0.48","718","","f","","","","","","","","","","","","","key","f","16.667133928571793","640","356","./1_3_Stimuli/T_ambi40.png","他人","Image","自我","Mismatch","f","true","Practice","",""
"","","","","","html-keyboard-response","113","557582","0.0-7.2-0.2-1.48","null","<span style='color:GreenYellow; font-size: 70px;'>正确! </span>","null","","","","","","","","","","","","","","","","","","","","","","","","","feedback","",""
"","","","","","psychophysics","114","559477","0.0-7.2-0.2-0.49","741","","j","","","","","","","","","","","","","key","j","16.667398230089244","640","356","./1_3_Stimuli/C_ambi40.png","朋友","Word","他人","Mismatch","f","false","Practice","",""
"","","","","","html-keyboard-response","115","559788","0.0-7.2-0.2-1.49","null","<span style='color:red; font-size: 70px;'>错误! </span>","null","","","","","","","","","","","","","","","","","","","","","","","","","feedback","",""
"","","","","","psychophysics","116","561703","0.0-7.2-0.2-0.50","763","","j","","","","","","","","","","","","","key","j","16.666849557522568","640","356","./1_3_Stimuli/T_ambi40.png","自我","Image","自我","Match","j","true","Practice","",""
"","","","","","html-keyboard-response","117","562015","0.0-7.2-0.2-1.50","null","<span style='color:GreenYellow; font-size: 70px;'>正确! </span>","null","","","","","","","","","","","","","","","","","","","","","","","","","feedback","",""
"","","","","","psychophysics","118","564073","0.0-7.2-0.2-0.51","907","","f","","","","","","","","","","","","","key","f","16.667357723576934","640","356","./1_3_Stimuli/S_ambi40.png","朋友","Word","朋友","Match","j","false","Practice","",""
"","","","","","html-keyboard-response","119","564382","0.0-7.2-0.2-1.51","null","<span style='color:red; font-size: 70px;'>错误! </span>","null","","","","","","","","","","","","","","","","","","","","","","","","","feedback","",""
"","","","","","psychophysics","120","566022","0.0-7.2-0.2-0.52","468","","j","","","","","","","","","","","","","key","j","16.667402061855796","640","356","./1_3_Stimuli/S_ambi40.png","朋友","Word","朋友","Match","j","true","Practice","",""
"","","","","","html-keyboard-response","121","566325","0.0-7.2-0.2-1.52","null","<span style='color:GreenYellow; font-size: 70px;'>正确! </span>","null","","","","","","","","","","","","","","","","","","","","","","","","","feedback","",""
"","","","","","psychophysics","122","567966","0.0-7.2-0.2-0.53","490","","f","","","","","","","","","","","","","key","f","16.66715463917563","640","356","./1_3_Stimuli/S_ambi40.png","他人","Word","朋友","Mismatch","f","true","Practice","",""
"","","","","","html-keyboard-response","123","568274","0.0-7.2-0.2-1.53","null","<span style='color:GreenYellow; font-size: 70px;'>正确! </span>","null","","","","","","","","","","","","","","","","","","","","","","","","","feedback","",""
"","","","","","psychophysics","124","570265","0.0-7.2-0.2-0.54","839","","f","","","","","","","","","","","","","key","f","16.66706779660949","640","356","./1_3_Stimuli/C_ambi40.png","他人","Image","他人","Match","j","false","Practice","",""
"","","","","","html-keyboard-response","125","570570","0.0-7.2-0.2-1.54","null","<span style='color:red; font-size: 70px;'>错误! </span>","null","","","","","","","","","","","","","","","","","","","","","","","","","feedback","",""
"","","","","","psychophysics","126","572691","0.0-7.2-0.2-0.55","970","","j","","","","","","","","","","","","","key","j","16.66707086614168","640","356","./1_3_Stimuli/T_ambi40.png","朋友","Image","自我","Mismatch","f","false","Practice","",""
"","","","","","html-keyboard-response","127","573000","0.0-7.2-0.2-1.55","null","<span style='color:red; font-size: 70px;'>错误! </span>","null","","","","","","","","","","","","","","","","","","","","","","","","","feedback","",""
"","","","","","psychophysics","128","575170","0.0-7.2-0.2-0.56","1018","","f","","","","","","","","","","","","","key","f","16.66713953488362","640","356","./1_3_Stimuli/S_ambi40.png","朋友","Image","朋友","Match","j","false","Practice","",""
"","","","","","html-keyboard-response","129","575482","0.0-7.2-0.2-1.56","null","<span style='color:red; font-size: 70px;'>错误! </span>","null","","","","","","","","","","","","","","","","","","","","","","","","","feedback","",""
"","","","","","psychophysics","130","577169","0.0-7.2-0.2-0.57","534","","j","","","","","","","","","","","","","key","j","16.66716000000015","640","356","./1_3_Stimuli/T_ambi40.png","自我","Image","自我","Match","j","true","Practice","",""
"","","","","","html-keyboard-response","131","577485","0.0-7.2-0.2-1.57","null","<span style='color:GreenYellow; font-size: 70px;'>正确! </span>","null","","","","","","","","","","","","","","","","","","","","","","","","","feedback","",""
"","","","","","psychophysics","132","579145","0.0-7.2-0.2-0.58","508","","f","","","","","","","","","","","","","key","f","16.666787878787755","640","356","./1_3_Stimuli/C_ambi40.png","朋友","Image","他人","Mismatch","f","true","Practice","",""
"","","","","","html-keyboard-response","133","579458","0.0-7.2-0.2-1.58","null","<span style='color:GreenYellow; font-size: 70px;'>正确! </span>","null","","","","","","","","","","","","","","","","","","","","","","","","","feedback","",""
"","","","","","psychophysics","134","581004","0.0-7.2-0.2-0.59","394","","j","","","","","","","","","","","","","key","j","16.66741758241743","640","356","./1_3_Stimuli/T_ambi40.png","自我","Word","自我","Match","j","true","Practice","",""
"","","","","","html-keyboard-response","135","581318","0.0-7.2-0.2-1.59","null","<span style='color:GreenYellow; font-size: 70px;'>正确! </span>","null","","","","","","","","","","","","","","","","","","","","","","","","","feedback","",""
"","","","","","psychophysics","136","583214","0.0-7.2-0.2-0.60","745","","j","","","","","","","","","","","","","key","j","16.667168141593045","640","356","./1_3_Stimuli/S_ambi40.png","朋友","Image","朋友","Match","j","true","Practice","",""
"","","","","","html-keyboard-response","137","583525","0.0-7.2-0.2-1.60","null","<span style='color:GreenYellow; font-size: 70px;'>正确! </span>","null","","","","","","","","","","","","","","","","","","","","","","","","","feedback","",""
"","","","","","psychophysics","138","585373","0.0-7.2-0.2-0.61","697","","f","","","","","","","","","","","","","key","f","16.666918181818488","640","356","./1_3_Stimuli/S_ambi40.png","自我","Image","朋友","Mismatch","f","true","Practice","",""
"","","","","","html-keyboard-response","139","585685","0.0-7.2-0.2-1.61","null","<span style='color:GreenYellow; font-size: 70px;'>正确! </span>","null","","","","","","","","","","","","","","","","","","","","","","","","","feedback","",""
"","","","","","psychophysics","140","587339","0.0-7.2-0.2-0.62","500","","j","","","","","","","","","","","","","key","j","16.667336734694818","640","356","./1_3_Stimuli/T_ambi40.png","自我","Word","自我","Match","j","true","Practice","",""
"","","","","","html-keyboard-response","141","587647","0.0-7.2-0.2-1.62","null","<span style='color:GreenYellow; font-size: 70px;'>正确! </span>","null","","","","","","","","","","","","","","","","","","","","","","","","","feedback","",""
"","","","","","psychophysics","142","589445","0.0-7.2-0.2-0.63","647","","f","","","","","","","","","","","","","key","f","16.667542056075","640","356","./1_3_Stimuli/S_ambi40.png","他人","Image","朋友","Mismatch","f","true","Practice","",""
"","","","","","html-keyboard-response","143","589748","0.0-7.2-0.2-1.63","null","<span style='color:GreenYellow; font-size: 70px;'>正确! </span>","null","","","","","","","","","","","","","","","","","","","","","","","","","feedback","",""
"","","","","","psychophysics","144","591635","0.0-7.2-0.2-0.64","736","","f","","","","","","","","","","","","","key","f","16.667633928571636","640","356","./1_3_Stimuli/C_ambi40.png","自我","Word","他人","Mismatch","f","true","Practice","",""
"","","","","","html-keyboard-response","145","591939","0.0-7.2-0.2-1.64","null","<span style='color:GreenYellow; font-size: 70px;'>正确! </span>","null","","","","","","","","","","","","","","","","","","","","","","","","","feedback","",""
"","","","","","psychophysics","146","593526","0.0-7.2-0.2-0.65","436","","f","","","","","","","","","","","","","key","f","16.667776595744147","640","356","./1_3_Stimuli/C_ambi40.png","他人","Word","他人","Match","j","false","Practice","",""
"","","","","","html-keyboard-response","147","593835","0.0-7.2-0.2-1.65","null","<span style='color:red; font-size: 70px;'>错误! </span>","null","","","","","","","","","","","","","","","","","","","","","","","","","feedback","",""
"","","","","","psychophysics","148","595753","0.0-7.2-0.2-0.66","767","","f","","","","","","","","","","","","","key","f","16.66741228070245","640","356","./1_3_Stimuli/C_ambi40.png","他人","Word","他人","Match","j","false","Practice","",""
"","","","","","html-keyboard-response","149","596057","0.0-7.2-0.2-1.66","null","<span style='color:red; font-size: 70px;'>错误! </span>","null","","","","","","","","","","","","","","","","","","","","","","","","","feedback","",""
"","","","","","psychophysics","150","597836","0.0-7.2-0.2-0.67","627","","f","","","","","","","","","","","","","key","f","16.66665714285669","640","356","./1_3_Stimuli/S_ambi40.png","自我","Word","朋友","Mismatch","f","true","Practice","",""
"","","","","","html-keyboard-response","151","598147","0.0-7.2-0.2-1.67","null","<span style='color:GreenYellow; font-size: 70px;'>正确! </span>","null","","","","","","","","","","","","","","","","","","","","","","","","","feedback","",""
"","","","","","psychophysics","152","600178","0.0-7.2-0.2-0.68","879","","j","","","","","","","","","","","","","key","j","16.667809917355797","640","356","./1_3_Stimuli/C_ambi40.png","他人","Image","他人","Match","j","true","Practice","",""
"","","","","","html-keyboard-response","153","600491","0.0-7.2-0.2-1.68","null","<span style='color:GreenYellow; font-size: 70px;'>正确! </span>","null","","","","","","","","","","","","","","","","","","","","","","","","","feedback","",""
"","","","","","psychophysics","154","602449","0.0-7.2-0.2-0.69","807","","f","","","","","","","","","","","","","key","f","16.667017241379906","640","356","./1_3_Stimuli/C_ambi40.png","自我","Image","他人","Mismatch","f","true","Practice","",""
"","","","","","html-keyboard-response","155","602765","0.0-7.2-0.2-1.69","null","<span style='color:GreenYellow; font-size: 70px;'>正确! </span>","null","","","","","","","","","","","","","","","","","","","","","","","","","feedback","",""
"","","","","","psychophysics","156","604703","0.0-7.2-0.2-0.70","786","","f","","","","","","","","","","","","","key","f","16.667347826086917","640","356","./1_3_Stimuli/T_ambi40.png","朋友","Word","自我","Mismatch","f","true","Practice","",""
"","","","","","html-keyboard-response","157","605016","0.0-7.2-0.2-1.70","null","<span style='color:GreenYellow; font-size: 70px;'>正确! </span>","null","","","","","","","","","","","","","","","","","","","","","","","","","feedback","",""
"","","","","","psychophysics","158","607122","0.0-7.2-0.2-0.71","954","","f","","","","","","","","","","","","","key","f","16.66716000000015","640","356","./1_3_Stimuli/T_ambi40.png","他人","Word","自我","Mismatch","f","true","Practice","",""
"","","","","","html-keyboard-response","159","607435","0.0-7.2-0.2-1.71","null","<span style='color:GreenYellow; font-size: 70px;'>正确! </span>","null","","","","","","","","","","","","","","","","","","","","","","","","","feedback","",""
"","","","","","html-keyboard-response","160","620311","0.0-7.2-1.2-0.2","12874","<style>.context{color:white; font-size: 35px; line-height:40px}</style>                        <div><p class='context'>您正确回答了71% 的试次。</p><p class='context'>您的平均反应时为662毫秒。</p><p> <div style = 'color: green'><按空格键至下页></div></p>"," ","","","","","","","","","","","","","","","","","","","","","","","","","","",""
"","","","","","instructions","161","626673","0.0-7.2-1.2-1.2","6360","","","","","","","","","","","","","","[{""page_index"":0,""viewing_time"":2416},{""page_index"":1,""viewing_time"":3071},{""page_index"":2,""viewing_time"":872}]","","","","","","","","","","","","","","",""
"","","","","","psychophysics","162","628566","0.0-7.3-0.3-0.72","738","","f","","","","","","","","","","","","","key","f","16.66686607142869","640","356","./1_3_Stimuli/T_ambi40.png","自我","Word","自我","Match","j","false","Practice","",""
"","","","","","html-keyboard-response","163","628875","0.0-7.3-0.3-1.72","null","<span style='color:red; font-size: 70px;'>错误! </span>","null","","","","","","","","","","","","","","","","","","","","","","","","","feedback","",""
"","","","","","psychophysics","164","630706","0.0-7.3-0.3-0.73","679","","f","","","","","","","","","","","","","key","f","16.666870370370344","640","356","./1_3_Stimuli/T_ambi40.png","他人","Word","自我","Mismatch","f","true","Practice","",""
"","","","","","html-keyboard-response","165","631017","0.0-7.3-0.3-1.73","null","<span style='color:GreenYellow; font-size: 70px;'>正确! </span>","null","","","","","","","","","","","","","","","","","","","","","","","","","feedback","",""
"","","","","","psychophysics","166","632883","0.0-7.3-0.3-0.74","713","","f","","","","","","","","","","","","","key","f","16.667441441441532","640","356","./1_3_Stimuli/S_ambi40.png","朋友","Word","朋友","Match","j","false","Practice","",""
"","","","","","html-keyboard-response","167","633196","0.0-7.3-0.3-1.74","null","<span style='color:red; font-size: 70px;'>错误! </span>","null","","","","","","","","","","","","","","","","","","","","","","","","","feedback","",""
"","","","","","psychophysics","168","634892","0.0-7.3-0.3-0.75","545","","j","","","","","","","","","","","","","key","j","16.666841584158657","640","356","./1_3_Stimuli/S_ambi40.png","朋友","Image","朋友","Match","j","true","Practice","",""
"","","","","","html-keyboard-response","169","635202","0.0-7.3-0.3-1.75","null","<span style='color:GreenYellow; font-size: 70px;'>正确! </span>","null","","","","","","","","","","","","","","","","","","","","","","","","","feedback","",""
"","","","","","psychophysics","170","636993","0.0-7.3-0.3-0.76","640","","f","","","","","","","","","","","","","key","f","16.668046728972232","640","356","./1_3_Stimuli/C_ambi40.png","朋友","Image","他人","Mismatch","f","true","Practice","",""
"","","","","","html-keyboard-response","171","637310","0.0-7.3-0.3-1.76","null","<span style='color:GreenYellow; font-size: 70px;'>正确! </span>","null","","","","","","","","","","","","","","","","","","","","","","","","","feedback","",""
"","","","","","psychophysics","172","639266","0.0-7.3-0.3-0.77","804","","f","","","","","","","","","","","","","key","f","16.66706896551728","640","356","./1_3_Stimuli/C_ambi40.png","他人","Image","他人","Match","j","false","Practice","",""
"","","","","","html-keyboard-response","173","639568","0.0-7.3-0.3-1.77","null","<span style='color:red; font-size: 70px;'>错误! </span>","null","","","","","","","","","","","","","","","","","","","","","","","","","feedback","",""
"","","","","","psychophysics","174","641448","0.0-7.3-0.3-0.78","730","","f","","","","","","","","","","","","","key","f","16.665660714285746","640","356","./1_3_Stimuli/C_ambi40.png","朋友","Word","他人","Mismatch","f","true","Practice","",""
"","","","","","html-keyboard-response","175","641761","0.0-7.3-0.3-1.78","null","<span style='color:GreenYellow; font-size: 70px;'>正确! </span>","null","","","","","","","","","","","","","","","","","","","","","","","","","feedback","",""
"","","","","","psychophysics","176","643691","0.0-7.3-0.3-0.79","778","","f","","","","","","","","","","","","","key","f","16.667304347826008","640","356","./1_3_Stimuli/S_ambi40.png","自我","Word","朋友","Mismatch","f","true","Practice","",""
"","","","","","html-keyboard-response","177","644001","0.0-7.3-0.3-1.79","null","<span style='color:GreenYellow; font-size: 70px;'>正确! </span>","null","","","","","","","","","","","","","","","","","","","","","","","","","feedback","",""
"","","","","","psychophysics","178","646162","0.0-7.3-0.3-0.80","1010","","j","","","","","","","","","","","","","key","j","16.66701550387539","640","356","./1_3_Stimuli/T_ambi40.png","朋友","Word","自我","Mismatch","f","false","Practice","",""
"","","","","","html-keyboard-response","179","646471","0.0-7.3-0.3-1.80","null","<span style='color:red; font-size: 70px;'>错误! </span>","null","","","","","","","","","","","","","","","","","","","","","","","","","feedback","",""
"","","","","","psychophysics","180","648182","0.0-7.3-0.3-0.81","560","","f","","","","","","","","","","","","","key","f","16.66722549019523","640","356","./1_3_Stimuli/S_ambi40.png","朋友","Image","朋友","Match","j","false","Practice","",""
"","","","","","html-keyboard-response","181","648495","0.0-7.3-0.3-1.81","null","<span style='color:red; font-size: 70px;'>错误! </span>","null","","","","","","","","","","","","","","","","","","","","","","","","","feedback","",""
"","","","","","psychophysics","182","650192","0.0-7.3-0.3-0.82","546","","j","","","","","","","","","","","","","key","j","16.667514851485095","640","356","./1_3_Stimuli/T_ambi40.png","自我","Word","自我","Match","j","true","Practice","",""
"","","","","","html-keyboard-response","183","650508","0.0-7.3-0.3-1.82","null","<span style='color:GreenYellow; font-size: 70px;'>正确! </span>","null","","","","","","","","","","","","","","","","","","","","","","","","","feedback","",""
"","","","","","psychophysics","184","652280","0.0-7.3-0.3-0.83","620","","f","","","","","","","","","","","","","key","f","16.66767619047536","640","356","./1_3_Stimuli/C_ambi40.png","自我","Word","他人","Mismatch","f","true","Practice","",""
"","","","","","html-keyboard-response","185","652589","0.0-7.3-0.3-1.83","null","<span style='color:GreenYellow; font-size: 70px;'>正确! </span>","null","","","","","","","","","","","","","","","","","","","","","","","","","feedback","",""
"","","","","","psychophysics","186","654415","0.0-7.3-0.3-0.84","674","","f","","","","","","","","","","","","","key","f","16.667394495412168","640","356","./1_3_Stimuli/C_ambi40.png","自我","Image","他人","Mismatch","f","true","Practice","",""
"","","","","","html-keyboard-response","187","654726","0.0-7.3-0.3-1.84","null","<span style='color:GreenYellow; font-size: 70px;'>正确! </span>","null","","","","","","","","","","","","","","","","","","","","","","","","","feedback","",""
"","","","","","psychophysics","188","656788","0.0-7.3-0.3-0.85","911","","j","","","","","","","","","","","","","key","j","16.66720491803259","640","356","./1_3_Stimuli/C_ambi40.png","他人","Word","他人","Match","j","true","Practice","",""
"","","","","","html-keyboard-response","189","657091","0.0-7.3-0.3-1.85","null","<span style='color:GreenYellow; font-size: 70px;'>正确! </span>","null","","","","","","","","","","","","","","","","","","","","","","","","","feedback","",""
"","","","","","psychophysics","190","659148","0.0-7.3-0.3-0.86","904","","f","","","","","","","","","","","","","key","f","16.666672131146846","640","356","./1_3_Stimuli/S_ambi40.png","他人","Image","朋友","Mismatch","f","true","Practice","",""
"","","","","","html-keyboard-response","191","659456","0.0-7.3-0.3-1.86","null","<span style='color:GreenYellow; font-size: 70px;'>正确! </span>","null","","","","","","","","","","","","","","","","","","","","","","","","","feedback","",""
"","","","","","psychophysics","192","661392","0.0-7.3-0.3-0.87","782","","j","","","","","","","","","","","","","key","j","16.554912280701835","640","356","./1_3_Stimuli/T_ambi40.png","他人","Image","自我","Mismatch","f","false","Practice","",""
"","","","","","html-keyboard-response","193","661696","0.0-7.3-0.3-1.87","null","<span style='color:red; font-size: 70px;'>错误! </span>","null","","","","","","","","","","","","","","","","","","","","","","","","","feedback","",""
"","","","","","psychophysics","194","663481","0.0-7.3-0.3-0.88","633","","j","","","","","","","","","","","","","key","j","16.666839622642037","640","356","./1_3_Stimuli/S_ambi40.png","自我","Image","朋友","Mismatch","f","false","Practice","",""
"","","","","","html-keyboard-response","195","663796","0.0-7.3-0.3-1.88","null","<span style='color:red; font-size: 70px;'>错误! </span>","null","","","","","","","","","","","","","","","","","","","","","","","","","feedback","",""
"","","","","","psychophysics","196","666056","0.0-7.3-0.3-0.89","1108","","j","","","","","","","","","","","","","key","j","16.667552238805463","640","356","./1_3_Stimuli/T_ambi40.png","自我","Image","自我","Match","j","true","Practice","",""
"","","","","","html-keyboard-response","197","666369","0.0-7.3-0.3-1.89","null","<span style='color:GreenYellow; font-size: 70px;'>正确! </span>","null","","","","","","","","","","","","","","","","","","","","","","","","","feedback","",""
"","","","","","psychophysics","198","668617","0.0-7.3-0.3-0.90","1096","","f","","","","","","","","","","","","","key","f","16.667283582089315","640","356","./1_3_Stimuli/S_ambi40.png","他人","Word","朋友","Mismatch","f","true","Practice","",""
"","","","","","html-keyboard-response","199","668922","0.0-7.3-0.3-1.90","null","<span style='color:GreenYellow; font-size: 70px;'>正确! </span>","null","","","","","","","","","","","","","","","","","","","","","","","","","feedback","",""
"","","","","","psychophysics","200","670652","0.0-7.3-0.3-0.91","578","","j","","","","","","","","","","","","","key","j","16.66755339805855","640","356","./1_3_Stimuli/T_ambi40.png","自我","Image","自我","Match","j","true","Practice","",""
"","","","","","html-keyboard-response","201","670960","0.0-7.3-0.3-1.91","null","<span style='color:GreenYellow; font-size: 70px;'>正确! </span>","null","","","","","","","","","","","","","","","","","","","","","","","","","feedback","",""
"","","","","","psychophysics","202","672597","0.0-7.3-0.3-0.92","487","","f","","","","","","","","","","","","","key","f","16.66700000000023","640","356","./1_3_Stimuli/C_ambi40.png","他人","Word","他人","Match","j","false","Practice","",""
"","","","","","html-keyboard-response","203","672910","0.0-7.3-0.3-1.92","null","<span style='color:red; font-size: 70px;'>错误! </span>","null","","","","","","","","","","","","","","","","","","","","","","","","","feedback","",""
"","","","","","psychophysics","204","674626","0.0-7.3-0.3-0.93","564","","j","","","","","","","","","","","","","key","j","16.667411764705893","640","356","./1_3_Stimuli/C_ambi40.png","他人","Image","他人","Match","j","true","Practice","",""
"","","","","","html-keyboard-response","205","674928","0.0-7.3-0.3-1.93","null","<span style='color:GreenYellow; font-size: 70px;'>正确! </span>","null","","","","","","","","","","","","","","","","","","","","","","","","","feedback","",""
"","","","","","psychophysics","206","676590","0.0-7.3-0.3-0.94","511","","f","","","","","","","","","","","","","key","f","16.667183673468998","640","356","./1_3_Stimuli/S_ambi40.png","朋友","Word","朋友","Match","j","false","Practice","",""
"","","","","","html-keyboard-response","207","676903","0.0-7.3-0.3-1.94","null","<span style='color:red; font-size: 70px;'>错误! </span>","null","","","","","","","","","","","","","","","","","","","","","","","","","feedback","",""
"","","","","","psychophysics","208","678735","0.0-7.3-0.3-0.95","680","","f","","","","","","","","","","","","","key","f","16.66644954128477","640","356","./1_3_Stimuli/T_ambi40.png","朋友","Image","自我","Mismatch","f","true","Practice","",""
"","","","","","html-keyboard-response","209","679050","0.0-7.3-0.3-1.95","null","<span style='color:GreenYellow; font-size: 70px;'>正确! </span>","null","","","","","","","","","","","","","","","","","","","","","","","","","feedback","",""
"","","","","","html-keyboard-response","210","683680","0.0-7.3-1.3-0.3","4628","<style>.context{color:white; font-size: 35px; line-height:40px}</style>                        <div><p class='context'>您正确回答了63% 的试次。</p><p class='context'>您的平均反应时为737毫秒。</p><p> <div style = 'color: green'><按空格键至下页></div></p>"," ","","","","","","","","","","","","","","","","","","","","","","","","","","",""
"","","","","","instructions","211","692809","0.0-7.3-1.3-1.3","9127","","","","","","","","","","","","","","[{""page_index"":0,""viewing_time"":3294},{""page_index"":1,""viewing_time"":4201},{""page_index"":2,""viewing_time"":1632}]","","","","","","","","","","","","","","",""
"","","","","","psychophysics","212","695200","0.0-7.4-0.4-0.96","1239","","f","","","","","","","","","","","","","key","f","16.667528169014012","640","356","./1_3_Stimuli/S_ambi40.png","他人","Word","朋友","Mismatch","f","true","Practice","",""
"","","","","","html-keyboard-response","213","695515","0.0-7.4-0.4-1.96","null","<span style='color:GreenYellow; font-size: 70px;'>正确! </span>","null","","","","","","","","","","","","","","","","","","","","","","","","","feedback","",""
"","","","","","psychophysics","214","697265","0.0-7.4-0.4-0.97","598","","j","","","","","","","","","","","","","key","j","16.667134615384455","640","356","./1_3_Stimuli/S_ambi40.png","朋友","Image","朋友","Match","j","true","Practice","",""
"","","","","","html-keyboard-response","215","697572","0.0-7.4-0.4-1.97","null","<span style='color:GreenYellow; font-size: 70px;'>正确! </span>","null","","","","","","","","","","","","","","","","","","","","","","","","","feedback","",""
"","","","","","psychophysics","216","699488","0.0-7.4-0.4-0.98","765","","f","","","","","","","","","","","","","key","f","16.667622807017004","640","356","./1_3_Stimuli/C_ambi40.png","他人","Word","他人","Match","j","false","Practice","",""
"","","","","","html-keyboard-response","217","699802","0.0-7.4-0.4-1.98","null","<span style='color:red; font-size: 70px;'>错误! </span>","null","","","","","","","","","","","","","","","","","","","","","","","","","feedback","",""
"","","","","","psychophysics","218","701398","0.0-7.4-0.4-0.99","445","","j","","","","","","","","","","","","","key","j","16.66776842105227","640","356","./1_3_Stimuli/C_ambi40.png","他人","Image","他人","Match","j","true","Practice","",""
"","","","","","html-keyboard-response","219","701701","0.0-7.4-0.4-1.99","null","<span style='color:GreenYellow; font-size: 70px;'>正确! </span>","null","","","","","","","","","","","","","","","","","","","","","","","","","feedback","",""
"","","","","","psychophysics","220","703374","0.0-7.4-0.4-0.100","521","","f","","","","","","","","","","","","","key","f","16.666454545453878","640","356","./1_3_Stimuli/C_ambi40.png","朋友","Image","他人","Mismatch","f","true","Practice","",""
"","","","","","html-keyboard-response","221","703682","0.0-7.4-0.4-1.100","null","<span style='color:GreenYellow; font-size: 70px;'>正确! </span>","null","","","","","","","","","","","","","","","","","","","","","","","","","feedback","",""
"","","","","","psychophysics","222","705365","0.0-7.4-0.4-0.101","531","","j","","","","","","","","","","","","","key","j","16.667669999999926","640","356","./1_3_Stimuli/T_ambi40.png","自我","Image","自我","Match","j","true","Practice","",""
"","","","","","html-keyboard-response","223","705672","0.0-7.4-0.4-1.101","null","<span style='color:GreenYellow; font-size: 70px;'>正确! </span>","null","","","","","","","","","","","","","","","","","","","","","","","","","feedback","",""
"","","","","","psychophysics","224","707330","0.0-7.4-0.4-0.102","505","","f","","","","","","","","","","","","","key","f","16.667393939394383","640","356","./1_3_Stimuli/C_ambi40.png","自我","Image","他人","Mismatch","f","true","Practice","",""
"","","","","","html-keyboard-response","225","707639","0.0-7.4-0.4-1.102","null","<span style='color:GreenYellow; font-size: 70px;'>正确! </span>","null","","","","","","","","","","","","","","","","","","","","","","","","","feedback","",""
"","","","","","psychophysics","226","709601","0.0-7.4-0.4-0.103","811","","f","","","","","","","","","","","","","key","f","16.66728205128143","640","356","./1_3_Stimuli/T_ambi40.png","他人","Word","自我","Mismatch","f","true","Practice","",""
"","","","","","html-keyboard-response","227","709903","0.0-7.4-0.4-1.103","null","<span style='color:GreenYellow; font-size: 70px;'>正确! </span>","null","","","","","","","","","","","","","","","","","","","","","","","","","feedback","",""
"","","","","","psychophysics","228","711939","0.0-7.4-0.4-0.104","885","","f","","","","","","","","","","","","","key","f","16.667297520661297","640","356","./1_3_Stimuli/S_ambi40.png","他人","Image","朋友","Mismatch","f","true","Practice","",""
"","","","","","html-keyboard-response","229","712246","0.0-7.4-0.4-1.104","null","<span style='color:GreenYellow; font-size: 70px;'>正确! </span>","null","","","","","","","","","","","","","","","","","","","","","","","","","feedback","",""
"","","","","","psychophysics","230","714322","0.0-7.4-0.4-0.105","925","","f","","","","","","","","","","","","","key","f","16.666943089430774","640","356","./1_3_Stimuli/S_ambi40.png","朋友","Word","朋友","Match","j","false","Practice","",""
"","","","","","html-keyboard-response","231","714637","0.0-7.4-0.4-1.105","null","<span style='color:red; font-size: 70px;'>错误! </span>","null","","","","","","","","","","","","","","","","","","","","","","","","","feedback","",""
"","","","","","psychophysics","232","716454","0.0-7.4-0.4-0.106","664","","f","","","","","","","","","","","","","key","f","16.667555555555737","640","356","./1_3_Stimuli/C_ambi40.png","自我","Word","他人","Mismatch","f","true","Practice","",""
"","","","","","html-keyboard-response","233","716759","0.0-7.4-0.4-1.106","null","<span style='color:GreenYellow; font-size: 70px;'>正确! </span>","null","","","","","","","","","","","","","","","","","","","","","","","","","feedback","",""
"","","","","","psychophysics","234","718472","0.0-7.4-0.4-0.107","561","","j","","","","","","","","","","","","","key","j","16.66723762376183","640","356","./1_3_Stimuli/T_ambi40.png","自我","Word","自我","Match","j","true","Practice","",""
"","","","","","html-keyboard-response","235","718787","0.0-7.4-0.4-1.107","null","<span style='color:GreenYellow; font-size: 70px;'>正确! </span>","null","","","","","","","","","","","","","","","","","","","","","","","","","feedback","",""
"","","","","","psychophysics","236","720632","0.0-7.4-0.4-0.108","692","","f","","","","","","","","","","","","","key","f","16.66692727272695","640","356","./1_3_Stimuli/T_ambi40.png","自我","Word","自我","Match","j","false","Practice","",""
"","","","","","html-keyboard-response","237","720940","0.0-7.4-0.4-1.108","null","<span style='color:red; font-size: 70px;'>错误! </span>","null","","","","","","","","","","","","","","","","","","","","","","","","","feedback","",""
"","","","","","psychophysics","238","722487","0.0-7.4-0.4-0.109","396","","j","","","","","","","","","","","","","key","j","16.667652173913034","640","356","./1_3_Stimuli/T_ambi40.png","自我","Image","自我","Match","j","true","Practice","",""
"","","","","","html-keyboard-response","239","722797","0.0-7.4-0.4-1.109","null","<span style='color:GreenYellow; font-size: 70px;'>正确! </span>","null","","","","","","","","","","","","","","","","","","","","","","","","","feedback","",""
"","","","","","psychophysics","240","724448","0.0-7.4-0.4-0.110","498","","f","","","","","","","","","","","","","key","f","16.667632653060778","640","356","./1_3_Stimuli/C_ambi40.png","他人","Image","他人","Match","j","false","Practice","",""
"","","","","","html-keyboard-response","241","724765","0.0-7.4-0.4-1.110","null","<span style='color:red; font-size: 70px;'>错误! </span>","null","","","","","","","","","","","","","","","","","","","","","","","","","feedback","",""
"","","","","","psychophysics","242","726301","0.0-7.4-0.4-0.111","385","","j","","","","","","","","","","","","","key","j","16.667032967032455","640","356","./1_3_Stimuli/S_ambi40.png","自我","Word","朋友","Mismatch","f","false","Practice","",""
"","","","","","html-keyboard-response","243","726606","0.0-7.4-0.4-1.111","null","<span style='color:red; font-size: 70px;'>错误! </span>","null","","","","","","","","","","","","","","","","","","","","","","","","","feedback","",""
"","","","","","psychophysics","244","728433","0.0-7.4-0.4-0.112","676","","j","","","","","","","","","","","","","key","j","16.66743119266055","640","356","./1_3_Stimuli/S_ambi40.png","朋友","Image","朋友","Match","j","true","Practice","",""
"","","","","","html-keyboard-response","245","728741","0.0-7.4-0.4-1.112","null","<span style='color:GreenYellow; font-size: 70px;'>正确! </span>","null","","","","","","","","","","","","","","","","","","","","","","","","","feedback","",""
"","","","","","psychophysics","246","730497","0.0-7.4-0.4-0.113","602","","f","","","","","","","","","","","","","key","f","16.54252884615338","640","356","./1_3_Stimuli/S_ambi40.png","朋友","Word","朋友","Match","j","false","Practice","",""
"","","","","","html-keyboard-response","247","730809","0.0-7.4-0.4-1.113","null","<span style='color:red; font-size: 70px;'>错误! </span>","null","","","","","","","","","","","","","","","","","","","","","","","","","feedback","",""
"","","","","","psychophysics","248","732683","0.0-7.4-0.4-0.114","722","","f","","","","","","","","","","","","","key","f","16.66759459459462","640","356","./1_3_Stimuli/C_ambi40.png","朋友","Word","他人","Mismatch","f","true","Practice","",""
"","","","","","html-keyboard-response","249","732991","0.0-7.4-0.4-1.114","null","<span style='color:GreenYellow; font-size: 70px;'>正确! </span>","null","","","","","","","","","","","","","","","","","","","","","","","","","feedback","",""
"","","","","","psychophysics","250","734918","0.0-7.4-0.4-0.115","774","","f","","","","","","","","","","","","","key","f","16.667365217391076","640","356","./1_3_Stimuli/T_ambi40.png","朋友","Word","自我","Mismatch","f","true","Practice","",""
"","","","","","html-keyboard-response","251","735229","0.0-7.4-0.4-1.115","null","<span style='color:GreenYellow; font-size: 70px;'>正确! </span>","null","","","","","","","","","","","","","","","","","","","","","","","","","feedback","",""
"","","","","","psychophysics","252","737257","0.0-7.4-0.4-0.116","877","","f","","","","","","","","","","","","","key","f","16.667558333332998","640","356","./1_3_Stimuli/T_ambi40.png","他人","Image","自我","Mismatch","f","true","Practice","",""
"","","","","","html-keyboard-response","253","737565","0.0-7.4-0.4-1.116","null","<span style='color:GreenYellow; font-size: 70px;'>正确! </span>","null","","","","","","","","","","","","","","","","","","","","","","","","","feedback","",""
"","","","","","psychophysics","254","739776","0.0-7.4-0.4-0.117","1059","","j","","","","","","","","","","","","","key","j","16.66719083969467","640","356","./1_3_Stimuli/C_ambi40.png","他人","Word","他人","Match","j","true","Practice","",""
"","","","","","html-keyboard-response","255","740078","0.0-7.4-0.4-1.117","null","<span style='color:GreenYellow; font-size: 70px;'>正确! </span>","null","","","","","","","","","","","","","","","","","","","","","","","","","feedback","",""
"","","","","","psychophysics","256","742232","0.0-7.4-0.4-0.118","1002","","f","","","","","","","","","","","","","key","f","16.666546874999767","640","356","./1_3_Stimuli/T_ambi40.png","朋友","Image","自我","Mismatch","f","true","Practice","",""
"","","","","","html-keyboard-response","257","742545","0.0-7.4-0.4-1.118","null","<span style='color:GreenYellow; font-size: 70px;'>正确! </span>","null","","","","","","","","","","","","","","","","","","","","","","","","","feedback","",""
"","","","","","psychophysics","258","744302","0.0-7.4-0.4-0.119","605","","f","","","","","","","","","","","","","key","f","16.667288461537773","640","356","./1_3_Stimuli/S_ambi40.png","自我","Image","朋友","Mismatch","f","true","Practice","",""
"","","","","","html-keyboard-response","259","744618","0.0-7.4-0.4-1.119","null","<span style='color:GreenYellow; font-size: 70px;'>正确! </span>","null","","","","","","","","","","","","","","","","","","","","","","","","","feedback","",""
"","","","","","html-keyboard-response","260","747795","0.0-7.4-1.4-0.4","3176","<style>.context{color:white; font-size: 35px; line-height:40px}</style>                        <div><p class='context'>您正确回答了75% 的试次。</p><p class='context'>您的平均反应时为715毫秒。</p><p> <div style = 'color: green'><按空格键至下页></div></p>"," ","","","","","","","","","","","","","","","","","","","","","","","","","","",""
"","","","","","instructions","261","761952","0.0-7.4-1.4-1.4","14155","","","","","","","","","","","","","","[{""page_index"":0,""viewing_time"":5629},{""page_index"":1,""viewing_time"":4382},{""page_index"":2,""viewing_time"":4144}]","","","","","","","","","","","","","","",""
"","","","","","psychophysics","262","764054","0.0-7.5-0.5-0.120","947","","f","","","","","","","","","","","","","key","f","16.66730399999954","640","356","./1_3_Stimuli/S_ambi40.png","他人","Image","朋友","Mismatch","f","true","Practice","",""
"","","","","","html-keyboard-response","263","764360","0.0-7.5-0.5-1.120","null","<span style='color:GreenYellow; font-size: 70px;'>正确! </span>","null","","","","","","","","","","","","","","","","","","","","","","","","","feedback","",""
"","","","","","psychophysics","264","766043","0.0-7.5-0.5-0.121","532","","j","","","","","","","","","","","","","key","j","16.667151515152202","640","356","./1_3_Stimuli/T_ambi40.png","自我","Word","自我","Match","j","true","Practice","",""
"","","","","","html-keyboard-response","265","766356","0.0-7.5-0.5-1.121","null","<span style='color:GreenYellow; font-size: 70px;'>正确! </span>","null","","","","","","","","","","","","","","","","","","","","","","","","","feedback","",""
"","","","","","psychophysics","266","767934","0.0-7.5-0.5-0.122","424","","f","","","","","","","","","","","","","key","f","16.667148936170825","640","356","./1_3_Stimuli/S_ambi40.png","朋友","Word","朋友","Match","j","false","Practice","",""
"","","","","","html-keyboard-response","267","768247","0.0-7.5-0.5-1.122","null","<span style='color:red; font-size: 70px;'>错误! </span>","null","","","","","","","","","","","","","","","","","","","","","","","","","feedback","",""
"","","","","","psychophysics","268","769959","0.0-7.5-0.5-0.123","561","","f","","","","","","","","","","","","","key","f","16.66747524752512","640","356","./1_3_Stimuli/S_ambi40.png","自我","Word","朋友","Mismatch","f","true","Practice","",""
"","","","","","html-keyboard-response","269","770270","0.0-7.5-0.5-1.123","null","<span style='color:GreenYellow; font-size: 70px;'>正确! </span>","null","","","","","","","","","","","","","","","","","","","","","","","","","feedback","",""
"","","","","","psychophysics","270","772146","0.0-7.5-0.5-0.124","724","","j","","","","","","","","","","","","","key","j","16.666830357143358","640","356","./1_3_Stimuli/S_ambi40.png","朋友","Image","朋友","Match","j","true","Practice","",""
"","","","","","html-keyboard-response","271","772456","0.0-7.5-0.5-1.124","null","<span style='color:GreenYellow; font-size: 70px;'>正确! </span>","null","","","","","","","","","","","","","","","","","","","","","","","","","feedback","",""
"","","","","","psychophysics","272","774087","0.0-7.5-0.5-0.125","477","","j","","","","","","","","","","","","","key","j","16.666835051545988","640","356","./1_3_Stimuli/S_ambi40.png","朋友","Word","朋友","Match","j","true","Practice","",""
"","","","","","html-keyboard-response","273","774391","0.0-7.5-0.5-1.125","null","<span style='color:GreenYellow; font-size: 70px;'>正确! </span>","null","","","","","","","","","","","","","","","","","","","","","","","","","feedback","",""
"","","","","","psychophysics","274","776117","0.0-7.5-0.5-0.126","574","","f","","","","","","","","","","","","","key","f","16.667592233009593","640","356","./1_3_Stimuli/T_ambi40.png","他人","Image","自我","Mismatch","f","true","Practice","",""
"","","","","","html-keyboard-response","275","776433","0.0-7.5-0.5-1.126","null","<span style='color:GreenYellow; font-size: 70px;'>正确! </span>","null","","","","","","","","","","","","","","","","","","","","","","","","","feedback","",""
"","","","","","psychophysics","276","778214","0.0-7.5-0.5-0.127","630","","j","","","","","","","","","","","","","key","j","16.667641509434137","640","356","./1_3_Stimuli/S_ambi40.png","朋友","Image","朋友","Match","j","true","Practice","",""
"","","","","","html-keyboard-response","277","778518","0.0-7.5-0.5-1.127","null","<span style='color:GreenYellow; font-size: 70px;'>正确! </span>","null","","","","","","","","","","","","","","","","","","","","","","","","","feedback","",""
"","","","","","psychophysics","278","780143","0.0-7.5-0.5-0.128","472","","f","","","","","","","","","","","","","key","f","16.666979166665744","640","356","./1_3_Stimuli/C_ambi40.png","他人","Word","他人","Match","j","false","Practice","",""
"","","","","","html-keyboard-response","279","780459","0.0-7.5-0.5-1.128","null","<span style='color:red; font-size: 70px;'>错误! </span>","null","","","","","","","","","","","","","","","","","","","","","","","","","feedback","",""
"","","","","","psychophysics","280","782230","0.0-7.5-0.5-0.129","617","","f","","","","","","","","","","","","","key","f","16.533447619047504","640","356","./1_3_Stimuli/C_ambi40.png","朋友","Image","他人","Mismatch","f","true","Practice","",""
"","","","","","html-keyboard-response","281","782544","0.0-7.5-0.5-1.129","null","<span style='color:GreenYellow; font-size: 70px;'>正确! </span>","null","","","","","","","","","","","","","","","","","","","","","","","","","feedback","",""
"","","","","","psychophysics","282","784513","0.0-7.5-0.5-0.130","814","","f","","","","","","","","","","","","","key","f","16.667136752136194","640","356","./1_3_Stimuli/S_ambi40.png","自我","Image","朋友","Mismatch","f","true","Practice","",""
"","","","","","html-keyboard-response","283","784814","0.0-7.5-0.5-1.130","null","<span style='color:GreenYellow; font-size: 70px;'>正确! </span>","null","","","","","","","","","","","","","","","","","","","","","","","","","feedback","",""
"","","","","","psychophysics","284","786880","0.0-7.5-0.5-0.131","914","","f","","","","","","","","","","","","","key","f","16.66722764227657","640","356","./1_3_Stimuli/C_ambi40.png","自我","Image","他人","Mismatch","f","true","Practice","",""
"","","","","","html-keyboard-response","285","787184","0.0-7.5-0.5-1.131","null","<span style='color:GreenYellow; font-size: 70px;'>正确! </span>","null","","","","","","","","","","","","","","","","","","","","","","","","","feedback","",""
"","","","","","psychophysics","286","788845","0.0-7.5-0.5-0.132","510","","j","","","","","","","","","","","","","key","j","16.667262626262712","640","356","./1_3_Stimuli/T_ambi40.png","自我","Image","自我","Match","j","true","Practice","",""
"","","","","","html-keyboard-response","287","789151","0.0-7.5-0.5-1.132","null","<span style='color:GreenYellow; font-size: 70px;'>正确! </span>","null","","","","","","","","","","","","","","","","","","","","","","","","","feedback","",""
"","","","","","psychophysics","288","790621","0.0-7.5-0.5-0.133","318","","j","","","","","","","","","","","","","key","j","16.66514942528755","640","356","./1_3_Stimuli/T_ambi40.png","自我","Word","自我","Match","j","true","Practice","",""
"","","","","","html-keyboard-response","289","790926","0.0-7.5-0.5-1.133","null","<span style='color:GreenYellow; font-size: 70px;'>正确! </span>","null","","","","","","","","","","","","","","","","","","","","","","","","","feedback","",""
"","","","","","psychophysics","290","792556","0.0-7.5-0.5-0.134","476","","f","","","","","","","","","","","","","key","f","16.525406250000135","640","356","./1_3_Stimuli/C_ambi40.png","他人","Word","他人","Match","j","false","Practice","",""
"","","","","","html-keyboard-response","291","792860","0.0-7.5-0.5-1.134","null","<span style='color:red; font-size: 70px;'>错误! </span>","null","","","","","","","","","","","","","","","","","","","","","","","","","feedback","",""
"","","","","","psychophysics","292","794869","0.0-7.5-0.5-0.135","857","","f","","","","","","","","","","","","","key","f","16.548495798318903","640","356","./1_3_Stimuli/T_ambi40.png","朋友","Image","自我","Mismatch","f","true","Practice","",""
"","","","","","html-keyboard-response","293","795179","0.0-7.5-0.5-1.135","null","<span style='color:GreenYellow; font-size: 70px;'>正确! </span>","null","","","","","","","","","","","","","","","","","","","","","","","","","feedback","",""
"","","","","","psychophysics","294","796834","0.0-7.5-0.5-0.136","503","","j","","","","","","","","","","","","","key","j","16.667540816326472","640","356","./1_3_Stimuli/T_ambi40.png","自我","Image","自我","Match","j","true","Practice","",""
"","","","","","html-keyboard-response","295","797146","0.0-7.5-0.5-1.136","null","<span style='color:GreenYellow; font-size: 70px;'>正确! </span>","null","","","","","","","","","","","","","","","","","","","","","","","","","feedback","",""
"","","","","","psychophysics","296","798869","0.0-7.5-0.5-0.137","571","","f","","","","","","","","","","","","","key","f","16.666941176471074","640","356","./1_3_Stimuli/C_ambi40.png","自我","Word","他人","Mismatch","f","true","Practice","",""
"","","","","","html-keyboard-response","297","799171","0.0-7.5-0.5-1.137","null","<span style='color:GreenYellow; font-size: 70px;'>正确! </span>","null","","","","","","","","","","","","","","","","","","","","","","","","","feedback","",""
"","","","","","psychophysics","298","801227","0.0-7.5-0.5-0.138","904","","j","","","","","","","","","","","","","key","j","16.665959016393227","640","356","./1_3_Stimuli/S_ambi40.png","他人","Word","朋友","Mismatch","f","false","Practice","",""
"","","","","","html-keyboard-response","299","801537","0.0-7.5-0.5-1.138","null","<span style='color:red; font-size: 70px;'>错误! </span>","null","","","","","","","","","","","","","","","","","","","","","","","","","feedback","",""
"","","","","","psychophysics","300","803250","0.0-7.5-0.5-0.139","562","","f","","","","","","","","","","","","","key","f","16.667598039216553","640","356","./1_3_Stimuli/C_ambi40.png","他人","Image","他人","Match","j","false","Practice","",""
"","","","","","html-keyboard-response","301","803563","0.0-7.5-0.5-1.139","null","<span style='color:red; font-size: 70px;'>错误! </span>","null","","","","","","","","","","","","","","","","","","","","","","","","","feedback","",""
"","","","","","psychophysics","302","805348","0.0-7.5-0.5-0.140","633","","j","","","","","","","","","","","","","key","j","16.667084905659376","640","356","./1_3_Stimuli/T_ambi40.png","他人","Word","自我","Mismatch","f","false","Practice","",""
"","","","","","html-keyboard-response","303","805661","0.0-7.5-0.5-1.140","null","<span style='color:red; font-size: 70px;'>错误! </span>","null","","","","","","","","","","","","","","","","","","","","","","","","","feedback","",""
"","","","","","psychophysics","304","807718","0.0-7.5-0.5-0.141","906","","f","","","","","","","","","","","","","key","f","16.667172131147694","640","356","./1_3_Stimuli/T_ambi40.png","朋友","Word","自我","Mismatch","f","true","Practice","",""
"","","","","","html-keyboard-response","305","808019","0.0-7.5-0.5-1.141","null","<span style='color:GreenYellow; font-size: 70px;'>正确! </span>","null","","","","","","","","","","","","","","","","","","","","","","","","","feedback","",""
"","","","","","psychophysics","306","810219","0.0-7.5-0.5-0.142","1048","","f","","","","","","","","","","","","","key","f","16.66754198473352","640","356","./1_3_Stimuli/C_ambi40.png","他人","Image","他人","Match","j","false","Practice","",""
"","","","","","html-keyboard-response","307","810533","0.0-7.5-0.5-1.142","null","<span style='color:red; font-size: 70px;'>错误! </span>","null","","","","","","","","","","","","","","","","","","","","","","","","","feedback","",""
"","","","","","psychophysics","308","812509","0.0-7.5-0.5-0.143","825","","j","","","","","","","","","","","","","key","j","16.667256410256563","640","356","./1_3_Stimuli/C_ambi40.png","朋友","Word","他人","Mismatch","f","false","Practice","",""
"","","","","","html-keyboard-response","309","812813","0.0-7.5-0.5-1.143","null","<span style='color:red; font-size: 70px;'>错误! </span>","null","","","","","","","","","","","","","","","","","","","","","","","","","feedback","",""
"","","","","","html-keyboard-response","310","849619","0.0-7.5-1.5-0.5","36805","<style>.context{color:white; font-size: 35px; line-height:40px}</style>                        <div><p class='context'>您正确回答了67% 的试次。</p><p class='context'>您的平均反应时为653毫秒。</p><p> <div style = 'color: green'><按空格键至下页></div></p>"," ","","","","","","","","","","","","","","","","","","","","","","","","","","",""
"","","","","","instructions","311","859069","0.0-7.5-1.5-1.5","9448","","","","","","","","","","","","","","[{""page_index"":0,""viewing_time"":1998},{""page_index"":1,""viewing_time"":4533},{""page_index"":2,""viewing_time"":2916}]","","","","","","","","","","","","","","",""
"","","","","","psychophysics","312","861199","0.0-7.6-0.6-0.144","976","","f","","","","","","","","","","","","","key","f","16.66674803149626","640","356","./1_3_Stimuli/C_ambi40.png","自我","Image","他人","Mismatch","f","true","Practice","",""
"","","","","","html-keyboard-response","313","861513","0.0-7.6-0.6-1.144","null","<span style='color:GreenYellow; font-size: 70px;'>正确! </span>","null","","","","","","","","","","","","","","","","","","","","","","","","","feedback","",""
"","","","","","psychophysics","314","863912","0.0-7.6-0.6-0.145","1248","","j","","","","","","","","","","","","","key","j","16.667295774647435","640","356","./1_3_Stimuli/T_ambi40.png","朋友","Image","自我","Mismatch","f","false","Practice","",""
"","","","","","html-keyboard-response","315","864228","0.0-7.6-0.6-1.145","null","<span style='color:red; font-size: 70px;'>错误! </span>","null","","","","","","","","","","","","","","","","","","","","","","","","","feedback","",""
"","","","","","psychophysics","316","866049","0.0-7.6-0.6-0.146","667","","f","","","","","","","","","","","","","key","f","16.54504629629621","640","356","./1_3_Stimuli/C_ambi40.png","朋友","Image","他人","Mismatch","f","true","Practice","",""
"","","","","","html-keyboard-response","317","866360","0.0-7.6-0.6-1.146","null","<span style='color:GreenYellow; font-size: 70px;'>正确! </span>","null","","","","","","","","","","","","","","","","","","","","","","","","","feedback","",""
"","","","","","psychophysics","318","868190","0.0-7.6-0.6-0.147","677","","j","","","","","","","","","","","","","key","j","16.667183486238514","640","356","./1_3_Stimuli/T_ambi40.png","自我","Image","自我","Match","j","true","Practice","",""
"","","","","","html-keyboard-response","319","868491","0.0-7.6-0.6-1.147","null","<span style='color:GreenYellow; font-size: 70px;'>正确! </span>","null","","","","","","","","","","","","","","","","","","","","","","","","","feedback","",""
"","","","","","psychophysics","320","870081","0.0-7.6-0.6-0.148","439","","f","","","","","","","","","","","","","key","f","16.66651578947387","640","356","./1_3_Stimuli/C_ambi40.png","他人","Word","他人","Match","j","false","Practice","",""
"","","","","","html-keyboard-response","321","870393","0.0-7.6-0.6-1.148","null","<span style='color:red; font-size: 70px;'>错误! </span>","null","","","","","","","","","","","","","","","","","","","","","","","","","feedback","",""
"","","","","","psychophysics","322","872099","0.0-7.6-0.6-0.149","550","","j","","","","","","","","","","","","","key","j","16.66753921568549","640","356","./1_3_Stimuli/S_ambi40.png","自我","Image","朋友","Mismatch","f","false","Practice","",""
"","","","","","html-keyboard-response","323","872401","0.0-7.6-0.6-1.149","null","<span style='color:red; font-size: 70px;'>错误! </span>","null","","","","","","","","","","","","","","","","","","","","","","","","","feedback","",""
"","","","","","psychophysics","324","874199","0.0-7.6-0.6-0.150","646","","f","","","","","","","","","","","","","key","f","16.667271028036712","640","356","./1_3_Stimuli/C_ambi40.png","他人","Word","他人","Match","j","false","Practice","",""
"","","","","","html-keyboard-response","325","874515","0.0-7.6-0.6-1.150","null","<span style='color:red; font-size: 70px;'>错误! </span>","null","","","","","","","","","","","","","","","","","","","","","","","","","feedback","",""
"","","","","","psychophysics","326","875760","0.0-7.6-0.6-0.151","94","","j","","","","","","","","","","","","","key","j","16.667095890410614","640","356","./1_3_Stimuli/C_ambi40.png","朋友","Word","他人","Mismatch","f","false","Practice","",""
"","","","","","html-keyboard-response","327","876065","0.0-7.6-0.6-1.151","null","<span style='color:yellow; font-size: 70px;'>过快! </span>","null","","","","","","","","","","","","","","","","","","","","","","","","","feedback","",""
"","","","","","psychophysics","328","878771","0.0-7.6-0.6-0.152","null","","null","","","","","","","","","","","","","key","null","16.66710559006199","640","356","./1_3_Stimuli/C_ambi40.png","他人","Image","他人","Match","j","false","Practice","",""
"","","","","","html-keyboard-response","329","879084","0.0-7.6-0.6-1.152","null","<span class='add_' style='color:yellow; font-size: 70px;'> 太慢! </span>","null","","","","","","","","","","","","","","","","","","","","","","","","","feedback","",""
"","","","","","psychophysics","330","881785","0.0-7.6-0.6-0.153","null","","null","","","","","","","","","","","","","key","null","16.667273291925355","640","356","./1_3_Stimuli/T_ambi40.png","自我","Word","自我","Match","j","false","Practice","",""
"","","","","","html-keyboard-response","331","882086","0.0-7.6-0.6-1.153","null","<span class='add_' style='color:yellow; font-size: 70px;'> 太慢! </span>","null","","","","","","","","","","","","","","","","","","","","","","","","","feedback","",""
"","","","","","psychophysics","332","884788","0.0-7.6-0.6-0.154","null","","null","","","","","","","","","","","","","key","null","16.667217391304476","640","356","./1_3_Stimuli/S_ambi40.png","朋友","Image","朋友","Match","j","false","Practice","",""
"","","","","","html-keyboard-response","333","885093","0.0-7.6-0.6-1.154","null","<span class='add_' style='color:yellow; font-size: 70px;'> 太慢! </span>","null","","","","","","","","","","","","","","","","","","","","","","","","","feedback","",""
"","","","","","psychophysics","334","887796","0.0-7.6-0.6-0.155","null","","null","","","","","","","","","","","","","key","null","16.66726708074566","640","356","./1_3_Stimuli/S_ambi40.png","他人","Word","朋友","Mismatch","f","false","Practice","",""
"","","","","","html-keyboard-response","335","888109","0.0-7.6-0.6-1.155","null","<span class='add_' style='color:yellow; font-size: 70px;'> 太慢! </span>","null","","","","","","","","","","","","","","","","","","","","","","","","","feedback","",""
"","","","","","psychophysics","336","890811","0.0-7.6-0.6-0.156","null","","null","","","","","","","","","","","","","key","null","16.667354037266467","640","356","./1_3_Stimuli/T_ambi40.png","自我","Image","自我","Match","j","false","Practice","",""
"","","","","","html-keyboard-response","337","891128","0.0-7.6-0.6-1.156","null","<span class='add_' style='color:yellow; font-size: 70px;'> 太慢! </span>","null","","","","","","","","","","","","","","","","","","","","","","","","","feedback","",""
"","","","","","psychophysics","338","893830","0.0-7.6-0.6-0.157","null","","null","","","","","","","","","","","","","key","null","16.667086956521455","640","356","./1_3_Stimuli/C_ambi40.png","他人","Image","他人","Match","j","false","Practice","",""
"","","","","","html-keyboard-response","339","894147","0.0-7.6-0.6-1.157","null","<span class='add_' style='color:yellow; font-size: 70px;'> 太慢! </span>","null","","","","","","","","","","","","","","","","","","","","","","","","","feedback","",""
"","","","","","psychophysics","340","896851","0.0-7.6-0.6-0.158","null","","null","","","","","","","","","","","","","key","null","16.66689440993786","640","356","./1_3_Stimuli/C_ambi40.png","自我","Word","他人","Mismatch","f","false","Practice","",""
"","","","","","html-keyboard-response","341","897161","0.0-7.6-0.6-1.158","null","<span class='add_' style='color:yellow; font-size: 70px;'> 太慢! </span>","null","","","","","","","","","","","","","","","","","","","","","","","","","feedback","",""
"","","","","","psychophysics","342","899864","0.0-7.6-0.6-0.159","null","","null","","","","","","","","","","","","","key","null","16.667310559006424","640","356","./1_3_Stimuli/S_ambi40.png","他人","Image","朋友","Mismatch","f","false","Practice","",""
"","","","","","html-keyboard-response","343","900178","0.0-7.6-0.6-1.159","null","<span class='add_' style='color:yellow; font-size: 70px;'> 太慢! </span>","null","","","","","","","","","","","","","","","","","","","","","","","","","feedback","",""
"","","","","","psychophysics","344","902897","0.0-7.6-0.6-0.160","null","","null","","","","","","","","","","","","","key","null","16.667240740740702","640","356","./1_3_Stimuli/S_ambi40.png","自我","Word","朋友","Mismatch","f","false","Practice","",""
"","","","","","html-keyboard-response","345","903208","0.0-7.6-0.6-1.160","null","<span class='add_' style='color:yellow; font-size: 70px;'> 太慢! </span>","null","","","","","","","","","","","","","","","","","","","","","","","","","feedback","",""
"","","","","","psychophysics","346","905910","0.0-7.6-0.6-0.161","null","","null","","","","","","","","","","","","","key","null","16.666869565217628","640","356","./1_3_Stimuli/S_ambi40.png","朋友","Image","朋友","Match","j","false","Practice","",""
"","","","","","html-keyboard-response","347","906221","0.0-7.6-0.6-1.161","null","<span class='add_' style='color:yellow; font-size: 70px;'> 太慢! </span>","null","","","","","","","","","","","","","","","","","","","","","","","","","feedback","",""
"","","","","","psychophysics","348","908923","0.0-7.6-0.6-0.162","null","","null","","","","","","","","","","","","","key","null","16.66707453416134","640","356","./1_3_Stimuli/S_ambi40.png","朋友","Word","朋友","Match","j","false","Practice","",""
"","","","","","html-keyboard-response","349","909229","0.0-7.6-0.6-1.162","null","<span class='add_' style='color:yellow; font-size: 70px;'> 太慢! </span>","null","","","","","","","","","","","","","","","","","","","","","","","","","feedback","",""
"","","","","","psychophysics","350","911933","0.0-7.6-0.6-0.163","null","","null","","","","","","","","","","","","","key","null","16.59029813664633","640","356","./1_3_Stimuli/T_ambi40.png","自我","Word","自我","Match","j","false","Practice","",""
"","","","","","html-keyboard-response","351","912239","0.0-7.6-0.6-1.163","null","<span class='add_' style='color:yellow; font-size: 70px;'> 太慢! </span>","null","","","","","","","","","","","","","","","","","","","","","","","","","feedback","",""
"","","","","","psychophysics","352","914940","0.0-7.6-0.6-0.164","null","","null","","","","","","","","","","","","","key","null","16.667149068322757","640","356","./1_3_Stimuli/T_ambi40.png","他人","Image","自我","Mismatch","f","false","Practice","",""
"","","","","","html-keyboard-response","353","915249","0.0-7.6-0.6-1.164","null","<span class='add_' style='color:yellow; font-size: 70px;'> 太慢! </span>","null","","","","","","","","","","","","","","","","","","","","","","","","","feedback","",""
"","","","","","psychophysics","354","917954","0.0-7.6-0.6-0.165","null","","null","","","","","","","","","","","","","key","null","16.66728571428547","640","356","./1_3_Stimuli/T_ambi40.png","朋友","Word","自我","Mismatch","f","false","Practice","",""
"","","","","","html-keyboard-response","355","918260","0.0-7.6-0.6-1.165","null","<span class='add_' style='color:yellow; font-size: 70px;'> 太慢! </span>","null","","","","","","","","","","","","","","","","","","","","","","","","","feedback","",""
"","","","","","psychophysics","356","920963","0.0-7.6-0.6-0.166","null","","null","","","","","","","","","","","","","key","null","16.669347826087044","640","356","./1_3_Stimuli/T_ambi40.png","他人","Word","自我","Mismatch","f","false","Practice","",""
"","","","","","html-keyboard-response","357","921270","0.0-7.6-0.6-1.166","null","<span class='add_' style='color:yellow; font-size: 70px;'> 太慢! </span>","null","","","","","","","","","","","","","","","","","","","","","","","","","feedback","",""
"","","","","","psychophysics","358","922967","0.0-7.6-0.6-0.167","544","","j","","","","","","","","","","","","","key","j","16.667237623762986","640","356","./1_3_Stimuli/S_ambi40.png","朋友","Word","朋友","Match","j","true","Practice","",""
"","","","","","html-keyboard-response","359","923281","0.0-7.6-0.6-1.167","null","<span style='color:GreenYellow; font-size: 70px;'>正确! </span>","null","","","","","","","","","","","","","","","","","","","","","","","","","feedback","",""
"","","","","","html-keyboard-response","360","925122","0.0-7.6-1.6-0.6","1833","<style>.context{color:white; font-size: 35px; line-height:40px}</style>                        <div><p class='context'>您正确回答了17% 的试次。</p><p class='context'>您的平均反应时为716毫秒。</p><p> <div style = 'color: green'><按空格键至下页></div></p>"," ","","","","","","","","","","","","","","","","","","","","","","","","","","",""
"","","","","","instructions","361","959948","0.0-7.6-1.6-1.6","34823","","","","","","","","","","","","","","[{""page_index"":0,""viewing_time"":26295},{""page_index"":1,""viewing_time"":5775},{""page_index"":2,""viewing_time"":2753}]","","","","","","","","","","","","","","",""
"","","","","","psychophysics","362","961975","0.0-7.7-0.7-0.168","867","","j","","","","","","","","","","","","","key","j","16.660308333333038","640","356","./1_3_Stimuli/T_ambi40.png","朋友","Image","自我","Mismatch","f","false","Practice","",""
"","","","","","html-keyboard-response","363","962284","0.0-7.7-0.7-1.168","null","<span style='color:red; font-size: 70px;'>错误! </span>","null","","","","","","","","","","","","","","","","","","","","","","","","","feedback","",""
"","","","","","psychophysics","364","964090","0.0-7.7-0.7-0.169","655","","f","","","","","","","","","","","","","key","f","16.667130841121782","640","356","./1_3_Stimuli/T_ambi40.png","他人","Image","自我","Mismatch","f","true","Practice","",""
"","","","","","html-keyboard-response","365","964400","0.0-7.7-0.7-1.169","null","<span style='color:GreenYellow; font-size: 70px;'>正确! </span>","null","","","","","","","","","","","","","","","","","","","","","","","","","feedback","",""
"","","","","","psychophysics","366","966197","0.0-7.7-0.7-0.170","646","","f","","","","","","","","","","","","","key","f","16.666632075471153","640","356","./1_3_Stimuli/S_ambi40.png","自我","Word","朋友","Mismatch","f","true","Practice","",""
"","","","","","html-keyboard-response","367","966505","0.0-7.7-0.7-1.170","null","<span style='color:GreenYellow; font-size: 70px;'>正确! </span>","null","","","","","","","","","","","","","","","","","","","","","","","","","feedback","",""
"","","","","","psychophysics","368","968540","0.0-7.7-0.7-0.171","884","","j","","","","","","","","","","","","","key","j","16.66769421487577","640","356","./1_3_Stimuli/S_ambi40.png","朋友","Word","朋友","Match","j","true","Practice","",""
"","","","","","html-keyboard-response","369","968853","0.0-7.7-0.7-1.171","null","<span style='color:GreenYellow; font-size: 70px;'>正确! </span>","null","","","","","","","","","","","","","","","","","","","","","","","","","feedback","",""
"","","","","","psychophysics","370","970552","0.0-7.7-0.7-0.172","548","","j","","","","","","","","","","","","","key","j","16.667287128713525","640","356","./1_3_Stimuli/T_ambi40.png","自我","Image","自我","Match","j","true","Practice","",""
"","","","","","html-keyboard-response","371","970861","0.0-7.7-0.7-1.172","null","<span style='color:GreenYellow; font-size: 70px;'>正确! </span>","null","","","","","","","","","","","","","","","","","","","","","","","","","feedback","",""
"","","","","","psychophysics","372","972401","0.0-7.7-0.7-0.173","388","","j","","","","","","","","","","","","","key","j","16.66727173913007","640","356","./1_3_Stimuli/T_ambi40.png","自我","Word","自我","Match","j","true","Practice","",""
"","","","","","html-keyboard-response","373","972703","0.0-7.7-0.7-1.173","null","<span style='color:GreenYellow; font-size: 70px;'>正确! </span>","null","","","","","","","","","","","","","","","","","","","","","","","","","feedback","",""
"","","","","","psychophysics","374","974478","0.0-7.7-0.7-0.174","624","","j","","","","","","","","","","","","","key","j","16.66742857142817","640","356","./1_3_Stimuli/C_ambi40.png","自我","Image","他人","Mismatch","f","false","Practice","",""
"","","","","","html-keyboard-response","375","974793","0.0-7.7-0.7-1.174","null","<span style='color:red; font-size: 70px;'>错误! </span>","null","","","","","","","","","","","","","","","","","","","","","","","","","feedback","",""
"","","","","","psychophysics","376","977043","0.0-7.7-0.7-0.175","1098","","j","","","","","","","","","","","","","key","j","16.666738805970102","640","356","./1_3_Stimuli/S_ambi40.png","他人","Image","朋友","Mismatch","f","false","Practice","",""
"","","","","","html-keyboard-response","377","977349","0.0-7.7-0.7-1.175","null","<span style='color:red; font-size: 70px;'>错误! </span>","null","","","","","","","","","","","","","","","","","","","","","","","","","feedback","",""
"","","","","","psychophysics","378","979346","0.0-7.7-0.7-0.176","845","","f","","","","","","","","","","","","","key","f","16.666881355931547","640","356","./1_3_Stimuli/C_ambi40.png","他人","Word","他人","Match","j","false","Practice","",""
"","","","","","html-keyboard-response","379","979656","0.0-7.7-0.7-1.176","null","<span style='color:red; font-size: 70px;'>错误! </span>","null","","","","","","","","","","","","","","","","","","","","","","","","","feedback","",""
"","","","","","psychophysics","380","981448","0.0-7.7-0.7-0.177","639","","j","","","","","","","","","","","","","key","j","16.667132075471837","640","356","./1_3_Stimuli/S_ambi40.png","自我","Image","朋友","Mismatch","f","false","Practice","",""
"","","","","","html-keyboard-response","381","981752","0.0-7.7-0.7-1.177","null","<span style='color:red; font-size: 70px;'>错误! </span>","null","","","","","","","","","","","","","","","","","","","","","","","","","feedback","",""
"","","","","","psychophysics","382","983721","0.0-7.7-0.7-0.178","817","","j","","","","","","","","","","","","","key","j","16.66723931623965","640","356","./1_3_Stimuli/S_ambi40.png","朋友","Image","朋友","Match","j","true","Practice","",""
"","","","","","html-keyboard-response","383","984030","0.0-7.7-0.7-1.178","null","<span style='color:GreenYellow; font-size: 70px;'>正确! </span>","null","","","","","","","","","","","","","","","","","","","","","","","","","feedback","",""
"","","","","","psychophysics","384","985741","0.0-7.7-0.7-0.179","559","","j","","","","","","","","","","","","","key","j","16.66694117646993","640","356","./1_3_Stimuli/T_ambi40.png","自我","Image","自我","Match","j","true","Practice","",""
"","","","","","html-keyboard-response","385","986054","0.0-7.7-0.7-1.179","null","<span style='color:GreenYellow; font-size: 70px;'>正确! </span>","null","","","","","","","","","","","","","","","","","","","","","","","","","feedback","",""
"","","","","","psychophysics","386","988159","0.0-7.7-0.7-0.180","953","","j","","","","","","","","","","","","","key","j","16.667216000000014","640","356","./1_3_Stimuli/C_ambi40.png","朋友","Word","他人","Mismatch","f","false","Practice","",""
"","","","","","html-keyboard-response","387","988464","0.0-7.7-0.7-1.180","null","<span style='color:red; font-size: 70px;'>错误! </span>","null","","","","","","","","","","","","","","","","","","","","","","","","","feedback","",""
"","","","","","psychophysics","388","990327","0.0-7.7-0.7-0.181","708","","j","","","","","","","","","","","","","key","j","16.66735135135136","640","356","./1_3_Stimuli/T_ambi40.png","他人","Word","自我","Mismatch","f","false","Practice","",""
"","","","","","html-keyboard-response","389","990635","0.0-7.7-0.7-1.181","null","<span style='color:red; font-size: 70px;'>错误! </span>","null","","","","","","","","","","","","","","","","","","","","","","","","","feedback","",""
"","","","","","psychophysics","390","992988","0.0-7.7-0.7-0.182","1202","","f","","","","","","","","","","","","","key","f","16.667221428572002","640","356","./1_3_Stimuli/S_ambi40.png","朋友","Word","朋友","Match","j","false","Practice","",""
"","","","","","html-keyboard-response","391","993292","0.0-7.7-0.7-1.182","null","<span style='color:red; font-size: 70px;'>错误! </span>","null","","","","","","","","","","","","","","","","","","","","","","","","","feedback","",""
"","","","","","psychophysics","392","995740","0.0-7.7-0.7-0.183","1297","","f","","","","","","","","","","","","","key","f","16.66696575342531","640","356","./1_3_Stimuli/C_ambi40.png","朋友","Image","他人","Mismatch","f","true","Practice","",""
"","","","","","html-keyboard-response","393","996048","0.0-7.7-0.7-1.183","null","<span style='color:GreenYellow; font-size: 70px;'>正确! </span>","null","","","","","","","","","","","","","","","","","","","","","","","","","feedback","",""
"","","","","","psychophysics","394","998126","0.0-7.7-0.7-0.184","925","","f","","","","","","","","","","","","","key","f","16.556593495935044","640","356","./1_3_Stimuli/T_ambi40.png","朋友","Word","自我","Mismatch","f","true","Practice","",""
"","","","","","html-keyboard-response","395","998436","0.0-7.7-0.7-1.184","null","<span style='color:GreenYellow; font-size: 70px;'>正确! </span>","null","","","","","","","","","","","","","","","","","","","","","","","","","feedback","",""
"","","","","","psychophysics","396","1000577","0.0-7.7-0.7-0.185","990","","f","","","","","","","","","","","","","key","f","16.667346456693117","640","356","./1_3_Stimuli/S_ambi40.png","他人","Word","朋友","Mismatch","f","true","Practice","",""
"","","","","","html-keyboard-response","397","1000881","0.0-7.7-0.7-1.185","null","<span style='color:GreenYellow; font-size: 70px;'>正确! </span>","null","","","","","","","","","","","","","","","","","","","","","","","","","feedback","",""
"","","","","","psychophysics","398","1003243","0.0-7.7-0.7-0.186","1211","","j","","","","","","","","","","","","","key","j","16.66707801418412","640","356","./1_3_Stimuli/C_ambi40.png","他人","Word","他人","Match","j","true","Practice","",""
"","","","","","html-keyboard-response","399","1003551","0.0-7.7-0.7-1.186","null","<span style='color:GreenYellow; font-size: 70px;'>正确! </span>","null","","","","","","","","","","","","","","","","","","","","","","","","","feedback","",""
"","","","","","psychophysics","400","1005475","0.0-7.7-0.7-0.187","773","","f","","","","","","","","","","","","","key","f","16.66716666666693","640","356","./1_3_Stimuli/C_ambi40.png","自我","Word","他人","Mismatch","f","true","Practice","",""
"","","","","","html-keyboard-response","401","1005778","0.0-7.7-0.7-1.187","null","<span style='color:GreenYellow; font-size: 70px;'>正确! </span>","null","","","","","","","","","","","","","","","","","","","","","","","","","feedback","",""
"","","","","","psychophysics","402","1007777","0.0-7.7-0.7-0.188","848","","j","","","","","","","","","","","","","key","j","16.66688235294066","640","356","./1_3_Stimuli/S_ambi40.png","朋友","Image","朋友","Match","j","true","Practice","",""
"","","","","","html-keyboard-response","403","1008085","0.0-7.7-0.7-1.188","null","<span style='color:GreenYellow; font-size: 70px;'>正确! </span>","null","","","","","","","","","","","","","","","","","","","","","","","","","feedback","",""
"","","","","","psychophysics","404","1010095","0.0-7.7-0.7-0.189","858","","j","","","","","","","","","","","","","key","j","16.667084033612724","640","356","./1_3_Stimuli/C_ambi40.png","他人","Image","他人","Match","j","true","Practice","",""
"","","","","","html-keyboard-response","405","1010403","0.0-7.7-0.7-1.189","null","<span style='color:GreenYellow; font-size: 70px;'>正确! </span>","null","","","","","","","","","","","","","","","","","","","","","","","","","feedback","",""
"","","","","","psychophysics","406","1012061","0.0-7.7-0.7-0.190","506","","j","","","","","","","","","","","","","key","j","16.667030612244364","640","356","./1_3_Stimuli/T_ambi40.png","自我","Word","自我","Match","j","true","Practice","",""
