"success","timeout","failed_images","failed_audio","failed_video","trial_type","trial_index","time_elapsed","internal_node_id","rt","stimulus","response","value","item_width_mm","item_height_mm","item_width_px","px2mm","view_dist_mm","item_width_deg","px2deg","scale_factor","win_width_deg","win_height_deg","view_history","response_type","key_press","avg_frame_time","center_x","center_y","image","word","target","valence","matchness","correct_response","correct","exp_condition","question_order"
"true","false","[]","[]","[]","preload","0","5","0.0-0.0","","","","","","","","","","","","","","","","","","","","","","","","","","","","",""
"","","","","","html-keyboard-response","1","4627","0.0-1.0","4621","
     <p>您好，欢迎参加本次实验。</p>
     <p>为充分保障您的权利，请确保您已经知晓并同意《参与实验同意书》以及《数据公开知情同意书》。</p>
     <p>如果您未见过上述内容，请咨询实验员。</p>
     <p>如果您选择继续实验，则表示您已经清楚两份知情同意书的内容并同意。</p>
     <p> <div style = ""color: green""><按任意键至下页></div> </p>
     "," ","","","","","","","","","","","","","","","","","","","","","","","","","",""
"","","","","","html-keyboard-response","2","7214","0.0-2.0-0.0","2586","
      <p>本实验首先需要您填写一些基本个人信息。</p>
      <p> <div style = ""color: green""><按任意键至下页></div></p>
      "," ","","","","","","","","","","","","","","","","","","","","","","","","","",""
"","","","","","call-function","3","7215","0.0-2.0-1.0","","","","","","","","","","","","","","","","","","","","","","","","","","","","",""
"","","","","","survey-html-form","4","25982","0.0-2.0-2.0","18765","","{""Q0"":""1033""}","","","","","","","","","","","","","","","","","","","","","","","","","",""
"","","","","","html-button-response","5","27492","0.0-2.0-3.0","1508","<p style = 'color : white'>您的性别</p>","0","","","","","","","","","","","","","","","","","","","","","","","","","",""
"","","","","","survey-html-form","6","31924","0.0-2.0-4.0","4431","","{""Q0"":""2004""}","","","","","","","","","","","","","","","","","","","","","","","","","",""
"","","","","","survey-html-form","7","36533","0.0-2.0-5.0","4609","","{""Q0"":""5""}","","","","","","","","","","","","","","","","","","","","","","","","","",""
"","","","","","virtual-chinrest","8","181466","0.0-3.0","144931","","","","85.6","53.98","571.8556783600105","6.685073423081814","427.4","11.43711356720021","50","0.7449432017912264","29.76","15","","","","","","","","","","","","","","",""
"true","","","","","fullscreen","9","186733","0.0-4.0","","","","","","","","","","","","","","","","","","","","","","","","","","","","",""
"","","","","","instructions","10","284661","0.0-5.0","97925","","","","","","","","","","","","","","[{""page_index"":0,""viewing_time"":8128},{""page_index"":1,""viewing_time"":64403},{""page_index"":2,""viewing_time"":22678},{""page_index"":3,""viewing_time"":2716}]","","","","","","","","","","","","","",""
"","","","","","html-keyboard-response","11","288322","0.0-6.0","null","<count-down title=""""></count-down>","null","","","","","","","","","","","","","","","","","","","","","","","","","",""
"","","","","","psychophysics","12","291038","0.0-7.0-0.0-0.0","null","","null","","","","","","","","","","","","","key","null","16.667080745341398","768","428","./1_3_Stimuli/T_ambi40.png","朋友","Image","朋友","Match","j","false","Practice",""
"","","","","","html-keyboard-response","13","291348","0.0-7.0-0.0-1.0","null","<span class='add_' style='color:yellow; font-size: 70px;'> 太慢! </span>","null","","","","","","","","","","","","","","","","","","","","","","","","","feedback",""
"","","","","","psychophysics","14","294053","0.0-7.0-0.0-0.1","null","","null","","","","","","","","","","","","","key","null","16.66708074534176","768","428","./1_3_Stimuli/T_ambi40.png","朋友","Image","朋友","Match","j","false","Practice",""
"","","","","","html-keyboard-response","15","294366","0.0-7.0-0.0-1.1","null","<span class='add_' style='color:yellow; font-size: 70px;'> 太慢! </span>","null","","","","","","","","","","","","","","","","","","","","","","","","","feedback",""
"","","","","","psychophysics","16","296719","0.0-7.0-0.0-0.2","1196","","f","","","","","","","","","","","","","key","f","16.667857142857144","768","428","./1_3_Stimuli/S_ambi40.png","自我","Image","他人","Mismatch","f","true","Practice",""
"","","","","","html-keyboard-response","17","297024","0.0-7.0-0.0-1.2","null","<span style='color:GreenYellow; font-size: 70px;'>正确! </span>","null","","","","","","","","","","","","","","","","","","","","","","","","","feedback",""
"","","","","","psychophysics","18","299641","0.0-7.0-0.0-0.3","1462","","f","","","","","","","","","","","","","key","f","16.666666666666668","768","428","./1_3_Stimuli/C_ambi40.png","朋友","Image","自我","Mismatch","f","true","Practice",""
"","","","","","html-keyboard-response","19","299954","0.0-7.0-0.0-1.3","null","<span style='color:GreenYellow; font-size: 70px;'>正确! </span>","null","","","","","","","","","","","","","","","","","","","","","","","","","feedback",""
"","","","","","psychophysics","20","302153","0.0-7.0-0.0-0.4","1047","","j","","","","","","","","","","","","","key","j","16.66641221374037","768","428","./1_3_Stimuli/C_ambi40.png","自我","Word","自我","Match","j","true","Practice",""
"","","","","","html-keyboard-response","21","302469","0.0-7.0-0.0-1.4","null","<span style='color:GreenYellow; font-size: 70px;'>正确! </span>","null","","","","","","","","","","","","","","","","","","","","","","","","","feedback",""
"","","","","","psychophysics","22","304871","0.0-7.0-0.0-0.5","1249","","f","","","","","","","","","","","","","key","f","16.66993006992999","768","428","./1_3_Stimuli/T_ambi40.png","自我","Word","朋友","Mismatch","f","true","Practice",""
"","","","","","html-keyboard-response","23","305175","0.0-7.0-0.0-1.5","null","<span style='color:GreenYellow; font-size: 70px;'>正确! </span>","null","","","","","","","","","","","","","","","","","","","","","","","","","feedback",""
"","","","","","psychophysics","24","307889","0.0-7.0-0.0-0.6","null","","null","","","","","","","","","","","","","key","null","16.66645962732912","768","428","./1_3_Stimuli/C_ambi40.png","他人","Image","自我","Mismatch","f","false","Practice",""
"","","","","","html-keyboard-response","25","308205","0.0-7.0-0.0-1.6","null","<span class='add_' style='color:yellow; font-size: 70px;'> 太慢! </span>","null","","","","","","","","","","","","","","","","","","","","","","","","","feedback",""
"","","","","","psychophysics","26","310922","0.0-7.0-0.0-0.7","null","","null","","","","","","","","","","","","","key","null","16.668322981366316","768","428","./1_3_Stimuli/S_ambi40.png","他人","Image","他人","Match","j","false","Practice",""
"","","","","","html-keyboard-response","27","311237","0.0-7.0-0.0-1.7","null","<span class='add_' style='color:yellow; font-size: 70px;'> 太慢! </span>","null","","","","","","","","","","","","","","","","","","","","","","","","","feedback",""
"","","","","","psychophysics","28","313423","0.0-7.0-0.0-0.8","1033","","f","","","","","","","","","","","","","key","f","16.666153846153666","768","428","./1_3_Stimuli/S_ambi40.png","朋友","Image","他人","Mismatch","f","true","Practice",""
"","","","","","html-keyboard-response","29","313737","0.0-7.0-0.0-1.8","null","<span style='color:GreenYellow; font-size: 70px;'>正确! </span>","null","","","","","","","","","","","","","","","","","","","","","","","","","feedback",""
"","","","","","psychophysics","30","315987","0.0-7.0-0.0-0.9","1098","","j","","","","","","","","","","","","","key","j","16.667164179104653","768","428","./1_3_Stimuli/C_ambi40.png","自我","Image","自我","Match","j","true","Practice",""
"","","","","","html-keyboard-response","31","316293","0.0-7.0-0.0-1.9","null","<span style='color:GreenYellow; font-size: 70px;'>正确! </span>","null","","","","","","","","","","","","","","","","","","","","","","","","","feedback",""
"","","","","","psychophysics","32","318681","0.0-7.0-0.0-0.10","1233","","f","","","","","","","","","","","","","key","f","16.666901408450787","768","428","./1_3_Stimuli/S_ambi40.png","他人","Word","他人","Match","j","false","Practice",""
"","","","","","html-keyboard-response","33","318989","0.0-7.0-0.0-1.10","null","<span style='color:red; font-size: 70px;'>错误! </span>","null","","","","","","","","","","","","","","","","","","","","","","","","","feedback",""
"","","","","","psychophysics","34","320858","0.0-7.0-0.0-0.11","718","","j","","","","","","","","","","","","","key","j","16.67117117117117","768","428","./1_3_Stimuli/C_ambi40.png","自我","Word","自我","Match","j","true","Practice",""
"","","","","","html-keyboard-response","35","321168","0.0-7.0-0.0-1.11","null","<span style='color:GreenYellow; font-size: 70px;'>正确! </span>","null","","","","","","","","","","","","","","","","","","","","","","","","","feedback",""
"","","","","","psychophysics","36","323442","0.0-7.0-0.0-0.12","1121","","f","","","","","","","","","","","","","key","f","16.667647058823444","768","428","./1_3_Stimuli/T_ambi40.png","自我","Image","朋友","Mismatch","f","true","Practice",""
"","","","","","html-keyboard-response","37","323752","0.0-7.0-0.0-1.12","null","<span style='color:GreenYellow; font-size: 70px;'>正确! </span>","null","","","","","","","","","","","","","","","","","","","","","","","","","feedback",""
"","","","","","psychophysics","38","326090","0.0-7.0-0.0-0.13","1187","","f","","","","","","","","","","","","","key","f","16.666428571428487","768","428","./1_3_Stimuli/T_ambi40.png","他人","Word","朋友","Mismatch","f","true","Practice",""
"","","","","","html-keyboard-response","39","326398","0.0-7.0-0.0-1.13","null","<span style='color:GreenYellow; font-size: 70px;'>正确! </span>","null","","","","","","","","","","","","","","","","","","","","","","","","","feedback",""
"","","","","","psychophysics","40","328868","0.0-7.0-0.0-0.14","1316","","j","","","","","","","","","","","","","key","j","16.670068027210885","768","428","./1_3_Stimuli/T_ambi40.png","朋友","Word","朋友","Match","j","true","Practice",""
"","","","","","html-keyboard-response","41","329176","0.0-7.0-0.0-1.14","null","<span style='color:GreenYellow; font-size: 70px;'>正确! </span>","null","","","","","","","","","","","","","","","","","","","","","","","","","feedback",""
"","","","","","psychophysics","42","331234","0.0-7.0-0.0-0.15","906","","j","","","","","","","","","","","","","key","j","16.66721311475429","768","428","./1_3_Stimuli/T_ambi40.png","朋友","Word","朋友","Match","j","true","Practice",""
"","","","","","html-keyboard-response","43","331538","0.0-7.0-0.0-1.15","null","<span style='color:GreenYellow; font-size: 70px;'>正确! </span>","null","","","","","","","","","","","","","","","","","","","","","","","","","feedback",""
"","","","","","psychophysics","44","333566","0.0-7.0-0.0-0.16","877","","f","","","","","","","","","","","","","key","f","16.664999999999903","768","428","./1_3_Stimuli/S_ambi40.png","他人","Word","他人","Match","j","false","Practice",""
"","","","","","html-keyboard-response","45","333870","0.0-7.0-0.0-1.16","null","<span style='color:red; font-size: 70px;'>错误! </span>","null","","","","","","","","","","","","","","","","","","","","","","","","","feedback",""
"","","","","","psychophysics","46","336040","0.0-7.0-0.0-0.17","1017","","j","","","","","","","","","","","","","key","j","16.661240310077428","768","428","./1_3_Stimuli/C_ambi40.png","他人","Word","自我","Mismatch","f","false","Practice",""
"","","","","","html-keyboard-response","47","336344","0.0-7.0-0.0-1.17","null","<span style='color:red; font-size: 70px;'>错误! </span>","null","","","","","","","","","","","","","","","","","","","","","","","","","feedback",""
"","","","","","psychophysics","48","339052","0.0-7.0-0.0-0.18","null","","null","","","","","","","","","","","","","key","null","16.671428571428788","768","428","./1_3_Stimuli/S_ambi40.png","朋友","Word","他人","Mismatch","f","false","Practice",""
"","","","","","html-keyboard-response","49","339364","0.0-7.0-0.0-1.18","null","<span class='add_' style='color:yellow; font-size: 70px;'> 太慢! </span>","null","","","","","","","","","","","","","","","","","","","","","","","","","feedback",""
"","","","","","psychophysics","50","342070","0.0-7.0-0.0-0.19","null","","null","","","","","","","","","","","","","key","null","16.667080745341398","768","428","./1_3_Stimuli/C_ambi40.png","朋友","Word","自我","Mismatch","f","false","Practice",""
"","","","","","html-keyboard-response","51","342386","0.0-7.0-0.0-1.19","null","<span class='add_' style='color:yellow; font-size: 70px;'> 太慢! </span>","null","","","","","","","","","","","","","","","","","","","","","","","","","feedback",""
"","","","","","psychophysics","52","344491","0.0-7.0-0.0-0.20","952","","j","","","","","","","","","","","","","key","j","16.66825396825406","768","428","./1_3_Stimuli/C_ambi40.png","自我","Image","自我","Match","j","true","Practice",""
"","","","","","html-keyboard-response","53","344798","0.0-7.0-0.0-1.20","null","<span style='color:GreenYellow; font-size: 70px;'>正确! </span>","null","","","","","","","","","","","","","","","","","","","","","","","","","feedback",""
"","","","","","psychophysics","54","346936","0.0-7.0-0.0-0.21","984","","f","","","","","","","","","","","","","key","f","16.66771653543298","768","428","./1_3_Stimuli/S_ambi40.png","他人","Image","他人","Match","j","false","Practice",""
"","","","","","html-keyboard-response","55","347246","0.0-7.0-0.0-1.21","null","<span style='color:red; font-size: 70px;'>错误! </span>","null","","","","","","","","","","","","","","","","","","","","","","","","","feedback",""
"","","","","","psychophysics","56","349951","0.0-7.0-0.0-0.22","null","","null","","","","","","","","","","","","","key","null","16.66645962732912","768","428","./1_3_Stimuli/S_ambi40.png","自我","Word","他人","Mismatch","f","false","Practice",""
"","","","","","html-keyboard-response","57","350261","0.0-7.0-0.0-1.22","null","<span class='add_' style='color:yellow; font-size: 70px;'> 太慢! </span>","null","","","","","","","","","","","","","","","","","","","","","","","","","feedback",""
"","","","","","psychophysics","58","352433","0.0-7.0-0.0-0.23","1020","","f","","","","","","","","","","","","","key","f","16.667441860464937","768","428","./1_3_Stimuli/T_ambi40.png","他人","Image","朋友","Mismatch","f","true","Practice",""
"","","","","","html-keyboard-response","59","352736","0.0-7.0-0.0-1.23","null","<span style='color:GreenYellow; font-size: 70px;'>正确! </span>","null","","","","","","","","","","","","","","","","","","","","","","","","","feedback",""
"","","","","","html-keyboard-response","60","355996","0.0-7.0-1.0-0.0","3258","<style>.context{color:white; font-size: 35px; line-height:40px}</style>                        <div><p class='context'>您正确回答了54% 的试次。</p><p class='context'>您的平均反应时为1100毫秒。</p><p> <div style = 'color: green'><按空格键至下页></div></p>"," ","","","","","","","","","","","","","","","","","","","","","","","","","",""
"","","","","","instructions","61","365297","0.0-7.0-1.0-1.0","9299","","","","","","","","","","","","","","[{""page_index"":0,""viewing_time"":3845},{""page_index"":1,""viewing_time"":2110},{""page_index"":2,""viewing_time"":3344}]","","","","","","","","","","","","","",""
"","","","","","psychophysics","62","367741","0.0-7.1-0.1-0.24","1285","","f","","","","","","","","","","","","","key","f","16.667123287670993","768","428","./1_3_Stimuli/T_ambi40.png","自我","Word","朋友","Mismatch","f","true","Practice",""
"","","","","","html-keyboard-response","63","368053","0.0-7.1-0.1-1.24","null","<span style='color:GreenYellow; font-size: 70px;'>正确! </span>","null","","","","","","","","","","","","","","","","","","","","","","","","","feedback",""
"","","","","","psychophysics","64","370101","0.0-7.1-0.1-0.25","895","","f","","","","","","","","","","","","","key","f","16.657851239669228","768","428","./1_3_Stimuli/T_ambi40.png","他人","Word","朋友","Mismatch","f","true","Practice",""
"","","","","","html-keyboard-response","65","370403","0.0-7.1-0.1-1.25","null","<span style='color:GreenYellow; font-size: 70px;'>正确! </span>","null","","","","","","","","","","","","","","","","","","","","","","","","","feedback",""
"","","","","","psychophysics","66","372699","0.0-7.1-0.1-0.26","1143","","j","","","","","","","","","","","","","key","j","16.66277372262765","768","428","./1_3_Stimuli/T_ambi40.png","朋友","Word","朋友","Match","j","true","Practice",""
"","","","","","html-keyboard-response","67","373010","0.0-7.1-0.1-1.26","null","<span style='color:GreenYellow; font-size: 70px;'>正确! </span>","null","","","","","","","","","","","","","","","","","","","","","","","","","feedback",""
"","","","","","psychophysics","68","375231","0.0-7.1-0.1-0.27","1067","","f","","","","","","","","","","","","","key","f","16.665909090908826","768","428","./1_3_Stimuli/C_ambi40.png","朋友","Word","自我","Mismatch","f","true","Practice",""
"","","","","","html-keyboard-response","69","375536","0.0-7.1-0.1-1.27","null","<span style='color:GreenYellow; font-size: 70px;'>正确! </span>","null","","","","","","","","","","","","","","","","","","","","","","","","","feedback",""
"","","","","","psychophysics","70","377618","0.0-7.1-0.1-0.28","930","","j","","","","","","","","","","","","","key","j","16.657723577235487","768","428","./1_3_Stimuli/C_ambi40.png","自我","Image","自我","Match","j","true","Practice",""
"","","","","","html-keyboard-response","71","377931","0.0-7.1-0.1-1.28","null","<span style='color:GreenYellow; font-size: 70px;'>正确! </span>","null","","","","","","","","","","","","","","","","","","","","","","","","","feedback",""
"","","","","","psychophysics","72","380174","0.0-7.1-0.1-0.29","1088","","f","","","","","","","","","","","","","key","f","16.66492537313459","768","428","./1_3_Stimuli/S_ambi40.png","他人","Image","他人","Match","j","false","Practice",""
"","","","","","html-keyboard-response","73","380483","0.0-7.1-0.1-1.29","null","<span style='color:red; font-size: 70px;'>错误! </span>","null","","","","","","","","","","","","","","","","","","","","","","","","","feedback",""
"","","","","","psychophysics","74","382661","0.0-7.1-0.1-0.30","1022","","f","","","","","","","","","","","","","key","f","16.666923076923165","768","428","./1_3_Stimuli/S_ambi40.png","他人","Word","他人","Match","j","false","Practice",""
"","","","","","html-keyboard-response","75","382975","0.0-7.1-0.1-1.30","null","<span style='color:red; font-size: 70px;'>错误! </span>","null","","","","","","","","","","","","","","","","","","","","","","","","","feedback",""
"","","","","","psychophysics","76","385682","0.0-7.1-0.1-0.31","null","","null","","","","","","","","","","","","","key","null","16.66708074534176","768","428","./1_3_Stimuli/S_ambi40.png","朋友","Word","他人","Mismatch","f","false","Practice",""
"","","","","","html-keyboard-response","77","385996","0.0-7.1-0.1-1.31","null","<span class='add_' style='color:yellow; font-size: 70px;'> 太慢! </span>","null","","","","","","","","","","","","","","","","","","","","","","","","","feedback",""
"","","","","","psychophysics","78","388052","0.0-7.1-0.1-0.32","895","","f","","","","","","","","","","","","","key","f","16.667213114753814","768","428","./1_3_Stimuli/S_ambi40.png","自我","Image","他人","Mismatch","f","true","Practice",""
"","","","","","html-keyboard-response","79","388363","0.0-7.1-0.1-1.32","null","<span style='color:GreenYellow; font-size: 70px;'>正确! </span>","null","","","","","","","","","","","","","","","","","","","","","","","","","feedback",""
"","","","","","psychophysics","80","390313","0.0-7.1-0.1-0.33","792","","j","","","","","","","","","","","","","key","j","16.665517241379412","768","428","./1_3_Stimuli/C_ambi40.png","自我","Word","自我","Match","j","true","Practice",""
"","","","","","html-keyboard-response","81","390626","0.0-7.1-0.1-1.33","null","<span style='color:GreenYellow; font-size: 70px;'>正确! </span>","null","","","","","","","","","","","","","","","","","","","","","","","","","feedback",""
"","","","","","psychophysics","82","392441","0.0-7.1-0.1-0.34","652","","j","","","","","","","","","","","","","key","j","16.664814814814708","768","428","./1_3_Stimuli/C_ambi40.png","自我","Word","自我","Match","j","true","Practice",""
"","","","","","html-keyboard-response","83","392751","0.0-7.1-0.1-1.34","null","<span style='color:GreenYellow; font-size: 70px;'>正确! </span>","null","","","","","","","","","","","","","","","","","","","","","","","","","feedback",""
"","","","","","psychophysics","84","395199","0.0-7.1-0.1-0.35","1293","","j","","","","","","","","","","","","","key","j","16.667123287670993","768","428","./1_3_Stimuli/T_ambi40.png","朋友","Image","朋友","Match","j","true","Practice",""
"","","","","","html-keyboard-response","85","395504","0.0-7.1-0.1-1.35","null","<span style='color:GreenYellow; font-size: 70px;'>正确! </span>","null","","","","","","","","","","","","","","","","","","","","","","","","","feedback",""
"","","","","","psychophysics","86","397633","0.0-7.1-0.1-0.36","977","","f","","","","","","","","","","","","","key","f","16.66269841269841","768","428","./1_3_Stimuli/S_ambi40.png","朋友","Image","他人","Mismatch","f","true","Practice",""
"","","","","","html-keyboard-response","87","397939","0.0-7.1-0.1-1.36","null","<span style='color:GreenYellow; font-size: 70px;'>正确! </span>","null","","","","","","","","","","","","","","","","","","","","","","","","","feedback",""
"","","","","","psychophysics","88","400154","0.0-7.1-0.1-0.37","1065","","j","","","","","","","","","","","","","key","j","16.667175572519263","768","428","./1_3_Stimuli/T_ambi40.png","朋友","Image","朋友","Match","j","true","Practice",""
"","","","","","html-keyboard-response","89","400471","0.0-7.1-0.1-1.37","null","<span style='color:GreenYellow; font-size: 70px;'>正确! </span>","null","","","","","","","","","","","","","","","","","","","","","","","","","feedback",""
"","","","","","psychophysics","90","402425","0.0-7.1-0.1-0.38","803","","f","","","","","","","","","","","","","key","f","16.655172413793103","768","428","./1_3_Stimuli/T_ambi40.png","自我","Image","朋友","Mismatch","f","true","Practice",""
"","","","","","html-keyboard-response","91","402726","0.0-7.1-0.1-1.38","null","<span style='color:GreenYellow; font-size: 70px;'>正确! </span>","null","","","","","","","","","","","","","","","","","","","","","","","","","feedback",""
"","","","","","psychophysics","92","404721","0.0-7.1-0.1-0.39","832","","j","","","","","","","","","","","","","key","j","16.66610169491555","768","428","./1_3_Stimuli/C_ambi40.png","自我","Image","自我","Match","j","true","Practice",""
"","","","","","html-keyboard-response","93","405026","0.0-7.1-0.1-1.39","null","<span style='color:GreenYellow; font-size: 70px;'>正确! </span>","null","","","","","","","","","","","","","","","","","","","","","","","","","feedback",""
"","","","","","psychophysics","94","407131","0.0-7.1-0.1-0.40","953","","f","","","","","","","","","","","","","key","f","16.667200000000186","768","428","./1_3_Stimuli/C_ambi40.png","他人","Word","自我","Mismatch","f","true","Practice",""
"","","","","","html-keyboard-response","95","407439","0.0-7.1-0.1-1.40","null","<span style='color:GreenYellow; font-size: 70px;'>正确! </span>","null","","","","","","","","","","","","","","","","","","","","","","","","","feedback",""
"","","","","","psychophysics","96","409820","0.0-7.1-0.1-0.41","1230","","j","","","","","","","","","","","","","key","j","16.666666666666668","768","428","./1_3_Stimuli/T_ambi40.png","朋友","Word","朋友","Match","j","true","Practice",""
"","","","","","html-keyboard-response","97","410127","0.0-7.1-0.1-1.41","null","<span style='color:GreenYellow; font-size: 70px;'>正确! </span>","null","","","","","","","","","","","","","","","","","","","","","","","","","feedback",""
"","","","","","psychophysics","98","412152","0.0-7.1-0.1-0.42","872","","f","","","","","","","","","","","","","key","f","16.667499999999805","768","428","./1_3_Stimuli/C_ambi40.png","朋友","Image","自我","Mismatch","f","true","Practice",""
"","","","","","html-keyboard-response","99","412462","0.0-7.1-0.1-1.42","null","<span style='color:GreenYellow; font-size: 70px;'>正确! </span>","null","","","","","","","","","","","","","","","","","","","","","","","","","feedback",""
"","","","","","psychophysics","100","414542","0.0-7.1-0.1-0.43","924","","f","","","","","","","","","","","","","key","f","16.66774193548378","768","428","./1_3_Stimuli/S_ambi40.png","自我","Word","他人","Mismatch","f","true","Practice",""
"","","","","","html-keyboard-response","101","414858","0.0-7.1-0.1-1.43","null","<span style='color:GreenYellow; font-size: 70px;'>正确! </span>","null","","","","","","","","","","","","","","","","","","","","","","","","","feedback",""
"","","","","","psychophysics","102","416810","0.0-7.1-0.1-0.44","797","","f","","","","","","","","","","","","","key","f","16.66896551724168","768","428","./1_3_Stimuli/C_ambi40.png","他人","Image","自我","Mismatch","f","true","Practice",""
"","","","","","html-keyboard-response","103","417120","0.0-7.1-0.1-1.44","null","<span style='color:GreenYellow; font-size: 70px;'>正确! </span>","null","","","","","","","","","","","","","","","","","","","","","","","","","feedback",""
"","","","","","psychophysics","104","418995","0.0-7.1-0.1-0.45","723","","f","","","","","","","","","","","","","key","f","16.66696428571439","768","428","./1_3_Stimuli/T_ambi40.png","他人","Image","朋友","Mismatch","f","true","Practice",""
"","","","","","html-keyboard-response","105","419307","0.0-7.1-0.1-1.45","null","<span style='color:GreenYellow; font-size: 70px;'>正确! </span>","null","","","","","","","","","","","","","","","","","","","","","","","","","feedback",""
"","","","","","psychophysics","106","421054","0.0-7.1-0.1-0.46","589","","f","","","","","","","","","","","","","key","f","16.667961165048432","768","428","./1_3_Stimuli/S_ambi40.png","他人","Word","他人","Match","j","false","Practice",""
"","","","","","html-keyboard-response","107","421359","0.0-7.1-0.1-1.46","null","<span style='color:red; font-size: 70px;'>错误! </span>","null","","","","","","","","","","","","","","","","","","","","","","","","","feedback",""
"","","","","","psychophysics","108","423467","0.0-7.1-0.1-0.47","956","","j","","","","","","","","","","","","","key","j","16.668","768","428","./1_3_Stimuli/S_ambi40.png","他人","Image","他人","Match","j","true","Practice",""
"","","","","","html-keyboard-response","109","423773","0.0-7.1-0.1-1.47","null","<span style='color:GreenYellow; font-size: 70px;'>正确! </span>","null","","","","","","","","","","","","","","","","","","","","","","","","","feedback",""
"","","","","","html-keyboard-response","110","427789","0.0-7.1-1.1-0.1","4014","<style>.context{color:white; font-size: 35px; line-height:40px}</style>                        <div><p class='context'>您正确回答了83% 的试次。</p><p class='context'>您的平均反应时为954毫秒。</p><p> <div style = 'color: green'><按空格键至下页></div></p>"," ","","","","","","","","","","","","","","","","","","","","","","","","","",""
"","","","","","instructions","111","433316","0.0-7.1-1.1-1.1","5525","","","","","","","","","","","","","","[{""page_index"":0,""viewing_time"":2314},{""page_index"":1,""viewing_time"":1332},{""page_index"":2,""viewing_time"":1879}]","","","","","","","","","","","","","",""
"","","","","","psychophysics","112","435344","0.0-7.2-0.2-0.48","872","","f","","","","","","","","","","","","","key","f","16.80666666666657","768","428","./1_3_Stimuli/C_ambi40.png","朋友","Image","自我","Mismatch","f","true","Practice",""
"","","","","","html-keyboard-response","113","435659","0.0-7.2-0.2-1.48","null","<span style='color:GreenYellow; font-size: 70px;'>正确! </span>","null","","","","","","","","","","","","","","","","","","","","","","","","","feedback",""
"","","","","","psychophysics","114","438002","0.0-7.2-0.2-0.49","1191","","f","","","","","","","","","","","","","key","f","16.665467625899282","768","428","./1_3_Stimuli/S_ambi40.png","朋友","Image","他人","Mismatch","f","true","Practice",""
"","","","","","html-keyboard-response","115","438313","0.0-7.2-0.2-1.49","null","<span style='color:GreenYellow; font-size: 70px;'>正确! </span>","null","","","","","","","","","","","","","","","","","","","","","","","","","feedback",""
"","","","","","psychophysics","116","440125","0.0-7.2-0.2-0.50","658","","j","","","","","","","","","","","","","key","j","16.666666666666668","768","428","./1_3_Stimuli/C_ambi40.png","自我","Image","自我","Match","j","true","Practice",""
"","","","","","html-keyboard-response","117","440430","0.0-7.2-0.2-1.50","null","<span style='color:GreenYellow; font-size: 70px;'>正确! </span>","null","","","","","","","","","","","","","","","","","","","","","","","","","feedback",""
"","","","","","psychophysics","118","442857","0.0-7.2-0.2-0.51","1272","","f","","","","","","","","","","","","","key","f","16.666206896551966","768","428","./1_3_Stimuli/C_ambi40.png","他人","Word","自我","Mismatch","f","true","Practice",""
"","","","","","html-keyboard-response","119","443171","0.0-7.2-0.2-1.51","null","<span style='color:GreenYellow; font-size: 70px;'>正确! </span>","null","","","","","","","","","","","","","","","","","","","","","","","","","feedback",""
"","","","","","psychophysics","120","445021","0.0-7.2-0.2-0.52","698","","j","","","","","","","","","","","","","key","j","16.668181818181818","768","428","./1_3_Stimuli/C_ambi40.png","自我","Word","自我","Match","j","true","Practice",""
"","","","","","html-keyboard-response","121","445326","0.0-7.2-0.2-1.52","null","<span style='color:GreenYellow; font-size: 70px;'>正确! </span>","null","","","","","","","","","","","","","","","","","","","","","","","","","feedback",""
"","","","","","psychophysics","122","448039","0.0-7.2-0.2-0.53","null","","null","","","","","","","","","","","","","key","null","16.66645962732912","768","428","./1_3_Stimuli/S_ambi40.png","他人","Image","他人","Match","j","false","Practice",""
"","","","","","html-keyboard-response","123","448354","0.0-7.2-0.2-1.53","null","<span class='add_' style='color:yellow; font-size: 70px;'> 太慢! </span>","null","","","","","","","","","","","","","","","","","","","","","","","","","feedback",""
"","","","","","psychophysics","124","450260","0.0-7.2-0.2-0.54","753","","f","","","","","","","","","","","","","key","f","16.666666666666668","768","428","./1_3_Stimuli/T_ambi40.png","自我","Image","朋友","Mismatch","f","true","Practice",""
"","","","","","html-keyboard-response","125","450571","0.0-7.2-0.2-1.54","null","<span style='color:GreenYellow; font-size: 70px;'>正确! </span>","null","","","","","","","","","","","","","","","","","","","","","","","","","feedback",""
"","","","","","psychophysics","126","453093","0.0-7.2-0.2-0.55","1370","","f","","","","","","","","","","","","","key","f","16.65866666666659","768","428","./1_3_Stimuli/S_ambi40.png","朋友","Word","他人","Mismatch","f","true","Practice",""
"","","","","","html-keyboard-response","127","453403","0.0-7.2-0.2-1.55","null","<span style='color:GreenYellow; font-size: 70px;'>正确! </span>","null","","","","","","","","","","","","","","","","","","","","","","","","","feedback",""
"","","","","","psychophysics","128","455680","0.0-7.2-0.2-0.56","1125","","j","","","","","","","","","","","","","key","j","16.666666666666668","768","428","./1_3_Stimuli/T_ambi40.png","朋友","Image","朋友","Match","j","true","Practice",""
"","","","","","html-keyboard-response","129","455995","0.0-7.2-0.2-1.56","null","<span style='color:GreenYellow; font-size: 70px;'>正确! </span>","null","","","","","","","","","","","","","","","","","","","","","","","","","feedback",""
"","","","","","psychophysics","130","457930","0.0-7.2-0.2-0.57","773","","j","","","","","","","","","","","","","key","j","16.666086956522044","768","428","./1_3_Stimuli/C_ambi40.png","自我","Image","自我","Match","j","true","Practice",""
"","","","","","html-keyboard-response","131","458239","0.0-7.2-0.2-1.57","null","<span style='color:GreenYellow; font-size: 70px;'>正确! </span>","null","","","","","","","","","","","","","","","","","","","","","","","","","feedback",""
"","","","","","psychophysics","132","460079","0.0-7.2-0.2-0.58","688","","j","","","","","","","","","","","","","key","j","16.666972477064327","768","428","./1_3_Stimuli/C_ambi40.png","自我","Word","自我","Match","j","true","Practice",""
"","","","","","html-keyboard-response","133","460385","0.0-7.2-0.2-1.58","null","<span style='color:GreenYellow; font-size: 70px;'>正确! </span>","null","","","","","","","","","","","","","","","","","","","","","","","","","feedback",""
"","","","","","psychophysics","134","462618","0.0-7.2-0.2-0.59","1079","","f","","","","","","","","","","","","","key","f","16.6699248120299","768","428","./1_3_Stimuli/S_ambi40.png","他人","Word","他人","Match","j","false","Practice",""
"","","","","","html-keyboard-response","135","462923","0.0-7.2-0.2-1.59","null","<span style='color:red; font-size: 70px;'>错误! </span>","null","","","","","","","","","","","","","","","","","","","","","","","","","feedback",""
"","","","","","psychophysics","136","465074","0.0-7.2-0.2-0.60","1000","","f","","","","","","","","","","","","","key","f","16.667187500000182","768","428","./1_3_Stimuli/S_ambi40.png","自我","Image","他人","Mismatch","f","true","Practice",""
"","","","","","html-keyboard-response","137","465384","0.0-7.2-0.2-1.60","null","<span style='color:GreenYellow; font-size: 70px;'>正确! </span>","null","","","","","","","","","","","","","","","","","","","","","","","","","feedback",""
"","","","","","psychophysics","138","467392","0.0-7.2-0.2-0.61","853","","f","","","","","","","","","","","","","key","f","16.665833333333527","768","428","./1_3_Stimuli/T_ambi40.png","自我","Word","朋友","Mismatch","f","true","Practice",""
"","","","","","html-keyboard-response","139","467707","0.0-7.2-0.2-1.61","null","<span style='color:GreenYellow; font-size: 70px;'>正确! </span>","null","","","","","","","","","","","","","","","","","","","","","","","","","feedback",""
"","","","","","psychophysics","140","469901","0.0-7.2-0.2-0.62","1029","","f","","","","","","","","","","","","","key","f","16.666153846154113","768","428","./1_3_Stimuli/C_ambi40.png","朋友","Word","自我","Mismatch","f","true","Practice",""
"","","","","","html-keyboard-response","141","470210","0.0-7.2-0.2-1.62","null","<span style='color:GreenYellow; font-size: 70px;'>正确! </span>","null","","","","","","","","","","","","","","","","","","","","","","","","","feedback",""
"","","","","","psychophysics","142","472429","0.0-7.2-0.2-0.63","1064","","j","","","","","","","","","","","","","key","j","16.665909090908826","768","428","./1_3_Stimuli/S_ambi40.png","他人","Image","他人","Match","j","true","Practice",""
"","","","","","html-keyboard-response","143","472737","0.0-7.2-0.2-1.63","null","<span style='color:GreenYellow; font-size: 70px;'>正确! </span>","null","","","","","","","","","","","","","","","","","","","","","","","","","feedback",""
"","","","","","psychophysics","144","475003","0.0-7.2-0.2-0.64","1114","","f","","","","","","","","","","","","","key","f","16.658208955223966","768","428","./1_3_Stimuli/T_ambi40.png","他人","Image","朋友","Mismatch","f","true","Practice",""
"","","","","","html-keyboard-response","145","475309","0.0-7.2-0.2-1.64","null","<span style='color:GreenYellow; font-size: 70px;'>正确! </span>","null","","","","","","","","","","","","","","","","","","","","","","","","","feedback",""
"","","","","","psychophysics","146","477828","0.0-7.2-0.2-0.65","1365","","f","","","","","","","","","","","","","key","f","16.66733333333318","768","428","./1_3_Stimuli/S_ambi40.png","自我","Word","他人","Mismatch","f","true","Practice",""
"","","","","","html-keyboard-response","147","478129","0.0-7.2-0.2-1.65","null","<span style='color:GreenYellow; font-size: 70px;'>正确! </span>","null","","","","","","","","","","","","","","","","","","","","","","","","","feedback",""
"","","","","","psychophysics","148","480239","0.0-7.2-0.2-0.66","958","","j","","","","","","","","","","","","","key","j","16.667200000000186","768","428","./1_3_Stimuli/T_ambi40.png","朋友","Word","朋友","Match","j","true","Practice",""
"","","","","","html-keyboard-response","149","480543","0.0-7.2-0.2-1.66","null","<span style='color:GreenYellow; font-size: 70px;'>正确! </span>","null","","","","","","","","","","","","","","","","","","","","","","","","","feedback",""
"","","","","","psychophysics","150","482929","0.0-7.2-0.2-0.67","1233","","j","","","","","","","","","","","","","key","j","16.66619718309843","768","428","./1_3_Stimuli/T_ambi40.png","朋友","Word","朋友","Match","j","true","Practice",""
"","","","","","html-keyboard-response","151","483238","0.0-7.2-0.2-1.67","null","<span style='color:GreenYellow; font-size: 70px;'>正确! </span>","null","","","","","","","","","","","","","","","","","","","","","","","","","feedback",""
"","","","","","psychophysics","152","485398","0.0-7.2-0.2-0.68","1009","","j","","","","","","","","","","","","","key","j","16.65625","768","428","./1_3_Stimuli/T_ambi40.png","朋友","Image","朋友","Match","j","true","Practice",""
"","","","","","html-keyboard-response","153","485699","0.0-7.2-0.2-1.68","null","<span style='color:GreenYellow; font-size: 70px;'>正确! </span>","null","","","","","","","","","","","","","","","","","","","","","","","","","feedback",""
"","","","","","psychophysics","154","487536","0.0-7.2-0.2-0.69","681","","f","","","","","","","","","","","","","key","f","16.666972477064327","768","428","./1_3_Stimuli/T_ambi40.png","他人","Word","朋友","Mismatch","f","true","Practice",""
"","","","","","html-keyboard-response","155","487846","0.0-7.2-0.2-1.69","null","<span style='color:GreenYellow; font-size: 70px;'>正确! </span>","null","","","","","","","","","","","","","","","","","","","","","","","","","feedback",""
"","","","","","psychophysics","156","490014","0.0-7.2-0.2-0.70","1016","","j","","","","","","","","","","","","","key","j","16.6658914728684","768","428","./1_3_Stimuli/S_ambi40.png","他人","Word","他人","Match","j","true","Practice",""
"","","","","","html-keyboard-response","157","490320","0.0-7.2-0.2-1.70","null","<span style='color:GreenYellow; font-size: 70px;'>正确! </span>","null","","","","","","","","","","","","","","","","","","","","","","","","","feedback",""
"","","","","","psychophysics","158","492175","0.0-7.2-0.2-0.71","703","","f","","","","","","","","","","","","","key","f","16.669369369369264","768","428","./1_3_Stimuli/C_ambi40.png","他人","Image","自我","Mismatch","f","true","Practice",""
"","","","","","html-keyboard-response","159","492480","0.0-7.2-0.2-1.71","null","<span style='color:GreenYellow; font-size: 70px;'>正确! </span>","null","","","","","","","","","","","","","","","","","","","","","","","","","feedback",""
"","","","","","html-keyboard-response","160","537820","0.0-8.0","45339","<style>.context{color:white; font-size: 35px; line-height:40px}</style>                          <div><p class='context'>您正确回答了92% 的试次。</p><p class='context'>您的平均反应时为974毫秒。</p><p class='context'>恭喜您完成练习。现在请休息3~5分钟。</p><p class='context'>之后，按任意键进入正式实验。需要注意的是，正式实验将不再提供反应是否正确的反馈。</p><p class='footer' style='font-size: 35px; line-height:40px;'>请在进入正式实验实验之前将您的<span style='color: lightgreen;'>食指</span>放在电脑键盘的相应键位上进行按键。</p>"," ","","","","","","","","","","","","","","","","","","","","","","","","","",""
"","","","","","psychophysics","161","539975","0.0-9.0-0.0-0.0","999","","f","","","","","","","","","","","","","key","f","16.66015625","768","428","./1_3_Stimuli/S_ambi40.png","他人","Word","他人","Match","j","false","Formal",""
"","","","","","psychophysics","162","542248","0.0-9.0-0.0-0.1","1119","","f","","","","","","","","","","","","","key","f","16.666666666666668","768","428","./1_3_Stimuli/S_ambi40.png","朋友","Word","他人","Mismatch","f","true","Formal",""
"","","","","","psychophysics","163","543986","0.0-9.0-0.0-0.2","581","","j","","","","","","","","","","","","","key","j","16.663106796115827","768","428","./1_3_Stimuli/C_ambi40.png","自我","Image","自我","Match","j","true","Formal",""
"","","","","","psychophysics","164","545926","0.0-9.0-0.0-0.3","787","","f","","","","","","","","","","","","","key","f","16.666379310344226","768","428","./1_3_Stimuli/T_ambi40.png","他人","Word","朋友","Mismatch","f","true","Formal",""
"","","","","","psychophysics","165","547749","0.0-9.0-0.0-0.4","667","","f","","","","","","","","","","","","","key","f","16.665740740740958","768","428","./1_3_Stimuli/S_ambi40.png","自我","Word","他人","Mismatch","f","true","Formal",""
"","","","","","psychophysics","166","549529","0.0-9.0-0.0-0.5","623","","j","","","","","","","","","","","","","key","j","16.666037735848835","768","428","./1_3_Stimuli/C_ambi40.png","自我","Image","自我","Match","j","true","Formal",""
"","","","","","psychophysics","167","551359","0.0-9.0-0.0-0.6","674","","f","","","","","","","","","","","","","key","f","16.666055045871346","768","428","./1_3_Stimuli/T_ambi40.png","自我","Word","朋友","Mismatch","f","true","Formal",""
"","","","","","psychophysics","168","553496","0.0-9.0-0.0-0.7","973","","j","","","","","","","","","","","","","key","j","16.6661417322842","768","428","./1_3_Stimuli/S_ambi40.png","他人","Word","他人","Match","j","true","Formal",""
"","","","","","psychophysics","169","555451","0.0-9.0-0.0-0.8","795","","f","","","","","","","","","","","","","key","f","16.667241379310546","768","428","./1_3_Stimuli/T_ambi40.png","朋友","Word","朋友","Match","j","false","Formal",""
"","","","","","psychophysics","170","557302","0.0-9.0-0.0-0.9","697","","f","","","","","","","","","","","","","key","f","16.66545454545518","768","428","./1_3_Stimuli/C_ambi40.png","他人","Image","自我","Mismatch","f","true","Formal",""
"","","","","","psychophysics","171","559333","0.0-9.0-0.0-0.10","878","","f","","","","","","","","","","","","","key","f","16.666666666666668","768","428","./1_3_Stimuli/C_ambi40.png","朋友","Word","自我","Mismatch","f","true","Formal",""
"","","","","","psychophysics","172","561511","0.0-9.0-0.0-0.11","1022","","f","","","","","","","","","","","","","key","f","16.663076923076567","768","428","./1_3_Stimuli/S_ambi40.png","朋友","Image","他人","Mismatch","f","true","Formal",""
"","","","","","psychophysics","173","563477","0.0-9.0-0.0-0.12","814","","j","","","","","","","","","","","","","key","j","16.667521367522163","768","428","./1_3_Stimuli/C_ambi40.png","他人","Word","自我","Mismatch","f","false","Formal",""
"","","","","","psychophysics","174","565628","0.0-9.0-0.0-0.13","996","","j","","","","","","","","","","","","","key","j","16.666406249999454","768","428","./1_3_Stimuli/T_ambi40.png","朋友","Word","朋友","Match","j","true","Formal",""
"","","","","","psychophysics","175","567680","0.0-9.0-0.0-0.14","891","","f","","","","","","","","","","","","","key","f","16.66721311475429","768","428","./1_3_Stimuli/S_ambi40.png","自我","Image","他人","Mismatch","f","true","Formal",""
"","","","","","psychophysics","176","569983","0.0-9.0-0.0-0.15","1144","","f","","","","","","","","","","","","","key","f","16.667153284671702","768","428","./1_3_Stimuli/C_ambi40.png","朋友","Image","自我","Mismatch","f","true","Formal",""
"","","","","","psychophysics","177","572279","0.0-9.0-0.0-0.16","1140","","f","","","","","","","","","","","","","key","f","16.667153284670853","768","428","./1_3_Stimuli/T_ambi40.png","朋友","Image","朋友","Match","j","false","Formal",""
"","","","","","psychophysics","178","574433","0.0-9.0-0.0-0.17","1000","","f","","","","","","","","","","","","","key","f","16.667187499999272","768","428","./1_3_Stimuli/T_ambi40.png","自我","Image","朋友","Mismatch","f","true","Formal",""
"","","","","","psychophysics","179","576945","0.0-9.0-0.0-0.18","1356","","j","","","","","","","","","","","","","key","j","16.66733333333318","768","428","./1_3_Stimuli/C_ambi40.png","自我","Word","自我","Match","j","true","Formal",""
"","","","","","psychophysics","180","579297","0.0-9.0-0.0-0.19","1192","","f","","","","","","","","","","","","","key","f","16.666428571428906","768","428","./1_3_Stimuli/T_ambi40.png","他人","Image","朋友","Mismatch","f","true","Formal",""
"","","","","","psychophysics","181","581543","0.0-9.0-0.0-0.20","1087","","j","","","","","","","","","","","","","key","j","16.666417910448107","768","428","./1_3_Stimuli/S_ambi40.png","他人","Image","他人","Match","j","true","Formal",""
"","","","","","psychophysics","182","583436","0.0-9.0-0.0-0.21","730","","j","","","","","","","","","","","","","key","j","16.66607142857122","768","428","./1_3_Stimuli/C_ambi40.png","自我","Word","自我","Match","j","true","Formal",""
"","","","","","psychophysics","183","585692","0.0-9.0-0.0-0.22","1103","","j","","","","","","","","","","","","","key","j","16.667164179104653","768","428","./1_3_Stimuli/S_ambi40.png","他人","Image","他人","Match","j","true","Formal",""
"","","","","","psychophysics","184","587420","0.0-9.0-0.0-0.23","570","","j","","","","","","","","","","","","","key","j","16.666666666666668","768","428","./1_3_Stimuli/T_ambi40.png","朋友","Image","朋友","Match","j","true","Formal",""
"","","","","","psychophysics","185","589335","0.0-9.0-0.0-0.24","762","","f","","","","","","","","","","","","","key","f","16.66754385964892","768","428","./1_3_Stimuli/S_ambi40.png","朋友","Image","他人","Mismatch","f","true","Formal",""
"","","","","","psychophysics","186","591510","0.0-9.0-0.0-0.25","1020","","j","","","","","","","","","","","","","key","j","16.666923076922718","768","428","./1_3_Stimuli/T_ambi40.png","朋友","Image","朋友","Match","j","true","Formal",""
"","","","","","psychophysics","187","593237","0.0-9.0-0.0-0.26","572","","f","","","","","","","","","","","","","key","f","16.665686274510033","768","428","./1_3_Stimuli/T_ambi40.png","他人","Word","朋友","Mismatch","f","true","Formal",""
"","","","","","psychophysics","188","595244","0.0-9.0-0.0-0.27","855","","j","","","","","","","","","","","","","key","j","16.667499999999805","768","428","./1_3_Stimuli/S_ambi40.png","他人","Image","他人","Match","j","true","Formal",""
"","","","","","psychophysics","189","597316","0.0-9.0-0.0-0.28","913","","j","","","","","","","","","","","","","key","j","16.670731707317074","768","428","./1_3_Stimuli/S_ambi40.png","他人","Word","他人","Match","j","true","Formal",""
"","","","","","psychophysics","190","599225","0.0-9.0-0.0-0.29","758","","f","","","","","","","","","","","","","key","f","16.666666666666668","768","428","./1_3_Stimuli/T_ambi40.png","自我","Word","朋友","Mismatch","f","true","Formal",""
"","","","","","psychophysics","191","601075","0.0-9.0-0.0-0.30","697","","j","","","","","","","","","","","","","key","j","16.667272727271882","768","428","./1_3_Stimuli/C_ambi40.png","自我","Word","自我","Match","j","true","Formal",""
"","","","","","psychophysics","192","603121","0.0-9.0-0.0-0.31","888","","f","","","","","","","","","","","","","key","f","16.666942148759947","768","428","./1_3_Stimuli/C_ambi40.png","他人","Word","自我","Mismatch","f","true","Formal",""
"","","","","","psychophysics","193","605401","0.0-9.0-0.0-0.32","1128","","f","","","","","","","","","","","","","key","f","16.6659259259261","768","428","./1_3_Stimuli/C_ambi40.png","朋友","Image","自我","Mismatch","f","true","Formal",""
"","","","","","psychophysics","194","607197","0.0-9.0-0.0-0.33","642","","j","","","","","","","","","","","","","key","j","16.666355140187353","768","428","./1_3_Stimuli/C_ambi40.png","自我","Word","自我","Match","j","true","Formal",""
"","","","","","psychophysics","195","609243","0.0-9.0-0.0-0.34","889","","j","","","","","","","","","","","","","key","j","16.66393442622951","768","428","./1_3_Stimuli/S_ambi40.png","他人","Word","他人","Match","j","true","Formal",""
"","","","","","psychophysics","196","611525","0.0-9.0-0.0-0.35","1130","","j","","","","","","","","","","","","","key","j","16.66691176470554","768","428","./1_3_Stimuli/T_ambi40.png","朋友","Image","朋友","Match","j","true","Formal",""
"","","","","","psychophysics","197","613610","0.0-9.0-0.0-0.36","925","","f","","","","","","","","","","","","","key","f","16.66532258064516","768","428","./1_3_Stimuli/C_ambi40.png","朋友","Word","自我","Mismatch","f","true","Formal",""
"","","","","","psychophysics","198","615888","0.0-9.0-0.0-0.37","1126","","f","","","","","","","","","","","","","key","f","16.666666666666668","768","428","./1_3_Stimuli/S_ambi40.png","自我","Image","他人","Mismatch","f","true","Formal",""
"","","","","","psychophysics","199","617849","0.0-9.0-0.0-0.38","810","","j","","","","","","","","","","","","","key","j","16.67241379310345","768","428","./1_3_Stimuli/S_ambi40.png","他人","Image","他人","Match","j","true","Formal",""
"","","","","","psychophysics","200","619985","0.0-9.0-0.0-0.39","979","","f","","","","","","","","","","","","","key","f","16.666141732283283","768","428","./1_3_Stimuli/T_ambi40.png","他人","Image","朋友","Mismatch","f","true","Formal",""
"","","","","","psychophysics","201","622528","0.0-9.0-0.0-0.40","1388","","f","","","","","","","","","","","","","key","f","16.66644736842059","768","428","./1_3_Stimuli/T_ambi40.png","自我","Image","朋友","Mismatch","f","true","Formal",""
"","","","","","psychophysics","202","624263","0.0-9.0-0.0-0.41","573","","j","","","","","","","","","","","","","key","j","16.668932038834047","768","428","./1_3_Stimuli/C_ambi40.png","自我","Image","自我","Match","j","true","Formal",""
"","","","","","psychophysics","203","626556","0.0-9.0-0.0-0.42","1134","","j","","","","","","","","","","","","","key","j","16.665693430657445","768","428","./1_3_Stimuli/T_ambi40.png","朋友","Word","朋友","Match","j","true","Formal",""
"","","","","","psychophysics","204","628396","0.0-9.0-0.0-0.43","688","","f","","","","","","","","","","","","","key","f","16.66697247706486","768","428","./1_3_Stimuli/S_ambi40.png","自我","Word","他人","Mismatch","f","true","Formal",""
"","","","","","psychophysics","205","630558","0.0-9.0-0.0-0.44","1007","","f","","","","","","","","","","","","","key","f","16.665891472867497","768","428","./1_3_Stimuli/C_ambi40.png","他人","Image","自我","Mismatch","f","true","Formal",""
"","","","","","psychophysics","206","632914","0.0-9.0-0.0-0.45","1191","","j","","","","","","","","","","","","","key","j","16.665714285714785","768","428","./1_3_Stimuli/T_ambi40.png","朋友","Word","朋友","Match","j","true","Formal",""
"","","","","","psychophysics","207","634634","0.0-9.0-0.0-0.46","561","","j","","","","","","","","","","","","","key","j","16.667647058823302","768","428","./1_3_Stimuli/C_ambi40.png","自我","Image","自我","Match","j","true","Formal",""
"","","","","","psychophysics","208","636610","0.0-9.0-0.0-0.47","821","","f","","","","","","","","","","","","","key","f","16.666949152542966","768","428","./1_3_Stimuli/S_ambi40.png","朋友","Word","他人","Mismatch","f","true","Formal",""
"","","","","","psychophysics","209","638466","0.0-9.0-0.0-0.48","694","","j","","","","","","","","","","","","","key","j","16.66636363636406","768","428","./1_3_Stimuli/C_ambi40.png","自我","Word","自我","Match","j","true","Formal",""
"","","","","","psychophysics","210","641173","0.0-9.0-0.0-0.49","null","","null","","","","","","","","","","","","","key","null","16.669565217391593","768","428","./1_3_Stimuli/T_ambi40.png","朋友","Word","朋友","Match","j","false","Formal",""
"","","","","","psychophysics","211","642921","0.0-9.0-0.0-0.50","589","","j","","","","","","","","","","","","","key","j","16.666019417475503","768","428","./1_3_Stimuli/C_ambi40.png","自我","Image","自我","Match","j","true","Formal",""
"","","","","","psychophysics","212","644636","0.0-9.0-0.0-0.51","563","","j","","","","","","","","","","","","","key","j","16.666336633662674","768","428","./1_3_Stimuli/T_ambi40.png","朋友","Image","朋友","Match","j","true","Formal",""
"","","","","","psychophysics","213","646373","0.0-9.0-0.0-0.52","585","","f","","","","","","","","","","","","","key","f","16.666990291261683","768","428","./1_3_Stimuli/S_ambi40.png","他人","Word","他人","Match","j","false","Formal",""
"","","","","","psychophysics","214","649078","0.0-9.0-0.0-0.53","null","","null","","","","","","","","","","","","","key","null","16.66645962732876","768","428","./1_3_Stimuli/T_ambi40.png","自我","Image","朋友","Mismatch","f","false","Formal",""
"","","","","","psychophysics","215","650951","0.0-9.0-0.0-0.54","712","","f","","","","","","","","","","","","","key","f","16.666666666666668","768","428","./1_3_Stimuli/S_ambi40.png","朋友","Image","他人","Mismatch","f","true","Formal",""
"","","","","","psychophysics","216","653272","0.0-9.0-0.0-0.55","1166","","f","","","","","","","","","","","","","key","f","16.666906474819807","768","428","./1_3_Stimuli/S_ambi40.png","他人","Word","他人","Match","j","false","Formal",""
"","","","","","psychophysics","217","655388","0.0-9.0-0.0-0.56","962","","f","","","","","","","","","","","","","key","f","16.66639999999944","768","428","./1_3_Stimuli/C_ambi40.png","他人","Image","自我","Mismatch","f","true","Formal",""
"","","","","","psychophysics","218","657180","0.0-9.0-0.0-0.57","641","","f","","","","","","","","","","","","","key","f","16.666981132075033","768","428","./1_3_Stimuli/S_ambi40.png","他人","Image","他人","Match","j","false","Formal",""
"","","","","","psychophysics","219","658616","0.0-9.0-0.0-0.58","277","","j","","","","","","","","","","","","","key","j","16.667058823530233","768","428","./1_3_Stimuli/T_ambi40.png","他人","Word","朋友","Mismatch","f","false","Formal",""
"","","","","","psychophysics","220","660641","0.0-9.0-0.0-0.59","872","","j","","","","","","","","","","","","","key","j","16.666115702479146","768","428","./1_3_Stimuli/T_ambi40.png","朋友","Image","朋友","Match","j","true","Formal",""
"","","","","","psychophysics","221","662487","0.0-9.0-0.0-0.60","691","","f","","","","","","","","","","","","","key","f","16.666055045871346","768","428","./1_3_Stimuli/C_ambi40.png","朋友","Image","自我","Mismatch","f","true","Formal",""
"","","","","","psychophysics","222","664787","0.0-9.0-0.0-0.61","1148","","f","","","","","","","","","","","","","key","f","16.66691176470554","768","428","./1_3_Stimuli/T_ambi40.png","他人","Image","朋友","Mismatch","f","true","Formal",""
"","","","","","psychophysics","223","667274","0.0-9.0-0.0-0.62","1335","","j","","","","","","","","","","","","","key","j","16.66711409395989","768","428","./1_3_Stimuli/T_ambi40.png","朋友","Word","朋友","Match","j","true","Formal",""
"","","","","","psychophysics","224","669278","0.0-9.0-0.0-0.63","847","","f","","","","","","","","","","","","","key","f","16.665546218487005","768","428","./1_3_Stimuli/C_ambi40.png","朋友","Word","自我","Mismatch","f","true","Formal",""
"","","","","","psychophysics","225","671262","0.0-9.0-0.0-0.64","824","","f","","","","","","","","","","","","","key","f","16.666101694915056","768","428","./1_3_Stimuli/S_ambi40.png","自我","Word","他人","Mismatch","f","true","Formal",""
"","","","","","psychophysics","226","673098","0.0-9.0-0.0-0.65","680","","f","","","","","","","","","","","","","key","f","16.666972477063794","768","428","./1_3_Stimuli/S_ambi40.png","自我","Image","他人","Mismatch","f","true","Formal",""
"","","","","","psychophysics","227","674881","0.0-9.0-0.0-0.66","630","","j","","","","","","","","","","","","","key","j","16.666037735848835","768","428","./1_3_Stimuli/C_ambi40.png","自我","Word","自我","Match","j","true","Formal",""
"","","","","","psychophysics","228","676798","0.0-9.0-0.0-0.67","759","","f","","","","","","","","","","","","","key","f","16.66754385964994","768","428","./1_3_Stimuli/S_ambi40.png","朋友","Word","他人","Mismatch","f","true","Formal",""
"","","","","","psychophysics","229","678796","0.0-9.0-0.0-0.68","841","","f","","","","","","","","","","","","","key","f","16.6672268907565","768","428","./1_3_Stimuli/S_ambi40.png","他人","Image","他人","Match","j","false","Formal",""
"","","","","","psychophysics","230","680686","0.0-9.0-0.0-0.69","732","","f","","","","","","","","","","","","","key","f","16.66428571428592","768","428","./1_3_Stimuli/T_ambi40.png","自我","Word","朋友","Mismatch","f","true","Formal",""
"","","","","","psychophysics","231","682444","0.0-9.0-0.0-0.70","606","","j","","","","","","","","","","","","","key","j","16.667307692307915","768","428","./1_3_Stimuli/C_ambi40.png","自我","Image","自我","Match","j","true","Formal",""
"","","","","","psychophysics","232","684261","0.0-9.0-0.0-0.71","665","","f","","","","","","","","","","","","","key","f","16.662037037037038","768","428","./1_3_Stimuli/C_ambi40.png","他人","Word","自我","Mismatch","f","true","Formal",""
"","","","","","psychophysics","233","686161","0.0-9.0-0.0-0.72","739","","f","","","","","","","","","","","","","key","f","16.665486725664334","768","428","./1_3_Stimuli/S_ambi40.png","自我","Word","他人","Mismatch","f","true","Formal",""
"","","","","","psychophysics","234","688107","0.0-9.0-0.0-0.73","792","","f","","","","","","","","","","","","","key","f","16.667241379310546","768","428","./1_3_Stimuli/T_ambi40.png","自我","Image","朋友","Mismatch","f","true","Formal",""
"","","","","","psychophysics","235","689703","0.0-9.0-0.0-0.74","440","","f","","","","","","","","","","","","","key","f","16.665957446808264","768","428","./1_3_Stimuli/T_ambi40.png","朋友","Image","朋友","Match","j","false","Formal",""
"","","","","","psychophysics","236","691466","0.0-9.0-0.0-0.75","612","","f","","","","","","","","","","","","","key","f","16.666666666666668","768","428","./1_3_Stimuli/S_ambi40.png","朋友","Word","他人","Mismatch","f","true","Formal",""
"","","","","","psychophysics","237","693232","0.0-9.0-0.0-0.76","610","","f","","","","","","","","","","","","","key","f","16.665714285714508","768","428","./1_3_Stimuli/C_ambi40.png","朋友","Image","自我","Mismatch","f","true","Formal",""
"","","","","","psychophysics","238","695120","0.0-9.0-0.0-0.77","732","","f","","","","","","","","","","","","","key","f","16.668749999999168","768","428","./1_3_Stimuli/T_ambi40.png","他人","Word","朋友","Mismatch","f","true","Formal",""
"","","","","","psychophysics","239","696901","0.0-9.0-0.0-0.78","629","","j","","","","","","","","","","","","","key","j","16.66698113207613","768","428","./1_3_Stimuli/T_ambi40.png","朋友","Word","朋友","Match","j","true","Formal",""
"","","","","","psychophysics","240","698761","0.0-9.0-0.0-0.79","706","","j","","","","","","","","","","","","","key","j","16.66936936936874","768","428","./1_3_Stimuli/C_ambi40.png","自我","Word","自我","Match","j","true","Formal",""
"","","","","","psychophysics","241","700838","0.0-9.0-0.0-0.80","916","","f","","","","","","","","","","","","","key","f","16.666666666666668","768","428","./1_3_Stimuli/C_ambi40.png","他人","Image","自我","Mismatch","f","true","Formal",""
"","","","","","psychophysics","242","702700","0.0-9.0-0.0-0.81","711","","j","","","","","","","","","","","","","key","j","16.666363636363002","768","428","./1_3_Stimuli/C_ambi40.png","自我","Image","自我","Match","j","true","Formal",""
"","","","","","psychophysics","243","704658","0.0-9.0-0.0-0.82","802","","j","","","","","","","","","","","","","key","j","16.664957264957664","768","428","./1_3_Stimuli/S_ambi40.png","自我","Image","他人","Mismatch","f","false","Formal",""
"","","","","","psychophysics","244","706505","0.0-9.0-0.0-0.83","682","","f","","","","","","","","","","","","","key","f","16.667889908257308","768","428","./1_3_Stimuli/C_ambi40.png","他人","Word","自我","Mismatch","f","true","Formal",""
"","","","","","psychophysics","245","708286","0.0-9.0-0.0-0.84","630","","j","","","","","","","","","","","","","key","j","16.666981132075033","768","428","./1_3_Stimuli/C_ambi40.png","自我","Word","自我","Match","j","true","Formal",""
"","","","","","psychophysics","246","710421","0.0-9.0-0.0-0.85","982","","j","","","","","","","","","","","","","key","j","16.669047619047063","768","428","./1_3_Stimuli/T_ambi40.png","朋友","Word","朋友","Match","j","true","Formal",""
"","","","","","psychophysics","247","712229","0.0-9.0-0.0-0.86","656","","j","","","","","","","","","","","","","key","j","16.666355140186262","768","428","./1_3_Stimuli/S_ambi40.png","他人","Word","他人","Match","j","true","Formal",""
"","","","","","psychophysics","248","713884","0.0-9.0-0.0-0.87","497","","f","","","","","","","","","","","","","key","f","16.665306122448506","768","428","./1_3_Stimuli/S_ambi40.png","他人","Image","他人","Match","j","false","Formal",""
"","","","","","psychophysics","249","715868","0.0-9.0-0.0-0.88","833","","j","","","","","","","","","","","","","key","j","16.666101694916044","768","428","./1_3_Stimuli/S_ambi40.png","他人","Word","他人","Match","j","true","Formal",""
"","","","","","psychophysics","250","717731","0.0-9.0-0.0-0.89","709","","j","","","","","","","","","","","","","key","j","16.667567567567357","768","428","./1_3_Stimuli/T_ambi40.png","朋友","Image","朋友","Match","j","true","Formal",""
"","","","","","psychophysics","251","719593","0.0-9.0-0.0-0.90","707","","f","","","","","","","","","","","","","key","f","16.666666666666668","768","428","./1_3_Stimuli/T_ambi40.png","他人","Image","朋友","Mismatch","f","true","Formal",""
"","","","","","psychophysics","252","721878","0.0-9.0-0.0-0.91","1122","","j","","","","","","","","","","","","","key","j","16.666176470588063","768","428","./1_3_Stimuli/S_ambi40.png","他人","Image","他人","Match","j","true","Formal",""
"","","","","","psychophysics","253","724589","0.0-9.0-0.0-0.92","null","","null","","","","","","","","","","","","","key","null","16.66645962732948","768","428","./1_3_Stimuli/S_ambi40.png","朋友","Image","他人","Mismatch","f","false","Formal",""
"","","","","","psychophysics","254","727305","0.0-9.0-0.0-0.93","null","","null","","","","","","","","","","","","","key","null","16.663975155278926","768","428","./1_3_Stimuli/T_ambi40.png","自我","Word","朋友","Mismatch","f","false","Formal",""
"","","","","","psychophysics","255","728976","0.0-9.0-0.0-0.94","520","","j","","","","","","","","","","","","","key","j","16.666666666666668","768","428","./1_3_Stimuli/C_ambi40.png","自我","Image","自我","Match","j","true","Formal",""
"","","","","","psychophysics","256","730683","0.0-9.0-0.0-0.95","555","","j","","","","","","","","","","","","","key","j","16.66633663366383","768","428","./1_3_Stimuli/C_ambi40.png","朋友","Word","自我","Mismatch","f","false","Formal",""
"","","","","","psychophysics","257","732716","0.0-9.0-0.0-0.96","876","","f","","","","","","","","","","","","","key","f","16.666942148760906","768","428","./1_3_Stimuli/C_ambi40.png","朋友","Word","自我","Mismatch","f","true","Formal",""
"","","","","","psychophysics","258","734811","0.0-9.0-0.0-0.97","941","","f","","","","","","","","","","","","","key","f","16.666400000000372","768","428","./1_3_Stimuli/T_ambi40.png","他人","Image","朋友","Mismatch","f","true","Formal",""
"","","","","","psychophysics","259","736945","0.0-9.0-0.0-0.98","972","","f","","","","","","","","","","","","","key","f","16.667716535432522","768","428","./1_3_Stimuli/T_ambi40.png","自我","Image","朋友","Mismatch","f","true","Formal",""
"","","","","","psychophysics","260","739569","0.0-9.0-0.0-0.99","1471","","f","","","","","","","","","","","","","key","f","16.66794871794842","768","428","./1_3_Stimuli/S_ambi40.png","自我","Word","他人","Mismatch","f","true","Formal",""
"","","","","","psychophysics","261","741908","0.0-9.0-0.0-0.100","1186","","j","","","","","","","","","","","","","key","j","16.670714285714453","768","428","./1_3_Stimuli/T_ambi40.png","朋友","Word","朋友","Match","j","true","Formal",""
"","","","","","psychophysics","262","744239","0.0-9.0-0.0-0.101","1167","","f","","","","","","","","","","","","","key","f","16.666666666666668","768","428","./1_3_Stimuli/T_ambi40.png","自我","Word","朋友","Mismatch","f","true","Formal",""
"","","","","","psychophysics","263","745962","0.0-9.0-0.0-0.102","557","","j","","","","","","","","","","","","","key","j","16.666666666666668","768","428","./1_3_Stimuli/C_ambi40.png","自我","Image","自我","Match","j","true","Formal",""
"","","","","","psychophysics","264","748232","0.0-9.0-0.0-0.103","1110","","j","","","","","","","","","","","","","key","j","16.667407407407236","768","428","./1_3_Stimuli/S_ambi40.png","他人","Word","他人","Match","j","true","Formal",""
"","","","","","psychophysics","265","750009","0.0-9.0-0.0-0.104","620","","j","","","","","","","","","","","","","key","j","16.666037735849937","768","428","./1_3_Stimuli/S_ambi40.png","他人","Image","他人","Match","j","true","Formal",""
"","","","","","psychophysics","266","751814","0.0-9.0-0.0-0.105","653","","f","","","","","","","","","","","","","key","f","16.669158878504454","768","428","./1_3_Stimuli/S_ambi40.png","朋友","Word","他人","Mismatch","f","true","Formal",""
"","","","","","psychophysics","267","754080","0.0-9.0-0.0-0.106","1107","","j","","","","","","","","","","","","","key","j","16.666666666666668","768","428","./1_3_Stimuli/S_ambi40.png","他人","Image","他人","Match","j","true","Formal",""
"","","","","","psychophysics","268","756086","0.0-9.0-0.0-0.107","847","","j","","","","","","","","","","","","","key","j","16.66638655462224","768","428","./1_3_Stimuli/T_ambi40.png","朋友","Image","朋友","Match","j","true","Formal",""
"","","","","","psychophysics","269","757979","0.0-9.0-0.0-0.108","740","","j","","","","","","","","","","","","","key","j","16.667256637168347","768","428","./1_3_Stimuli/C_ambi40.png","自我","Image","自我","Match","j","true","Formal",""
"","","","","","psychophysics","270","759898","0.0-9.0-0.0-0.109","764","","f","","","","","","","","","","","","","key","f","16.666666666666668","768","428","./1_3_Stimuli/C_ambi40.png","他人","Image","自我","Mismatch","f","true","Formal",""
"","","","","","psychophysics","271","761976","0.0-9.0-0.0-0.110","927","","f","","","","","","","","","","","","","key","f","16.666935483870592","768","428","./1_3_Stimuli/S_ambi40.png","朋友","Image","他人","Mismatch","f","true","Formal",""
"","","","","","psychophysics","272","764390","0.0-9.0-0.0-0.111","1254","","f","","","","","","","","","","","","","key","f","16.66736111111095","768","428","./1_3_Stimuli/S_ambi40.png","他人","Word","他人","Match","j","false","Formal",""
"","","","","","psychophysics","273","766048","0.0-9.0-0.0-0.112","498","","j","","","","","","","","","","","","","key","j","16.661224489795206","768","428","./1_3_Stimuli/C_ambi40.png","自我","Word","自我","Match","j","true","Formal",""
"","","","","","psychophysics","274","767748","0.0-9.0-0.0-0.113","545","","j","","","","","","","","","","","","","key","j","16.667326732672347","768","428","./1_3_Stimuli/T_ambi40.png","朋友","Word","朋友","Match","j","true","Formal",""
"","","","","","psychophysics","275","769520","0.0-9.0-0.0-0.114","616","","f","","","","","","","","","","","","","key","f","16.665714285714508","768","428","./1_3_Stimuli/T_ambi40.png","他人","Word","朋友","Mismatch","f","true","Formal",""
"","","","","","psychophysics","276","771470","0.0-9.0-0.0-0.115","798","","j","","","","","","","","","","","","","key","j","16.66608695652255","768","428","./1_3_Stimuli/T_ambi40.png","朋友","Image","朋友","Match","j","true","Formal",""
"","","","","","psychophysics","277","773134","0.0-9.0-0.0-0.116","512","","j","","","","","","","","","","","","","key","j","16.667346938775747","768","428","./1_3_Stimuli/C_ambi40.png","自我","Word","自我","Match","j","true","Formal",""
"","","","","","psychophysics","278","774969","0.0-9.0-0.0-0.117","681","","f","","","","","","","","","","","","","key","f","16.666055045872415","768","428","./1_3_Stimuli/S_ambi40.png","自我","Image","他人","Mismatch","f","true","Formal",""
"","","","","","psychophysics","279","777170","0.0-9.0-0.0-0.118","1049","","j","","","","","","","","","","","","","key","j","16.666153846153666","768","428","./1_3_Stimuli/C_ambi40.png","朋友","Image","自我","Mismatch","f","false","Formal",""
"","","","","","psychophysics","280","778942","0.0-9.0-0.0-0.119","621","","f","","","","","","","","","","","","","key","f","16.668571428570985","768","428","./1_3_Stimuli/C_ambi40.png","他人","Word","自我","Mismatch","f","true","Formal",""
"","","","","","html-keyboard-response","281","797538","0.0-9.0-1.0","18593","<style>.context{color:white; font-size: 35px; line-height:40px}</style>                        <div><p class='context'>您正确回答了84% 的试次。</p><p class='context'>您的平均反应时为835毫秒。</p><p> <div style = 'color: green'><按任意键进入休息></div></p>"," ","","","","","","","","","","","","","","","","","","","","","","","","","",""
"","","","","","html-button-response","282","829107","0.0-9.0-2.0","31565","
                  <p>您当前还剩余5组实验</p>
                  <p>现在是休息时间，当您结束休息后，您可以点击 结束休息 按钮 继续</p>
                  <p>建议休息时间还剩余<span id=""iii"">60</span>秒</p>","0","","","","","","","","","","","","","","","","","","","","","","","","","",""
"","","","","","psychophysics","283","831032","0.0-9.0-0.1-0.120","760","","f","","","","","","","","","","","","","key","f","16.666666666666668","768","428","./1_3_Stimuli/C_ambi40.png","朋友","Word","自我","Mismatch","f","true","Formal",""
"","","","","","psychophysics","284","832782","0.0-9.0-0.1-0.121","599","","j","","","","","","","","","","","","","key","j","16.665384615384166","768","428","./1_3_Stimuli/C_ambi40.png","自我","Image","自我","Match","j","true","Formal",""
"","","","","","psychophysics","285","834613","0.0-9.0-0.1-0.122","675","","f","","","","","","","","","","","","","key","f","16.667889908257308","768","428","./1_3_Stimuli/S_ambi40.png","他人","Image","他人","Match","j","false","Formal",""
"","","","","","psychophysics","286","836780","0.0-9.0-0.1-0.123","1012","","j","","","","","","","","","","","","","key","j","16.666666666666668","768","428","./1_3_Stimuli/T_ambi40.png","朋友","Word","朋友","Match","j","true","Formal",""
"","","","","","psychophysics","287","838661","0.0-9.0-0.1-0.124","725","","f","","","","","","","","","","","","","key","f","16.66875000000021","768","428","./1_3_Stimuli/S_ambi40.png","他人","Word","他人","Match","j","false","Formal",""
"","","","","","psychophysics","288","840524","0.0-9.0-0.1-0.125","710","","f","","","","","","","","","","","","","key","f","16.665765765765975","768","428","./1_3_Stimuli/T_ambi40.png","自我","Word","朋友","Mismatch","f","true","Formal",""
"","","","","","psychophysics","289","842415","0.0-9.0-0.1-0.126","737","","j","","","","","","","","","","","","","key","j","16.66607142857122","768","428","./1_3_Stimuli/S_ambi40.png","他人","Image","他人","Match","j","true","Formal",""
"","","","","","psychophysics","290","844411","0.0-9.0-0.1-0.127","840","","j","","","","","","","","","","","","","key","j","16.666386554621262","768","428","./1_3_Stimuli/T_ambi40.png","朋友","Image","朋友","Match","j","true","Formal",""
"","","","","","psychophysics","291","846196","0.0-9.0-0.1-0.128","624","","f","","","","","","","","","","","","","key","f","16.666037735848835","768","428","./1_3_Stimuli/S_ambi40.png","自我","Word","他人","Mismatch","f","true","Formal",""
"","","","","","psychophysics","292","848357","0.0-9.0-0.1-0.129","1003","","j","","","","","","","","","","","","","key","j","16.666666666666668","768","428","./1_3_Stimuli/T_ambi40.png","朋友","Word","朋友","Match","j","true","Formal",""
"","","","","","psychophysics","293","850030","0.0-9.0-0.1-0.130","510","","j","","","","","","","","","","","","","key","j","16.666666666666668","768","428","./1_3_Stimuli/C_ambi40.png","自我","Image","自我","Match","j","true","Formal",""
"","","","","","psychophysics","294","851621","0.0-9.0-0.1-0.131","434","","j","","","","","","","","","","","","","key","j","16.66702127659525","768","428","./1_3_Stimuli/C_ambi40.png","自我","Word","自我","Match","j","true","Formal",""
"","","","","","psychophysics","295","853309","0.0-9.0-0.1-0.132","537","","f","","","","","","","","","","","","","key","f","16.667000000000698","768","428","./1_3_Stimuli/C_ambi40.png","他人","Image","自我","Mismatch","f","true","Formal",""
"","","","","","psychophysics","296","855285","0.0-9.0-0.1-0.133","825","","j","","","","","","","","","","","","","key","j","16.666666666666668","768","428","./1_3_Stimuli/S_ambi40.png","他人","Word","他人","Match","j","true","Formal",""
"","","","","","psychophysics","297","857217","0.0-9.0-0.1-0.134","779","","f","","","","","","","","","","","","","key","f","16.668695652174115","768","428","./1_3_Stimuli/S_ambi40.png","朋友","Image","他人","Mismatch","f","true","Formal",""
"","","","","","psychophysics","298","859922","0.0-9.0-0.1-0.135","null","","null","","","","","","","","","","","","","key","null","16.666666666666668","768","428","./1_3_Stimuli/T_ambi40.png","他人","Image","朋友","Mismatch","f","false","Formal",""
"","","","","","psychophysics","299","862330","0.0-9.0-0.1-0.136","1250","","j","","","","","","","","","","","","","key","j","16.665734265734756","768","428","./1_3_Stimuli/T_ambi40.png","自我","Image","朋友","Mismatch","f","false","Formal",""
"","","","","","psychophysics","300","864010","0.0-9.0-0.1-0.137","522","","j","","","","","","","","","","","","","key","j","16.66900000000023","768","428","./1_3_Stimuli/C_ambi40.png","自我","Word","自我","Match","j","true","Formal",""
"","","","","","psychophysics","301","865779","0.0-9.0-0.1-0.138","606","","f","","","","","","","","","","","","","key","f","16.667619047618825","768","428","./1_3_Stimuli/C_ambi40.png","朋友","Image","自我","Mismatch","f","true","Formal",""
"","","","","","psychophysics","302","868090","0.0-9.0-0.1-0.139","1151","","f","","","","","","","","","","","","","key","f","16.666666666666668","768","428","./1_3_Stimuli/C_ambi40.png","他人","Word","自我","Mismatch","f","true","Formal",""
"","","","","","psychophysics","303","870052","0.0-9.0-0.1-0.140","807","","f","","","","","","","","","","","","","key","f","16.663793103448278","768","428","./1_3_Stimuli/T_ambi40.png","朋友","Image","朋友","Match","j","false","Formal",""
"","","","","","psychophysics","304","872373","0.0-9.0-0.1-0.141","1168","","f","","","","","","","","","","","","","key","f","16.666906474820646","768","428","./1_3_Stimuli/S_ambi40.png","朋友","Word","他人","Mismatch","f","true","Formal",""
"","","","","","psychophysics","305","875087","0.0-9.0-0.1-0.142","null","","null","","","","","","","","","","","","","key","null","16.664596273291924","768","428","./1_3_Stimuli/T_ambi40.png","他人","Word","朋友","Mismatch","f","false","Formal",""
"","","","","","psychophysics","306","876431","0.0-9.0-0.1-0.143","192","","f","","","","","","","","","","","","","key","f","16.665000000000873","768","428","./1_3_Stimuli/S_ambi40.png","自我","Image","他人","Mismatch","f","true","Formal",""
"","","","","","psychophysics","307","878119","0.0-9.0-0.1-0.144","535","","f","","","","","","","","","","","","","key","f","16.668000000000465","768","428","./1_3_Stimuli/S_ambi40.png","他人","Word","他人","Match","j","false","Formal",""
"","","","","","psychophysics","308","880381","0.0-9.0-0.1-0.145","1110","","f","","","","","","","","","","","","","key","f","16.666417910448107","768","428","./1_3_Stimuli/T_ambi40.png","他人","Word","朋友","Mismatch","f","true","Formal",""
"","","","","","psychophysics","309","882567","0.0-9.0-0.1-0.146","1031","","f","","","","","","","","","","","","","key","f","16.667692307692665","768","428","./1_3_Stimuli/S_ambi40.png","他人","Word","他人","Match","j","false","Formal",""
"","","","","","psychophysics","310","884308","0.0-9.0-0.1-0.147","587","","j","","","","","","","","","","","","","key","j","16.66634615384548","768","428","./1_3_Stimuli/C_ambi40.png","自我","Word","自我","Match","j","true","Formal",""
"","","","","","psychophysics","311","886238","0.0-9.0-0.1-0.148","767","","j","","","","","","","","","","","","","key","j","16.666666666666668","768","428","./1_3_Stimuli/S_ambi40.png","自我","Image","他人","Mismatch","f","false","Formal",""
"","","","","","psychophysics","312","888280","0.0-9.0-0.1-0.149","880","","f","","","","","","","","","","","","","key","f","16.666942148760906","768","428","./1_3_Stimuli/S_ambi40.png","朋友","Image","他人","Mismatch","f","true","Formal",""
"","","","","","psychophysics","313","890232","0.0-9.0-0.1-0.150","794","","j","","","","","","","","","","","","","key","j","16.667241379310546","768","428","./1_3_Stimuli/T_ambi40.png","朋友","Word","朋友","Match","j","true","Formal",""
"","","","","","psychophysics","314","892461","0.0-9.0-0.1-0.151","1073","","f","","","","","","","","","","","","","key","f","16.668421052631754","768","428","./1_3_Stimuli/C_ambi40.png","他人","Word","自我","Mismatch","f","true","Formal",""
"","","","","","psychophysics","315","894300","0.0-9.0-0.1-0.152","678","","j","","","","","","","","","","","","","key","j","16.666055045871346","768","428","./1_3_Stimuli/T_ambi40.png","朋友","Word","朋友","Match","j","true","Formal",""
"","","","","","psychophysics","316","896108","0.0-9.0-0.1-0.153","652","","f","","","","","","","","","","","","","key","f","16.668518518519164","768","428","./1_3_Stimuli/S_ambi40.png","朋友","Word","他人","Mismatch","f","true","Formal",""
"","","","","","psychophysics","317","897989","0.0-9.0-0.1-0.154","725","","f","","","","","","","","","","","","","key","f","16.66696428571387","768","428","./1_3_Stimuli/C_ambi40.png","他人","Image","自我","Mismatch","f","true","Formal",""
"","","","","","psychophysics","318","899540","0.0-9.0-0.1-0.155","385","","j","","","","","","","","","","","","","key","j","16.66739130434808","768","428","./1_3_Stimuli/C_ambi40.png","自我","Image","自我","Match","j","true","Formal",""
"","","","","","psychophysics","319","901227","0.0-9.0-0.1-0.156","531","","f","","","","","","","","","","","","","key","f","16.664000000000232","768","428","./1_3_Stimuli/T_ambi40.png","自我","Word","朋友","Mismatch","f","true","Formal",""
"","","","","","psychophysics","320","903121","0.0-9.0-0.1-0.157","739","","f","","","","","","","","","","","","","key","f","16.669642857142858","768","428","./1_3_Stimuli/S_ambi40.png","自我","Word","他人","Mismatch","f","true","Formal",""
"","","","","","psychophysics","321","905198","0.0-9.0-0.1-0.158","927","","j","","","","","","","","","","","","","key","j","16.66747967479656","768","428","./1_3_Stimuli/S_ambi40.png","他人","Image","他人","Match","j","true","Formal",""
"","","","","","psychophysics","322","907464","0.0-9.0-0.1-0.159","1109","","j","","","","","","","","","","","","","key","j","16.668148148147804","768","428","./1_3_Stimuli/C_ambi40.png","自我","Word","自我","Match","j","true","Formal",""
"","","","","","psychophysics","323","909541","0.0-9.0-0.1-0.160","925","","j","","","","","","","","","","","","","key","j","16.666935483870592","768","428","./1_3_Stimuli/T_ambi40.png","朋友","Image","朋友","Match","j","true","Formal",""
"","","","","","psychophysics","324","911020","0.0-9.0-0.1-0.161","316","","j","","","","","","","","","","","","","key","j","16.66551724137958","768","428","./1_3_Stimuli/S_ambi40.png","他人","Image","他人","Match","j","true","Formal",""
"","","","","","psychophysics","325","912795","0.0-9.0-0.1-0.162","624","","f","","","","","","","","","","","","","key","f","16.666666666666668","768","428","./1_3_Stimuli/C_ambi40.png","朋友","Word","自我","Mismatch","f","true","Formal",""
"","","","","","psychophysics","326","914951","0.0-9.0-0.1-0.163","996","","f","","","","","","","","","","","","","key","f","16.667187500000182","768","428","./1_3_Stimuli/C_ambi40.png","朋友","Image","自我","Mismatch","f","true","Formal",""
"","","","","","psychophysics","327","917043","0.0-9.0-0.1-0.164","939","","f","","","","","","","","","","","","","key","f","16.66560000000056","768","428","./1_3_Stimuli/T_ambi40.png","他人","Image","朋友","Mismatch","f","true","Formal",""
"","","","","","psychophysics","328","919025","0.0-9.0-0.1-0.165","826","","j","","","","","","","","","","","","","key","j","16.665254237288135","768","428","./1_3_Stimuli/C_ambi40.png","自我","Image","自我","Match","j","true","Formal",""
"","","","","","psychophysics","329","921359","0.0-9.0-0.1-0.166","1181","","f","","","","","","","","","","","","","key","f","16.666187050359543","768","428","./1_3_Stimuli/T_ambi40.png","自我","Image","朋友","Mismatch","f","true","Formal",""
"","","","","","psychophysics","330","923336","0.0-9.0-0.1-0.167","825","","j","","","","","","","","","","","","","key","j","16.666666666666668","768","428","./1_3_Stimuli/T_ambi40.png","朋友","Image","朋友","Match","j","true","Formal",""
"","","","","","psychophysics","331","925150","0.0-9.0-0.1-0.168","662","","j","","","","","","","","","","","","","key","j","16.662037037037038","768","428","./1_3_Stimuli/C_ambi40.png","朋友","Word","自我","Mismatch","f","false","Formal",""
"","","","","","psychophysics","332","926902","0.0-9.0-0.1-0.169","599","","j","","","","","","","","","","","","","key","j","16.6663461538466","768","428","./1_3_Stimuli/C_ambi40.png","自我","Image","自我","Match","j","true","Formal",""
"","","","","","psychophysics","333","928725","0.0-9.0-0.1-0.170","673","","f","","","","","","","","","","","","","key","f","16.66697247706486","768","428","./1_3_Stimuli/S_ambi40.png","他人","Word","他人","Match","j","false","Formal",""
"","","","","","psychophysics","334","931433","0.0-9.0-0.1-0.171","null","","null","","","","","","","","","","","","","key","null","16.66645962732948","768","428","./1_3_Stimuli/T_ambi40.png","朋友","Word","朋友","Match","j","false","Formal",""
"","","","","","psychophysics","335","933181","0.0-9.0-0.1-0.172","592","","f","","","","","","","","","","","","","key","f","16.667307692307915","768","428","./1_3_Stimuli/S_ambi40.png","朋友","Word","他人","Mismatch","f","true","Formal",""
"","","","","","psychophysics","336","934991","0.0-9.0-0.1-0.173","653","","f","","","","","","","","","","","","","key","f","16.665740740740958","768","428","./1_3_Stimuli/T_ambi40.png","他人","Word","朋友","Mismatch","f","true","Formal",""
"","","","","","psychophysics","337","937705","0.0-9.0-0.1-0.174","null","","null","","","","","","","","","","","","","key","null","16.665217391304203","768","428","./1_3_Stimuli/S_ambi40.png","他人","Image","他人","Match","j","false","Formal",""
"","","","","","psychophysics","338","940415","0.0-9.0-0.1-0.175","null","","null","","","","","","","","","","","","","key","null","16.66645962732876","768","428","./1_3_Stimuli/S_ambi40.png","自我","Image","他人","Mismatch","f","false","Formal",""
"","","","","","psychophysics","339","941756","0.0-9.0-0.1-0.176","185","","f","","","","","","","","","","","","","key","f","16.666249999999128","768","428","./1_3_Stimuli/C_ambi40.png","他人","Word","自我","Mismatch","f","true","Formal",""
"","","","","","psychophysics","340","943160","0.0-9.0-0.1-0.177","252","","f","","","","","","","","","","","","","key","f","16.672289156625663","768","428","./1_3_Stimuli/S_ambi40.png","自我","Word","他人","Mismatch","f","true","Formal",""
"","","","","","psychophysics","341","944796","0.0-9.0-0.1-0.178","474","","j","","","","","","","","","","","","","key","j","16.66597938144306","768","428","./1_3_Stimuli/C_ambi40.png","朋友","Image","自我","Mismatch","f","false","Formal",""
"","","","","","psychophysics","342","946358","0.0-9.0-0.1-0.179","403","","f","","","","","","","","","","","","","key","f","16.670967741935733","768","428","./1_3_Stimuli/T_ambi40.png","朋友","Image","朋友","Match","j","false","Formal",""
"","","","","","psychophysics","343","948015","0.0-9.0-0.1-0.180","499","","f","","","","","","","","","","","","","key","f","16.66734693877456","768","428","./1_3_Stimuli/T_ambi40.png","他人","Image","朋友","Mismatch","f","true","Formal",""
"","","","","","psychophysics","344","949997","0.0-9.0-0.1-0.181","831","","f","","","","","","","","","","","","","key","f","16.666101694915056","768","428","./1_3_Stimuli/T_ambi40.png","朋友","Image","朋友","Match","j","false","Formal",""
"","","","","","psychophysics","345","951552","0.0-9.0-0.1-0.182","397","","j","","","","","","","","","","","","","key","j","16.666304347826593","768","428","./1_3_Stimuli/C_ambi40.png","自我","Word","自我","Match","j","true","Formal",""
"","","","","","psychophysics","346","953446","0.0-9.0-0.1-0.183","741","","f","","","","","","","","","","","","","key","f","16.667256637168347","768","428","./1_3_Stimuli/T_ambi40.png","自我","Word","朋友","Mismatch","f","true","Formal",""
"","","","","","psychophysics","347","955214","0.0-9.0-0.1-0.184","611","","f","","","","","","","","","","","","","key","f","16.666666666666668","768","428","./1_3_Stimuli/C_ambi40.png","他人","Image","自我","Mismatch","f","true","Formal",""
"","","","","","psychophysics","348","957303","0.0-9.0-0.1-0.185","934","","j","","","","","","","","","","","","","key","j","16.66693548387153","768","428","./1_3_Stimuli/C_ambi40.png","自我","Word","自我","Match","j","true","Formal",""
"","","","","","psychophysics","349","958841","0.0-9.0-0.1-0.186","385","","f","","","","","","","","","","","","","key","f","16.66739130434808","768","428","./1_3_Stimuli/S_ambi40.png","他人","Image","他人","Match","j","false","Formal",""
"","","","","","psychophysics","350","960721","0.0-9.0-0.1-0.187","721","","j","","","","","","","","","","","","","key","j","16.66846846846805","768","428","./1_3_Stimuli/T_ambi40.png","朋友","Word","朋友","Match","j","true","Formal",""
"","","","","","psychophysics","351","962528","0.0-9.0-0.1-0.188","656","","f","","","","","","","","","","","","","key","f","16.667289719626385","768","428","./1_3_Stimuli/S_ambi40.png","他人","Word","他人","Match","j","false","Formal",""
"","","","","","psychophysics","352","964217","0.0-9.0-0.1-0.189","536","","j","","","","","","","","","","","","","key","j","16.666999999999533","768","428","./1_3_Stimuli/C_ambi40.png","自我","Image","自我","Match","j","true","Formal",""
"","","","","","psychophysics","353","966057","0.0-9.0-0.1-0.190","685","","f","","","","","","","","","","","","","key","f","16.670000000000634","768","428","./1_3_Stimuli/S_ambi40.png","朋友","Image","他人","Mismatch","f","true","Formal",""
"","","","","","psychophysics","354","968265","0.0-9.0-0.1-0.191","1056","","f","","","","","","","","","","","","","key","f","16.665648854961475","768","428","./1_3_Stimuli/T_ambi40.png","自我","Image","朋友","Mismatch","f","true","Formal",""
"","","","","","psychophysics","355","970008","0.0-9.0-0.1-0.192","587","","j","","","","","","","","","","","","","key","j","16.66634615384548","768","428","./1_3_Stimuli/C_ambi40.png","自我","Word","自我","Match","j","true","Formal",""
"","","","","","psychophysics","356","971963","0.0-9.0-0.1-0.193","793","","f","","","","","","","","","","","","","key","f","16.667241379310546","768","428","./1_3_Stimuli/S_ambi40.png","他人","Image","他人","Match","j","false","Formal",""
"","","","","","psychophysics","357","973847","0.0-9.0-0.1-0.194","733","","f","","","","","","","","","","","","","key","f","16.666964285714908","768","428","./1_3_Stimuli/T_ambi40.png","自我","Word","朋友","Mismatch","f","true","Formal",""
"","","","","","psychophysics","358","975590","0.0-9.0-0.1-0.195","585","","f","","","","","","","","","","","","","key","f","16.6663461538466","768","428","./1_3_Stimuli/T_ambi40.png","自我","Image","朋友","Mismatch","f","true","Formal",""
"","","","","","psychophysics","359","977183","0.0-9.0-0.1-0.196","431","","j","","","","","","","","","","","","","key","j","16.668085106383476","768","428","./1_3_Stimuli/C_ambi40.png","自我","Word","自我","Match","j","true","Formal",""
"","","","","","psychophysics","360","979132","0.0-9.0-0.1-0.197","793","","j","","","","","","","","","","","","","key","j","16.665517241378907","768","428","./1_3_Stimuli/T_ambi40.png","朋友","Word","朋友","Match","j","true","Formal",""
"","","","","","psychophysics","361","981458","0.0-9.0-0.1-0.198","1172","","j","","","","","","","","","","","","","key","j","16.666906474819807","768","428","./1_3_Stimuli/T_ambi40.png","朋友","Image","朋友","Match","j","true","Formal",""
"","","","","","psychophysics","362","983268","0.0-9.0-0.1-0.199","647","","f","","","","","","","","","","","","","key","f","16.67009345794349","768","428","./1_3_Stimuli/S_ambi40.png","自我","Word","他人","Mismatch","f","true","Formal",""
"","","","","","psychophysics","363","985033","0.0-9.0-0.1-0.200","612","","j","","","","","","","","","","","","","key","j","16.667619047619933","768","428","./1_3_Stimuli/T_ambi40.png","朋友","Image","朋友","Match","j","true","Formal",""
"","","","","","psychophysics","364","987174","0.0-9.0-0.1-0.201","986","","f","","","","","","","","","","","","","key","f","16.666406250000364","768","428","./1_3_Stimuli/C_ambi40.png","他人","Word","自我","Mismatch","f","true","Formal",""
"","","","","","psychophysics","365","989114","0.0-9.0-0.1-0.202","783","","j","","","","","","","","","","","","","key","j","16.667826086955916","768","428","./1_3_Stimuli/T_ambi40.png","朋友","Word","朋友","Match","j","true","Formal",""
"","","","","","psychophysics","366","991068","0.0-9.0-0.1-0.203","796","","f","","","","","","","","","","","","","key","f","16.667241379310546","768","428","./1_3_Stimuli/C_ambi40.png","朋友","Image","自我","Mismatch","f","true","Formal",""
"","","","","","psychophysics","367","992892","0.0-9.0-0.1-0.204","671","","f","","","","","","","","","","","","","key","f","16.665137614678898","768","428","./1_3_Stimuli/S_ambi40.png","他人","Image","他人","Match","j","false","Formal",""
"","","","","","psychophysics","368","994856","0.0-9.0-0.1-0.205","805","","f","","","","","","","","","","","","","key","f","16.66495726495667","768","428","./1_3_Stimuli/T_ambi40.png","他人","Word","朋友","Mismatch","f","true","Formal",""
"","","","","","psychophysics","369","996684","0.0-9.0-0.1-0.206","673","","f","","","","","","","","","","","","","key","f","16.666666666666668","768","428","./1_3_Stimuli/T_ambi40.png","他人","Image","朋友","Mismatch","f","true","Formal",""
"","","","","","psychophysics","370","998649","0.0-9.0-0.1-0.207","811","","f","","","","","","","","","","","","","key","f","16.666666666666668","768","428","./1_3_Stimuli/S_ambi40.png","朋友","Word","他人","Mismatch","f","true","Formal",""
"","","","","","psychophysics","371","1000675","0.0-9.0-0.1-0.208","872","","f","","","","","","","","","","","","","key","f","16.666942148759947","768","428","./1_3_Stimuli/S_ambi40.png","朋友","Image","他人","Mismatch","f","true","Formal",""
"","","","","","psychophysics","372","1002385","0.0-9.0-0.1-0.209","557","","j","","","","","","","","","","","","","key","j","16.667326732672347","768","428","./1_3_Stimuli/C_ambi40.png","自我","Image","自我","Match","j","true","Formal",""
"","","","","","psychophysics","373","1004421","0.0-9.0-0.1-0.210","883","","j","","","","","","","","","","","","","key","j","16.666115702479146","768","428","./1_3_Stimuli/C_ambi40.png","自我","Image","自我","Match","j","true","Formal",""
"","","","","","psychophysics","374","1006241","0.0-9.0-0.1-0.211","669","","f","","","","","","","","","","","","","key","f","16.666666666666668","768","428","./1_3_Stimuli/C_ambi40.png","他人","Image","自我","Mismatch","f","true","Formal",""
"","","","","","psychophysics","375","1008108","0.0-9.0-0.1-0.212","704","","j","","","","","","","","","","","","","key","j","16.663063063062854","768","428","./1_3_Stimuli/S_ambi40.png","他人","Word","他人","Match","j","true","Formal",""
"","","","","","psychophysics","376","1010065","0.0-9.0-0.1-0.213","804","","f","","","","","","","","","","","","","key","f","16.66896551724118","768","428","./1_3_Stimuli/C_ambi40.png","朋友","Word","自我","Mismatch","f","true","Formal",""
"","","","","","psychophysics","377","1011851","0.0-9.0-0.1-0.214","629","","j","","","","","","","","","","","","","key","j","16.66698113207613","768","428","./1_3_Stimuli/S_ambi40.png","他人","Word","他人","Match","j","true","Formal",""
"","","","","","psychophysics","378","1013741","0.0-9.0-0.1-0.215","738","","f","","","","","","","","","","","","","key","f","16.665486725664334","768","428","./1_3_Stimuli/S_ambi40.png","自我","Image","他人","Mismatch","f","true","Formal",""
"","","","","","psychophysics","379","1015565","0.0-9.0-0.1-0.216","660","","j","","","","","","","","","","","","","key","j","16.671296296296298","768","428","./1_3_Stimuli/C_ambi40.png","自我","Image","自我","Match","j","true","Formal",""
"","","","","","psychophysics","380","1017424","0.0-9.0-0.1-0.217","703","","f","","","","","","","","","","","","","key","f","16.665765765764927","768","428","./1_3_Stimuli/T_ambi40.png","朋友","Image","朋友","Match","j","false","Formal",""
"","","","","","psychophysics","381","1019615","0.0-9.0-0.1-0.218","1027","","j","","","","","","","","","","","","","key","j","16.66076923076941","768","428","./1_3_Stimuli/S_ambi40.png","他人","Word","他人","Match","j","true","Formal",""
"","","","","","psychophysics","382","1021497","0.0-9.0-0.1-0.219","725","","j","","","","","","","","","","","","","key","j","16.66607142857226","768","428","./1_3_Stimuli/T_ambi40.png","朋友","Word","朋友","Match","j","true","Formal",""
"","","","","","psychophysics","383","1023313","0.0-9.0-0.1-0.220","658","","f","","","","","","","","","","","","","key","f","16.666666666666668","768","428","./1_3_Stimuli/C_ambi40.png","他人","Word","自我","Mismatch","f","true","Formal",""
"","","","","","psychophysics","384","1025358","0.0-9.0-0.1-0.221","887","","f","","","","","","","","","","","","","key","f","16.668852459017156","768","428","./1_3_Stimuli/T_ambi40.png","他人","Image","朋友","Mismatch","f","true","Formal",""
"","","","","","psychophysics","385","1027630","0.0-9.0-0.1-0.222","1114","","f","","","","","","","","","","","","","key","f","16.6659259259261","768","428","./1_3_Stimuli/T_ambi40.png","自我","Image","朋友","Mismatch","f","true","Formal",""
"","","","","","psychophysics","386","1029815","0.0-9.0-0.1-0.223","1030","","j","","","","","","","","","","","","","key","j","16.66769230769177","768","428","./1_3_Stimuli/T_ambi40.png","朋友","Image","朋友","Match","j","true","Formal",""
"","","","","","psychophysics","387","1031764","0.0-9.0-0.1-0.224","793","","j","","","","","","","","","","","","","key","j","16.666379310345228","768","428","./1_3_Stimuli/C_ambi40.png","自我","Word","自我","Match","j","true","Formal",""
"","","","","","psychophysics","388","1033491","0.0-9.0-0.1-0.225","569","","j","","","","","","","","","","","","","key","j","16.667961165048997","768","428","./1_3_Stimuli/C_ambi40.png","自我","Word","自我","Match","j","true","Formal",""
"","","","","","psychophysics","389","1035502","0.0-9.0-0.1-0.226","847","","j","","","","","","","","","","","","","key","j","16.66638655462224","768","428","./1_3_Stimuli/S_ambi40.png","他人","Image","他人","Match","j","true","Formal",""
"","","","","","psychophysics","390","1037297","0.0-9.0-0.1-0.227","641","","f","","","","","","","","","","","","","key","f","16.666355140187353","768","428","./1_3_Stimuli/S_ambi40.png","自我","Image","他人","Mismatch","f","true","Formal",""
"","","","","","psychophysics","391","1039424","0.0-9.0-0.1-0.228","969","","f","","","","","","","","","","","","","key","f","16.666929133857902","768","428","./1_3_Stimuli/T_ambi40.png","自我","Word","朋友","Mismatch","f","true","Formal",""
"","","","","","psychophysics","392","1041620","0.0-9.0-0.1-0.229","1035","","f","","","","","","","","","","","","","key","f","16.666153846153666","768","428","./1_3_Stimuli/S_ambi40.png","朋友","Word","他人","Mismatch","f","true","Formal",""
"","","","","","psychophysics","393","1043961","0.0-9.0-0.1-0.230","1190","","f","","","","","","","","","","","","","key","f","16.667857142857144","768","428","./1_3_Stimuli/C_ambi40.png","朋友","Word","自我","Mismatch","f","true","Formal",""
"","","","","","psychophysics","394","1046313","0.0-9.0-0.1-0.231","1193","","j","","","","","","","","","","","","","key","j","16.667142857143023","768","428","./1_3_Stimuli/T_ambi40.png","朋友","Word","朋友","Match","j","true","Formal",""
"","","","","","psychophysics","395","1048233","0.0-9.0-0.1-0.232","761","","f","","","","","","","","","","","","","key","f","16.66754385964892","768","428","./1_3_Stimuli/C_ambi40.png","他人","Image","自我","Mismatch","f","true","Formal",""
"","","","","","psychophysics","396","1050101","0.0-9.0-0.1-0.233","713","","j","","","","","","","","","","","","","key","j","16.666666666665616","768","428","./1_3_Stimuli/C_ambi40.png","自我","Image","自我","Match","j","true","Formal",""
"","","","","","psychophysics","397","1051934","0.0-9.0-0.1-0.234","679","","f","","","","","","","","","","","","","key","f","16.666972477063794","768","428","./1_3_Stimuli/S_ambi40.png","朋友","Image","他人","Mismatch","f","true","Formal",""
"","","","","","psychophysics","398","1054013","0.0-9.0-0.1-0.235","925","","f","","","","","","","","","","","","","key","f","16.670161290321452","768","428","./1_3_Stimuli/C_ambi40.png","朋友","Image","自我","Mismatch","f","true","Formal",""
"","","","","","psychophysics","399","1056391","0.0-9.0-0.1-0.236","1220","","f","","","","","","","","","","","","","key","f","16.666197183099246","768","428","./1_3_Stimuli/S_ambi40.png","自我","Word","他人","Mismatch","f","true","Formal",""
"","","","","","psychophysics","400","1058818","0.0-9.0-0.1-0.237","1264","","j","","","","","","","","","","","","","key","j","16.6652777777781","768","428","./1_3_Stimuli/S_ambi40.png","他人","Word","他人","Match","j","true","Formal",""
"","","","","","psychophysics","401","1060984","0.0-9.0-0.1-0.238","1013","","f","","","","","","","","","","","","","key","f","16.666406250000364","768","428","./1_3_Stimuli/T_ambi40.png","他人","Word","朋友","Mismatch","f","true","Formal",""
"","","","","","psychophysics","402","1063094","0.0-9.0-0.1-0.239","958","","j","","","","","","","","","","","","","key","j","16.666666666666668","768","428","./1_3_Stimuli/S_ambi40.png","他人","Image","他人","Match","j","true","Formal",""
"","","","","","html-keyboard-response","403","1066786","0.0-9.0-1.1","3690","<style>.context{color:white; font-size: 35px; line-height:40px}</style>                        <div><p class='context'>您正确回答了82% 的试次。</p><p class='context'>您的平均反应时为770毫秒。</p><p> <div style = 'color: green'><按任意键进入休息></div></p>"," ","","","","","","","","","","","","","","","","","","","","","","","","","",""
"","","","","","html-button-response","404","1112097","0.0-9.0-2.1","45306","
                  <p>您当前还剩余4组实验</p>
                  <p>现在是休息时间，当您结束休息后，您可以点击 结束休息 按钮 继续</p>
                  <p>建议休息时间还剩余<span id=""iii"">60</span>秒</p>","0","","","","","","","","","","","","","","","","","","","","","","","","","",""
"","","","","","psychophysics","405","1113963","0.0-9.0-0.2-0.240","714","","f","","","","","","","","","","","","","key","f","16.666666666666668","768","428","./1_3_Stimuli/C_ambi40.png","他人","Image","自我","Mismatch","f","true","Formal",""
"","","","","","psychophysics","406","1115763","0.0-9.0-0.2-0.241","644","","j","","","","","","","","","","","","","key","j","16.666355140185175","768","428","./1_3_Stimuli/S_ambi40.png","他人","Word","他人","Match","j","true","Formal",""
"","","","","","psychophysics","407","1117680","0.0-9.0-0.2-0.242","762","","f","","","","","","","","","","","","","key","f","16.666666666666668","768","428","./1_3_Stimuli/S_ambi40.png","自我","Image","他人","Mismatch","f","true","Formal",""
"","","","","","psychophysics","408","1119664","0.0-9.0-0.2-0.243","831","","j","","","","","","","","","","","","","key","j","16.667796610169887","768","428","./1_3_Stimuli/T_ambi40.png","朋友","Word","朋友","Match","j","true","Formal",""
"","","","","","psychophysics","409","1121558","0.0-9.0-0.2-0.244","737","","f","","","","","","","","","","","","","key","f","16.667256637167316","768","428","./1_3_Stimuli/T_ambi40.png","自我","Image","朋友","Mismatch","f","true","Formal",""
"","","","","","psychophysics","410","1123620","0.0-9.0-0.2-0.245","904","","f","","","","","","","","","","","","","key","f","16.667213114753334","768","428","./1_3_Stimuli/S_ambi40.png","朋友","Word","他人","Mismatch","f","true","Formal",""
"","","","","","psychophysics","411","1125643","0.0-9.0-0.2-0.246","871","","j","","","","","","","","","","","","","key","j","16.665833333332557","768","428","./1_3_Stimuli/T_ambi40.png","朋友","Word","朋友","Match","j","true","Formal",""
"","","","","","psychophysics","412","1127728","0.0-9.0-0.2-0.247","932","","f","","","","","","","","","","","","","key","f","16.66532258064516","768","428","./1_3_Stimuli/S_ambi40.png","朋友","Image","他人","Mismatch","f","true","Formal",""
"","","","","","psychophysics","413","1130404","0.0-9.0-0.2-0.248","1516","","f","","","","","","","","","","","","","key","f","16.666666666666668","768","428","./1_3_Stimuli/S_ambi40.png","他人","Image","他人","Match","j","false","Formal",""
"","","","","","psychophysics","414","1132246","0.0-9.0-0.2-0.249","690","","j","","","","","","","","","","","","","key","j","16.667889908257308","768","428","./1_3_Stimuli/C_ambi40.png","自我","Word","自我","Match","j","true","Formal",""
