"success","timeout","failed_images","failed_audio","failed_video","trial_type","trial_index","time_elapsed","internal_node_id","rt","stimulus","response","value","item_width_mm","item_height_mm","item_width_px","px2mm","view_dist_mm","item_width_deg","px2deg","scale_factor","win_width_deg","win_height_deg","view_history","response_type","key_press","avg_frame_time","center_x","center_y","image","word","target","valence","matchness","correct_response","correct","exp_condition","question_order"
"true","false","[]","[]","[]","preload","0","841","0.0-0.0","","","","","","","","","","","","","","","","","","","","","","","","","","","","",""
"","","","","","html-keyboard-response","1","6114","0.0-1.0","5271","
     <p>您好，欢迎参加本次实验。</p>
     <p>为充分保障您的权利，请确保您已经知晓并同意《参与实验同意书》以及《数据公开知情同意书》。</p>
     <p>如果您未见过上述内容，请咨询实验员。</p>
     <p>如果您选择继续实验，则表示您已经清楚两份知情同意书的内容并同意。</p>
     <p> <div style = ""color: green""><按任意键至下页></div> </p>
     "," ","","","","","","","","","","","","","","","","","","","","","","","","","",""
"","","","","","html-keyboard-response","2","7155","0.0-2.0-0.0","1040","
      <p>本实验首先需要您填写一些基本个人信息。</p>
      <p> <div style = ""color: green""><按任意键至下页></div></p>
      "," ","","","","","","","","","","","","","","","","","","","","","","","","","",""
"","","","","","call-function","3","7157","0.0-2.0-1.0","","","","","","","","","","","","","","","","","","","","","","","","","","","","",""
"","","","","","survey-html-form","4","25708","0.0-2.0-2.0","18546","","{""Q0"":""1026""}","","","","","","","","","","","","","","","","","","","","","","","","","",""
"","","","","","html-button-response","5","26980","0.0-2.0-3.0","1271","<p style = 'color : white'>您的性别</p>","1","","","","","","","","","","","","","","","","","","","","","","","","","",""
"","","","","","survey-html-form","6","34292","0.0-2.0-4.0","7311","","{""Q0"":""2003""}","","","","","","","","","","","","","","","","","","","","","","","","","",""
"","","","","","survey-html-form","7","37389","0.0-2.0-5.0","3096","","{""Q0"":""5""}","","","","","","","","","","","","","","","","","","","","","","","","","",""
"","","","","","virtual-chinrest","8","158740","0.0-3.0","121348","","","","85.6","53.98","591.2431734677235","6.907593511801125","413.29","11.824863469354469","50","0.6833059866560214","29.76","15","","","","","","","","","","","","","","",""
"true","","","","","fullscreen","9","163437","0.0-4.0","","","","","","","","","","","","","","","","","","","","","","","","","","","","",""
"","","","","","instructions","10","222083","0.0-5.0","58644","","","","","","","","","","","","","","[{""page_index"":0,""viewing_time"":15070},{""page_index"":1,""viewing_time"":22582},{""page_index"":0,""viewing_time"":855},{""page_index"":1,""viewing_time"":664},{""page_index"":2,""viewing_time"":15594},{""page_index"":3,""viewing_time"":3879}]","","","","","","","","","","","","","",""
"","","","","","html-keyboard-response","11","225758","0.0-6.0","null","<count-down title=""""></count-down>","null","","","","","","","","","","","","","","","","","","","","","","","","","",""
"","","","","","psychophysics","12","227670","0.0-7.0-0.0-0.0","700","","f","","","","","","","","","","","","","key","f","16.81517857142847","768","428","./1_3_Stimuli/C_ambi40.png","自我","Image","自我","Match","f","true","Practice",""
"","","","","","html-keyboard-response","13","227985","0.0-7.0-0.0-1.0","null","<span style='color:GreenYellow; font-size: 70px;'>正确! </span>","null","","","","","","","","","","","","","","","","","","","","","","","","","feedback",""
"","","","","","psychophysics","14","229872","0.0-7.0-0.0-0.1","730","","j","","","","","","","","","","","","","key","j","16.666371681415825","768","428","./1_3_Stimuli/C_ambi40.png","他人","Word","自我","Mismatch","j","true","Practice",""
"","","","","","html-keyboard-response","15","230174","0.0-7.0-0.0-1.1","null","<span style='color:GreenYellow; font-size: 70px;'>正确! </span>","null","","","","","","","","","","","","","","","","","","","","","","","","","feedback",""
"","","","","","psychophysics","16","232108","0.0-7.0-0.0-0.2","781","","j","","","","","","","","","","","","","key","j","16.66608695652179","768","428","./1_3_Stimuli/C_ambi40.png","他人","Image","自我","Mismatch","j","true","Practice",""
"","","","","","html-keyboard-response","17","232410","0.0-7.0-0.0-1.2","null","<span style='color:GreenYellow; font-size: 70px;'>正确! </span>","null","","","","","","","","","","","","","","","","","","","","","","","","","feedback",""
"","","","","","psychophysics","18","234290","0.0-7.0-0.0-0.3","699","","j","","","","","","","","","","","","","key","j","16.66756756756762","768","428","./1_3_Stimuli/S_ambi40.png","朋友","Word","朋友","Match","f","false","Practice",""
"","","","","","html-keyboard-response","19","234593","0.0-7.0-0.0-1.3","null","<span style='color:red; font-size: 70px;'>错误! </span>","null","","","","","","","","","","","","","","","","","","","","","","","","","feedback",""
"","","","","","psychophysics","20","236427","0.0-7.0-0.0-0.4","675","","f","","","","","","","","","","","","","key","f","16.666055045871612","768","428","./1_3_Stimuli/C_ambi40.png","自我","Image","自我","Match","f","true","Practice",""
"","","","","","html-keyboard-response","21","236729","0.0-7.0-0.0-1.4","null","<span style='color:GreenYellow; font-size: 70px;'>正确! </span>","null","","","","","","","","","","","","","","","","","","","","","","","","","feedback",""
"","","","","","psychophysics","22","239052","0.0-7.0-0.0-0.5","1161","","j","","","","","","","","","","","","","key","j","16.66739130434787","768","428","./1_3_Stimuli/T_ambi40.png","他人","Image","他人","Match","f","false","Practice",""
"","","","","","html-keyboard-response","23","239383","0.0-7.0-0.0-1.5","null","<span style='color:red; font-size: 70px;'>错误! </span>","null","","","","","","","","","","","","","","","","","","","","","","","","","feedback",""
"","","","","","psychophysics","24","241966","0.0-7.0-0.0-0.6","1410","","j","","","","","","","","","","","","","key","j","16.66580645161298","768","428","./1_3_Stimuli/S_ambi40.png","自我","Word","朋友","Mismatch","j","true","Practice",""
"","","","","","html-keyboard-response","25","242280","0.0-7.0-0.0-1.6","null","<span style='color:GreenYellow; font-size: 70px;'>正确! </span>","null","","","","","","","","","","","","","","","","","","","","","","","","","feedback",""
"","","","","","psychophysics","26","244865","0.0-7.0-0.0-0.7","1426","","f","","","","","","","","","","","","","key","f","16.667532467532393","768","428","./1_3_Stimuli/T_ambi40.png","他人","Word","他人","Match","f","true","Practice",""
"","","","","","html-keyboard-response","27","245181","0.0-7.0-0.0-1.7","null","<span style='color:GreenYellow; font-size: 70px;'>正确! </span>","null","","","","","","","","","","","","","","","","","","","","","","","","","feedback",""
"","","","","","psychophysics","28","247284","0.0-7.0-0.0-0.8","943","","f","","","","","","","","","","","","","key","f","16.668","768","428","./1_3_Stimuli/T_ambi40.png","他人","Image","他人","Match","f","true","Practice",""
"","","","","","html-keyboard-response","29","247598","0.0-7.0-0.0-1.8","null","<span style='color:GreenYellow; font-size: 70px;'>正确! </span>","null","","","","","","","","","","","","","","","","","","","","","","","","","feedback",""
"","","","","","psychophysics","30","250298","0.0-7.0-0.0-0.9","1540","","j","","","","","","","","","","","","","key","j","16.667701863354036","768","428","./1_3_Stimuli/T_ambi40.png","朋友","Image","他人","Mismatch","j","true","Practice",""
"","","","","","html-keyboard-response","31","250599","0.0-7.0-0.0-1.9","null","<span class='add_' style='color:yellow; font-size: 70px;'> 太慢! </span>","null","","","","","","","","","","","","","","","","","","","","","","","","","feedback",""
"","","","","","psychophysics","32","252515","0.0-7.0-0.0-0.10","757","","f","","","","","","","","","","","","","key","f","16.666666666666668","768","428","./1_3_Stimuli/C_ambi40.png","自我","Word","自我","Match","f","true","Practice",""
"","","","","","html-keyboard-response","33","252830","0.0-7.0-0.0-1.10","null","<span style='color:GreenYellow; font-size: 70px;'>正确! </span>","null","","","","","","","","","","","","","","","","","","","","","","","","","feedback",""
"","","","","","psychophysics","34","254742","0.0-7.0-0.0-0.11","751","","j","","","","","","","","","","","","","key","j","16.66578947368416","768","428","./1_3_Stimuli/S_ambi40.png","自我","Image","朋友","Mismatch","j","true","Practice",""
"","","","","","html-keyboard-response","35","255046","0.0-7.0-0.0-1.11","null","<span style='color:GreenYellow; font-size: 70px;'>正确! </span>","null","","","","","","","","","","","","","","","","","","","","","","","","","feedback",""
"","","","","","psychophysics","36","257169","0.0-7.0-0.0-0.12","961","","f","","","","","","","","","","","","","key","f","16.666666666666668","768","428","./1_3_Stimuli/T_ambi40.png","他人","Word","他人","Match","f","true","Practice",""
"","","","","","html-keyboard-response","37","257473","0.0-7.0-0.0-1.12","null","<span style='color:GreenYellow; font-size: 70px;'>正确! </span>","null","","","","","","","","","","","","","","","","","","","","","","","","","feedback",""
"","","","","","psychophysics","38","259211","0.0-7.0-0.0-0.13","569","","f","","","","","","","","","","","","","key","f","16.666990291261968","768","428","./1_3_Stimuli/S_ambi40.png","朋友","Word","朋友","Match","f","true","Practice",""
"","","","","","html-keyboard-response","39","259520","0.0-7.0-0.0-1.13","null","<span style='color:GreenYellow; font-size: 70px;'>正确! </span>","null","","","","","","","","","","","","","","","","","","","","","","","","","feedback",""
"","","","","","psychophysics","40","261516","0.0-7.0-0.0-0.14","841","","f","","","","","","","","","","","","","key","f","16.666386554621994","768","428","./1_3_Stimuli/C_ambi40.png","自我","Word","自我","Match","f","true","Practice",""
"","","","","","html-keyboard-response","41","261832","0.0-7.0-0.0-1.14","null","<span style='color:GreenYellow; font-size: 70px;'>正确! </span>","null","","","","","","","","","","","","","","","","","","","","","","","","","feedback",""
"","","","","","psychophysics","42","263600","0.0-7.0-0.0-0.15","609","","j","","","","","","","","","","","","","key","j","16.666666666666668","768","428","./1_3_Stimuli/T_ambi40.png","自我","Image","他人","Mismatch","j","true","Practice",""
"","","","","","html-keyboard-response","43","263908","0.0-7.0-0.0-1.15","null","<span style='color:GreenYellow; font-size: 70px;'>正确! </span>","null","","","","","","","","","","","","","","","","","","","","","","","","","feedback",""
"","","","","","psychophysics","44","266078","0.0-7.0-0.0-0.16","986","","f","","","","","","","","","","","","","key","f","16.667441860464937","768","428","./1_3_Stimuli/C_ambi40.png","朋友","Word","自我","Mismatch","j","false","Practice",""
"","","","","","html-keyboard-response","45","266388","0.0-7.0-0.0-1.16","null","<span style='color:red; font-size: 70px;'>错误! </span>","null","","","","","","","","","","","","","","","","","","","","","","","","","feedback",""
"","","","","","psychophysics","46","268529","0.0-7.0-0.0-0.17","987","","j","","","","","","","","","","","","","key","j","16.666929133857902","768","428","./1_3_Stimuli/C_ambi40.png","朋友","Image","自我","Mismatch","j","true","Practice",""
"","","","","","html-keyboard-response","47","268842","0.0-7.0-0.0-1.17","null","<span style='color:GreenYellow; font-size: 70px;'>正确! </span>","null","","","","","","","","","","","","","","","","","","","","","","","","","feedback",""
"","","","","","psychophysics","48","270584","0.0-7.0-0.0-0.18","584","","f","","","","","","","","","","","","","key","f","16.666019417475503","768","428","./1_3_Stimuli/S_ambi40.png","朋友","Image","朋友","Match","f","true","Practice",""
"","","","","","html-keyboard-response","49","270897","0.0-7.0-0.0-1.18","null","<span style='color:GreenYellow; font-size: 70px;'>正确! </span>","null","","","","","","","","","","","","","","","","","","","","","","","","","feedback",""
"","","","","","psychophysics","50","272595","0.0-7.0-0.0-0.19","517","","j","","","","","","","","","","","","","key","j","16.665346534653004","768","428","./1_3_Stimuli/T_ambi40.png","朋友","Word","他人","Mismatch","j","true","Practice",""
"","","","","","html-keyboard-response","51","272905","0.0-7.0-0.0-1.19","null","<span style='color:GreenYellow; font-size: 70px;'>正确! </span>","null","","","","","","","","","","","","","","","","","","","","","","","","","feedback",""
"","","","","","psychophysics","52","274772","0.0-7.0-0.0-0.20","714","","j","","","","","","","","","","","","","key","j","16.663636363636364","768","428","./1_3_Stimuli/T_ambi40.png","自我","Word","他人","Mismatch","j","true","Practice",""
"","","","","","html-keyboard-response","53","275074","0.0-7.0-0.0-1.20","null","<span style='color:GreenYellow; font-size: 70px;'>正确! </span>","null","","","","","","","","","","","","","","","","","","","","","","","","","feedback",""
"","","","","","psychophysics","54","277038","0.0-7.0-0.0-0.21","812","","f","","","","","","","","","","","","","key","f","16.66896551724168","768","428","./1_3_Stimuli/S_ambi40.png","他人","Word","朋友","Mismatch","j","false","Practice",""
"","","","","","html-keyboard-response","55","277349","0.0-7.0-0.0-1.21","null","<span style='color:red; font-size: 70px;'>错误! </span>","null","","","","","","","","","","","","","","","","","","","","","","","","","feedback",""
"","","","","","psychophysics","56","279367","0.0-7.0-0.0-0.22","830","","j","","","","","","","","","","","","","key","j","16.667499999999805","768","428","./1_3_Stimuli/S_ambi40.png","朋友","Image","朋友","Match","f","false","Practice",""
"","","","","","html-keyboard-response","57","279683","0.0-7.0-0.0-1.22","null","<span style='color:red; font-size: 70px;'>错误! </span>","null","","","","","","","","","","","","","","","","","","","","","","","","","feedback",""
"","","","","","psychophysics","58","281754","0.0-7.0-0.0-0.23","912","","j","","","","","","","","","","","","","key","j","16.66910569105729","768","428","./1_3_Stimuli/S_ambi40.png","他人","Image","朋友","Mismatch","j","true","Practice",""
"","","","","","html-keyboard-response","59","282069","0.0-7.0-0.0-1.23","null","<span style='color:GreenYellow; font-size: 70px;'>正确! </span>","null","","","","","","","","","","","","","","","","","","","","","","","","","feedback",""
"","","","","","html-keyboard-response","60","285092","0.0-7.0-1.0-0.0","3018","<style>.context{color:white; font-size: 35px; line-height:40px}</style>                        <div><p class='context'>您正确回答了79% 的试次。</p><p class='context'>您的平均反应时为864毫秒。</p><p> <div style = 'color: green'><按空格键至下页></div></p>"," ","","","","","","","","","","","","","","","","","","","","","","","","","",""
"","","","","","instructions","61","291029","0.0-7.0-1.0-1.0","5934","","","","","","","","","","","","","","[{""page_index"":0,""viewing_time"":2316},{""page_index"":1,""viewing_time"":1977},{""page_index"":2,""viewing_time"":1640}]","","","","","","","","","","","","","",""
"","","","","","psychophysics","62","293107","0.0-7.1-0.1-0.24","921","","j","","","","","","","","","","","","","key","j","16.665853658536776","768","428","./1_3_Stimuli/T_ambi40.png","自我","Image","他人","Mismatch","j","true","Practice",""
"","","","","","html-keyboard-response","63","293420","0.0-7.1-0.1-1.24","null","<span style='color:GreenYellow; font-size: 70px;'>正确! </span>","null","","","","","","","","","","","","","","","","","","","","","","","","","feedback",""
"","","","","","psychophysics","64","295348","0.0-7.1-0.1-0.25","776","","j","","","","","","","","","","","","","key","j","16.667826086956925","768","428","./1_3_Stimuli/C_ambi40.png","朋友","Word","自我","Mismatch","j","true","Practice",""
"","","","","","html-keyboard-response","65","295654","0.0-7.1-0.1-1.25","null","<span style='color:GreenYellow; font-size: 70px;'>正确! </span>","null","","","","","","","","","","","","","","","","","","","","","","","","","feedback",""
"","","","","","psychophysics","66","297577","0.0-7.1-0.1-0.26","749","","j","","","","","","","","","","","","","key","j","16.666956521738726","768","428","./1_3_Stimuli/C_ambi40.png","他人","Image","自我","Mismatch","j","true","Practice",""
"","","","","","html-keyboard-response","67","297892","0.0-7.1-0.1-1.26","null","<span style='color:GreenYellow; font-size: 70px;'>正确! </span>","null","","","","","","","","","","","","","","","","","","","","","","","","","feedback",""
"","","","","","psychophysics","68","299993","0.0-7.1-0.1-0.27","949","","j","","","","","","","","","","","","","key","j","16.667460317460595","768","428","./1_3_Stimuli/T_ambi40.png","朋友","Image","他人","Mismatch","j","true","Practice",""
"","","","","","html-keyboard-response","69","300298","0.0-7.1-0.1-1.27","null","<span style='color:GreenYellow; font-size: 70px;'>正确! </span>","null","","","","","","","","","","","","","","","","","","","","","","","","","feedback",""
"","","","","","psychophysics","70","301935","0.0-7.1-0.1-0.28","477","","f","","","","","","","","","","","","","key","f","16.66597938144306","768","428","./1_3_Stimuli/C_ambi40.png","自我","Word","自我","Match","f","true","Practice",""
"","","","","","html-keyboard-response","71","302249","0.0-7.1-0.1-1.28","null","<span style='color:GreenYellow; font-size: 70px;'>正确! </span>","null","","","","","","","","","","","","","","","","","","","","","","","","","feedback",""
"","","","","","psychophysics","72","304045","0.0-7.1-0.1-0.29","617","","f","","","","","","","","","","","","","key","f","16.66822429906542","768","428","./1_3_Stimuli/S_ambi40.png","朋友","Image","朋友","Match","f","true","Practice",""
"","","","","","html-keyboard-response","73","304359","0.0-7.1-0.1-1.29","null","<span style='color:GreenYellow; font-size: 70px;'>正确! </span>","null","","","","","","","","","","","","","","","","","","","","","","","","","feedback",""
"","","","","","psychophysics","74","306153","0.0-7.1-0.1-0.30","641","","j","","","","","","","","","","","","","key","j","16.666037735849386","768","428","./1_3_Stimuli/C_ambi40.png","他人","Word","自我","Mismatch","j","true","Practice",""
"","","","","","html-keyboard-response","75","306454","0.0-7.1-0.1-1.30","null","<span style='color:GreenYellow; font-size: 70px;'>正确! </span>","null","","","","","","","","","","","","","","","","","","","","","","","","","feedback",""
"","","","","","psychophysics","76","308280","0.0-7.1-0.1-0.31","671","","f","","","","","","","","","","","","","key","f","16.667889908256775","768","428","./1_3_Stimuli/C_ambi40.png","自我","Image","自我","Match","f","true","Practice",""
"","","","","","html-keyboard-response","77","308591","0.0-7.1-0.1-1.31","null","<span style='color:GreenYellow; font-size: 70px;'>正确! </span>","null","","","","","","","","","","","","","","","","","","","","","","","","","feedback",""
"","","","","","psychophysics","78","310528","0.0-7.1-0.1-0.32","770","","f","","","","","","","","","","","","","key","f","16.668695652174115","768","428","./1_3_Stimuli/T_ambi40.png","他人","Image","他人","Match","f","true","Practice",""
"","","","","","html-keyboard-response","79","310841","0.0-7.1-0.1-1.32","null","<span style='color:GreenYellow; font-size: 70px;'>正确! </span>","null","","","","","","","","","","","","","","","","","","","","","","","","","feedback",""
"","","","","","psychophysics","80","312651","0.0-7.1-0.1-0.33","658","","j","","","","","","","","","","","","","key","j","16.66822429906542","768","428","./1_3_Stimuli/T_ambi40.png","朋友","Word","他人","Mismatch","j","true","Practice",""
"","","","","","html-keyboard-response","81","312966","0.0-7.1-0.1-1.33","null","<span style='color:GreenYellow; font-size: 70px;'>正确! </span>","null","","","","","","","","","","","","","","","","","","","","","","","","","feedback",""
"","","","","","psychophysics","82","314801","0.0-7.1-0.1-0.34","676","","j","","","","","","","","","","","","","key","j","16.667889908256775","768","428","./1_3_Stimuli/S_ambi40.png","自我","Word","朋友","Mismatch","j","true","Practice",""
"","","","","","html-keyboard-response","83","315107","0.0-7.1-0.1-1.34","null","<span style='color:GreenYellow; font-size: 70px;'>正确! </span>","null","","","","","","","","","","","","","","","","","","","","","","","","","feedback",""
"","","","","","psychophysics","84","317071","0.0-7.1-0.1-0.35","797","","f","","","","","","","","","","","","","key","f","16.666379310345228","768","428","./1_3_Stimuli/S_ambi40.png","朋友","Word","朋友","Match","f","true","Practice",""
"","","","","","html-keyboard-response","85","317375","0.0-7.1-0.1-1.35","null","<span style='color:GreenYellow; font-size: 70px;'>正确! </span>","null","","","","","","","","","","","","","","","","","","","","","","","","","feedback",""
"","","","","","psychophysics","86","319088","0.0-7.1-0.1-0.36","563","","j","","","","","","","","","","","","","key","j","16.669306930692837","768","428","./1_3_Stimuli/S_ambi40.png","他人","Word","朋友","Mismatch","j","true","Practice",""
"","","","","","html-keyboard-response","87","319395","0.0-7.1-0.1-1.36","null","<span style='color:GreenYellow; font-size: 70px;'>正确! </span>","null","","","","","","","","","","","","","","","","","","","","","","","","","feedback",""
"","","","","","psychophysics","88","321250","0.0-7.1-0.1-0.37","693","","f","","","","","","","","","","","","","key","f","16.667272727272938","768","428","./1_3_Stimuli/C_ambi40.png","自我","Word","自我","Match","f","true","Practice",""
"","","","","","html-keyboard-response","89","321566","0.0-7.1-0.1-1.37","null","<span style='color:GreenYellow; font-size: 70px;'>正确! </span>","null","","","","","","","","","","","","","","","","","","","","","","","","","feedback",""
"","","","","","psychophysics","90","323283","0.0-7.1-0.1-0.38","525","","j","","","","","","","","","","","","","key","j","16.666666666666668","768","428","./1_3_Stimuli/T_ambi40.png","他人","Image","他人","Match","f","false","Practice",""
"","","","","","html-keyboard-response","91","323598","0.0-7.1-0.1-1.38","null","<span style='color:red; font-size: 70px;'>错误! </span>","null","","","","","","","","","","","","","","","","","","","","","","","","","feedback",""
"","","","","","psychophysics","92","325345","0.0-7.1-0.1-0.39","587","","f","","","","","","","","","","","","","key","f","16.66761904761938","768","428","./1_3_Stimuli/S_ambi40.png","朋友","Word","朋友","Match","f","true","Practice",""
"","","","","","html-keyboard-response","93","325648","0.0-7.1-0.1-1.39","null","<span style='color:GreenYellow; font-size: 70px;'>正确! </span>","null","","","","","","","","","","","","","","","","","","","","","","","","","feedback",""
"","","","","","psychophysics","94","327552","0.0-7.1-0.1-0.40","745","","f","","","","","","","","","","","","","key","f","16.666371681415825","768","428","./1_3_Stimuli/S_ambi40.png","朋友","Image","朋友","Match","f","true","Practice",""
"","","","","","html-keyboard-response","95","327856","0.0-7.1-0.1-1.40","null","<span style='color:GreenYellow; font-size: 70px;'>正确! </span>","null","","","","","","","","","","","","","","","","","","","","","","","","","feedback",""
"","","","","","psychophysics","96","329598","0.0-7.1-0.1-0.41","573","","f","","","","","","","","","","","","","key","f","16.66699029126225","768","428","./1_3_Stimuli/C_ambi40.png","自我","Image","自我","Match","f","true","Practice",""
"","","","","","html-keyboard-response","97","329909","0.0-7.1-0.1-1.41","null","<span style='color:GreenYellow; font-size: 70px;'>正确! </span>","null","","","","","","","","","","","","","","","","","","","","","","","","","feedback",""
"","","","","","psychophysics","98","331676","0.0-7.1-0.1-0.42","615","","j","","","","","","","","","","","","","key","j","16.666666666666668","768","428","./1_3_Stimuli/T_ambi40.png","自我","Word","他人","Mismatch","j","true","Practice",""
"","","","","","html-keyboard-response","99","331991","0.0-7.1-0.1-1.42","null","<span style='color:GreenYellow; font-size: 70px;'>正确! </span>","null","","","","","","","","","","","","","","","","","","","","","","","","","feedback",""
"","","","","","psychophysics","100","333771","0.0-7.1-0.1-0.43","628","","j","","","","","","","","","","","","","key","j","16.664761904762347","768","428","./1_3_Stimuli/T_ambi40.png","他人","Word","他人","Match","f","false","Practice",""
"","","","","","html-keyboard-response","101","334075","0.0-7.1-0.1-1.43","null","<span style='color:red; font-size: 70px;'>错误! </span>","null","","","","","","","","","","","","","","","","","","","","","","","","","feedback",""
"","","","","","psychophysics","102","336199","0.0-7.1-0.1-0.44","971","","j","","","","","","","","","","","","","key","j","16.665873015872737","768","428","./1_3_Stimuli/S_ambi40.png","他人","Image","朋友","Mismatch","j","true","Practice",""
"","","","","","html-keyboard-response","103","336504","0.0-7.1-0.1-1.44","null","<span style='color:GreenYellow; font-size: 70px;'>正确! </span>","null","","","","","","","","","","","","","","","","","","","","","","","","","feedback",""
"","","","","","psychophysics","104","338560","0.0-7.1-0.1-0.45","902","","f","","","","","","","","","","","","","key","f","16.66747967479656","768","428","./1_3_Stimuli/S_ambi40.png","自我","Image","朋友","Mismatch","j","false","Practice",""
"","","","","","html-keyboard-response","105","338876","0.0-7.1-0.1-1.45","null","<span style='color:red; font-size: 70px;'>错误! </span>","null","","","","","","","","","","","","","","","","","","","","","","","","","feedback",""
"","","","","","psychophysics","106","341030","0.0-7.1-0.1-0.46","1003","","j","","","","","","","","","","","","","key","j","16.66640624999991","768","428","./1_3_Stimuli/C_ambi40.png","朋友","Image","自我","Mismatch","j","true","Practice",""
"","","","","","html-keyboard-response","107","341360","0.0-7.1-0.1-1.46","null","<span style='color:GreenYellow; font-size: 70px;'>正确! </span>","null","","","","","","","","","","","","","","","","","","","","","","","","","feedback",""
"","","","","","psychophysics","108","343268","0.0-7.1-0.1-0.47","746","","f","","","","","","","","","","","","","key","f","16.66637168141634","768","428","./1_3_Stimuli/T_ambi40.png","他人","Word","他人","Match","f","true","Practice",""
"","","","","","html-keyboard-response","109","343583","0.0-7.1-0.1-1.47","null","<span style='color:GreenYellow; font-size: 70px;'>正确! </span>","null","","","","","","","","","","","","","","","","","","","","","","","","","feedback",""
"","","","","","html-keyboard-response","110","359403","0.0-8.0","15817","<style>.context{color:white; font-size: 35px; line-height:40px}</style>                          <div><p class='context'>您正确回答了88% 的试次。</p><p class='context'>您的平均反应时为724毫秒。</p><p class='context'>恭喜您完成练习。现在请休息3~5分钟。</p><p class='context'>之后，按任意键进入正式实验。需要注意的是，正式实验将不再提供反应是否正确的反馈。</p><p class='footer' style='font-size: 35px; line-height:40px;'>请在进入正式实验实验之前将您的<span style='color: lightgreen;'>食指</span>放在电脑键盘的相应键位上进行按键。</p>"," ","","","","","","","","","","","","","","","","","","","","","","","","","",""
"","","","","","psychophysics","111","361501","0.0-9.0-0.0-0.0","943","","f","","","","","","","","","","","","","key","f","16.666399999999907","768","428","./1_3_Stimuli/C_ambi40.png","自我","Image","自我","Match","f","true","Formal",""
"","","","","","psychophysics","112","363586","0.0-9.0-0.0-0.1","928","","j","","","","","","","","","","","","","key","j","16.66693548387106","768","428","./1_3_Stimuli/C_ambi40.png","朋友","Word","自我","Mismatch","j","true","Formal",""
"","","","","","psychophysics","113","365853","0.0-9.0-0.0-0.2","1104","","f","","","","","","","","","","","","","key","f","16.666666666666668","768","428","./1_3_Stimuli/S_ambi40.png","朋友","Word","朋友","Match","f","true","Formal",""
"","","","","","psychophysics","114","367630","0.0-9.0-0.0-0.3","623","","j","","","","","","","","","","","","","key","j","16.666037735849386","768","428","./1_3_Stimuli/S_ambi40.png","自我","Image","朋友","Mismatch","j","true","Formal",""
"","","","","","psychophysics","115","369416","0.0-9.0-0.0-0.4","633","","j","","","","","","","","","","","","","key","j","16.66509433962264","768","428","./1_3_Stimuli/S_ambi40.png","他人","Word","朋友","Mismatch","j","true","Formal",""
"","","","","","psychophysics","116","371921","0.0-9.0-0.0-0.5","1345","","f","","","","","","","","","","","","","key","f","16.66621621621645","768","428","./1_3_Stimuli/T_ambi40.png","他人","Word","他人","Match","f","true","Formal",""
"","","","","","psychophysics","117","374007","0.0-9.0-0.0-0.6","932","","j","","","","","","","","","","","","","key","j","16.666129032258347","768","428","./1_3_Stimuli/C_ambi40.png","朋友","Image","自我","Mismatch","j","true","Formal",""
"","","","","","psychophysics","118","376130","0.0-9.0-0.0-0.7","971","","j","","","","","","","","","","","","","key","j","16.665873015872737","768","428","./1_3_Stimuli/S_ambi40.png","他人","Image","朋友","Mismatch","j","true","Formal",""
"","","","","","psychophysics","119","378088","0.0-9.0-0.0-0.8","796","","f","","","","","","","","","","","","","key","f","16.665517241379412","768","428","./1_3_Stimuli/S_ambi40.png","朋友","Image","朋友","Match","f","true","Formal",""
"","","","","","psychophysics","120","380380","0.0-9.0-0.0-0.9","1139","","j","","","","","","","","","","","","","key","j","16.666176470588063","768","428","./1_3_Stimuli/T_ambi40.png","自我","Image","他人","Mismatch","j","true","Formal",""
"","","","","","psychophysics","121","382153","0.0-9.0-0.0-0.10","617","","f","","","","","","","","","","","","","key","f","16.665714285714508","768","428","./1_3_Stimuli/S_ambi40.png","朋友","Image","朋友","Match","f","true","Formal",""
"","","","","","psychophysics","122","383945","0.0-9.0-0.0-0.11","620","","j","","","","","","","","","","","","","key","j","16.66698113207558","768","428","./1_3_Stimuli/C_ambi40.png","自我","Word","自我","Match","f","false","Formal",""
"","","","","","psychophysics","123","385776","0.0-9.0-0.0-0.12","676","","j","","","","","","","","","","","","","key","j","16.665740740740958","768","428","./1_3_Stimuli/C_ambi40.png","他人","Word","自我","Mismatch","j","true","Formal",""
"","","","","","psychophysics","124","387605","0.0-9.0-0.0-0.13","676","","j","","","","","","","","","","","","","key","j","16.666666666666668","768","428","./1_3_Stimuli/S_ambi40.png","自我","Word","朋友","Mismatch","j","true","Formal",""
"","","","","","psychophysics","125","389774","0.0-9.0-0.0-0.14","1016","","f","","","","","","","","","","","","","key","f","16.664843749999818","768","428","./1_3_Stimuli/T_ambi40.png","他人","Word","他人","Match","f","true","Formal",""
"","","","","","psychophysics","126","391537","0.0-9.0-0.0-0.15","612","","f","","","","","","","","","","","","","key","f","16.66826923076923","768","428","./1_3_Stimuli/C_ambi40.png","自我","Word","自我","Match","f","true","Formal",""
"","","","","","psychophysics","127","393487","0.0-9.0-0.0-0.16","796","","f","","","","","","","","","","","","","key","f","16.666379310345228","768","428","./1_3_Stimuli/T_ambi40.png","他人","Image","他人","Match","f","true","Formal",""
"","","","","","psychophysics","128","395498","0.0-9.0-0.0-0.17","857","","j","","","","","","","","","","","","","key","j","16.666386554621752","768","428","./1_3_Stimuli/T_ambi40.png","朋友","Image","他人","Mismatch","j","true","Formal",""
"","","","","","psychophysics","129","397894","0.0-9.0-0.0-0.18","1236","","f","","","","","","","","","","","","","key","f","16.66643356643389","768","428","./1_3_Stimuli/S_ambi40.png","朋友","Word","朋友","Match","f","true","Formal",""
"","","","","","psychophysics","130","400014","0.0-9.0-0.0-0.19","966","","j","","","","","","","","","","","","","key","j","16.6658730158732","768","428","./1_3_Stimuli/C_ambi40.png","他人","Image","自我","Mismatch","j","true","Formal",""
"","","","","","psychophysics","131","402085","0.0-9.0-0.0-0.20","909","","f","","","","","","","","","","","","","key","f","16.668292682926925","768","428","./1_3_Stimuli/T_ambi40.png","自我","Word","他人","Mismatch","j","false","Formal",""
"","","","","","psychophysics","132","403997","0.0-9.0-0.0-0.21","758","","f","","","","","","","","","","","","","key","f","16.666666666666668","768","428","./1_3_Stimuli/C_ambi40.png","自我","Image","自我","Match","f","true","Formal",""
"","","","","","psychophysics","133","406016","0.0-9.0-0.0-0.22","864","","j","","","","","","","","","","","","","key","j","16.667499999999805","768","428","./1_3_Stimuli/T_ambi40.png","他人","Image","他人","Match","f","false","Formal",""
"","","","","","psychophysics","134","408138","0.0-9.0-0.0-0.23","930","","j","","","","","","","","","","","","","key","j","16.665079365079272","768","428","./1_3_Stimuli/T_ambi40.png","朋友","Word","他人","Mismatch","j","true","Formal",""
"","","","","","psychophysics","135","410088","0.0-9.0-0.0-0.24","797","","f","","","","","","","","","","","","","key","f","16.667241379310045","768","428","./1_3_Stimuli/T_ambi40.png","他人","Image","他人","Match","f","true","Formal",""
"","","","","","psychophysics","136","412717","0.0-9.0-0.0-0.25","1476","","f","","","","","","","","","","","","","key","f","16.66538461538454","768","428","./1_3_Stimuli/S_ambi40.png","朋友","Image","朋友","Match","f","true","Formal",""
"","","","","","psychophysics","137","414345","0.0-9.0-0.0-0.26","453","","f","","","","","","","","","","","","","key","f","16.66597938144306","768","428","./1_3_Stimuli/C_ambi40.png","自我","Word","自我","Match","f","true","Formal",""
"","","","","","psychophysics","138","416232","0.0-9.0-0.0-0.27","724","","j","","","","","","","","","","","","","key","j","16.66696428571439","768","428","./1_3_Stimuli/S_ambi40.png","他人","Word","朋友","Mismatch","j","true","Formal",""
"","","","","","psychophysics","139","418089","0.0-9.0-0.0-0.28","703","","f","","","","","","","","","","","","","key","f","16.66636363636353","768","428","./1_3_Stimuli/C_ambi40.png","自我","Image","自我","Match","f","true","Formal",""
"","","","","","psychophysics","140","420239","0.0-9.0-0.0-0.29","998","","j","","","","","","","","","","","","","key","j","16.66614173228374","768","428","./1_3_Stimuli/T_ambi40.png","自我","Word","他人","Mismatch","j","true","Formal",""
"","","","","","psychophysics","141","422340","0.0-9.0-0.0-0.30","948","","j","","","","","","","","","","","","","key","j","16.66693548387106","768","428","./1_3_Stimuli/C_ambi40.png","朋友","Image","自我","Mismatch","j","true","Formal",""
"","","","","","psychophysics","142","424285","0.0-9.0-0.0-0.31","793","","f","","","","","","","","","","","","","key","f","16.667826086956925","768","428","./1_3_Stimuli/S_ambi40.png","朋友","Image","朋友","Match","f","true","Formal",""
"","","","","","psychophysics","143","426026","0.0-9.0-0.0-0.32","583","","f","","","","","","","","","","","","","key","f","16.66504854368932","768","428","./1_3_Stimuli/S_ambi40.png","朋友","Word","朋友","Match","f","true","Formal",""
"","","","","","psychophysics","144","427725","0.0-9.0-0.0-0.33","534","","j","","","","","","","","","","","","","key","j","16.66600000000035","768","428","./1_3_Stimuli/S_ambi40.png","自我","Word","朋友","Mismatch","j","true","Formal",""
"","","","","","psychophysics","145","429688","0.0-9.0-0.0-0.34","807","","j","","","","","","","","","","","","","key","j","16.667241379310546","768","428","./1_3_Stimuli/S_ambi40.png","他人","Image","朋友","Mismatch","j","true","Formal",""
"","","","","","psychophysics","146","431539","0.0-9.0-0.0-0.35","698","","f","","","","","","","","","","","","","key","f","16.666972477064327","768","428","./1_3_Stimuli/S_ambi40.png","自我","Image","朋友","Mismatch","j","false","Formal",""
"","","","","","psychophysics","147","433351","0.0-9.0-0.0-0.36","659","","f","","","","","","","","","","","","","key","f","16.666355140186806","768","428","./1_3_Stimuli/C_ambi40.png","自我","Word","自我","Match","f","true","Formal",""
"","","","","","psychophysics","148","436024","0.0-9.0-0.0-0.37","1516","","j","","","","","","","","","","","","","key","j","16.666666666666668","768","428","./1_3_Stimuli/T_ambi40.png","朋友","Word","他人","Mismatch","j","true","Formal",""
"","","","","","psychophysics","149","438502","0.0-9.0-0.0-0.38","1294","","j","","","","","","","","","","","","","key","j","16.667346938775353","768","428","./1_3_Stimuli/C_ambi40.png","朋友","Word","自我","Mismatch","j","true","Formal",""
"","","","","","psychophysics","150","440871","0.0-9.0-0.0-0.39","1213","","f","","","","","","","","","","","","","key","f","16.666666666666668","768","428","./1_3_Stimuli/C_ambi40.png","自我","Image","自我","Match","f","true","Formal",""
"","","","","","psychophysics","151","442734","0.0-9.0-0.0-0.40","710","","f","","","","","","","","","","","","","key","f","16.666666666666668","768","428","./1_3_Stimuli/S_ambi40.png","朋友","Word","朋友","Match","f","true","Formal",""
"","","","","","psychophysics","152","444740","0.0-9.0-0.0-0.41","848","","f","","","","","","","","","","","","","key","f","16.668067226890756","768","428","./1_3_Stimuli/T_ambi40.png","他人","Image","他人","Match","f","true","Formal",""
"","","","","","psychophysics","153","446929","0.0-9.0-0.0-0.42","1037","","f","","","","","","","","","","","","","key","f","16.666923076923165","768","428","./1_3_Stimuli/C_ambi40.png","他人","Image","自我","Mismatch","j","false","Formal",""
"","","","","","psychophysics","154","448716","0.0-9.0-0.0-0.43","624","","j","","","","","","","","","","","","","key","j","16.666037735849386","768","428","./1_3_Stimuli/T_ambi40.png","自我","Image","他人","Mismatch","j","true","Formal",""
"","","","","","psychophysics","155","450501","0.0-9.0-0.0-0.44","609","","f","","","","","","","","","","","","","key","f","16.666981132075033","768","428","./1_3_Stimuli/T_ambi40.png","他人","Word","他人","Match","f","true","Formal",""
"","","","","","psychophysics","156","452618","0.0-9.0-0.0-0.45","959","","f","","","","","","","","","","","","","key","f","16.667460317460133","768","428","./1_3_Stimuli/C_ambi40.png","他人","Word","自我","Mismatch","j","false","Formal",""
"","","","","","psychophysics","157","454611","0.0-9.0-0.0-0.46","840","","f","","","","","","","","","","","","","key","f","16.66386554621849","768","428","./1_3_Stimuli/T_ambi40.png","他人","Word","他人","Match","f","true","Formal",""
"","","","","","psychophysics","158","456463","0.0-9.0-0.0-0.47","687","","j","","","","","","","","","","","","","key","j","16.668181818181818","768","428","./1_3_Stimuli/T_ambi40.png","朋友","Image","他人","Mismatch","j","true","Formal",""
"","","","","","psychophysics","159","458684","0.0-9.0-0.0-0.48","1059","","j","","","","","","","","","","","","","key","j","16.667424242424065","768","428","./1_3_Stimuli/C_ambi40.png","朋友","Word","自我","Mismatch","j","true","Formal",""
"","","","","","psychophysics","160","461036","0.0-9.0-0.0-0.49","1196","","j","","","","","","","","","","","","","key","j","16.667142857142608","768","428","./1_3_Stimuli/S_ambi40.png","他人","Word","朋友","Mismatch","j","true","Formal",""
"","","","","","psychophysics","161","463000","0.0-9.0-0.0-0.50","808","","j","","","","","","","","","","","","","key","j","16.667241379310045","768","428","./1_3_Stimuli/T_ambi40.png","自我","Image","他人","Mismatch","j","true","Formal",""
"","","","","","psychophysics","162","464740","0.0-9.0-0.0-0.51","588","","f","","","","","","","","","","","","","key","f","16.66699029126225","768","428","./1_3_Stimuli/C_ambi40.png","自我","Image","自我","Match","f","true","Formal",""
"","","","","","psychophysics","163","466683","0.0-9.0-0.0-0.52","790","","f","","","","","","","","","","","","","key","f","16.66695652173923","768","428","./1_3_Stimuli/T_ambi40.png","他人","Word","他人","Match","f","true","Formal",""
"","","","","","psychophysics","164","468610","0.0-9.0-0.0-0.53","769","","f","","","","","","","","","","","","","key","f","16.666086956522044","768","428","./1_3_Stimuli/C_ambi40.png","朋友","Image","自我","Mismatch","j","false","Formal",""
"","","","","","psychophysics","165","470703","0.0-9.0-0.0-0.54","938","","f","","","","","","","","","","","","","key","f","16.66693548387106","768","428","./1_3_Stimuli/S_ambi40.png","朋友","Image","朋友","Match","f","true","Formal",""
"","","","","","psychophysics","166","472458","0.0-9.0-0.0-0.55","600","","j","","","","","","","","","","","","","key","j","16.667307692307915","768","428","./1_3_Stimuli/S_ambi40.png","自我","Image","朋友","Mismatch","j","true","Formal",""
"","","","","","psychophysics","167","474858","0.0-9.0-0.0-0.56","1232","","f","","","","","","","","","","","","","key","f","17.150000000000084","768","428","./1_3_Stimuli/T_ambi40.png","他人","Image","他人","Match","f","true","Formal",""
"","","","","","psychophysics","168","477005","0.0-9.0-0.0-0.57","995","","f","","","","","","","","","","","","","key","f","16.666141732283283","768","428","./1_3_Stimuli/T_ambi40.png","他人","Word","他人","Match","f","true","Formal",""
"","","","","","psychophysics","169","478797","0.0-9.0-0.0-0.58","640","","j","","","","","","","","","","","","","key","j","16.667289719625842","768","428","./1_3_Stimuli/S_ambi40.png","自我","Word","朋友","Mismatch","j","true","Formal",""
"","","","","","psychophysics","170","480596","0.0-9.0-0.0-0.59","613","","f","","","","","","","","","","","","","key","f","16.667289719625842","768","428","./1_3_Stimuli/C_ambi40.png","自我","Word","自我","Match","f","true","Formal",""
"","","","","","psychophysics","171","482454","0.0-9.0-0.0-0.60","702","","j","","","","","","","","","","","","","key","j","16.66636363636353","768","428","./1_3_Stimuli/T_ambi40.png","朋友","Word","他人","Mismatch","j","true","Formal",""
"","","","","","psychophysics","172","484361","0.0-9.0-0.0-0.61","751","","f","","","","","","","","","","","","","key","f","16.665789473683905","768","428","./1_3_Stimuli/C_ambi40.png","他人","Word","自我","Mismatch","j","false","Formal",""
"","","","","","psychophysics","173","486635","0.0-9.0-0.0-0.62","1122","","j","","","","","","","","","","","","","key","j","16.666666666666668","768","428","./1_3_Stimuli/C_ambi40.png","他人","Image","自我","Mismatch","j","true","Formal",""
"","","","","","psychophysics","174","489142","0.0-9.0-0.0-0.63","1350","","f","","","","","","","","","","","","","key","f","16.667114093959498","768","428","./1_3_Stimuli/T_ambi40.png","他人","Image","他人","Match","f","true","Formal",""
"","","","","","psychophysics","175","490902","0.0-9.0-0.0-0.64","604","","f","","","","","","","","","","","","","key","f","16.665384615384728","768","428","./1_3_Stimuli/C_ambi40.png","自我","Image","自我","Match","f","true","Formal",""
"","","","","","psychophysics","176","493115","0.0-9.0-0.0-0.65","1044","","j","","","","","","","","","","","","","key","j","16.66641221374037","768","428","./1_3_Stimuli/S_ambi40.png","他人","Image","朋友","Mismatch","j","true","Formal",""
"","","","","","psychophysics","177","495147","0.0-9.0-0.0-0.66","877","","f","","","","","","","","","","","","","key","f","16.666942148760427","768","428","./1_3_Stimuli/T_ambi40.png","朋友","Image","他人","Mismatch","j","false","Formal",""
"","","","","","psychophysics","178","497605","0.0-9.0-0.0-0.67","1296","","j","","","","","","","","","","","","","key","j","16.666438356164303","768","428","./1_3_Stimuli/S_ambi40.png","朋友","Image","朋友","Match","f","false","Formal",""
"","","","","","psychophysics","179","499615","0.0-9.0-0.0-0.68","856","","j","","","","","","","","","","","","","key","j","16.666386554621752","768","428","./1_3_Stimuli/T_ambi40.png","自我","Word","他人","Mismatch","j","true","Formal",""
"","","","","","psychophysics","180","501772","0.0-9.0-0.0-0.69","1002","","f","","","","","","","","","","","","","key","f","16.66562500000009","768","428","./1_3_Stimuli/S_ambi40.png","朋友","Word","朋友","Match","f","true","Formal",""
"","","","","","psychophysics","181","503662","0.0-9.0-0.0-0.70","737","","f","","","","","","","","","","","","","key","f","16.668141592920353","768","428","./1_3_Stimuli/S_ambi40.png","朋友","Word","朋友","Match","f","true","Formal",""
"","","","","","psychophysics","182","505334","0.0-9.0-0.0-0.71","510","","f","","","","","","","","","","","","","key","f","16.670707070707305","768","428","./1_3_Stimuli/C_ambi40.png","自我","Word","自我","Match","f","true","Formal",""
"","","","","","psychophysics","183","507577","0.0-9.0-0.0-0.72","1085","","f","","","","","","","","","","","","","key","f","16.667164179104216","768","428","./1_3_Stimuli/C_ambi40.png","自我","Word","自我","Match","f","true","Formal",""
"","","","","","psychophysics","184","509408","0.0-9.0-0.0-0.73","670","","f","","","","","","","","","","","","","key","f","16.667592592592914","768","428","./1_3_Stimuli/C_ambi40.png","自我","Image","自我","Match","f","true","Formal",""
"","","","","","psychophysics","185","511102","0.0-9.0-0.0-0.74","518","","f","","","","","","","","","","","","","key","f","16.665999999999766","768","428","./1_3_Stimuli/C_ambi40.png","自我","Image","自我","Match","f","true","Formal",""
"","","","","","psychophysics","186","513145","0.0-9.0-0.0-0.75","888","","f","","","","","","","","","","","","","key","f","16.66557377049142","768","428","./1_3_Stimuli/S_ambi40.png","朋友","Image","朋友","Match","f","true","Formal",""
"","","","","","psychophysics","187","515027","0.0-9.0-0.0-0.76","726","","f","","","","","","","","","","","","","key","f","16.667857142857038","768","428","./1_3_Stimuli/T_ambi40.png","他人","Image","他人","Match","f","true","Formal",""
"","","","","","psychophysics","188","517081","0.0-9.0-0.0-0.77","891","","f","","","","","","","","","","","","","key","f","16.6655737704919","768","428","./1_3_Stimuli/S_ambi40.png","朋友","Word","朋友","Match","f","true","Formal",""
"","","","","","psychophysics","189","518881","0.0-9.0-0.0-0.78","646","","j","","","","","","","","","","","","","key","j","16.667289719625842","768","428","./1_3_Stimuli/S_ambi40.png","自我","Image","朋友","Mismatch","j","true","Formal",""
"","","","","","psychophysics","190","520770","0.0-9.0-0.0-0.79","727","","f","","","","","","","","","","","","","key","f","16.66696428571439","768","428","./1_3_Stimuli/T_ambi40.png","他人","Word","他人","Match","f","true","Formal",""
"","","","","","psychophysics","191","523025","0.0-9.0-0.0-0.80","1100","","j","","","","","","","","","","","","","key","j","16.66766917293268","768","428","./1_3_Stimuli/C_ambi40.png","朋友","Word","自我","Mismatch","j","true","Formal",""
"","","","","","psychophysics","192","525127","0.0-9.0-0.0-0.81","949","","j","","","","","","","","","","","","","key","j","16.66559999999963","768","428","./1_3_Stimuli/S_ambi40.png","他人","Image","朋友","Mismatch","j","true","Formal",""
"","","","","","psychophysics","193","527213","0.0-9.0-0.0-0.82","931","","f","","","","","","","","","","","","","key","f","16.66693548387153","768","428","./1_3_Stimuli/S_ambi40.png","自我","Word","朋友","Mismatch","j","false","Formal",""
"","","","","","psychophysics","194","529759","0.0-9.0-0.0-0.83","1384","","f","","","","","","","","","","","","","key","f","16.66513157894798","768","428","./1_3_Stimuli/T_ambi40.png","他人","Word","他人","Match","f","true","Formal",""
"","","","","","psychophysics","195","531690","0.0-9.0-0.0-0.84","765","","f","","","","","","","","","","","","","key","f","16.666666666666668","768","428","./1_3_Stimuli/S_ambi40.png","朋友","Image","朋友","Match","f","true","Formal",""
"","","","","","psychophysics","196","533583","0.0-9.0-0.0-0.85","742","","j","","","","","","","","","","","","","key","j","16.66696428571387","768","428","./1_3_Stimuli/T_ambi40.png","自我","Image","他人","Mismatch","j","true","Formal",""
"","","","","","psychophysics","197","535916","0.0-9.0-0.0-0.86","1175","","f","","","","","","","","","","","","","key","f","16.66762589928091","768","428","./1_3_Stimuli/T_ambi40.png","他人","Image","他人","Match","f","true","Formal",""
"","","","","","psychophysics","198","537879","0.0-9.0-0.0-0.87","807","","j","","","","","","","","","","","","","key","j","16.667521367521168","768","428","./1_3_Stimuli/C_ambi40.png","他人","Word","自我","Mismatch","j","true","Formal",""
"","","","","","psychophysics","199","540042","0.0-9.0-0.0-0.88","1000","","f","","","","","","","","","","","","","key","f","16.666406249999454","768","428","./1_3_Stimuli/T_ambi40.png","朋友","Word","他人","Mismatch","j","false","Formal",""
"","","","","","psychophysics","200","541971","0.0-9.0-0.0-0.89","762","","j","","","","","","","","","","","","","key","j","16.66754385964892","768","428","./1_3_Stimuli/T_ambi40.png","自我","Word","他人","Mismatch","j","true","Formal",""
"","","","","","psychophysics","201","544278","0.0-9.0-0.0-0.90","1152","","j","","","","","","","","","","","","","key","j","16.664492753622852","768","428","./1_3_Stimuli/C_ambi40.png","朋友","Image","自我","Mismatch","j","true","Formal",""
"","","","","","psychophysics","202","546847","0.0-9.0-0.0-0.91","1405","","f","","","","","","","","","","","","","key","f","16.66732026143852","768","428","./1_3_Stimuli/C_ambi40.png","他人","Image","自我","Mismatch","j","false","Formal",""
"","","","","","psychophysics","203","548815","0.0-9.0-0.0-0.92","813","","j","","","","","","","","","","","","","key","j","16.666666666666668","768","428","./1_3_Stimuli/S_ambi40.png","他人","Word","朋友","Mismatch","j","true","Formal",""
"","","","","","psychophysics","204","551527","0.0-9.0-0.0-0.93","null","","null","","","","","","","","","","","","","key","null","16.665838509317204","768","428","./1_3_Stimuli/S_ambi40.png","朋友","Word","朋友","Match","f","false","Formal",""
"","","","","","psychophysics","205","553610","0.0-9.0-0.0-0.94","901","","j","","","","","","","","","","","","","key","j","16.66532258064516","768","428","./1_3_Stimuli/T_ambi40.png","朋友","Image","他人","Mismatch","j","true","Formal",""
"","","","","","psychophysics","206","555355","0.0-9.0-0.0-0.95","590","","f","","","","","","","","","","","","","key","f","16.666019417476633","768","428","./1_3_Stimuli/C_ambi40.png","自我","Word","自我","Match","f","true","Formal",""
"","","","","","psychophysics","207","557332","0.0-9.0-0.0-0.96","823","","j","","","","","","","","","","","","","key","j","16.666666666666668","768","428","./1_3_Stimuli/T_ambi40.png","自我","Word","他人","Mismatch","j","true","Formal",""
"","","","","","psychophysics","208","559326","0.0-9.0-0.0-0.97","838","","j","","","","","","","","","","","","","key","j","16.666101694915056","768","428","./1_3_Stimuli/C_ambi40.png","朋友","Word","自我","Mismatch","j","true","Formal",""
"","","","","","psychophysics","209","561435","0.0-9.0-0.0-0.98","950","","j","","","","","","","","","","","","","key","j","16.667200000000186","768","428","./1_3_Stimuli/S_ambi40.png","他人","Word","朋友","Mismatch","j","true","Formal",""
"","","","","","psychophysics","210","563628","0.0-9.0-0.0-0.99","1035","","j","","","","","","","","","","","","","key","j","16.666412213739925","768","428","./1_3_Stimuli/S_ambi40.png","他人","Image","朋友","Mismatch","j","true","Formal",""
"","","","","","psychophysics","211","565482","0.0-9.0-0.0-0.100","690","","j","","","","","","","","","","","","","key","j","16.666363636363002","768","428","./1_3_Stimuli/T_ambi40.png","朋友","Image","他人","Mismatch","j","true","Formal",""
"","","","","","psychophysics","212","567570","0.0-9.0-0.0-0.101","935","","j","","","","","","","","","","","","","key","j","16.666935483870592","768","428","./1_3_Stimuli/S_ambi40.png","自我","Image","朋友","Mismatch","j","true","Formal",""
"","","","","","psychophysics","213","569800","0.0-9.0-0.0-0.102","1074","","f","","","","","","","","","","","","","key","f","16.666165413534536","768","428","./1_3_Stimuli/S_ambi40.png","朋友","Image","朋友","Match","f","true","Formal",""
"","","","","","psychophysics","214","571763","0.0-9.0-0.0-0.103","787","","f","","","","","","","","","","","","","key","f","16.667521367521168","768","428","./1_3_Stimuli/S_ambi40.png","朋友","Word","朋友","Match","f","true","Formal",""
"","","","","","psychophysics","215","573722","0.0-9.0-0.0-0.104","804","","f","","","","","","","","","","","","","key","f","16.666379310345228","768","428","./1_3_Stimuli/T_ambi40.png","他人","Image","他人","Match","f","true","Formal",""
"","","","","","psychophysics","216","575329","0.0-9.0-0.0-0.105","452","","f","","","","","","","","","","","","","key","f","16.666666666666668","768","428","./1_3_Stimuli/T_ambi40.png","他人","Image","他人","Match","f","true","Formal",""
"","","","","","psychophysics","217","577173","0.0-9.0-0.0-0.106","688","","j","","","","","","","","","","","","","key","j","16.666972477063794","768","428","./1_3_Stimuli/C_ambi40.png","朋友","Image","自我","Mismatch","j","true","Formal",""
"","","","","","psychophysics","218","578958","0.0-9.0-0.0-0.107","632","","f","","","","","","","","","","","","","key","f","16.668571428570985","768","428","./1_3_Stimuli/C_ambi40.png","自我","Word","自我","Match","f","true","Formal",""
"","","","","","psychophysics","219","581062","0.0-9.0-0.0-0.108","952","","j","","","","","","","","","","","","","key","j","16.666400000000372","768","428","./1_3_Stimuli/C_ambi40.png","他人","Image","自我","Mismatch","j","true","Formal",""
"","","","","","psychophysics","220","583101","0.0-9.0-0.0-0.109","881","","j","","","","","","","","","","","","","key","j","16.664462809916586","768","428","./1_3_Stimuli/T_ambi40.png","自我","Image","他人","Mismatch","j","true","Formal",""
"","","","","","psychophysics","221","585032","0.0-9.0-0.0-0.110","778","","j","","","","","","","","","","","","","key","j","16.666086956521536","768","428","./1_3_Stimuli/T_ambi40.png","朋友","Word","他人","Mismatch","j","true","Formal",""
"","","","","","psychophysics","222","587330","0.0-9.0-0.0-0.111","1138","","j","","","","","","","","","","","","","key","j","16.66934306569309","768","428","./1_3_Stimuli/C_ambi40.png","他人","Word","自我","Mismatch","j","true","Formal",""
"","","","","","psychophysics","223","589446","0.0-9.0-0.0-0.112","953","","f","","","","","","","","","","","","","key","f","16.666666666666668","768","428","./1_3_Stimuli/S_ambi40.png","朋友","Image","朋友","Match","f","true","Formal",""
"","","","","","psychophysics","224","591492","0.0-9.0-0.0-0.113","894","","f","","","","","","","","","","","","","key","f","16.948739495798517","768","428","./1_3_Stimuli/C_ambi40.png","自我","Image","自我","Match","f","true","Formal",""
"","","","","","psychophysics","225","593350","0.0-9.0-0.0-0.114","700","","f","","","","","","","","","","","","","key","f","16.668181818181818","768","428","./1_3_Stimuli/C_ambi40.png","自我","Image","自我","Match","f","true","Formal",""
"","","","","","psychophysics","226","594903","0.0-9.0-0.0-0.115","377","","f","","","","","","","","","","","","","key","f","16.666304347826593","768","428","./1_3_Stimuli/S_ambi40.png","朋友","Word","朋友","Match","f","true","Formal",""
"","","","","","psychophysics","227","596669","0.0-9.0-0.0-0.116","609","","f","","","","","","","","","","","","","key","f","16.6663461538466","768","428","./1_3_Stimuli/C_ambi40.png","自我","Word","自我","Match","f","true","Formal",""
"","","","","","psychophysics","228","598883","0.0-9.0-0.0-0.117","1057","","j","","","","","","","","","","","","","key","j","16.667424242424946","768","428","./1_3_Stimuli/T_ambi40.png","他人","Word","他人","Match","f","false","Formal",""
"","","","","","psychophysics","229","600574","0.0-9.0-0.0-0.118","533","","f","","","","","","","","","","","","","key","f","16.666999999999533","768","428","./1_3_Stimuli/T_ambi40.png","他人","Word","他人","Match","f","true","Formal",""
"","","","","","psychophysics","230","602420","0.0-9.0-0.0-0.119","695","","j","","","","","","","","","","","","","key","j","16.666972477063794","768","428","./1_3_Stimuli/S_ambi40.png","自我","Word","朋友","Mismatch","j","true","Formal",""
"","","","","","html-keyboard-response","231","643031","0.0-9.0-1.0","40607","<style>.context{color:white; font-size: 35px; line-height:40px}</style>                        <div><p class='context'>您正确回答了88% 的试次。</p><p class='context'>您的平均反应时为850毫秒。</p><p> <div style = 'color: green'><按任意键进入休息></div></p>"," ","","","","","","","","","","","","","","","","","","","","","","","","","",""
"","","","","","html-button-response","232","684411","0.0-9.0-2.0","41374","
                  <p>您当前还剩余5组实验</p>
                  <p>现在是休息时间，当您结束休息后，您可以点击 结束休息 按钮 继续</p>
                  <p>建议休息时间还剩余<span id=""iii"">60</span>秒</p>","0","","","","","","","","","","","","","","","","","","","","","","","","","",""
"","","","","","psychophysics","233","686157","0.0-9.0-0.1-0.120","584","","f","","","","","","","","","","","","","key","f","16.666990291261683","768","428","./1_3_Stimuli/C_ambi40.png","自我","Image","自我","Match","f","true","Formal",""
"","","","","","psychophysics","234","687841","0.0-9.0-0.1-0.121","531","","j","","","","","","","","","","","","","key","j","16.667676767676532","768","428","./1_3_Stimuli/C_ambi40.png","他人","Word","自我","Mismatch","j","true","Formal",""
"","","","","","psychophysics","235","689572","0.0-9.0-0.1-0.122","580","","f","","","","","","","","","","","","","key","f","16.667647058824443","768","428","./1_3_Stimuli/C_ambi40.png","自我","Image","自我","Match","f","true","Formal",""
"","","","","","psychophysics","236","691699","0.0-9.0-0.1-0.123","974","","f","","","","","","","","","","","","","key","f","16.666929133857902","768","428","./1_3_Stimuli/T_ambi40.png","他人","Word","他人","Match","f","true","Formal",""
"","","","","","psychophysics","237","693375","0.0-9.0-0.1-0.124","519","","j","","","","","","","","","","","","","key","j","16.666666666666668","768","428","./1_3_Stimuli/T_ambi40.png","自我","Image","他人","Mismatch","j","true","Formal",""
"","","","","","psychophysics","238","695182","0.0-9.0-0.1-0.125","656","","f","","","","","","","","","","","","","key","f","16.666355140187353","768","428","./1_3_Stimuli/C_ambi40.png","自我","Word","自我","Match","f","true","Formal",""
"","","","","","psychophysics","239","697047","0.0-9.0-0.1-0.126","707","","j","","","","","","","","","","","","","key","j","16.666666666666668","768","428","./1_3_Stimuli/T_ambi40.png","朋友","Image","他人","Mismatch","j","true","Formal",""
"","","","","","psychophysics","240","698945","0.0-9.0-0.1-0.127","744","","f","","","","","","","","","","","","","key","f","16.66637168141531","768","428","./1_3_Stimuli/S_ambi40.png","朋友","Image","朋友","Match","f","true","Formal",""
"","","","","","psychophysics","241","700919","0.0-9.0-0.1-0.128","812","","j","","","","","","","","","","","","","key","j","16.667521367522163","768","428","./1_3_Stimuli/S_ambi40.png","自我","Word","朋友","Mismatch","j","true","Formal",""
"","","","","","psychophysics","242","702835","0.0-9.0-0.1-0.129","759","","f","","","","","","","","","","","","","key","f","16.666666666666668","768","428","./1_3_Stimuli/S_ambi40.png","朋友","Image","朋友","Match","f","true","Formal",""
"","","","","","psychophysics","243","704629","0.0-9.0-0.1-0.130","637","","j","","","","","","","","","","","","","key","j","16.667289719626385","768","428","./1_3_Stimuli/S_ambi40.png","他人","Image","朋友","Mismatch","j","true","Formal",""
"","","","","","psychophysics","244","706680","0.0-9.0-0.1-0.131","886","","f","","","","","","","","","","","","","key","f","16.665573770492376","768","428","./1_3_Stimuli/S_ambi40.png","他人","Word","朋友","Mismatch","j","false","Formal",""
"","","","","","psychophysics","245","708574","0.0-9.0-0.1-0.132","736","","j","","","","","","","","","","","","","key","j","16.66696428571387","768","428","./1_3_Stimuli/C_ambi40.png","朋友","Image","自我","Mismatch","j","true","Formal",""
"","","","","","psychophysics","246","710893","0.0-9.0-0.1-0.133","1166","","f","","","","","","","","","","","","","key","f","16.667391304347657","768","428","./1_3_Stimuli/S_ambi40.png","朋友","Word","朋友","Match","f","true","Formal",""
"","","","","","psychophysics","247","712572","0.0-9.0-0.1-0.134","513","","f","","","","","","","","","","","","","key","f","16.665656565655624","768","428","./1_3_Stimuli/C_ambi40.png","自我","Word","自我","Match","f","true","Formal",""
"","","","","","psychophysics","248","714532","0.0-9.0-0.1-0.135","805","","j","","","","","","","","","","","","","key","j","16.666666666666668","768","428","./1_3_Stimuli/T_ambi40.png","自我","Word","他人","Mismatch","j","true","Formal",""
"","","","","","psychophysics","249","716788","0.0-9.0-0.1-0.136","1103","","j","","","","","","","","","","","","","key","j","16.667164179104653","768","428","./1_3_Stimuli/T_ambi40.png","朋友","Word","他人","Mismatch","j","true","Formal",""
"","","","","","psychophysics","250","718791","0.0-9.0-0.1-0.137","823","","f","","","","","","","","","","","","","key","f","16.667796610169887","768","428","./1_3_Stimuli/T_ambi40.png","他人","Image","他人","Match","f","true","Formal",""
"","","","","","psychophysics","251","720570","0.0-9.0-0.1-0.138","627","","f","","","","","","","","","","","","","key","f","16.667619047619933","768","428","./1_3_Stimuli/T_ambi40.png","他人","Word","他人","Match","f","true","Formal",""
"","","","","","psychophysics","252","722382","0.0-9.0-0.1-0.139","656","","f","","","","","","","","","","","","","key","f","16.666666666666668","768","428","./1_3_Stimuli/T_ambi40.png","他人","Image","他人","Match","f","true","Formal",""
"","","","","","psychophysics","253","724398","0.0-9.0-0.1-0.140","856","","j","","","","","","","","","","","","","key","j","16.666666666666668","768","428","./1_3_Stimuli/S_ambi40.png","自我","Image","朋友","Mismatch","j","true","Formal",""
"","","","","","psychophysics","254","726915","0.0-9.0-0.1-0.141","1366","","j","","","","","","","","","","","","","key","j","16.66733333333318","768","428","./1_3_Stimuli/C_ambi40.png","他人","Image","自我","Mismatch","j","true","Formal",""
"","","","","","psychophysics","255","728709","0.0-9.0-0.1-0.142","639","","f","","","","","","","","","","","","","key","f","16.666037735848835","768","428","./1_3_Stimuli/S_ambi40.png","朋友","Word","朋友","Match","f","true","Formal",""
"","","","","","psychophysics","256","730488","0.0-9.0-0.1-0.143","610","","j","","","","","","","","","","","","","key","j","16.667619047618825","768","428","./1_3_Stimuli/C_ambi40.png","朋友","Word","自我","Mismatch","j","true","Formal",""
"","","","","","psychophysics","257","732319","0.0-9.0-0.1-0.144","676","","f","","","","","","","","","","","","","key","f","16.666666666666668","768","428","./1_3_Stimuli/S_ambi40.png","朋友","Word","朋友","Match","f","true","Formal",""
"","","","","","psychophysics","258","733968","0.0-9.0-0.1-0.145","493","","f","","","","","","","","","","","","","key","f","16.665306122448506","768","428","./1_3_Stimuli/S_ambi40.png","朋友","Image","朋友","Match","f","true","Formal",""
"","","","","","psychophysics","259","735837","0.0-9.0-0.1-0.146","710","","f","","","","","","","","","","","","","key","f","16.66936936936874","768","428","./1_3_Stimuli/T_ambi40.png","他人","Image","他人","Match","f","true","Formal",""
"","","","","","psychophysics","260","737752","0.0-9.0-0.1-0.147","760","","j","","","","","","","","","","","","","key","j","16.665789473684416","768","428","./1_3_Stimuli/S_ambi40.png","他人","Word","朋友","Mismatch","j","true","Formal",""
"","","","","","psychophysics","261","739431","0.0-9.0-0.1-0.148","522","","f","","","","","","","","","","","","","key","f","16.668000000000465","768","428","./1_3_Stimuli/C_ambi40.png","自我","Image","自我","Match","f","true","Formal",""
"","","","","","psychophysics","262","741230","0.0-9.0-0.1-0.149","637","","j","","","","","","","","","","","","","key","j","16.666355140186262","768","428","./1_3_Stimuli/T_ambi40.png","自我","Word","他人","Mismatch","j","true","Formal",""
"","","","","","psychophysics","263","743289","0.0-9.0-0.1-0.150","899","","f","","","","","","","","","","","","","key","f","16.66639344262333","768","428","./1_3_Stimuli/C_ambi40.png","自我","Image","自我","Match","f","true","Formal",""
"","","","","","psychophysics","264","745267","0.0-9.0-0.1-0.151","825","","f","","","","","","","","","","","","","key","f","16.666101694916044","768","428","./1_3_Stimuli/S_ambi40.png","朋友","Image","朋友","Match","f","true","Formal",""
"","","","","","psychophysics","265","747140","0.0-9.0-0.1-0.152","698","","f","","","","","","","","","","","","","key","f","16.667272727271882","768","428","./1_3_Stimuli/T_ambi40.png","他人","Word","他人","Match","f","true","Formal",""
"","","","","","psychophysics","266","749508","0.0-9.0-0.1-0.153","1216","","f","","","","","","","","","","","","","key","f","16.667857142857144","768","428","./1_3_Stimuli/C_ambi40.png","朋友","Word","自我","Mismatch","j","false","Formal",""
"","","","","","psychophysics","267","751350","0.0-9.0-0.1-0.154","691","","j","","","","","","","","","","","","","key","j","16.66330275229294","768","428","./1_3_Stimuli/C_ambi40.png","他人","Word","自我","Mismatch","j","true","Formal",""
"","","","","","psychophysics","268","753284","0.0-9.0-0.1-0.155","756","","j","","","","","","","","","","","","","key","j","16.666956521738726","768","428","./1_3_Stimuli/C_ambi40.png","他人","Image","自我","Mismatch","j","true","Formal",""
"","","","","","psychophysics","269","755082","0.0-9.0-0.1-0.156","639","","f","","","","","","","","","","","","","key","f","16.66822429906542","768","428","./1_3_Stimuli/T_ambi40.png","他人","Word","他人","Match","f","true","Formal",""
"","","","","","psychophysics","270","756769","0.0-9.0-0.1-0.157","527","","j","","","","","","","","","","","","","key","j","16.668000000000465","768","428","./1_3_Stimuli/T_ambi40.png","朋友","Word","他人","Mismatch","j","true","Formal",""
"","","","","","psychophysics","271","758406","0.0-9.0-0.1-0.158","479","","f","","","","","","","","","","","","","key","f","16.666666666666668","768","428","./1_3_Stimuli/C_ambi40.png","自我","Word","自我","Match","f","true","Formal",""
"","","","","","psychophysics","272","760385","0.0-9.0-0.1-0.159","826","","f","","","","","","","","","","","","","key","f","16.666949152541978","768","428","./1_3_Stimuli/C_ambi40.png","自我","Word","自我","Match","f","true","Formal",""
"","","","","","psychophysics","273","762297","0.0-9.0-0.1-0.160","754","","j","","","","","","","","","","","","","key","j","16.666666666666668","768","428","./1_3_Stimuli/T_ambi40.png","朋友","Image","他人","Mismatch","j","true","Formal",""
"","","","","","psychophysics","274","764149","0.0-9.0-0.1-0.161","671","","j","","","","","","","","","","","","","key","j","16.666363636363002","768","428","./1_3_Stimuli/S_ambi40.png","他人","Image","朋友","Mismatch","j","true","Formal",""
"","","","","","psychophysics","275","766366","0.0-9.0-0.1-0.162","1062","","f","","","","","","","","","","","","","key","f","16.667424242424065","768","428","./1_3_Stimuli/T_ambi40.png","他人","Image","他人","Match","f","true","Formal",""
"","","","","","psychophysics","276","768029","0.0-9.0-0.1-0.163","502","","f","","","","","","","","","","","","","key","f","16.667676767676532","768","428","./1_3_Stimuli/S_ambi40.png","朋友","Word","朋友","Match","f","true","Formal",""
"","","","","","psychophysics","277","769688","0.0-9.0-0.1-0.164","476","","j","","","","","","","","","","","","","key","j","16.668367346938776","768","428","./1_3_Stimuli/S_ambi40.png","自我","Word","朋友","Mismatch","j","true","Formal",""
"","","","","","psychophysics","278","772069","0.0-9.0-0.1-0.165","1227","","f","","","","","","","","","","","","","key","f","16.667605633803145","768","428","./1_3_Stimuli/T_ambi40.png","自我","Image","他人","Mismatch","j","false","Formal",""
"","","","","","psychophysics","279","774190","0.0-9.0-0.1-0.166","964","","j","","","","","","","","","","","","","key","j","16.666666666666668","768","428","./1_3_Stimuli/S_ambi40.png","自我","Image","朋友","Mismatch","j","true","Formal",""
"","","","","","psychophysics","280","776348","0.0-9.0-0.1-0.167","988","","j","","","","","","","","","","","","","key","j","16.667187500000182","768","428","./1_3_Stimuli/C_ambi40.png","朋友","Image","自我","Mismatch","j","true","Formal",""
"","","","","","psychophysics","281","778386","0.0-9.0-0.1-0.168","884","","j","","","","","","","","","","","","","key","j","16.666942148759947","768","428","./1_3_Stimuli/C_ambi40.png","他人","Image","自我","Mismatch","j","true","Formal",""
"","","","","","psychophysics","282","780619","0.0-9.0-0.1-0.169","1080","","f","","","","","","","","","","","","","key","f","16.66691729323361","768","428","./1_3_Stimuli/T_ambi40.png","他人","Word","他人","Match","f","true","Formal",""
"","","","","","psychophysics","283","782716","0.0-9.0-0.1-0.170","939","","j","","","","","","","","","","","","","key","j","16.66693548387153","768","428","./1_3_Stimuli/C_ambi40.png","朋友","Image","自我","Mismatch","j","true","Formal",""
"","","","","","psychophysics","284","784445","0.0-9.0-0.1-0.171","568","","f","","","","","","","","","","","","","key","f","16.666019417475503","768","428","./1_3_Stimuli/C_ambi40.png","自我","Image","自我","Match","f","true","Formal",""
"","","","","","psychophysics","285","786307","0.0-9.0-0.1-0.172","702","","j","","","","","","","","","","","","","key","j","16.66636363636406","768","428","./1_3_Stimuli/S_ambi40.png","自我","Image","朋友","Mismatch","j","true","Formal",""
"","","","","","psychophysics","286","788325","0.0-9.0-0.1-0.173","866","","j","","","","","","","","","","","","","key","j","16.6672268907565","768","428","./1_3_Stimuli/T_ambi40.png","朋友","Word","他人","Mismatch","j","true","Formal",""
"","","","","","psychophysics","287","790099","0.0-9.0-0.1-0.174","622","","j","","","","","","","","","","","","","key","j","16.667619047619933","768","428","./1_3_Stimuli/C_ambi40.png","朋友","Word","自我","Mismatch","j","true","Formal",""
"","","","","","psychophysics","288","792316","0.0-9.0-0.1-0.175","1065","","j","","","","","","","","","","","","","key","j","16.665909090909267","768","428","./1_3_Stimuli/S_ambi40.png","自我","Word","朋友","Mismatch","j","true","Formal",""
"","","","","","psychophysics","289","794295","0.0-9.0-0.1-0.176","818","","j","","","","","","","","","","","","","key","j","16.666101694915056","768","428","./1_3_Stimuli/T_ambi40.png","朋友","Image","他人","Mismatch","j","true","Formal",""
"","","","","","psychophysics","290","796167","0.0-9.0-0.1-0.177","719","","j","","","","","","","","","","","","","key","j","16.665765765765975","768","428","./1_3_Stimuli/S_ambi40.png","他人","Image","朋友","Mismatch","j","true","Formal",""
"","","","","","psychophysics","291","798105","0.0-9.0-0.1-0.178","779","","f","","","","","","","","","","","","","key","f","16.666086956521536","768","428","./1_3_Stimuli/C_ambi40.png","自我","Word","自我","Match","f","true","Formal",""
"","","","","","psychophysics","292","800311","0.0-9.0-0.1-0.179","1052","","j","","","","","","","","","","","","","key","j","16.666412213740813","768","428","./1_3_Stimuli/S_ambi40.png","他人","Word","朋友","Mismatch","j","true","Formal",""
"","","","","","psychophysics","293","802048","0.0-9.0-0.1-0.180","581","","f","","","","","","","","","","","","","key","f","16.666019417475503","768","428","./1_3_Stimuli/C_ambi40.png","自我","Word","自我","Match","f","true","Formal",""
"","","","","","psychophysics","294","803940","0.0-9.0-0.1-0.181","732","","f","","","","","","","","","","","","","key","f","16.66607142857122","768","428","./1_3_Stimuli/S_ambi40.png","朋友","Word","朋友","Match","f","true","Formal",""
"","","","","","psychophysics","295","806227","0.0-9.0-0.1-0.182","1134","","j","","","","","","","","","","","","","key","j","16.66691176470554","768","428","./1_3_Stimuli/C_ambi40.png","他人","Word","自我","Mismatch","j","true","Formal",""
"","","","","","psychophysics","296","807980","0.0-9.0-0.1-0.183","589","","f","","","","","","","","","","","","","key","f","16.66346153846154","768","428","./1_3_Stimuli/S_ambi40.png","朋友","Word","朋友","Match","f","true","Formal",""
"","","","","","psychophysics","297","810033","0.0-9.0-0.1-0.184","901","","f","","","","","","","","","","","","","key","f","16.667213114753334","768","428","./1_3_Stimuli/S_ambi40.png","朋友","Image","朋友","Match","f","true","Formal",""
"","","","","","psychophysics","298","811819","0.0-9.0-0.1-0.185","627","","f","","","","","","","","","","","","","key","f","16.666037735848835","768","428","./1_3_Stimuli/T_ambi40.png","他人","Word","他人","Match","f","true","Formal",""
"","","","","","psychophysics","299","813939","0.0-9.0-0.1-0.186","963","","f","","","","","","","","","","","","","key","f","16.665873015872275","768","428","./1_3_Stimuli/T_ambi40.png","他人","Image","他人","Match","f","true","Formal",""
"","","","","","psychophysics","300","815902","0.0-9.0-0.1-0.187","809","","f","","","","","","","","","","","","","key","f","16.666666666666668","768","428","./1_3_Stimuli/S_ambi40.png","朋友","Image","朋友","Match","f","true","Formal",""
"","","","","","psychophysics","301","817595","0.0-9.0-0.1-0.188","535","","f","","","","","","","","","","","","","key","f","16.667000000000698","768","428","./1_3_Stimuli/T_ambi40.png","他人","Image","他人","Match","f","true","Formal",""
"","","","","","psychophysics","302","819268","0.0-9.0-0.1-0.189","520","","j","","","","","","","","","","","","","key","j","16.6656565656568","768","428","./1_3_Stimuli/T_ambi40.png","自我","Image","他人","Mismatch","j","true","Formal",""
"","","","","","psychophysics","303","821139","0.0-9.0-0.1-0.190","713","","j","","","","","","","","","","","","","key","j","16.66756756756841","768","428","./1_3_Stimuli/T_ambi40.png","自我","Word","他人","Mismatch","j","true","Formal",""
"","","","","","psychophysics","304","822964","0.0-9.0-0.1-0.191","671","","f","","","","","","","","","","","","","key","f","16.664814814815244","768","428","./1_3_Stimuli/C_ambi40.png","自我","Image","自我","Match","f","true","Formal",""
"","","","","","psychophysics","305","824783","0.0-9.0-0.1-0.192","657","","j","","","","","","","","","","","","","key","j","16.665740740740958","768","428","./1_3_Stimuli/C_ambi40.png","朋友","Image","自我","Mismatch","j","true","Formal",""
"","","","","","psychophysics","306","826538","0.0-9.0-0.1-0.193","604","","f","","","","","","","","","","","","","key","f","16.66442307692285","768","428","./1_3_Stimuli/T_ambi40.png","他人","Word","他人","Match","f","true","Formal",""
"","","","","","psychophysics","307","828229","0.0-9.0-0.1-0.194","536","","j","","","","","","","","","","","","","key","j","16.666999999999533","768","428","./1_3_Stimuli/T_ambi40.png","自我","Word","他人","Mismatch","j","true","Formal",""
"","","","","","psychophysics","308","829991","0.0-9.0-0.1-0.195","602","","f","","","","","","","","","","","","","key","f","16.667307692306796","768","428","./1_3_Stimuli/S_ambi40.png","朋友","Word","朋友","Match","f","true","Formal",""
"","","","","","psychophysics","309","831723","0.0-9.0-0.1-0.196","579","","j","","","","","","","","","","","","","key","j","16.668627450979937","768","428","./1_3_Stimuli/T_ambi40.png","自我","Image","他人","Mismatch","j","true","Formal",""
"","","","","","psychophysics","310","833601","0.0-9.0-0.1-0.197","725","","j","","","","","","","","","","","","","key","j","16.663963963964594","768","428","./1_3_Stimuli/C_ambi40.png","自我","Word","自我","Match","f","false","Formal",""
"","","","","","psychophysics","311","835672","0.0-9.0-0.1-0.198","913","","f","","","","","","","","","","","","","key","f","16.66747967479656","768","428","./1_3_Stimuli/T_ambi40.png","他人","Image","他人","Match","f","true","Formal",""
"","","","","","psychophysics","312","837432","0.0-9.0-0.1-0.199","605","","j","","","","","","","","","","","","","key","j","16.666666666666668","768","428","./1_3_Stimuli/C_ambi40.png","他人","Word","自我","Mismatch","j","true","Formal",""
"","","","","","psychophysics","313","839859","0.0-9.0-0.1-0.200","1274","","j","","","","","","","","","","","","","key","j","16.6652777777781","768","428","./1_3_Stimuli/T_ambi40.png","朋友","Image","他人","Mismatch","j","true","Formal",""
"","","","","","psychophysics","314","842037","0.0-9.0-0.1-0.201","1016","","f","","","","","","","","","","","","","key","f","16.667441860464937","768","428","./1_3_Stimuli/T_ambi40.png","他人","Image","他人","Match","f","true","Formal",""
"","","","","","psychophysics","315","844233","0.0-9.0-0.1-0.202","1039","","j","","","","","","","","","","","","","key","j","16.666412213739925","768","428","./1_3_Stimuli/C_ambi40.png","他人","Image","自我","Mismatch","j","true","Formal",""
"","","","","","psychophysics","316","845993","0.0-9.0-0.1-0.203","583","","f","","","","","","","","","","","","","key","f","16.66634615384548","768","428","./1_3_Stimuli/C_ambi40.png","自我","Word","自我","Match","f","true","Formal",""
"","","","","","psychophysics","317","847715","0.0-9.0-0.1-0.204","571","","j","","","","","","","","","","","","","key","j","16.666666666666668","768","428","./1_3_Stimuli/C_ambi40.png","朋友","Word","自我","Mismatch","j","true","Formal",""
"","","","","","psychophysics","318","849555","0.0-9.0-0.1-0.205","685","","j","","","","","","","","","","","","","key","j","16.667889908257308","768","428","./1_3_Stimuli/S_ambi40.png","自我","Word","朋友","Mismatch","j","true","Formal",""
"","","","","","psychophysics","319","851199","0.0-9.0-0.1-0.206","490","","f","","","","","","","","","","","","","key","f","16.668041237113883","768","428","./1_3_Stimuli/S_ambi40.png","朋友","Image","朋友","Match","f","true","Formal",""
"","","","","","psychophysics","320","852889","0.0-9.0-0.1-0.207","534","","f","","","","","","","","","","","","","key","f","16.665999999999766","768","428","./1_3_Stimuli/S_ambi40.png","朋友","Word","朋友","Match","f","true","Formal",""
"","","","","","psychophysics","321","854715","0.0-9.0-0.1-0.208","671","","j","","","","","","","","","","","","","key","j","16.666972477063794","768","428","./1_3_Stimuli/S_ambi40.png","自我","Image","朋友","Mismatch","j","true","Formal",""
"","","","","","psychophysics","322","856842","0.0-9.0-0.1-0.209","965","","j","","","","","","","","","","","","","key","j","16.664285714285345","768","428","./1_3_Stimuli/T_ambi40.png","朋友","Word","他人","Mismatch","j","true","Formal",""
"","","","","","psychophysics","323","858658","0.0-9.0-0.1-0.210","665","","f","","","","","","","","","","","","","key","f","16.666355140187353","768","428","./1_3_Stimuli/C_ambi40.png","自我","Image","自我","Match","f","true","Formal",""
"","","","","","psychophysics","324","860368","0.0-9.0-0.1-0.211","558","","f","","","","","","","","","","","","","key","f","16.665346534653004","768","428","./1_3_Stimuli/T_ambi40.png","他人","Word","他人","Match","f","true","Formal",""
"","","","","","psychophysics","325","862048","0.0-9.0-0.1-0.212","525","","f","","","","","","","","","","","","","key","f","16.666666666666668","768","428","./1_3_Stimuli/C_ambi40.png","自我","Image","自我","Match","f","true","Formal",""
"","","","","","psychophysics","326","863719","0.0-9.0-0.1-0.213","514","","f","","","","","","","","","","","","","key","f","16.664646464646935","768","428","./1_3_Stimuli/S_ambi40.png","朋友","Image","朋友","Match","f","true","Formal",""
"","","","","","psychophysics","327","865645","0.0-9.0-0.1-0.214","771","","j","","","","","","","","","","","","","key","j","16.666956521738726","768","428","./1_3_Stimuli/S_ambi40.png","他人","Word","朋友","Mismatch","j","true","Formal",""
"","","","","","psychophysics","328","867363","0.0-9.0-0.1-0.215","566","","f","","","","","","","","","","","","","key","f","16.667647058823302","768","428","./1_3_Stimuli/S_ambi40.png","他人","Image","朋友","Mismatch","j","false","Formal",""
"","","","","","psychophysics","329","870071","0.0-9.0-0.1-0.216","null","","null","","","","","","","","","","","","","key","null","16.66708074534176","768","428","./1_3_Stimuli/T_ambi40.png","朋友","Image","他人","Mismatch","j","false","Formal",""
"","","","","","psychophysics","330","872797","0.0-9.0-0.1-0.217","null","","null","","","","","","","","","","","","","key","null","16.665644171779142","768","428","./1_3_Stimuli/T_ambi40.png","他人","Image","他人","Match","f","false","Formal",""
"","","","","","psychophysics","331","874500","0.0-9.0-0.1-0.218","540","","f","","","","","","","","","","","","","key","f","16.665346534654155","768","428","./1_3_Stimuli/T_ambi40.png","他人","Word","他人","Match","f","true","Formal",""
"","","","","","psychophysics","332","876634","0.0-9.0-0.1-0.219","975","","f","","","","","","","","","","","","","key","f","16.668503937008058","768","428","./1_3_Stimuli/S_ambi40.png","朋友","Image","朋友","Match","f","true","Formal",""
"","","","","","psychophysics","333","878335","0.0-9.0-0.1-0.220","543","","f","","","","","","","","","","","","","key","f","16.667326732672347","768","428","./1_3_Stimuli/C_ambi40.png","自我","Image","自我","Match","f","true","Formal",""
"","","","","","psychophysics","334","880439","0.0-9.0-0.1-0.221","952","","f","","","","","","","","","","","","","key","f","16.66639999999944","768","428","./1_3_Stimuli/T_ambi40.png","他人","Image","他人","Match","f","true","Formal",""
"","","","","","psychophysics","335","882184","0.0-9.0-0.1-0.222","592","","f","","","","","","","","","","","","","key","f","16.666990291262813","768","428","./1_3_Stimuli/S_ambi40.png","他人","Image","朋友","Mismatch","j","false","Formal",""
"","","","","","psychophysics","336","884919","0.0-9.0-0.1-0.223","null","","null","","","","","","","","","","","","","key","null","16.665644171779142","768","428","./1_3_Stimuli/T_ambi40.png","朋友","Word","他人","Mismatch","j","false","Formal",""
"","","","","","psychophysics","337","886751","0.0-9.0-0.1-0.224","679","","j","","","","","","","","","","","","","key","j","16.666666666666668","768","428","./1_3_Stimuli/T_ambi40.png","自我","Word","他人","Mismatch","j","true","Formal",""
"","","","","","psychophysics","338","889337","0.0-9.0-0.1-0.225","1428","","j","","","","","","","","","","","","","key","j","16.66753246753277","768","428","./1_3_Stimuli/C_ambi40.png","他人","Image","自我","Mismatch","j","true","Formal",""
"","","","","","psychophysics","339","891223","0.0-9.0-0.1-0.226","731","","f","","","","","","","","","","","","","key","f","16.66607142857122","768","428","./1_3_Stimuli/S_ambi40.png","朋友","Word","朋友","Match","f","true","Formal",""
"","","","","","psychophysics","340","892999","0.0-9.0-0.1-0.227","624","","j","","","","","","","","","","","","","key","j","16.665714285714508","768","428","./1_3_Stimuli/S_ambi40.png","自我","Word","朋友","Mismatch","j","true","Formal",""
"","","","","","psychophysics","341","895368","0.0-9.0-0.1-0.228","1210","","f","","","","","","","","","","","","","key","f","16.666666666666668","768","428","./1_3_Stimuli/S_ambi40.png","朋友","Word","朋友","Match","f","true","Formal",""
"","","","","","psychophysics","342","897267","0.0-9.0-0.1-0.229","740","","j","","","","","","","","","","","","","key","j","16.665486725663303","768","428","./1_3_Stimuli/T_ambi40.png","自我","Image","他人","Mismatch","j","true","Formal",""
"","","","","","psychophysics","343","899977","0.0-9.0-0.1-0.230","null","","null","","","","","","","","","","","","","key","null","16.66687499999971","768","428","./1_3_Stimuli/S_ambi40.png","他人","Word","朋友","Mismatch","j","false","Formal",""
"","","","","","psychophysics","344","902011","0.0-9.0-0.1-0.231","875","","f","","","","","","","","","","","","","key","f","16.666115702479146","768","428","./1_3_Stimuli/C_ambi40.png","自我","Word","自我","Match","f","true","Formal",""
"","","","","","psychophysics","345","903972","0.0-9.0-0.1-0.232","780","","f","","","","","","","","","","","","","key","f","16.66724137930954","768","428","./1_3_Stimuli/S_ambi40.png","朋友","Image","朋友","Match","f","true","Formal",""
"","","","","","psychophysics","346","906250","0.0-9.0-0.1-0.233","1125","","j","","","","","","","","","","","","","key","j","16.66518518518553","768","428","./1_3_Stimuli/S_ambi40.png","自我","Image","朋友","Mismatch","j","true","Formal",""
"","","","","","psychophysics","347","908255","0.0-9.0-0.1-0.234","846","","j","","","","","","","","","","","","","key","j","16.66638655462224","768","428","./1_3_Stimuli/C_ambi40.png","他人","Word","自我","Mismatch","j","true","Formal",""
"","","","","","psychophysics","348","910182","0.0-9.0-0.1-0.235","756","","f","","","","","","","","","","","","","key","f","16.66695652173974","768","428","./1_3_Stimuli/C_ambi40.png","自我","Image","自我","Match","f","true","Formal",""
"","","","","","psychophysics","349","912345","0.0-9.0-0.1-0.236","1004","","f","","","","","","","","","","","","","key","f","16.6658914728684","768","428","./1_3_Stimuli/T_ambi40.png","他人","Word","他人","Match","f","true","Formal",""
"","","","","","psychophysics","350","914097","0.0-9.0-0.1-0.237","596","","f","","","","","","","","","","","","","key","f","16.665384615385285","768","428","./1_3_Stimuli/C_ambi40.png","自我","Word","自我","Match","f","true","Formal",""
"","","","","","psychophysics","351","916072","0.0-9.0-0.1-0.238","796","","j","","","","","","","","","","","","","key","j","16.667521367521168","768","428","./1_3_Stimuli/C_ambi40.png","朋友","Word","自我","Mismatch","j","true","Formal",""
"","","","","","psychophysics","352","917957","0.0-9.0-0.1-0.239","732","","j","","","","","","","","","","","","","key","j","16.66846846846805","768","428","./1_3_Stimuli/C_ambi40.png","朋友","Image","自我","Mismatch","j","true","Formal",""
"","","","","","html-keyboard-response","353","920125","0.0-9.0-1.1","2164","<style>.context{color:white; font-size: 35px; line-height:40px}</style>                        <div><p class='context'>您正确回答了92% 的试次。</p><p class='context'>您的平均反应时为756毫秒。</p><p> <div style = 'color: green'><按任意键进入休息></div></p>"," ","","","","","","","","","","","","","","","","","","","","","","","","","",""
"","","","","","html-button-response","354","966763","0.0-9.0-2.1","46631","
                  <p>您当前还剩余4组实验</p>
                  <p>现在是休息时间，当您结束休息后，您可以点击 结束休息 按钮 继续</p>
                  <p>建议休息时间还剩余<span id=""iii"">60</span>秒</p>","0","","","","","","","","","","","","","","","","","","","","","","","","","",""
"","","","","","psychophysics","355","968689","0.0-9.0-0.2-0.240","763","","f","","","","","","","","","","","","","key","f","16.665789473684416","768","428","./1_3_Stimuli/S_ambi40.png","朋友","Image","朋友","Match","f","true","Formal",""
"","","","","","psychophysics","356","970351","0.0-9.0-0.2-0.241","509","","j","","","","","","","","","","","","","key","j","16.666666666666668","768","428","./1_3_Stimuli/S_ambi40.png","他人","Word","朋友","Mismatch","j","true","Formal",""
"","","","","","psychophysics","357","972171","0.0-9.0-0.2-0.242","661","","j","","","","","","","","","","","","","key","j","16.663888888888458","768","428","./1_3_Stimuli/S_ambi40.png","自我","Image","朋友","Mismatch","j","true","Formal",""
"","","","","","psychophysics","358","974151","0.0-9.0-0.2-0.243","824","","j","","","","","","","","","","","","","key","j","16.6677966101689","768","428","./1_3_Stimuli/T_ambi40.png","朋友","Image","他人","Mismatch","j","true","Formal",""
"","","","","","psychophysics","359","976046","0.0-9.0-0.2-0.244","741","","f","","","","","","","","","","","","","key","f","16.667256637167316","768","428","./1_3_Stimuli/T_ambi40.png","朋友","Word","他人","Mismatch","j","false","Formal",""
"","","","","","psychophysics","360","978058","0.0-9.0-0.2-0.245","854","","f","","","","","","","","","","","","","key","f","16.66722689075552","768","428","./1_3_Stimuli/C_ambi40.png","自我","Word","自我","Match","f","true","Formal",""
"","","","","","psychophysics","361","980311","0.0-9.0-0.2-0.246","1101","","f","","","","","","","","","","","","","key","f","16.66641791044724","768","428","./1_3_Stimuli/T_ambi40.png","他人","Word","他人","Match","f","true","Formal",""
"","","","","","psychophysics","362","982207","0.0-9.0-0.2-0.247","743","","f","","","","","","","","","","","","","key","f","16.66607142857122","768","428","./1_3_Stimuli/S_ambi40.png","朋友","Word","朋友","Match","f","true","Formal",""
"","","","","","psychophysics","363","983959","0.0-9.0-0.2-0.248","581","","j","","","","","","","","","","","","","key","j","16.666019417475503","768","428","./1_3_Stimuli/T_ambi40.png","自我","Image","他人","Mismatch","j","true","Formal",""
"","","","","","psychophysics","364","986419","0.0-9.0-0.2-0.249","1307","","f","","","","","","","","","","","","","key","f","16.666438356164704","768","428","./1_3_Stimuli/T_ambi40.png","他人","Image","他人","Match","f","true","Formal",""
"","","","","","psychophysics","365","988456","0.0-9.0-0.2-0.250","880","","f","","","","","","","","","","","","","key","f","16.666115702479146","768","428","./1_3_Stimuli/C_ambi40.png","自我","Image","自我","Match","f","true","Formal",""
"","","","","","psychophysics","366","990830","0.0-9.0-0.2-0.251","1207","","j","","","","","","","","","","","","","key","j","16.668085106382648","768","428","./1_3_Stimuli/S_ambi40.png","自我","Word","朋友","Mismatch","j","true","Formal",""
"","","","","","psychophysics","367","992841","0.0-9.0-0.2-0.252","859","","f","","","","","","","","","","","","","key","f","16.668067226890756","768","428","./1_3_Stimuli/T_ambi40.png","他人","Image","他人","Match","f","true","Formal",""
"","","","","","psychophysics","368","994842","0.0-9.0-0.2-0.253","847","","j","","","","","","","","","","","","","key","j","16.667796610169887","768","428","./1_3_Stimuli/C_ambi40.png","他人","Image","自我","Mismatch","j","true","Formal",""
"","","","","","psychophysics","369","996917","0.0-9.0-0.2-0.254","907","","j","","","","","","","","","","","","","key","j","16.665853658535827","768","428","./1_3_Stimuli/C_ambi40.png","朋友","Word","自我","Mismatch","j","true","Formal",""
"","","","","","psychophysics","370","998793","0.0-9.0-0.2-0.255","719","","j","","","","","","","","","","","","","key","j","16.666666666666668","768","428","./1_3_Stimuli/T_ambi40.png","自我","Word","他人","Mismatch","j","true","Formal",""
"","","","","","psychophysics","371","1000725","0.0-9.0-0.2-0.256","780","","j","","","","","","","","","","","","","key","j","16.666666666666668","768","428","./1_3_Stimuli/C_ambi40.png","他人","Word","自我","Mismatch","j","true","Formal",""
"","","","","","psychophysics","372","1002611","0.0-9.0-0.2-0.257","733","","f","","","","","","","","","","","","","key","f","16.664285714284883","768","428","./1_3_Stimuli/C_ambi40.png","自我","Word","自我","Match","f","true","Formal",""
"","","","","","psychophysics","373","1004733","0.0-9.0-0.2-0.258","965","","j","","","","","","","","","","","","","key","j","16.667460317460133","768","428","./1_3_Stimuli/S_ambi40.png","他人","Image","朋友","Mismatch","j","true","Formal",""
"","","","","","psychophysics","374","1006704","0.0-9.0-0.2-0.259","815","","j","","","","","","","","","","","","","key","j","16.667521367521168","768","428","./1_3_Stimuli/T_ambi40.png","他人","Word","他人","Match","f","false","Formal",""
"","","","","","psychophysics","375","1009386","0.0-9.0-0.2-0.260","1526","","f","","","","","","","","","","","","","key","f","16.6660377358492","768","428","./1_3_Stimuli/S_ambi40.png","朋友","Image","朋友","Match","f","true","Formal",""
"","","","","","psychophysics","376","1011531","0.0-9.0-0.2-0.261","988","","j","","","","","","","","","","","","","key","j","16.667187500000182","768","428","./1_3_Stimuli/C_ambi40.png","朋友","Image","自我","Mismatch","j","true","Formal",""
"","","","","","psychophysics","377","1013550","0.0-9.0-0.2-0.262","864","","f","","","","","","","","","","","","","key","f","16.667499999999805","768","428","./1_3_Stimuli/S_ambi40.png","朋友","Word","朋友","Match","f","true","Formal",""
"","","","","","psychophysics","378","1015214","0.0-9.0-0.2-0.263","486","","f","","","","","","","","","","","","","key","f","16.6656565656568","768","428","./1_3_Stimuli/C_ambi40.png","自我","Image","自我","Match","f","true","Formal",""
"","","","","","psychophysics","379","1017718","0.0-9.0-0.2-0.264","1341","","j","","","","","","","","","","","","","key","j","16.66711409395989","768","428","./1_3_Stimuli/C_ambi40.png","朋友","Image","自我","Mismatch","j","true","Formal",""
"","","","","","psychophysics","380","1019636","0.0-9.0-0.2-0.265","760","","f","","","","","","","","","","","","","key","f","16.66491228070216","768","428","./1_3_Stimuli/C_ambi40.png","自我","Word","自我","Match","f","true","Formal",""
"","","","","","psychophysics","381","1021710","0.0-9.0-0.2-0.266","888","","f","","","","","","","","","","","","","key","f","16.666666666666668","768","428","./1_3_Stimuli/C_ambi40.png","自我","Image","自我","Match","f","true","Formal",""
"","","","","","psychophysics","382","1023652","0.0-9.0-0.2-0.267","784","","f","","","","","","","","","","","","","key","f","16.66695652173974","768","428","./1_3_Stimuli/T_ambi40.png","他人","Word","他人","Match","f","true","Formal",""
"","","","","","psychophysics","383","1026361","0.0-9.0-0.2-0.268","null","","null","","","","","","","","","","","","","key","null","16.666049382716192","768","428","./1_3_Stimuli/T_ambi40.png","自我","Word","他人","Mismatch","j","false","Formal",""
"","","","","","psychophysics","384","1028643","0.0-9.0-0.2-0.269","1117","","j","","","","","","","","","","","","","key","j","16.666176470588063","768","428","./1_3_Stimuli/C_ambi40.png","他人","Image","自我","Mismatch","j","true","Formal",""
"","","","","","psychophysics","385","1030851","0.0-9.0-0.2-0.270","1055","","j","","","","","","","","","","","","","key","j","16.665648854961475","768","428","./1_3_Stimuli/S_ambi40.png","他人","Image","朋友","Mismatch","j","true","Formal",""
"","","","","","psychophysics","386","1033168","0.0-9.0-0.2-0.271","1158","","f","","","","","","","","","","","","","key","f","16.666666666666668","768","428","./1_3_Stimuli/T_ambi40.png","他人","Image","他人","Match","f","true","Formal",""
"","","","","","psychophysics","387","1034832","0.0-9.0-0.2-0.272","505","","f","","","","","","","","","","","","","key","f","16.666666666666668","768","428","./1_3_Stimuli/T_ambi40.png","他人","Word","他人","Match","f","true","Formal",""
"","","","","","psychophysics","388","1036419","0.0-9.0-0.2-0.273","428","","f","","","","","","","","","","","","","key","f","16.668085106383476","768","428","./1_3_Stimuli/T_ambi40.png","他人","Image","他人","Match","f","true","Formal",""
"","","","","","psychophysics","389","1038371","0.0-9.0-0.2-0.274","794","","j","","","","","","","","","","","","","key","j","16.666379310345228","768","428","./1_3_Stimuli/S_ambi40.png","自我","Word","朋友","Mismatch","j","true","Formal",""
"","","","","","psychophysics","390","1040739","0.0-9.0-0.2-0.275","1212","","j","","","","","","","","","","","","","key","j","16.666428571428906","768","428","./1_3_Stimuli/T_ambi40.png","自我","Image","他人","Mismatch","j","true","Formal",""
"","","","","","psychophysics","391","1042652","0.0-9.0-0.2-0.276","761","","j","","","","","","","","","","","","","key","j","16.66754385964994","768","428","./1_3_Stimuli/S_ambi40.png","自我","Image","朋友","Mismatch","j","true","Formal",""
"","","","","","psychophysics","392","1044382","0.0-9.0-0.2-0.277","555","","f","","","","","","","","","","","","","key","f","16.668932038834047","768","428","./1_3_Stimuli/S_ambi40.png","朋友","Word","朋友","Match","f","true","Formal",""
"","","","","","psychophysics","393","1046100","0.0-9.0-0.2-0.278","557","","j","","","","","","","","","","","","","key","j","16.665686274510033","768","428","./1_3_Stimuli/C_ambi40.png","朋友","Word","自我","Mismatch","j","true","Formal",""
"","","","","","psychophysics","394","1048313","0.0-9.0-0.2-0.279","1054","","f","","","","","","","","","","","","","key","f","16.665909090909267","768","428","./1_3_Stimuli/C_ambi40.png","自我","Image","自我","Match","f","true","Formal",""
"","","","","","psychophysics","395","1050458","0.0-9.0-0.2-0.280","984","","f","","","","","","","","","","","","","key","f","16.666929133857902","768","428","./1_3_Stimuli/S_ambi40.png","朋友","Image","朋友","Match","f","true","Formal",""
"","","","","","psychophysics","396","1052669","0.0-9.0-0.2-0.281","1059","","j","","","","","","","","","","","","","key","j","16.666412213739036","768","428","./1_3_Stimuli/C_ambi40.png","他人","Word","自我","Mismatch","j","true","Formal",""
"","","","","","psychophysics","397","1054708","0.0-9.0-0.2-0.282","887","","j","","","","","","","","","","","","","key","j","16.666942148759947","768","428","./1_3_Stimuli/T_ambi40.png","朋友","Image","他人","Mismatch","j","true","Formal",""
"","","","","","psychophysics","398","1056499","0.0-9.0-0.2-0.283","606","","f","","","","","","","","","","","","","key","f","16.666981132075033","768","428","./1_3_Stimuli/S_ambi40.png","朋友","Image","朋友","Match","f","true","Formal",""
"","","","","","psychophysics","399","1058362","0.0-9.0-0.2-0.284","710","","j","","","","","","","","","","","","","key","j","16.666666666666668","768","428","./1_3_Stimuli/T_ambi40.png","朋友","Word","他人","Mismatch","j","true","Formal",""
"","","","","","psychophysics","400","1060633","0.0-9.0-0.2-0.285","1114","","j","","","","","","","","","","","","","key","j","16.666666666666668","768","428","./1_3_Stimuli/S_ambi40.png","他人","Word","朋友","Mismatch","j","true","Formal",""
"","","","","","psychophysics","401","1062471","0.0-9.0-0.2-0.286","668","","f","","","","","","","","","","","","","key","f","16.666055045870277","768","428","./1_3_Stimuli/C_ambi40.png","自我","Word","自我","Match","f","true","Formal",""
"","","","","","psychophysics","402","1064374","0.0-9.0-0.2-0.287","752","","f","","","","","","","","","","","","","key","f","16.66607142857018","768","428","./1_3_Stimuli/S_ambi40.png","朋友","Word","朋友","Match","f","true","Formal",""
"","","","","","psychophysics","403","1066187","0.0-9.0-0.2-0.288","660","","f","","","","","","","","","","","","","key","f","16.665420560749403","768","428","./1_3_Stimuli/C_ambi40.png","自我","Image","自我","Match","f","true","Formal",""
"","","","","","psychophysics","404","1068071","0.0-9.0-0.2-0.289","732","","f","","","","","","","","","","","","","key","f","16.66696428571387","768","428","./1_3_Stimuli/S_ambi40.png","他人","Word","朋友","Mismatch","j","false","Formal",""
"","","","","","psychophysics","405","1069792","0.0-9.0-0.2-0.290","569","","f","","","","","","","","","","","","","key","f","16.665686274511174","768","428","./1_3_Stimuli/C_ambi40.png","自我","Word","自我","Match","f","true","Formal",""
"","","","","","psychophysics","406","1072209","0.0-9.0-0.2-0.291","1265","","f","","","","","","","","","","","","","key","f","16.667132867133844","768","428","./1_3_Stimuli/T_ambi40.png","他人","Word","他人","Match","f","true","Formal",""
"","","","","","psychophysics","407","1074235","0.0-9.0-0.2-0.292","858","","f","","","","","","","","","","","","","key","f","16.666666666666668","768","428","./1_3_Stimuli/S_ambi40.png","朋友","Image","朋友","Match","f","true","Formal",""
"","","","","","psychophysics","408","1076141","0.0-9.0-0.2-0.293","747","","f","","","","","","","","","","","","","key","f","16.66785714285756","768","428","./1_3_Stimuli/C_ambi40.png","自我","Word","自我","Match","f","true","Formal",""
"","","","","","psychophysics","409","1077954","0.0-9.0-0.2-0.294","660","","j","","","","","","","","","","","","","key","j","16.669158878503367","768","428","./1_3_Stimuli/T_ambi40.png","自我","Image","他人","Mismatch","j","true","Formal",""
"","","","","","psychophysics","410","1079871","0.0-9.0-0.2-0.295","762","","j","","","","","","","","","","","","","key","j","16.666666666666668","768","428","./1_3_Stimuli/C_ambi40.png","朋友","Image","自我","Mismatch","j","true","Formal",""
"","","","","","psychophysics","411","1081642","0.0-9.0-0.2-0.296","617","","j","","","","","","","","","","","","","key","j","16.6663461538466","768","428","./1_3_Stimuli/C_ambi40.png","他人","Image","自我","Mismatch","j","true","Formal",""
"","","","","","psychophysics","412","1084093","0.0-9.0-0.2-0.297","1300","","f","","","","","","","","","","","","","key","f","16.66758620689687","768","428","./1_3_Stimuli/S_ambi40.png","朋友","Image","朋友","Match","f","true","Formal",""
"","","","","","psychophysics","413","1085938","0.0-9.0-0.2-0.298","678","","j","","","","","","","","","","","","","key","j","16.667889908257308","768","428","./1_3_Stimuli/T_ambi40.png","自我","Word","他人","Mismatch","j","true","Formal",""
"","","","","","psychophysics","414","1088040","0.0-9.0-0.2-0.299","947","","f","","","","","","","","","","","","","key","f","16.668548387096024","768","428","./1_3_Stimuli/S_ambi40.png","他人","Image","朋友","Mismatch","j","false","Formal",""
"","","","","","psychophysics","415","1090426","0.0-9.0-0.2-0.300","1233","","f","","","","","","","","","","","","","key","f","16.666666666666668","768","428","./1_3_Stimuli/T_ambi40.png","他人","Image","他人","Match","f","true","Formal",""
"","","","","","psychophysics","416","1092174","0.0-9.0-0.2-0.301","580","","j","","","","","","","","","","","","","key","j","16.66504854368932","768","428","./1_3_Stimuli/C_ambi40.png","他人","Word","自我","Mismatch","j","true","Formal",""
