"success","timeout","failed_images","failed_audio","failed_video","trial_type","trial_index","time_elapsed","internal_node_id","rt","stimulus","response","value","item_width_mm","item_height_mm","item_width_px","px2mm","view_dist_mm","item_width_deg","px2deg","scale_factor","win_width_deg","win_height_deg","view_history","response_type","key_press","avg_frame_time","center_x","center_y","image","word","target","valence","matchness","correct_response","correct","exp_condition"
"true","false","[]","[]","[]","preload","0","742","0.0-0.0","","","","","","","","","","","","","","","","","","","","","","","","","","","",""
"","","","","","html-keyboard-response","1","2636","0.0-1.0","1892","
     <p>您好，欢迎参加本次实验。</p>
     <p>为充分保障您的权利，请确保您已经知晓并同意《参与实验同意书》以及《数据公开知情同意书》。</p>
     <p>如果您未见过上述内容，请咨询实验员。</p>
     <p>如果您选择继续实验，则表示您已经清楚两份知情同意书的内容并同意。</p>
     <p> <div style = ""color: green""><按任意键至下页></div> </p>
     "," ","","","","","","","","","","","","","","","","","","","","","","","","",""
"","","","","","html-keyboard-response","2","3166","0.0-2.0-0.0","530","
      <p>本实验首先需要您填写一些基本个人信息。</p>
      <p> <div style = ""color: green""><按任意键至下页></div></p>
      "," ","","","","","","","","","","","","","","","","","","","","","","","","",""
"","","","","","call-function","3","3167","0.0-2.0-1.0","","","","","","","","","","","","","","","","","","","","","","","","","","","",""
"","","","","","survey-html-form","4","10899","0.0-2.0-2.0","7730","","{""Q0"":""1014""}","","","","","","","","","","","","","","","","","","","","","","","","",""
"","","","","","html-button-response","5","12179","0.0-2.0-3.0","1278","<p style = 'color : white'>您的性别</p>","1","","","","","","","","","","","","","","","","","","","","","","","","",""
"","","","","","survey-html-form","6","25854","0.0-2.0-4.0","13674","","{""Q0"":""2003""}","","","","","","","","","","","","","","","","","","","","","","","","",""
"","","","","","survey-html-form","7","30616","0.0-2.0-5.0","4761","","{""Q0"":""5""}","","","","","","","","","","","","","","","","","","","","","","","","",""
"","","","","","virtual-chinrest","8","187885","0.0-3.0","157268","","","","85.6","53.98","480.47063842435983","5.613419340007372","509.19","9.609412768487196","50","0.8408422236265358","27.7","15.04","","","","","","","","","","","","","",""
"true","","","","","fullscreen","9","193566","0.0-4.0","","","","","","","","","","","","","","","","","","","","","","","","","","","",""
"","","","","","instructions","10","300763","0.0-5.0","107196","","","","","","","","","","","","","","[{""page_index"":0,""viewing_time"":25797},{""page_index"":1,""viewing_time"":39424},{""page_index"":2,""viewing_time"":38621},{""page_index"":3,""viewing_time"":3354}]","","","","","","","","","","","","",""
"","","","","","html-keyboard-response","11","304414","0.0-6.0","null","<count-down title=""""></count-down>","null","","","","","","","","","","","","","","","","","","","","","","","","",""
"","","","","","psychophysics","12","306874","0.0-7.0-0.0-0.0","1294","","f","","","","","","","","","","","","","key","f","16.666623287671165","720","446","./1_3_Stimuli/C_ambi40.png","自我","Image","自我","Match","f","true","Practice"
"","","","","","html-keyboard-response","13","307187","0.0-7.0-0.0-1.0","null","<span style='color:GreenYellow; font-size: 70px;'>正确! </span>","null","","","","","","","","","","","","","","","","","","","","","","","","","feedback"
"","","","","","psychophysics","14","309095","0.0-7.0-0.0-0.1","749","","j","","","","","","","","","","","","","key","j","16.667185840707898","720","446","./1_3_Stimuli/T_ambi40.png","自我","Word","他人","Mismatch","j","true","Practice"
"","","","","","html-keyboard-response","15","309407","0.0-7.0-0.0-1.1","null","<span style='color:GreenYellow; font-size: 70px;'>正确! </span>","null","","","","","","","","","","","","","","","","","","","","","","","","","feedback"
"","","","","","psychophysics","16","311221","0.0-7.0-0.0-0.2","656","","f","","","","","","","","","","","","","key","f","16.6672777777777","720","446","./1_3_Stimuli/C_ambi40.png","自我","Image","自我","Match","f","true","Practice"
"","","","","","html-keyboard-response","17","311536","0.0-7.0-0.0-1.2","null","<span style='color:GreenYellow; font-size: 70px;'>正确! </span>","null","","","","","","","","","","","","","","","","","","","","","","","","","feedback"
"","","","","","psychophysics","18","314246","0.0-7.0-0.0-0.3","null","","null","","","","","","","","","","","","","key","null","16.666726708074854","720","446","./1_3_Stimuli/T_ambi40.png","他人","Image","他人","Match","f","false","Practice"
"","","","","","html-keyboard-response","19","314556","0.0-7.0-0.0-1.3","null","<span class='add_' style='color:yellow; font-size: 70px;'> 太慢! </span>","null","","","","","","","","","","","","","","","","","","","","","","","","","feedback"
"","","","","","psychophysics","20","316603","0.0-7.0-0.0-0.4","889","","j","","","","","","","","","","","","","key","j","16.66547540983626","720","446","./1_3_Stimuli/C_ambi40.png","他人","Image","自我","Mismatch","j","true","Practice"
"","","","","","html-keyboard-response","21","316907","0.0-7.0-0.0-1.4","null","<span style='color:GreenYellow; font-size: 70px;'>正确! </span>","null","","","","","","","","","","","","","","","","","","","","","","","","","feedback"
"","","","","","psychophysics","22","318638","0.0-7.0-0.0-0.5","574","","f","","","","","","","","","","","","","key","f","16.667466019417013","720","446","./1_3_Stimuli/C_ambi40.png","自我","Word","自我","Match","f","true","Practice"
"","","","","","html-keyboard-response","23","318957","0.0-7.0-0.0-1.5","null","<span style='color:GreenYellow; font-size: 70px;'>正确! </span>","null","","","","","","","","","","","","","","","","","","","","","","","","","feedback"
"","","","","","psychophysics","24","321315","0.0-7.0-0.0-0.6","1201","","j","","","","","","","","","","","","","key","j","16.665517730496376","720","446","./1_3_Stimuli/T_ambi40.png","朋友","Image","他人","Mismatch","j","true","Practice"
"","","","","","html-keyboard-response","25","321616","0.0-7.0-0.0-1.6","null","<span style='color:GreenYellow; font-size: 70px;'>正确! </span>","null","","","","","","","","","","","","","","","","","","","","","","","","","feedback"
"","","","","","psychophysics","26","323689","0.0-7.0-0.0-0.7","909","","j","","","","","","","","","","","","","key","j","16.666699186991522","720","446","./1_3_Stimuli/S_ambi40.png","自我","Image","朋友","Mismatch","j","true","Practice"
"","","","","","html-keyboard-response","27","323992","0.0-7.0-0.0-1.7","null","<span style='color:GreenYellow; font-size: 70px;'>正确! </span>","null","","","","","","","","","","","","","","","","","","","","","","","","","feedback"
"","","","","","psychophysics","28","326696","0.0-7.0-0.0-0.8","null","","null","","","","","","","","","","","","","key","null","16.667863354037344","720","446","./1_3_Stimuli/S_ambi40.png","他人","Image","朋友","Mismatch","j","false","Practice"
"","","","","","html-keyboard-response","29","327017","0.0-7.0-0.0-1.8","null","<span class='add_' style='color:yellow; font-size: 70px;'> 太慢! </span>","null","","","","","","","","","","","","","","","","","","","","","","","","","feedback"
"","","","","","psychophysics","30","328743","0.0-7.0-0.0-0.9","563","","f","","","","","","","","","","","","","key","f","16.664960784313735","720","446","./1_3_Stimuli/C_ambi40.png","自我","Word","自我","Match","f","true","Practice"
"","","","","","html-keyboard-response","31","329057","0.0-7.0-0.0-1.9","null","<span style='color:GreenYellow; font-size: 70px;'>正确! </span>","null","","","","","","","","","","","","","","","","","","","","","","","","","feedback"
"","","","","","psychophysics","32","331309","0.0-7.0-0.0-0.10","1095","","j","","","","","","","","","","","","","key","j","16.665626865671772","720","446","./1_3_Stimuli/S_ambi40.png","自我","Word","朋友","Mismatch","j","true","Practice"
"","","","","","html-keyboard-response","33","331611","0.0-7.0-0.0-1.10","null","<span style='color:GreenYellow; font-size: 70px;'>正确! </span>","null","","","","","","","","","","","","","","","","","","","","","","","","","feedback"
"","","","","","psychophysics","34","334076","0.0-7.0-0.0-0.11","1312","","j","","","","","","","","","","","","","key","j","16.6577260273972","720","446","./1_3_Stimuli/S_ambi40.png","他人","Word","朋友","Mismatch","j","true","Practice"
"","","","","","html-keyboard-response","35","334396","0.0-7.0-0.0-1.11","null","<span style='color:GreenYellow; font-size: 70px;'>正确! </span>","null","","","","","","","","","","","","","","","","","","","","","","","","","feedback"
"","","","","","psychophysics","36","336673","0.0-7.0-0.0-0.12","1126","","j","","","","","","","","","","","","","key","j","16.66785925925899","720","446","./1_3_Stimuli/T_ambi40.png","他人","Word","他人","Match","f","false","Practice"
"","","","","","html-keyboard-response","37","336986","0.0-7.0-0.0-1.12","null","<span style='color:red; font-size: 70px;'>错误! </span>","null","","","","","","","","","","","","","","","","","","","","","","","","","feedback"
"","","","","","psychophysics","38","339697","0.0-7.0-0.0-0.13","null","","null","","","","","","","","","","","","","key","null","16.665062111801316","720","446","./1_3_Stimuli/C_ambi40.png","朋友","Image","自我","Mismatch","j","false","Practice"
"","","","","","html-keyboard-response","39","340016","0.0-7.0-0.0-1.13","null","<span class='add_' style='color:yellow; font-size: 70px;'> 太慢! </span>","null","","","","","","","","","","","","","","","","","","","","","","","","","feedback"
"","","","","","psychophysics","40","342298","0.0-7.0-0.0-0.14","1118","","j","","","","","","","","","","","","","key","j","16.66555147058791","720","446","./1_3_Stimuli/C_ambi40.png","他人","Word","自我","Mismatch","j","true","Practice"
"","","","","","html-keyboard-response","41","342608","0.0-7.0-0.0-1.14","null","<span style='color:GreenYellow; font-size: 70px;'>正确! </span>","null","","","","","","","","","","","","","","","","","","","","","","","","","feedback"
"","","","","","psychophysics","42","345015","0.0-7.0-0.0-0.15","1251","","f","","","","","","","","","","","","","key","f","16.665402777777974","720","446","./1_3_Stimuli/S_ambi40.png","朋友","Word","朋友","Match","f","true","Practice"
"","","","","","html-keyboard-response","43","345317","0.0-7.0-0.0-1.15","null","<span style='color:GreenYellow; font-size: 70px;'>正确! </span>","null","","","","","","","","","","","","","","","","","","","","","","","","","feedback"
"","","","","","psychophysics","44","347245","0.0-7.0-0.0-0.16","766","","f","","","","","","","","","","","","","key","f","16.668210526315594","720","446","./1_3_Stimuli/S_ambi40.png","朋友","Image","朋友","Match","f","true","Practice"
"","","","","","html-keyboard-response","45","347556","0.0-7.0-0.0-1.16","null","<span style='color:GreenYellow; font-size: 70px;'>正确! </span>","null","","","","","","","","","","","","","","","","","","","","","","","","","feedback"
"","","","","","psychophysics","46","349476","0.0-7.0-0.0-0.17","763","","j","","","","","","","","","","","","","key","j","16.668199999999942","720","446","./1_3_Stimuli/T_ambi40.png","自我","Image","他人","Mismatch","j","true","Practice"
"","","","","","html-keyboard-response","47","349785","0.0-7.0-0.0-1.17","null","<span style='color:GreenYellow; font-size: 70px;'>正确! </span>","null","","","","","","","","","","","","","","","","","","","","","","","","","feedback"
"","","","","","psychophysics","48","352447","0.0-7.0-0.0-0.18","1501","","f","","","","","","","","","","","","","key","f","19.775641791044677","720","446","./1_3_Stimuli/S_ambi40.png","朋友","Word","朋友","Match","f","true","Practice"
"","","","","","html-keyboard-response","49","352763","0.0-7.0-0.0-1.18","null","<span class='add_' style='color:yellow; font-size: 70px;'> 太慢! </span>","null","","","","","","","","","","","","","","","","","","","","","","","","","feedback"
"","","","","","psychophysics","50","355030","0.0-7.0-0.0-0.19","1116","","f","","","","","","","","","","","","","key","f","20.598311320754462","720","446","./1_3_Stimuli/S_ambi40.png","朋友","Image","朋友","Match","f","true","Practice"
"","","","","","html-keyboard-response","51","355343","0.0-7.0-0.0-1.19","null","<span style='color:GreenYellow; font-size: 70px;'>正确! </span>","null","","","","","","","","","","","","","","","","","","","","","","","","","feedback"
"","","","","","psychophysics","52","357878","0.0-7.0-0.0-0.20","1382","","j","","","","","","","","","","","","","key","j","16.6669735099337","720","446","./1_3_Stimuli/C_ambi40.png","朋友","Word","自我","Mismatch","j","true","Practice"
"","","","","","html-keyboard-response","53","358196","0.0-7.0-0.0-1.20","null","<span style='color:GreenYellow; font-size: 70px;'>正确! </span>","null","","","","","","","","","","","","","","","","","","","","","","","","","feedback"
"","","","","","psychophysics","54","360284","0.0-7.0-0.0-0.21","937","","f","","","","","","","","","","","","","key","f","16.665491935483935","720","446","./1_3_Stimuli/T_ambi40.png","他人","Image","他人","Match","f","true","Practice"
"","","","","","html-keyboard-response","55","360586","0.0-7.0-0.0-1.21","null","<span style='color:GreenYellow; font-size: 70px;'>正确! </span>","null","","","","","","","","","","","","","","","","","","","","","","","","","feedback"
"","","","","","psychophysics","56","362686","0.0-7.0-0.0-0.22","939","","f","","","","","","","","","","","","","key","f","16.66671200000029","720","446","./1_3_Stimuli/T_ambi40.png","朋友","Word","他人","Mismatch","j","false","Practice"
"","","","","","html-keyboard-response","57","363006","0.0-7.0-0.0-1.22","null","<span style='color:red; font-size: 70px;'>错误! </span>","null","","","","","","","","","","","","","","","","","","","","","","","","","feedback"
"","","","","","psychophysics","58","365248","0.0-7.0-0.0-0.23","1085","","j","","","","","","","","","","","","","key","j","16.66623134328332","720","446","./1_3_Stimuli/T_ambi40.png","他人","Word","他人","Match","f","false","Practice"
"","","","","","html-keyboard-response","59","365566","0.0-7.0-0.0-1.23","null","<span style='color:red; font-size: 70px;'>错误! </span>","null","","","","","","","","","","","","","","","","","","","","","","","","","feedback"
"","","","","","html-keyboard-response","60","371774","0.0-7.0-1.0-0.0","6206","<style>.context{color:white; font-size: 35px; line-height:40px}</style>                        <div><p class='context'>您正确回答了75% 的试次。</p><p class='context'>您的平均反应时为1004毫秒。</p><p> <div style = 'color: green'><按空格键至下页></div></p>"," ","","","","","","","","","","","","","","","","","","","","","","","","",""
"","","","","","instructions","61","378643","0.0-7.0-1.0-1.0","6867","","","","","","","","","","","","","","[{""page_index"":0,""viewing_time"":3210},{""page_index"":1,""viewing_time"":1788},{""page_index"":2,""viewing_time"":1869}]","","","","","","","","","","","","",""
"","","","","","psychophysics","62","380923","0.0-7.1-0.1-0.24","1127","","f","","","","","","","","","","","","","key","f","16.666059259259296","720","446","./1_3_Stimuli/S_ambi40.png","他人","Image","朋友","Mismatch","j","false","Practice"
"","","","","","html-keyboard-response","63","381236","0.0-7.1-0.1-1.24","null","<span style='color:red; font-size: 70px;'>错误! </span>","null","","","","","","","","","","","","","","","","","","","","","","","","","feedback"
"","","","","","psychophysics","64","383144","0.0-7.1-0.1-0.25","748","","j","","","","","","","","","","","","","key","j","16.666539823009007","720","446","./1_3_Stimuli/C_ambi40.png","他人","Word","自我","Mismatch","j","true","Practice"
"","","","","","html-keyboard-response","65","383456","0.0-7.1-0.1-1.25","null","<span style='color:GreenYellow; font-size: 70px;'>正确! </span>","null","","","","","","","","","","","","","","","","","","","","","","","","","feedback"
"","","","","","psychophysics","66","385666","0.0-7.1-0.1-0.26","1053","","f","","","","","","","","","","","","","key","f","16.667219696969507","720","446","./1_3_Stimuli/T_ambi40.png","他人","Image","他人","Match","f","true","Practice"
"","","","","","html-keyboard-response","67","385986","0.0-7.1-0.1-1.26","null","<span style='color:GreenYellow; font-size: 70px;'>正确! </span>","null","","","","","","","","","","","","","","","","","","","","","","","","","feedback"
"","","","","","psychophysics","68","388578","0.0-7.1-0.1-0.27","1432","","f","","","","","","","","","","","","","key","f","16.66666233766213","720","446","./1_3_Stimuli/S_ambi40.png","朋友","Image","朋友","Match","f","true","Practice"
"","","","","","html-keyboard-response","69","388881","0.0-7.1-0.1-1.27","null","<span style='color:GreenYellow; font-size: 70px;'>正确! </span>","null","","","","","","","","","","","","","","","","","","","","","","","","","feedback"
"","","","","","psychophysics","70","391101","0.0-7.1-0.1-0.28","1055","","j","","","","","","","","","","","","","key","j","16.66660606060583","720","446","./1_3_Stimuli/T_ambi40.png","自我","Image","他人","Mismatch","j","true","Practice"
"","","","","","html-keyboard-response","71","391406","0.0-7.1-0.1-1.28","null","<span style='color:GreenYellow; font-size: 70px;'>正确! </span>","null","","","","","","","","","","","","","","","","","","","","","","","","","feedback"
"","","","","","psychophysics","72","393521","0.0-7.1-0.1-0.29","957","","j","","","","","","","","","","","","","key","j","16.66635714285676","720","446","./1_3_Stimuli/T_ambi40.png","朋友","Word","他人","Mismatch","j","true","Practice"
"","","","","","html-keyboard-response","73","393834","0.0-7.1-0.1-1.29","null","<span style='color:GreenYellow; font-size: 70px;'>正确! </span>","null","","","","","","","","","","","","","","","","","","","","","","","","","feedback"
"","","","","","psychophysics","74","395662","0.0-7.1-0.1-0.30","666","","f","","","","","","","","","","","","","key","f","16.66624999999961","720","446","./1_3_Stimuli/T_ambi40.png","他人","Word","他人","Match","f","true","Practice"
"","","","","","html-keyboard-response","75","395976","0.0-7.1-0.1-1.30","null","<span style='color:GreenYellow; font-size: 70px;'>正确! </span>","null","","","","","","","","","","","","","","","","","","","","","","","","","feedback"
"","","","","","psychophysics","76","398044","0.0-7.1-0.1-0.31","915","","f","","","","","","","","","","","","","key","f","16.666943089430774","720","446","./1_3_Stimuli/S_ambi40.png","朋友","Word","朋友","Match","f","true","Practice"
"","","","","","html-keyboard-response","77","398356","0.0-7.1-0.1-1.31","null","<span style='color:GreenYellow; font-size: 70px;'>正确! </span>","null","","","","","","","","","","","","","","","","","","","","","","","","","feedback"
"","","","","","psychophysics","78","400295","0.0-7.1-0.1-0.32","782","","j","","","","","","","","","","","","","key","j","16.666799999999753","720","446","./1_3_Stimuli/T_ambi40.png","自我","Word","他人","Mismatch","j","true","Practice"
"","","","","","html-keyboard-response","79","400606","0.0-7.1-0.1-1.32","null","<span style='color:GreenYellow; font-size: 70px;'>正确! </span>","null","","","","","","","","","","","","","","","","","","","","","","","","","feedback"
"","","","","","psychophysics","80","402380","0.0-7.1-0.1-0.33","618","","f","","","","","","","","","","","","","key","f","16.665839622641766","720","446","./1_3_Stimuli/C_ambi40.png","自我","Image","自我","Match","f","true","Practice"
"","","","","","html-keyboard-response","81","402686","0.0-7.1-0.1-1.33","null","<span style='color:GreenYellow; font-size: 70px;'>正确! </span>","null","","","","","","","","","","","","","","","","","","","","","","","","","feedback"
"","","","","","psychophysics","82","404571","0.0-7.1-0.1-0.34","725","","f","","","","","","","","","","","","","key","f","16.6684821428571","720","446","./1_3_Stimuli/C_ambi40.png","自我","Word","自我","Match","f","true","Practice"
"","","","","","html-keyboard-response","83","404876","0.0-7.1-0.1-1.34","null","<span style='color:GreenYellow; font-size: 70px;'>正确! </span>","null","","","","","","","","","","","","","","","","","","","","","","","","","feedback"
"","","","","","psychophysics","84","406698","0.0-7.1-0.1-0.35","668","","f","","","","","","","","","","","","","key","f","16.66624770642241","720","446","./1_3_Stimuli/C_ambi40.png","自我","Image","自我","Match","f","true","Practice"
"","","","","","html-keyboard-response","85","407016","0.0-7.1-0.1-1.35","null","<span style='color:GreenYellow; font-size: 70px;'>正确! </span>","null","","","","","","","","","","","","","","","","","","","","","","","","","feedback"
"","","","","","psychophysics","86","409177","0.0-7.1-0.1-0.36","999","","f","","","","","","","","","","","","","key","f","16.6669921875","720","446","./1_3_Stimuli/S_ambi40.png","朋友","Image","朋友","Match","f","true","Practice"
"","","","","","html-keyboard-response","87","409496","0.0-7.1-0.1-1.36","null","<span style='color:GreenYellow; font-size: 70px;'>正确! </span>","null","","","","","","","","","","","","","","","","","","","","","","","","","feedback"
"","","","","","psychophysics","88","411670","0.0-7.1-0.1-0.37","1023","","j","","","","","","","","","","","","","key","j","16.666519379844733","720","446","./1_3_Stimuli/C_ambi40.png","他人","Image","自我","Mismatch","j","true","Practice"
"","","","","","html-keyboard-response","89","411982","0.0-7.1-0.1-1.37","null","<span style='color:GreenYellow; font-size: 70px;'>正确! </span>","null","","","","","","","","","","","","","","","","","","","","","","","","","feedback"
"","","","","","psychophysics","90","414216","0.0-7.1-0.1-0.38","1071","","j","","","","","","","","","","","","","key","j","16.665383458646502","720","446","./1_3_Stimuli/C_ambi40.png","朋友","Word","自我","Mismatch","j","true","Practice"
"","","","","","html-keyboard-response","91","414536","0.0-7.1-0.1-1.38","null","<span style='color:GreenYellow; font-size: 70px;'>正确! </span>","null","","","","","","","","","","","","","","","","","","","","","","","","","feedback"
"","","","","","psychophysics","92","417188","0.0-7.1-0.1-0.39","1492","","j","","","","","","","","","","","","","key","j","16.66530379746846","720","446","./1_3_Stimuli/S_ambi40.png","自我","Image","朋友","Mismatch","j","true","Practice"
"","","","","","html-keyboard-response","93","417492","0.0-7.1-0.1-1.39","null","<span style='color:GreenYellow; font-size: 70px;'>正确! </span>","null","","","","","","","","","","","","","","","","","","","","","","","","","feedback"
"","","","","","psychophysics","94","419531","0.0-7.1-0.1-0.40","885","","f","","","","","","","","","","","","","key","f","16.667024590164235","720","446","./1_3_Stimuli/T_ambi40.png","他人","Image","他人","Match","f","true","Practice"
"","","","","","html-keyboard-response","95","419836","0.0-7.1-0.1-1.40","null","<span style='color:GreenYellow; font-size: 70px;'>正确! </span>","null","","","","","","","","","","","","","","","","","","","","","","","","","feedback"
"","","","","","psychophysics","96","421872","0.0-7.1-0.1-0.41","876","","j","","","","","","","","","","","","","key","j","16.66681818181816","720","446","./1_3_Stimuli/S_ambi40.png","自我","Word","朋友","Mismatch","j","true","Practice"
"","","","","","html-keyboard-response","97","422185","0.0-7.1-0.1-1.41","null","<span style='color:GreenYellow; font-size: 70px;'>正确! </span>","null","","","","","","","","","","","","","","","","","","","","","","","","","feedback"
"","","","","","psychophysics","98","424404","0.0-7.1-0.1-0.42","1058","","j","","","","","","","","","","","","","key","j","16.6663560606063","720","446","./1_3_Stimuli/C_ambi40.png","朋友","Image","自我","Mismatch","j","true","Practice"
"","","","","","html-keyboard-response","99","424706","0.0-7.1-0.1-1.42","null","<span style='color:GreenYellow; font-size: 70px;'>正确! </span>","null","","","","","","","","","","","","","","","","","","","","","","","","","feedback"
"","","","","","psychophysics","100","426780","0.0-7.1-0.1-0.43","917","","f","","","","","","","","","","","","","key","f","16.6655725806453","720","446","./1_3_Stimuli/C_ambi40.png","自我","Word","自我","Match","f","true","Practice"
"","","","","","html-keyboard-response","101","427086","0.0-7.1-0.1-1.43","null","<span style='color:GreenYellow; font-size: 70px;'>正确! </span>","null","","","","","","","","","","","","","","","","","","","","","","","","","feedback"
"","","","","","psychophysics","102","429180","0.0-7.1-0.1-0.44","934","","f","","","","","","","","","","","","","key","f","16.665912000000013","720","446","./1_3_Stimuli/T_ambi40.png","他人","Word","他人","Match","f","true","Practice"
"","","","","","html-keyboard-response","103","429496","0.0-7.1-0.1-1.44","null","<span style='color:GreenYellow; font-size: 70px;'>正确! </span>","null","","","","","","","","","","","","","","","","","","","","","","","","","feedback"
"","","","","","psychophysics","104","431503","0.0-7.1-0.1-0.45","840","","f","","","","","","","","","","","","","key","f","16.66849579831914","720","446","./1_3_Stimuli/S_ambi40.png","朋友","Word","朋友","Match","f","true","Practice"
"","","","","","html-keyboard-response","105","431816","0.0-7.1-0.1-1.45","null","<span style='color:GreenYellow; font-size: 70px;'>正确! </span>","null","","","","","","","","","","","","","","","","","","","","","","","","","feedback"
"","","","","","psychophysics","106","434335","0.0-7.1-0.1-0.46","1355","","j","","","","","","","","","","","","","key","j","16.665466666666713","720","446","./1_3_Stimuli/S_ambi40.png","他人","Word","朋友","Mismatch","j","true","Practice"
"","","","","","html-keyboard-response","107","434656","0.0-7.1-0.1-1.46","null","<span style='color:GreenYellow; font-size: 70px;'>正确! </span>","null","","","","","","","","","","","","","","","","","","","","","","","","","feedback"
"","","","","","psychophysics","108","436791","0.0-7.1-0.1-0.47","979","","j","","","","","","","","","","","","","key","j","16.665503937007646","720","446","./1_3_Stimuli/T_ambi40.png","朋友","Image","他人","Mismatch","j","true","Practice"
"","","","","","html-keyboard-response","109","437106","0.0-7.1-0.1-1.47","null","<span style='color:GreenYellow; font-size: 70px;'>正确! </span>","null","","","","","","","","","","","","","","","","","","","","","","","","","feedback"
"","","","","","html-keyboard-response","110","468548","0.0-8.0","31448","<style>.context{color:white; font-size: 35px; line-height:40px}</style>                          <div><p class='context'>您正确回答了96% 的试次。</p><p class='context'>您的平均反应时为959毫秒。</p><p class='context'>恭喜您完成练习。现在请休息3~5分钟。</p><p class='context'>之后，按任意键进入正式实验。需要注意的是，正式实验将不再提供反应是否正确的反馈。</p><p class='footer' style='font-size: 35px; line-height:40px;'>请在进入正式实验实验之前将您的<span style='color: lightgreen;'>食指</span>放在电脑键盘的相应键位上进行按键。</p>"," ","","","","","","","","","","","","","","","","","","","","","","","","",""
"","","","","","psychophysics","111","471249","0.0-9.0-0.0-0.0","1545","","j","","","","","","","","","","","","","key","j","16.66658385093172","720","446","./1_3_Stimuli/S_ambi40.png","他人","Word","朋友","Mismatch","j","true","Formal"
"","","","","","psychophysics","112","473955","0.0-9.0-0.0-0.1","null","","null","","","","","","","","","","","","","key","null","16.66700621117998","720","446","./1_3_Stimuli/S_ambi40.png","朋友","Image","朋友","Match","f","false","Formal"
"","","","","","psychophysics","113","475951","0.0-9.0-0.0-0.2","830","","f","","","","","","","","","","","","","key","f","16.669118644067844","720","446","./1_3_Stimuli/S_ambi40.png","朋友","Image","朋友","Match","f","true","Formal"
"","","","","","psychophysics","114","478352","0.0-9.0-0.0-0.3","1248","","f","","","","","","","","","","","","","key","f","16.667335664335692","720","446","./1_3_Stimuli/S_ambi40.png","朋友","Word","朋友","Match","f","true","Formal"
"","","","","","psychophysics","115","480228","0.0-9.0-0.0-0.4","723","","j","","","","","","","","","","","","","key","j","16.666063063063234","720","446","./1_3_Stimuli/T_ambi40.png","自我","Word","他人","Mismatch","j","true","Formal"
"","","","","","psychophysics","116","482177","0.0-9.0-0.0-0.5","789","","j","","","","","","","","","","","","","key","j","16.664706896551472","720","446","./1_3_Stimuli/T_ambi40.png","朋友","Image","他人","Mismatch","j","true","Formal"
"","","","","","psychophysics","117","484172","0.0-9.0-0.0-0.6","834","","j","","","","","","","","","","","","","key","j","16.66414285714282","720","446","./1_3_Stimuli/C_ambi40.png","他人","Word","自我","Mismatch","j","true","Formal"
"","","","","","psychophysics","118","486873","0.0-9.0-0.0-0.7","null","","null","","","","","","","","","","","","","key","null","16.66507453416143","720","446","./1_3_Stimuli/S_ambi40.png","他人","Image","朋友","Mismatch","j","false","Formal"
"","","","","","psychophysics","119","488253","0.0-9.0-0.0-0.8","215","","j","","","","","","","","","","","","","key","j","16.663925925925817","720","446","./1_3_Stimuli/C_ambi40.png","朋友","Word","自我","Mismatch","j","true","Formal"
"","","","","","psychophysics","120","490188","0.0-9.0-0.0-0.9","783","","j","","","","","","","","","","","","","key","j","16.666034782608545","720","446","./1_3_Stimuli/T_ambi40.png","他人","Image","他人","Match","f","false","Formal"
"","","","","","psychophysics","121","492523","0.0-9.0-0.0-0.10","1185","","j","","","","","","","","","","","","","key","j","16.66481294964018","720","446","./1_3_Stimuli/S_ambi40.png","自我","Image","朋友","Mismatch","j","true","Formal"
"","","","","","psychophysics","122","494995","0.0-9.0-0.0-0.11","1307","","j","","","","","","","","","","","","","key","j","16.66648979591828","720","446","./1_3_Stimuli/T_ambi40.png","他人","Image","他人","Match","f","false","Formal"
"","","","","","psychophysics","123","497275","0.0-9.0-0.0-0.12","1120","","j","","","","","","","","","","","","","key","j","16.666477941176495","720","446","./1_3_Stimuli/T_ambi40.png","朋友","Word","他人","Mismatch","j","true","Formal"
"","","","","","psychophysics","124","499186","0.0-9.0-0.0-0.13","748","","j","","","","","","","","","","","","","key","j","16.663663716814213","720","446","./1_3_Stimuli/S_ambi40.png","自我","Word","朋友","Mismatch","j","true","Formal"
"","","","","","psychophysics","125","501056","0.0-9.0-0.0-0.14","718","","f","","","","","","","","","","","","","key","f","16.6648378378375","720","446","./1_3_Stimuli/C_ambi40.png","自我","Word","自我","Match","f","true","Formal"
"","","","","","psychophysics","126","503016","0.0-9.0-0.0-0.15","795","","f","","","","","","","","","","","","","key","f","16.66730172413799","720","446","./1_3_Stimuli/S_ambi40.png","朋友","Word","朋友","Match","f","true","Formal"
"","","","","","psychophysics","127","505592","0.0-9.0-0.0-0.16","1422","","j","","","","","","","","","","","","","key","j","16.668266233766236","720","446","./1_3_Stimuli/T_ambi40.png","自我","Image","他人","Mismatch","j","true","Formal"
"","","","","","psychophysics","128","508305","0.0-9.0-0.0-0.17","null","","null","","","","","","","","","","","","","key","null","16.666913043478033","720","446","./1_3_Stimuli/T_ambi40.png","他人","Word","他人","Match","f","false","Formal"
"","","","","","psychophysics","129","510639","0.0-9.0-0.0-0.18","1168","","f","","","","","","","","","","","","","key","f","16.667064748201504","720","446","./1_3_Stimuli/C_ambi40.png","自我","Image","自我","Match","f","true","Formal"
"","","","","","psychophysics","130","512775","0.0-9.0-0.0-0.19","970","","j","","","","","","","","","","","","","key","j","16.66474015748002","720","446","./1_3_Stimuli/C_ambi40.png","他人","Image","自我","Mismatch","j","true","Formal"
"","","","","","psychophysics","131","515011","0.0-9.0-0.0-0.20","1073","","f","","","","","","","","","","","","","key","f","16.666142857142923","720","446","./1_3_Stimuli/T_ambi40.png","他人","Word","他人","Match","f","true","Formal"
"","","","","","psychophysics","132","516920","0.0-9.0-0.0-0.21","750","","f","","","","","","","","","","","","","key","f","16.667088495575168","720","446","./1_3_Stimuli/C_ambi40.png","自我","Image","自我","Match","f","true","Formal"
"","","","","","psychophysics","133","519521","0.0-9.0-0.0-0.22","1450","","j","","","","","","","","","","","","","key","j","16.664451612903164","720","446","./1_3_Stimuli/C_ambi40.png","朋友","Image","自我","Mismatch","j","true","Formal"
"","","","","","psychophysics","134","521502","0.0-9.0-0.0-0.23","830","","f","","","","","","","","","","","","","key","f","16.666829059828814","720","446","./1_3_Stimuli/C_ambi40.png","自我","Word","自我","Match","f","true","Formal"
"","","","","","psychophysics","135","523321","0.0-9.0-0.0-0.24","667","","f","","","","","","","","","","","","","key","f","16.666082568807365","720","446","./1_3_Stimuli/S_ambi40.png","朋友","Word","朋友","Match","f","true","Formal"
"","","","","","psychophysics","136","525257","0.0-9.0-0.0-0.25","785","","f","","","","","","","","","","","","","key","f","16.66645217391298","720","446","./1_3_Stimuli/C_ambi40.png","自我","Word","自我","Match","f","true","Formal"
"","","","","","psychophysics","137","527393","0.0-9.0-0.0-0.26","972","","j","","","","","","","","","","","","","key","j","16.66852755905459","720","446","./1_3_Stimuli/C_ambi40.png","朋友","Image","自我","Mismatch","j","true","Formal"
"","","","","","psychophysics","138","529400","0.0-9.0-0.0-0.27","839","","j","","","","","","","","","","","","","key","j","16.669142857143076","720","446","./1_3_Stimuli/C_ambi40.png","他人","Image","自我","Mismatch","j","true","Formal"
"","","","","","psychophysics","139","531772","0.0-9.0-0.0-0.28","1210","","j","","","","","","","","","","","","","key","j","16.6662411347522","720","446","./1_3_Stimuli/S_ambi40.png","他人","Word","朋友","Mismatch","j","true","Formal"
"","","","","","psychophysics","140","533732","0.0-9.0-0.0-0.29","805","","j","","","","","","","","","","","","","key","j","16.66585470085494","720","446","./1_3_Stimuli/T_ambi40.png","朋友","Image","他人","Mismatch","j","true","Formal"
"","","","","","psychophysics","141","535581","0.0-9.0-0.0-0.30","686","","f","","","","","","","","","","","","","key","f","16.665000000000212","720","446","./1_3_Stimuli/S_ambi40.png","朋友","Word","朋友","Match","f","true","Formal"
"","","","","","psychophysics","142","537506","0.0-9.0-0.0-0.31","761","","j","","","","","","","","","","","","","key","j","16.66661403508726","720","446","./1_3_Stimuli/C_ambi40.png","他人","Word","自我","Mismatch","j","true","Formal"
"","","","","","psychophysics","143","539366","0.0-9.0-0.0-0.32","705","","f","","","","","","","","","","","","","key","f","16.666738738737966","720","446","./1_3_Stimuli/C_ambi40.png","自我","Image","自我","Match","f","true","Formal"
"","","","","","psychophysics","144","541317","0.0-9.0-0.0-0.33","789","","j","","","","","","","","","","","","","key","j","16.666758620689006","720","446","./1_3_Stimuli/T_ambi40.png","朋友","Word","他人","Mismatch","j","true","Formal"
"","","","","","psychophysics","145","543517","0.0-9.0-0.0-0.34","1040","","j","","","","","","","","","","","","","key","j","16.666526717556824","720","446","./1_3_Stimuli/S_ambi40.png","他人","Image","朋友","Mismatch","j","true","Formal"
"","","","","","psychophysics","146","545523","0.0-9.0-0.0-0.35","846","","f","","","","","","","","","","","","","key","f","16.667100840336214","720","446","./1_3_Stimuli/T_ambi40.png","自我","Image","他人","Mismatch","j","false","Formal"
"","","","","","psychophysics","147","547709","0.0-9.0-0.0-0.36","1032","","f","","","","","","","","","","","","","key","f","16.668353846154282","720","446","./1_3_Stimuli/S_ambi40.png","朋友","Image","朋友","Match","f","true","Formal"
"","","","","","psychophysics","148","550186","0.0-9.0-0.0-0.37","1324","","j","","","","","","","","","","","","","key","j","16.66666891891824","720","446","./1_3_Stimuli/C_ambi40.png","朋友","Word","自我","Mismatch","j","true","Formal"
"","","","","","psychophysics","149","552686","0.0-9.0-0.0-0.38","1342","","j","","","","","","","","","","","","","key","j","16.665375838926586","720","446","./1_3_Stimuli/S_ambi40.png","自我","Word","朋友","Mismatch","j","true","Formal"
"","","","","","psychophysics","150","554713","0.0-9.0-0.0-0.39","868","","f","","","","","","","","","","","","","key","f","16.66696694214859","720","446","./1_3_Stimuli/T_ambi40.png","他人","Word","他人","Match","f","true","Formal"
"","","","","","psychophysics","151","557427","0.0-9.0-0.0-0.40","null","","null","","","","","","","","","","","","","key","null","16.66824223602448","720","446","./1_3_Stimuli/S_ambi40.png","自我","Image","朋友","Mismatch","j","false","Formal"
"","","","","","psychophysics","152","559364","0.0-9.0-0.0-0.41","786","","f","","","","","","","","","","","","","key","f","16.665878260869572","720","446","./1_3_Stimuli/C_ambi40.png","自我","Word","自我","Match","f","true","Formal"
"","","","","","psychophysics","153","561846","0.0-9.0-0.0-0.42","1321","","j","","","","","","","","","","","","","key","j","16.666810810810578","720","446","./1_3_Stimuli/T_ambi40.png","自我","Word","他人","Mismatch","j","true","Formal"
"","","","","","psychophysics","154","564357","0.0-9.0-0.0-0.43","1346","","f","","","","","","","","","","","","","key","f","16.666557046979346","720","446","./1_3_Stimuli/S_ambi40.png","朋友","Image","朋友","Match","f","true","Formal"
"","","","","","psychophysics","155","566665","0.0-9.0-0.0-0.44","1153","","f","","","","","","","","","","","","","key","f","16.66670289855076","720","446","./1_3_Stimuli/T_ambi40.png","他人","Image","他人","Match","f","true","Formal"
"","","","","","psychophysics","156","568415","0.0-9.0-0.0-0.45","587","","f","","","","","","","","","","","","","key","f","16.669009615385082","720","446","./1_3_Stimuli/T_ambi40.png","他人","Word","他人","Match","f","true","Formal"
"","","","","","psychophysics","157","570149","0.0-9.0-0.0-0.46","572","","f","","","","","","","","","","","","","key","f","16.66897087378622","720","446","./1_3_Stimuli/C_ambi40.png","自我","Image","自我","Match","f","true","Formal"
"","","","","","psychophysics","158","572179","0.0-9.0-0.0-0.47","868","","f","","","","","","","","","","","","","key","f","16.664330578512082","720","446","./1_3_Stimuli/T_ambi40.png","他人","Image","他人","Match","f","true","Formal"
"","","","","","psychophysics","159","574004","0.0-9.0-0.0-0.48","659","","j","","","","","","","","","","","","","key","j","16.66635185185199","720","446","./1_3_Stimuli/T_ambi40.png","自我","Image","他人","Mismatch","j","true","Formal"
"","","","","","psychophysics","160","575733","0.0-9.0-0.0-0.49","572","","f","","","","","","","","","","","","","key","f","16.663553398058443","720","446","./1_3_Stimuli/C_ambi40.png","自我","Image","自我","Match","f","true","Formal"
"","","","","","psychophysics","161","578226","0.0-9.0-0.0-0.50","1331","","j","","","","","","","","","","","","","key","j","16.666533783783766","720","446","./1_3_Stimuli/S_ambi40.png","自我","Image","朋友","Mismatch","j","true","Formal"
"","","","","","psychophysics","162","580241","0.0-9.0-0.0-0.51","864","","f","","","","","","","","","","","","","key","f","16.666302521008717","720","446","./1_3_Stimuli/C_ambi40.png","自我","Image","自我","Match","f","true","Formal"
"","","","","","psychophysics","163","582793","0.0-9.0-0.0-0.52","1398","","f","","","","","","","","","","","","","key","f","16.66644736842136","720","446","./1_3_Stimuli/S_ambi40.png","朋友","Word","朋友","Match","f","true","Formal"
"","","","","","psychophysics","164","585154","0.0-9.0-0.0-0.53","1209","","f","","","","","","","","","","","","","key","f","16.66556428571431","720","446","./1_3_Stimuli/C_ambi40.png","朋友","Word","自我","Mismatch","j","false","Formal"
"","","","","","psychophysics","165","587601","0.0-9.0-0.0-0.54","1289","","j","","","","","","","","","","","","","key","j","16.666130136986332","720","446","./1_3_Stimuli/S_ambi40.png","他人","Image","朋友","Mismatch","j","true","Formal"
"","","","","","psychophysics","166","589431","0.0-9.0-0.0-0.55","669","","f","","","","","","","","","","","","","key","f","16.6645045871558","720","446","./1_3_Stimuli/T_ambi40.png","他人","Image","他人","Match","f","true","Formal"
"","","","","","psychophysics","167","591187","0.0-9.0-0.0-0.56","592","","f","","","","","","","","","","","","","key","f","16.666403846153678","720","446","./1_3_Stimuli/C_ambi40.png","自我","Word","自我","Match","f","true","Formal"
"","","","","","psychophysics","168","593426","0.0-9.0-0.0-0.57","1082","","j","","","","","","","","","","","","","key","j","16.667436090225348","720","446","./1_3_Stimuli/C_ambi40.png","他人","Word","自我","Mismatch","j","true","Formal"
"","","","","","psychophysics","169","595381","0.0-9.0-0.0-0.58","804","","j","","","","","","","","","","","","","key","j","16.666717948718393","720","446","./1_3_Stimuli/T_ambi40.png","朋友","Word","他人","Mismatch","j","true","Formal"
"","","","","","psychophysics","170","597206","0.0-9.0-0.0-0.59","664","","f","","","","","","","","","","","","","key","f","16.66650925925825","720","446","./1_3_Stimuli/T_ambi40.png","他人","Word","他人","Match","f","true","Formal"
"","","","","","psychophysics","171","599096","0.0-9.0-0.0-0.60","735","","j","","","","","","","","","","","","","key","j","16.66707964601774","720","446","./1_3_Stimuli/S_ambi40.png","自我","Word","朋友","Mismatch","j","true","Formal"
"","","","","","psychophysics","172","601392","0.0-9.0-0.0-0.61","1131","","f","","","","","","","","","","","","","key","f","16.665419117646866","720","446","./1_3_Stimuli/S_ambi40.png","朋友","Image","朋友","Match","f","true","Formal"
"","","","","","psychophysics","173","603888","0.0-9.0-0.0-0.62","1343","","j","","","","","","","","","","","","","key","j","16.66530201342285","720","446","./1_3_Stimuli/S_ambi40.png","他人","Word","朋友","Mismatch","j","true","Formal"
"","","","","","psychophysics","174","605734","0.0-9.0-0.0-0.63","690","","j","","","","","","","","","","","","","key","j","16.66537272727265","720","446","./1_3_Stimuli/T_ambi40.png","自我","Word","他人","Mismatch","j","true","Formal"
"","","","","","psychophysics","175","607985","0.0-9.0-0.0-0.64","1090","","f","","","","","","","","","","","","","key","f","16.66638059701437","720","446","./1_3_Stimuli/T_ambi40.png","他人","Image","他人","Match","f","true","Formal"
"","","","","","psychophysics","176","610237","0.0-9.0-0.0-0.65","1093","","f","","","","","","","","","","","","","key","f","16.665223880597118","720","446","./1_3_Stimuli/C_ambi40.png","自我","Word","自我","Match","f","true","Formal"
"","","","","","psychophysics","177","612945","0.0-9.0-0.0-0.66","null","","null","","","","","","","","","","","","","key","null","16.666335403726883","720","446","./1_3_Stimuli/S_ambi40.png","朋友","Image","朋友","Match","f","false","Formal"
"","","","","","psychophysics","178","614802","0.0-9.0-0.0-0.67","707","","f","","","","","","","","","","","","","key","f","16.664545454545244","720","446","./1_3_Stimuli/T_ambi40.png","他人","Word","他人","Match","f","true","Formal"
"","","","","","psychophysics","179","616647","0.0-9.0-0.0-0.68","686","","f","","","","","","","","","","","","","key","f","16.664527272727256","720","446","./1_3_Stimuli/C_ambi40.png","他人","Image","自我","Mismatch","j","false","Formal"
"","","","","","psychophysics","180","619208","0.0-9.0-0.0-0.69","1397","","j","","","","","","","","","","","","","key","j","16.666506578947423","720","446","./1_3_Stimuli/C_ambi40.png","朋友","Image","自我","Mismatch","j","true","Formal"
"","","","","","psychophysics","181","621911","0.0-9.0-0.0-0.70","null","","null","","","","","","","","","","","","","key","null","16.666447204968645","720","446","./1_3_Stimuli/S_ambi40.png","朋友","Word","朋友","Match","f","false","Formal"
"","","","","","psychophysics","182","624627","0.0-9.0-0.0-0.71","null","","null","","","","","","","","","","","","","key","null","16.66821739130425","720","446","./1_3_Stimuli/T_ambi40.png","朋友","Image","他人","Mismatch","j","false","Formal"
"","","","","","psychophysics","183","626769","0.0-9.0-0.0-0.72","975","","j","","","","","","","","","","","","","key","j","16.66825196850407","720","446","./1_3_Stimuli/T_ambi40.png","朋友","Image","他人","Mismatch","j","true","Formal"
"","","","","","psychophysics","184","629275","0.0-9.0-0.0-0.73","1348","","j","","","","","","","","","","","","","key","j","16.668671140940265","720","446","./1_3_Stimuli/S_ambi40.png","他人","Image","朋友","Mismatch","j","true","Formal"
"","","","","","psychophysics","185","631476","0.0-9.0-0.0-0.74","1050","","j","","","","","","","","","","","","","key","j","16.668213740457738","720","446","./1_3_Stimuli/S_ambi40.png","自我","Image","朋友","Mismatch","j","true","Formal"
"","","","","","psychophysics","186","633682","0.0-9.0-0.0-0.75","1055","","f","","","","","","","","","","","","","key","f","16.66707633587777","720","446","./1_3_Stimuli/S_ambi40.png","朋友","Word","朋友","Match","f","true","Formal"
"","","","","","psychophysics","187","635422","0.0-9.0-0.0-0.76","578","","f","","","","","","","","","","","","","key","f","16.66906796116495","720","446","./1_3_Stimuli/C_ambi40.png","自我","Image","自我","Match","f","true","Formal"
"","","","","","psychophysics","188","637157","0.0-9.0-0.0-0.77","581","","f","","","","","","","","","","","","","key","f","16.66950485436924","720","446","./1_3_Stimuli/C_ambi40.png","自我","Image","自我","Match","f","true","Formal"
"","","","","","psychophysics","189","639045","0.0-9.0-0.0-0.78","734","","j","","","","","","","","","","","","","key","j","16.66625663716824","720","446","./1_3_Stimuli/C_ambi40.png","朋友","Word","自我","Mismatch","j","true","Formal"
"","","","","","psychophysics","190","640861","0.0-9.0-0.0-0.79","651","","f","","","","","","","","","","","","","key","f","16.66444444444453","720","446","./1_3_Stimuli/C_ambi40.png","自我","Word","自我","Match","f","true","Formal"
"","","","","","psychophysics","191","642826","0.0-9.0-0.0-0.80","800","","f","","","","","","","","","","","","","key","f","16.668224137930746","720","446","./1_3_Stimuli/T_ambi40.png","他人","Word","他人","Match","f","true","Formal"
"","","","","","psychophysics","192","644776","0.0-9.0-0.0-0.81","799","","j","","","","","","","","","","","","","key","j","16.66864347826062","720","446","./1_3_Stimuli/C_ambi40.png","他人","Word","自我","Mismatch","j","true","Formal"
"","","","","","psychophysics","193","647478","0.0-9.0-0.0-0.82","null","","null","","","","","","","","","","","","","key","null","16.665583850931583","720","446","./1_3_Stimuli/C_ambi40.png","他人","Image","自我","Mismatch","j","false","Formal"
"","","","","","psychophysics","194","649718","0.0-9.0-0.0-0.83","1080","","f","","","","","","","","","","","","","key","f","16.6677593984965","720","446","./1_3_Stimuli/S_ambi40.png","朋友","Image","朋友","Match","f","true","Formal"
"","","","","","psychophysics","195","652091","0.0-9.0-0.0-0.84","1221","","f","","","","","","","","","","","","","key","f","16.668232394366783","720","446","./1_3_Stimuli/T_ambi40.png","他人","Image","他人","Match","f","true","Formal"
"","","","","","psychophysics","196","654365","0.0-9.0-0.0-0.85","1111","","f","","","","","","","","","","","","","key","f","16.664859259259647","720","446","./1_3_Stimuli/T_ambi40.png","他人","Image","他人","Match","f","true","Formal"
"","","","","","psychophysics","197","656576","0.0-9.0-0.0-0.86","1056","","j","","","","","","","","","","","","","key","j","16.66594696969718","720","446","./1_3_Stimuli/T_ambi40.png","朋友","Word","他人","Mismatch","j","true","Formal"
"","","","","","psychophysics","198","659288","0.0-9.0-0.0-0.87","null","","null","","","","","","","","","","","","","key","null","16.66595652173866","720","446","./1_3_Stimuli/S_ambi40.png","他人","Word","朋友","Mismatch","j","false","Formal"
"","","","","","psychophysics","199","661689","0.0-9.0-0.0-0.88","1235","","j","","","","","","","","","","","","","key","j","16.66660139860074","720","446","./1_3_Stimuli/T_ambi40.png","自我","Image","他人","Mismatch","j","true","Formal"
"","","","","","psychophysics","200","663991","0.0-9.0-0.0-0.89","1137","","j","","","","","","","","","","","","","key","j","16.66684671532852","720","446","./1_3_Stimuli/S_ambi40.png","自我","Word","朋友","Mismatch","j","true","Formal"
"","","","","","psychophysics","201","666161","0.0-9.0-0.0-0.90","1006","","j","","","","","","","","","","","","","key","j","16.665790697674325","720","446","./1_3_Stimuli/C_ambi40.png","朋友","Image","自我","Mismatch","j","true","Formal"
"","","","","","psychophysics","202","668311","0.0-9.0-0.0-0.91","991","","j","","","","","","","","","","","","","key","j","16.667625000000044","720","446","./1_3_Stimuli/T_ambi40.png","自我","Word","他人","Mismatch","j","true","Formal"
"","","","","","psychophysics","203","670833","0.0-9.0-0.0-0.92","1363","","j","","","","","","","","","","","","","key","j","16.666326666666816","720","446","./1_3_Stimuli/T_ambi40.png","他人","Word","他人","Match","f","false","Formal"
"","","","","","psychophysics","204","673538","0.0-9.0-0.0-0.93","null","","null","","","","","","","","","","","","","key","null","16.665577639751167","720","446","./1_3_Stimuli/S_ambi40.png","朋友","Image","朋友","Match","f","false","Formal"
"","","","","","psychophysics","205","675445","0.0-9.0-0.0-0.94","741","","f","","","","","","","","","","","","","key","f","16.664504424778052","720","446","./1_3_Stimuli/S_ambi40.png","朋友","Word","朋友","Match","f","true","Formal"
"","","","","","psychophysics","206","677280","0.0-9.0-0.0-0.95","675","","f","","","","","","","","","","","","","key","f","16.66517431192621","720","446","./1_3_Stimuli/C_ambi40.png","自我","Word","自我","Match","f","true","Formal"
"","","","","","psychophysics","207","679015","0.0-9.0-0.0-0.96","577","","f","","","","","","","","","","","","","key","f","16.66632038834889","720","446","./1_3_Stimuli/C_ambi40.png","自我","Word","自我","Match","f","true","Formal"
"","","","","","psychophysics","208","681120","0.0-9.0-0.0-0.97","950","","j","","","","","","","","","","","","","key","j","16.668663999999872","720","446","./1_3_Stimuli/C_ambi40.png","他人","Image","自我","Mismatch","j","true","Formal"
"","","","","","psychophysics","209","683771","0.0-9.0-0.0-0.98","1500","","f","","","","","","","","","","","","","key","f","16.664905063291464","720","446","./1_3_Stimuli/T_ambi40.png","他人","Word","他人","Match","f","true","Formal"
"","","","","","psychophysics","210","685902","0.0-9.0-0.0-0.99","964","","f","","","","","","","","","","","","","key","f","16.66756349206359","720","446","./1_3_Stimuli/C_ambi40.png","自我","Image","自我","Match","f","true","Formal"
"","","","","","psychophysics","211","688449","0.0-9.0-0.0-0.100","1395","","j","","","","","","","","","","","","","key","j","16.665203947368642","720","446","./1_3_Stimuli/C_ambi40.png","他人","Word","自我","Mismatch","j","true","Formal"
"","","","","","psychophysics","212","690876","0.0-9.0-0.0-0.101","1272","","j","","","","","","","","","","","","","key","j","16.66488965517231","720","446","./1_3_Stimuli/S_ambi40.png","他人","Word","朋友","Mismatch","j","true","Formal"
"","","","","","psychophysics","213","692886","0.0-9.0-0.0-0.102","849","","f","","","","","","","","","","","","","key","f","16.664117647059058","720","446","./1_3_Stimuli/S_ambi40.png","朋友","Word","朋友","Match","f","true","Formal"
"","","","","","psychophysics","214","694981","0.0-9.0-0.0-0.103","943","","j","","","","","","","","","","","","","key","j","16.66391935483872","720","446","./1_3_Stimuli/T_ambi40.png","自我","Image","他人","Mismatch","j","true","Formal"
"","","","","","psychophysics","215","697688","0.0-9.0-0.0-0.104","null","","null","","","","","","","","","","","","","key","null","16.66643209876507","720","446","./1_3_Stimuli/S_ambi40.png","朋友","Word","朋友","Match","f","false","Formal"
"","","","","","psychophysics","216","699845","0.0-9.0-0.0-0.105","991","","j","","","","","","","","","","","","","key","j","16.66472656250062","720","446","./1_3_Stimuli/S_ambi40.png","自我","Word","朋友","Mismatch","j","true","Formal"
"","","","","","psychophysics","217","701765","0.0-9.0-0.0-0.106","761","","f","","","","","","","","","","","","","key","f","16.66671929824505","720","446","./1_3_Stimuli/T_ambi40.png","他人","Image","他人","Match","f","true","Formal"
"","","","","","psychophysics","218","704106","0.0-9.0-0.0-0.107","1186","","f","","","","","","","","","","","","","key","f","16.668628571428624","720","446","./1_3_Stimuli/S_ambi40.png","朋友","Image","朋友","Match","f","true","Formal"
"","","","","","psychophysics","219","706096","0.0-9.0-0.0-0.108","825","","j","","","","","","","","","","","","","key","j","16.669415254237613","720","446","./1_3_Stimuli/T_ambi40.png","自我","Word","他人","Mismatch","j","true","Formal"
"","","","","","psychophysics","220","708608","0.0-9.0-0.0-0.109","1348","","f","","","","","","","","","","","","","key","f","16.66636912751671","720","446","./1_3_Stimuli/T_ambi40.png","他人","Image","他人","Match","f","true","Formal"
"","","","","","psychophysics","221","710427","0.0-9.0-0.0-0.110","667","","f","","","","","","","","","","","","","key","f","16.66524770642191","720","446","./1_3_Stimuli/C_ambi40.png","自我","Image","自我","Match","f","true","Formal"
"","","","","","psychophysics","222","712434","0.0-9.0-0.0-0.111","840","","j","","","","","","","","","","","","","key","j","16.66661344537758","720","446","./1_3_Stimuli/T_ambi40.png","朋友","Image","他人","Mismatch","j","true","Formal"
"","","","","","psychophysics","223","715136","0.0-9.0-0.0-0.112","1543","","j","","","","","","","","","","","","","key","j","16.665987577640035","720","446","./1_3_Stimuli/C_ambi40.png","朋友","Word","自我","Mismatch","j","true","Formal"
"","","","","","psychophysics","224","716951","0.0-9.0-0.0-0.113","657","","f","","","","","","","","","","","","","key","f","16.666712962963008","720","446","./1_3_Stimuli/C_ambi40.png","自我","Word","自我","Match","f","true","Formal"
"","","","","","psychophysics","225","718915","0.0-9.0-0.0-0.114","805","","f","","","","","","","","","","","","","key","f","16.66541025641028","720","446","./1_3_Stimuli/S_ambi40.png","朋友","Image","朋友","Match","f","true","Formal"
"","","","","","psychophysics","226","721587","0.0-9.0-0.0-0.115","1511","","j","","","","","","","","","","","","","key","j","16.666874213836085","720","446","./1_3_Stimuli/C_ambi40.png","朋友","Image","自我","Mismatch","j","true","Formal"
"","","","","","psychophysics","227","723853","0.0-9.0-0.0-0.116","1109","","j","","","","","","","","","","","","","key","j","16.664525925926","720","446","./1_3_Stimuli/S_ambi40.png","自我","Image","朋友","Mismatch","j","true","Formal"
"","","","","","psychophysics","228","726134","0.0-9.0-0.0-0.117","1124","","f","","","","","","","","","","","","","key","f","16.66479411764714","720","446","./1_3_Stimuli/T_ambi40.png","他人","Word","他人","Match","f","true","Formal"
"","","","","","psychophysics","229","727974","0.0-9.0-0.0-0.118","681","","j","","","","","","","","","","","","","key","j","16.66626605504607","720","446","./1_3_Stimuli/T_ambi40.png","朋友","Word","他人","Mismatch","j","true","Formal"
"","","","","","psychophysics","230","730627","0.0-9.0-0.0-0.119","1501","","j","","","","","","","","","","","","","key","j","16.66529113924001","720","446","./1_3_Stimuli/S_ambi40.png","他人","Image","朋友","Mismatch","j","true","Formal"
"","","","","","html-keyboard-response","231","737138","0.0-9.0-1.0","6509","<style>.context{color:white; font-size: 35px; line-height:40px}</style>                        <div><p class='context'>您正确回答了86% 的试次。</p><p class='context'>您的平均反应时为969毫秒。</p><p> <div style = 'color: green'><按任意键进入休息></div></p>"," ","","","","","","","","","","","","","","","","","","","","","","","","",""
"","","","","","html-button-response","232","784138","0.0-9.0-2.0","46996","
                  <p>您当前还剩余5组实验</p>
                  <p>现在是休息时间，当您结束休息后，您可以点击 结束休息 按钮 继续</p>
                  <p>建议休息时间还剩余<span id=""iii"">60</span>秒</p>","0","","","","","","","","","","","","","","","","","","","","","","","","",""
"","","","","","psychophysics","233","786256","0.0-9.0-0.1-0.120","962","","f","","","","","","","","","","","","","key","f","16.668293650794244","720","446","./1_3_Stimuli/S_ambi40.png","朋友","Image","朋友","Match","f","true","Formal"
"","","","","","psychophysics","234","788526","0.0-9.0-0.1-0.121","1116","","f","","","","","","","","","","","","","key","f","16.66808888888918","720","446","./1_3_Stimuli/T_ambi40.png","他人","Word","他人","Match","f","true","Formal"
"","","","","","psychophysics","235","790276","0.0-9.0-0.1-0.122","599","","f","","","","","","","","","","","","","key","f","16.665320388349993","720","446","./1_3_Stimuli/C_ambi40.png","自我","Word","自我","Match","f","true","Formal"
"","","","","","psychophysics","236","792161","0.0-9.0-0.1-0.123","734","","f","","","","","","","","","","","","","key","f","16.66583035714263","720","446","./1_3_Stimuli/T_ambi40.png","他人","Image","他人","Match","f","true","Formal"
"","","","","","psychophysics","237","794105","0.0-9.0-0.1-0.124","794","","f","","","","","","","","","","","","","key","f","16.6662956521735","720","446","./1_3_Stimuli/T_ambi40.png","他人","Word","他人","Match","f","true","Formal"
"","","","","","psychophysics","238","795905","0.0-9.0-0.1-0.125","645","","f","","","","","","","","","","","","","key","f","16.667009345794348","720","446","./1_3_Stimuli/S_ambi40.png","朋友","Word","朋友","Match","f","true","Formal"
"","","","","","psychophysics","239","797703","0.0-9.0-0.1-0.126","643","","j","","","","","","","","","","","","","key","j","16.668112149532824","720","446","./1_3_Stimuli/C_ambi40.png","朋友","Word","自我","Mismatch","j","true","Formal"
"","","","","","psychophysics","240","799950","0.0-9.0-0.1-0.127","1090","","f","","","","","","","","","","","","","key","f","16.66799999999991","720","446","./1_3_Stimuli/T_ambi40.png","他人","Image","他人","Match","f","true","Formal"
"","","","","","psychophysics","241","801845","0.0-9.0-0.1-0.128","735","","j","","","","","","","","","","","","","key","j","16.664283185840823","720","446","./1_3_Stimuli/C_ambi40.png","他人","Word","自我","Mismatch","j","true","Formal"
"","","","","","psychophysics","242","803703","0.0-9.0-0.1-0.129","693","","f","","","","","","","","","","","","","key","f","16.666027272726534","720","446","./1_3_Stimuli/S_ambi40.png","朋友","Image","朋友","Match","f","true","Formal"
"","","","","","psychophysics","243","805388","0.0-9.0-0.1-0.130","528","","f","","","","","","","","","","","","","key","f","16.667480000000214","720","446","./1_3_Stimuli/C_ambi40.png","自我","Image","自我","Match","f","true","Formal"
"","","","","","psychophysics","244","807564","0.0-9.0-0.1-0.131","1021","","j","","","","","","","","","","","","","key","j","16.667923076922754","720","446","./1_3_Stimuli/T_ambi40.png","朋友","Word","他人","Mismatch","j","true","Formal"
"","","","","","psychophysics","245","809663","0.0-9.0-0.1-0.132","937","","j","","","","","","","","","","","","","key","j","16.66502400000021","720","446","./1_3_Stimuli/S_ambi40.png","他人","Word","朋友","Mismatch","j","true","Formal"
"","","","","","psychophysics","246","811653","0.0-9.0-0.1-0.133","827","","j","","","","","","","","","","","","","key","j","16.66474576271238","720","446","./1_3_Stimuli/T_ambi40.png","自我","Word","他人","Mismatch","j","true","Formal"
"","","","","","psychophysics","247","813445","0.0-9.0-0.1-0.134","634","","f","","","","","","","","","","","","","key","f","16.665355140186637","720","446","./1_3_Stimuli/C_ambi40.png","自我","Image","自我","Match","f","true","Formal"
"","","","","","psychophysics","248","815478","0.0-9.0-0.1-0.135","868","","j","","","","","","","","","","","","","key","j","16.667702479338974","720","446","./1_3_Stimuli/T_ambi40.png","自我","Image","他人","Mismatch","j","true","Formal"
"","","","","","psychophysics","249","817819","0.0-9.0-0.1-0.136","1176","","f","","","","","","","","","","","","","key","f","16.664467625898684","720","446","./1_3_Stimuli/S_ambi40.png","朋友","Word","朋友","Match","f","true","Formal"
"","","","","","psychophysics","250","819723","0.0-9.0-0.1-0.137","749","","f","","","","","","","","","","","","","key","f","16.66449557522114","720","446","./1_3_Stimuli/C_ambi40.png","自我","Word","自我","Match","f","true","Formal"
"","","","","","psychophysics","251","821538","0.0-9.0-0.1-0.138","662","","j","","","","","","","","","","","","","key","j","16.666861111110645","720","446","./1_3_Stimuli/C_ambi40.png","他人","Image","自我","Mismatch","j","true","Formal"
"","","","","","psychophysics","252","823734","0.0-9.0-0.1-0.139","1041","","j","","","","","","","","","","","","","key","j","16.664450381679874","720","446","./1_3_Stimuli/C_ambi40.png","朋友","Image","自我","Mismatch","j","true","Formal"
"","","","","","psychophysics","253","826443","0.0-9.0-0.1-0.140","null","","null","","","","","","","","","","","","","key","null","16.667993788820002","720","446","./1_3_Stimuli/T_ambi40.png","朋友","Image","他人","Mismatch","j","false","Formal"
"","","","","","psychophysics","254","828478","0.0-9.0-0.1-0.141","868","","j","","","","","","","","","","","","","key","j","16.666743801652707","720","446","./1_3_Stimuli/S_ambi40.png","自我","Word","朋友","Mismatch","j","true","Formal"
"","","","","","psychophysics","255","830937","0.0-9.0-0.1-0.142","1295","","j","","","","","","","","","","","","","key","j","16.66676027397306","720","446","./1_3_Stimuli/S_ambi40.png","他人","Image","朋友","Mismatch","j","true","Formal"
"","","","","","psychophysics","256","833480","0.0-9.0-0.1-0.143","1387","","j","","","","","","","","","","","","","key","j","16.666355263157655","720","446","./1_3_Stimuli/S_ambi40.png","自我","Image","朋友","Mismatch","j","true","Formal"
"","","","","","psychophysics","257","835374","0.0-9.0-0.1-0.144","732","","f","","","","","","","","","","","","","key","f","16.664973214285315","720","446","./1_3_Stimuli/S_ambi40.png","朋友","Word","朋友","Match","f","true","Formal"
"","","","","","psychophysics","258","837665","0.0-9.0-0.1-0.145","1140","","j","","","","","","","","","","","","","key","j","16.6662352941177","720","446","./1_3_Stimuli/C_ambi40.png","他人","Word","自我","Mismatch","j","true","Formal"
"","","","","","psychophysics","259","839711","0.0-9.0-0.1-0.146","885","","j","","","","","","","","","","","","","key","j","16.66676229508174","720","446","./1_3_Stimuli/C_ambi40.png","朋友","Word","自我","Mismatch","j","true","Formal"
"","","","","","psychophysics","260","841361","0.0-9.0-0.1-0.147","486","","f","","","","","","","","","","","","","key","f","16.66660204081682","720","446","./1_3_Stimuli/C_ambi40.png","自我","Word","自我","Match","f","true","Formal"
"","","","","","psychophysics","261","843375","0.0-9.0-0.1-0.148","849","","f","","","","","","","","","","","","","key","f","16.664957983193318","720","446","./1_3_Stimuli/T_ambi40.png","他人","Word","他人","Match","f","true","Formal"
"","","","","","psychophysics","262","845425","0.0-9.0-0.1-0.149","900","","j","","","","","","","","","","","","","key","j","16.666636363635888","720","446","./1_3_Stimuli/S_ambi40.png","自我","Word","朋友","Mismatch","j","true","Formal"
"","","","","","psychophysics","263","847651","0.0-9.0-0.1-0.150","1074","","j","","","","","","","","","","","","","key","j","16.666424242424192","720","446","./1_3_Stimuli/S_ambi40.png","自我","Image","朋友","Mismatch","j","true","Formal"
"","","","","","psychophysics","264","850098","0.0-9.0-0.1-0.151","1288","","j","","","","","","","","","","","","","key","j","16.667986301370348","720","446","./1_3_Stimuli/S_ambi40.png","他人","Image","朋友","Mismatch","j","true","Formal"
"","","","","","psychophysics","265","851848","0.0-9.0-0.1-0.152","590","","f","","","","","","","","","","","","","key","f","16.667884615384256","720","446","./1_3_Stimuli/C_ambi40.png","自我","Image","自我","Match","f","true","Formal"
"","","","","","psychophysics","266","853478","0.0-9.0-0.1-0.153","470","","f","","","","","","","","","","","","","key","f","16.667226804122713","720","446","./1_3_Stimuli/C_ambi40.png","自我","Word","自我","Match","f","true","Formal"
"","","","","","psychophysics","267","855377","0.0-9.0-0.1-0.154","735","","j","","","","","","","","","","","","","key","j","16.665265486726074","720","446","./1_3_Stimuli/T_ambi40.png","朋友","Word","他人","Mismatch","j","true","Formal"
"","","","","","psychophysics","268","857798","0.0-9.0-0.1-0.155","1271","","j","","","","","","","","","","","","","key","j","16.666569444444676","720","446","./1_3_Stimuli/T_ambi40.png","自我","Image","他人","Mismatch","j","true","Formal"
"","","","","","psychophysics","269","860014","0.0-9.0-0.1-0.156","1056","","j","","","","","","","","","","","","","key","j","16.66558333333303","720","446","./1_3_Stimuli/T_ambi40.png","朋友","Image","他人","Mismatch","j","true","Formal"
"","","","","","psychophysics","270","862726","0.0-9.0-0.1-0.157","null","","null","","","","","","","","","","","","","key","null","16.66547204968982","720","446","./1_3_Stimuli/T_ambi40.png","他人","Image","他人","Match","f","false","Formal"
"","","","","","psychophysics","271","865227","0.0-9.0-0.1-0.158","1350","","f","","","","","","","","","","","","","key","f","16.666375838926424","720","446","./1_3_Stimuli/S_ambi40.png","朋友","Image","朋友","Match","f","true","Formal"
"","","","","","psychophysics","272","867942","0.0-9.0-0.1-0.159","null","","null","","","","","","","","","","","","","key","null","16.66501863354019","720","446","./1_3_Stimuli/S_ambi40.png","他人","Word","朋友","Mismatch","j","false","Formal"
"","","","","","psychophysics","273","870658","0.0-9.0-0.1-0.160","null","","null","","","","","","","","","","","","","key","null","16.66563354037277","720","446","./1_3_Stimuli/C_ambi40.png","朋友","Image","自我","Mismatch","j","false","Formal"
"","","","","","psychophysics","274","872617","0.0-9.0-0.1-0.161","808","","f","","","","","","","","","","","","","key","f","16.66757758620701","720","446","./1_3_Stimuli/T_ambi40.png","他人","Word","他人","Match","f","true","Formal"
"","","","","","psychophysics","275","875296","0.0-9.0-0.1-0.162","1520","","f","","","","","","","","","","","","","key","f","16.66640625","720","446","./1_3_Stimuli/T_ambi40.png","他人","Image","他人","Match","f","true","Formal"
"","","","","","psychophysics","276","877285","0.0-9.0-0.1-0.163","827","","f","","","","","","","","","","","","","key","f","16.668110169492014","720","446","./1_3_Stimuli/S_ambi40.png","朋友","Image","朋友","Match","f","true","Formal"
"","","","","","psychophysics","277","878995","0.0-9.0-0.1-0.164","553","","f","","","","","","","","","","","","","key","f","16.66465686274437","720","446","./1_3_Stimuli/C_ambi40.png","自我","Image","自我","Match","f","true","Formal"
"","","","","","psychophysics","278","881171","0.0-9.0-0.1-0.165","1012","","j","","","","","","","","","","","","","key","j","16.667821705426167","720","446","./1_3_Stimuli/T_ambi40.png","自我","Word","他人","Mismatch","j","true","Formal"
"","","","","","psychophysics","279","883547","0.0-9.0-0.1-0.166","1221","","f","","","","","","","","","","","","","key","f","16.66495070422501","720","446","./1_3_Stimuli/S_ambi40.png","朋友","Word","朋友","Match","f","true","Formal"
"","","","","","psychophysics","280","885683","0.0-9.0-0.1-0.167","975","","j","","","","","","","","","","","","","key","j","16.66786614173242","720","446","./1_3_Stimuli/C_ambi40.png","他人","Image","自我","Mismatch","j","true","Formal"
"","","","","","psychophysics","281","887613","0.0-9.0-0.1-0.168","771","","f","","","","","","","","","","","","","key","f","16.66449565217405","720","446","./1_3_Stimuli/T_ambi40.png","他人","Image","他人","Match","f","true","Formal"
"","","","","","psychophysics","282","889413","0.0-9.0-0.1-0.169","649","","j","","","","","","","","","","","","","key","j","16.66440186915793","720","446","./1_3_Stimuli/C_ambi40.png","他人","Word","自我","Mismatch","j","true","Formal"
"","","","","","psychophysics","283","891313","0.0-9.0-0.1-0.170","737","","j","","","","","","","","","","","","","key","j","16.66572566371642","720","446","./1_3_Stimuli/S_ambi40.png","自我","Word","朋友","Mismatch","j","true","Formal"
"","","","","","psychophysics","284","894025","0.0-9.0-0.1-0.171","null","","null","","","","","","","","","","","","","key","null","16.666366459627532","720","446","./1_3_Stimuli/C_ambi40.png","朋友","Image","自我","Mismatch","j","false","Formal"
"","","","","","psychophysics","285","896096","0.0-9.0-0.1-0.172","920","","f","","","","","","","","","","","","","key","f","16.666520325202928","720","446","./1_3_Stimuli/S_ambi40.png","朋友","Word","朋友","Match","f","true","Formal"
"","","","","","psychophysics","286","898056","0.0-9.0-0.1-0.173","798","","f","","","","","","","","","","","","","key","f","16.66888793103461","720","446","./1_3_Stimuli/C_ambi40.png","自我","Image","自我","Match","f","true","Formal"
"","","","","","psychophysics","287","899766","0.0-9.0-0.1-0.174","559","","j","","","","","","","","","","","","","key","j","16.667372549020037","720","446","./1_3_Stimuli/T_ambi40.png","自我","Image","他人","Mismatch","j","true","Formal"
"","","","","","psychophysics","288","901991","0.0-9.0-0.1-0.175","1066","","j","","","","","","","","","","","","","key","j","16.66660606060583","720","446","./1_3_Stimuli/C_ambi40.png","他人","Image","自我","Mismatch","j","true","Formal"
"","","","","","psychophysics","289","903756","0.0-9.0-0.1-0.176","613","","f","","","","","","","","","","","","","key","f","16.669057692307085","720","446","./1_3_Stimuli/S_ambi40.png","他人","Word","朋友","Mismatch","j","false","Formal"
"","","","","","psychophysics","290","905491","0.0-9.0-0.1-0.177","582","","f","","","","","","","","","","","","","key","f","16.668676470587826","720","446","./1_3_Stimuli/C_ambi40.png","自我","Word","自我","Match","f","true","Formal"
"","","","","","psychophysics","291","907522","0.0-9.0-0.1-0.178","880","","f","","","","","","","","","","","","","key","f","16.66620000000015","720","446","./1_3_Stimuli/S_ambi40.png","朋友","Image","朋友","Match","f","true","Formal"
"","","","","","psychophysics","292","909737","0.0-9.0-0.1-0.179","1062","","f","","","","","","","","","","","","","key","f","16.6651374045795","720","446","./1_3_Stimuli/S_ambi40.png","朋友","Word","朋友","Match","f","true","Formal"
"","","","","","psychophysics","293","911472","0.0-9.0-0.1-0.180","580","","f","","","","","","","","","","","","","key","f","16.66438834951372","720","446","./1_3_Stimuli/S_ambi40.png","朋友","Image","朋友","Match","f","true","Formal"
"","","","","","psychophysics","294","913221","0.0-9.0-0.1-0.181","596","","j","","","","","","","","","","","","","key","j","16.66610576923099","720","446","./1_3_Stimuli/S_ambi40.png","自我","Image","朋友","Mismatch","j","true","Formal"
"","","","","","psychophysics","295","915097","0.0-9.0-0.1-0.182","722","","f","","","","","","","","","","","","","key","f","16.66829464285755","720","446","./1_3_Stimuli/C_ambi40.png","自我","Word","自我","Match","f","true","Formal"
"","","","","","psychophysics","296","917039","0.0-9.0-0.1-0.183","782","","f","","","","","","","","","","","","","key","f","16.668930434782826","720","446","./1_3_Stimuli/T_ambi40.png","他人","Word","他人","Match","f","true","Formal"
"","","","","","psychophysics","297","918807","0.0-9.0-0.1-0.184","615","","f","","","","","","","","","","","","","key","f","16.664628571429333","720","446","./1_3_Stimuli/C_ambi40.png","自我","Image","自我","Match","f","true","Formal"
"","","","","","psychophysics","298","920933","0.0-9.0-0.1-0.185","973","","j","","","","","","","","","","","","","key","j","16.66473809523796","720","446","./1_3_Stimuli/T_ambi40.png","自我","Word","他人","Mismatch","j","true","Formal"
"","","","","","psychophysics","299","923199","0.0-9.0-0.1-0.186","1107","","f","","","","","","","","","","","","","key","f","16.66495555555534","720","446","./1_3_Stimuli/T_ambi40.png","他人","Image","他人","Match","f","true","Formal"
"","","","","","psychophysics","300","924893","0.0-9.0-0.1-0.187","536","","f","","","","","","","","","","","","","key","f","16.666277227722716","720","446","./1_3_Stimuli/T_ambi40.png","他人","Word","他人","Match","f","true","Formal"
"","","","","","psychophysics","301","926687","0.0-9.0-0.1-0.188","630","","j","","","","","","","","","","","","","key","j","16.988538461538084","720","446","./1_3_Stimuli/T_ambi40.png","朋友","Word","他人","Mismatch","j","true","Formal"
"","","","","","psychophysics","302","928663","0.0-9.0-0.1-0.189","824","","j","","","","","","","","","","","","","key","j","16.665898305084752","720","446","./1_3_Stimuli/T_ambi40.png","朋友","Image","他人","Mismatch","j","true","Formal"
"","","","","","psychophysics","303","930499","0.0-9.0-0.1-0.190","674","","f","","","","","","","","","","","","","key","f","16.667211009173467","720","446","./1_3_Stimuli/C_ambi40.png","朋友","Word","自我","Mismatch","j","false","Formal"
"","","","","","psychophysics","304","932549","0.0-9.0-0.1-0.191","892","","f","","","","","","","","","","","","","key","f","16.66642622950823","720","446","./1_3_Stimuli/S_ambi40.png","他人","Image","朋友","Mismatch","j","false","Formal"
"","","","","","psychophysics","305","934314","0.0-9.0-0.1-0.192","605","","f","","","","","","","","","","","","","key","f","16.66643809523722","720","446","./1_3_Stimuli/C_ambi40.png","自我","Word","自我","Match","f","true","Formal"
"","","","","","psychophysics","306","936746","0.0-9.0-0.1-0.193","1273","","f","","","","","","","","","","","","","key","f","16.66802758620731","720","446","./1_3_Stimuli/T_ambi40.png","他人","Image","他人","Match","f","true","Formal"
"","","","","","psychophysics","307","938601","0.0-9.0-0.1-0.194","693","","j","","","","","","","","","","","","","key","j","16.66628181818153","720","446","./1_3_Stimuli/S_ambi40.png","自我","Word","朋友","Mismatch","j","true","Formal"
"","","","","","psychophysics","308","940732","0.0-9.0-0.1-0.195","973","","f","","","","","","","","","","","","","key","f","16.666913385826575","720","446","./1_3_Stimuli/S_ambi40.png","朋友","Image","朋友","Match","f","true","Formal"
"","","","","","psychophysics","309","943442","0.0-9.0-0.1-0.196","null","","null","","","","","","","","","","","","","key","null","16.666571428571967","720","446","./1_3_Stimuli/S_ambi40.png","自我","Image","朋友","Mismatch","j","false","Formal"
"","","","","","psychophysics","310","946158","0.0-9.0-0.1-0.197","null","","null","","","","","","","","","","","","","key","null","16.66819254658402","720","446","./1_3_Stimuli/C_ambi40.png","他人","Word","自我","Mismatch","j","false","Formal"
"","","","","","psychophysics","311","948273","0.0-9.0-0.1-0.198","948","","f","","","","","","","","","","","","","key","f","16.664519999999552","720","446","./1_3_Stimuli/T_ambi40.png","他人","Word","他人","Match","f","true","Formal"
"","","","","","psychophysics","312","949983","0.0-9.0-0.1-0.199","556","","f","","","","","","","","","","","","","key","f","16.668544554455888","720","446","./1_3_Stimuli/T_ambi40.png","他人","Word","他人","Match","f","true","Formal"
"","","","","","psychophysics","313","952515","0.0-9.0-0.1-0.200","1373","","f","","","","","","","","","","","","","key","f","16.666013245033685","720","446","./1_3_Stimuli/T_ambi40.png","他人","Image","他人","Match","f","true","Formal"
"","","","","","psychophysics","314","954224","0.0-9.0-0.1-0.201","548","","f","","","","","","","","","","","","","key","f","16.666485148514298","720","446","./1_3_Stimuli/C_ambi40.png","自我","Word","自我","Match","f","true","Formal"
"","","","","","psychophysics","315","956315","0.0-9.0-0.1-0.202","939","","j","","","","","","","","","","","","","key","j","16.665879999999888","720","446","./1_3_Stimuli/T_ambi40.png","自我","Image","他人","Mismatch","j","true","Formal"
"","","","","","psychophysics","316","958420","0.0-9.0-0.1-0.203","945","","j","","","","","","","","","","","","","key","j","16.666376000000163","720","446","./1_3_Stimuli/C_ambi40.png","他人","Image","自我","Mismatch","j","true","Formal"
"","","","","","psychophysics","317","960386","0.0-9.0-0.1-0.204","811","","f","","","","","","","","","","","","","key","f","16.668008547008604","720","446","./1_3_Stimuli/C_ambi40.png","自我","Image","自我","Match","f","true","Formal"
"","","","","","psychophysics","318","962512","0.0-9.0-0.1-0.205","970","","f","","","","","","","","","","","","","key","f","16.665551181102547","720","446","./1_3_Stimuli/C_ambi40.png","自我","Image","自我","Match","f","true","Formal"
"","","","","","psychophysics","319","964282","0.0-9.0-0.1-0.206","606","","j","","","","","","","","","","","","","key","j","16.668885714285786","720","446","./1_3_Stimuli/T_ambi40.png","朋友","Image","他人","Mismatch","j","true","Formal"
"","","","","","psychophysics","320","966312","0.0-9.0-0.1-0.207","871","","j","","","","","","","","","","","","","key","j","16.664099173553957","720","446","./1_3_Stimuli/T_ambi40.png","自我","Word","他人","Mismatch","j","true","Formal"
"","","","","","psychophysics","321","968518","0.0-9.0-0.1-0.208","1046","","j","","","","","","","","","","","","","key","j","16.665251908397288","720","446","./1_3_Stimuli/S_ambi40.png","他人","Word","朋友","Mismatch","j","true","Formal"
"","","","","","psychophysics","322","970278","0.0-9.0-0.1-0.209","604","","f","","","","","","","","","","","","","key","f","16.667609523809958","720","446","./1_3_Stimuli/S_ambi40.png","朋友","Word","朋友","Match","f","true","Formal"
"","","","","","psychophysics","323","972044","0.0-9.0-0.1-0.210","602","","j","","","","","","","","","","","","","key","j","16.664638095238203","720","446","./1_3_Stimuli/T_ambi40.png","朋友","Word","他人","Mismatch","j","true","Formal"
"","","","","","psychophysics","324","973933","0.0-9.0-0.1-0.211","726","","j","","","","","","","","","","","","","key","j","16.66705357142928","720","446","./1_3_Stimuli/C_ambi40.png","朋友","Word","自我","Mismatch","j","true","Formal"
"","","","","","psychophysics","325","976149","0.0-9.0-0.1-0.212","1057","","j","","","","","","","","","","","","","key","j","16.666378787878344","720","446","./1_3_Stimuli/S_ambi40.png","他人","Image","朋友","Mismatch","j","true","Formal"
"","","","","","psychophysics","326","978094","0.0-9.0-0.1-0.213","788","","f","","","","","","","","","","","","","key","f","16.66823275862081","720","446","./1_3_Stimuli/S_ambi40.png","朋友","Word","朋友","Match","f","true","Formal"
"","","","","","psychophysics","327","979880","0.0-9.0-0.1-0.214","622","","f","","","","","","","","","","","","","key","f","16.66883962264148","720","446","./1_3_Stimuli/S_ambi40.png","朋友","Image","朋友","Match","f","true","Formal"
"","","","","","psychophysics","328","981639","0.0-9.0-0.1-0.215","597","","j","","","","","","","","","","","","","key","j","16.666201923077235","720","446","./1_3_Stimuli/C_ambi40.png","朋友","Image","自我","Mismatch","j","true","Formal"
"","","","","","psychophysics","329","983970","0.0-9.0-0.1-0.216","1179","","j","","","","","","","","","","","","","key","j","16.66535251798601","720","446","./1_3_Stimuli/S_ambi40.png","他人","Image","朋友","Mismatch","j","true","Formal"
"","","","","","psychophysics","330","986674","0.0-9.0-0.1-0.217","null","","null","","","","","","","","","","","","","key","null","16.665745341615253","720","446","./1_3_Stimuli/S_ambi40.png","朋友","Word","朋友","Match","f","false","Formal"
"","","","","","psychophysics","331","988397","0.0-9.0-0.1-0.218","572","","f","","","","","","","","","","","","","key","f","16.664784313726248","720","446","./1_3_Stimuli/S_ambi40.png","朋友","Word","朋友","Match","f","true","Formal"
"","","","","","psychophysics","332","990167","0.0-9.0-0.1-0.219","610","","j","","","","","","","","","","","","","key","j","16.66608571428584","720","446","./1_3_Stimuli/T_ambi40.png","他人","Image","他人","Match","f","false","Formal"
"","","","","","psychophysics","333","992318","0.0-9.0-0.1-0.220","993","","j","","","","","","","","","","","","","key","j","16.665078125000036","720","446","./1_3_Stimuli/C_ambi40.png","他人","Image","自我","Mismatch","j","true","Formal"
"","","","","","psychophysics","334","994063","0.0-9.0-0.1-0.221","587","","f","","","","","","","","","","","","","key","f","16.66674038461553","720","446","./1_3_Stimuli/C_ambi40.png","自我","Word","自我","Match","f","true","Formal"
"","","","","","psychophysics","335","995867","0.0-9.0-0.1-0.222","642","","j","","","","","","","","","","","","","key","j","16.66456074766362","720","446","./1_3_Stimuli/T_ambi40.png","朋友","Word","他人","Mismatch","j","true","Formal"
"","","","","","psychophysics","336","998279","0.0-9.0-0.1-0.223","1255","","j","","","","","","","","","","","","","key","j","16.665166666666565","720","446","./1_3_Stimuli/S_ambi40.png","自我","Image","朋友","Mismatch","j","true","Formal"
"","","","","","psychophysics","337","1000300","0.0-9.0-0.1-0.224","858","","f","","","","","","","","","","","","","key","f","16.66673333333359","720","446","./1_3_Stimuli/S_ambi40.png","朋友","Image","朋友","Match","f","true","Formal"
"","","","","","psychophysics","338","1002446","0.0-9.0-0.1-0.225","989","","f","","","","","","","","","","","","","key","f","16.668125000000146","720","446","./1_3_Stimuli/S_ambi40.png","朋友","Image","朋友","Match","f","true","Formal"
"","","","","","psychophysics","339","1004300","0.0-9.0-0.1-0.226","692","","f","","","","","","","","","","","","","key","f","16.667254545453893","720","446","./1_3_Stimuli/C_ambi40.png","自我","Image","自我","Match","f","true","Formal"
"","","","","","psychophysics","340","1006387","0.0-9.0-0.1-0.227","929","","j","","","","","","","","","","","","","key","j","16.66813709677456","720","446","./1_3_Stimuli/C_ambi40.png","朋友","Word","自我","Mismatch","j","true","Formal"
"","","","","","psychophysics","341","1008327","0.0-9.0-0.1-0.228","784","","j","","","","","","","","","","","","","key","j","16.666370689655164","720","446","./1_3_Stimuli/S_ambi40.png","自我","Word","朋友","Mismatch","j","true","Formal"
"","","","","","psychophysics","342","1010888","0.0-9.0-0.1-0.229","1396","","j","","","","","","","","","","","","","key","j","16.66675000000013","720","446","./1_3_Stimuli/T_ambi40.png","自我","Image","他人","Mismatch","j","true","Formal"
"","","","","","psychophysics","343","1012687","0.0-9.0-0.1-0.230","647","","j","","","","","","","","","","","","","key","j","16.666551401869125","720","446","./1_3_Stimuli/T_ambi40.png","自我","Word","他人","Mismatch","j","true","Formal"
"","","","","","psychophysics","344","1014618","0.0-9.0-0.1-0.231","777","","f","","","","","","","","","","","","","key","f","16.66490434782539","720","446","./1_3_Stimuli/T_ambi40.png","他人","Image","他人","Match","f","true","Formal"
"","","","","","psychophysics","345","1016765","0.0-9.0-0.1-0.232","991","","f","","","","","","","","","","","","","key","f","16.66454687499936","720","446","./1_3_Stimuli/C_ambi40.png","自我","Image","自我","Match","f","true","Formal"
"","","","","","psychophysics","346","1019111","0.0-9.0-0.1-0.233","1187","","f","","","","","","","","","","","","","key","f","16.664771428571214","720","446","./1_3_Stimuli/T_ambi40.png","他人","Word","他人","Match","f","true","Formal"
"","","","","","psychophysics","347","1021196","0.0-9.0-0.1-0.234","924","","j","","","","","","","","","","","","","key","j","16.66652419354819","720","446","./1_3_Stimuli/C_ambi40.png","朋友","Image","自我","Mismatch","j","true","Formal"
"","","","","","psychophysics","348","1023257","0.0-9.0-0.1-0.235","900","","f","","","","","","","","","","","","","key","f","16.669008196720885","720","446","./1_3_Stimuli/C_ambi40.png","自我","Word","自我","Match","f","true","Formal"
"","","","","","psychophysics","349","1025052","0.0-9.0-0.1-0.236","628","","j","","","","","","","","","","","","","key","j","16.666754716980922","720","446","./1_3_Stimuli/C_ambi40.png","他人","Word","自我","Mismatch","j","true","Formal"
"","","","","","psychophysics","350","1027073","0.0-9.0-0.1-0.237","866","","j","","","","","","","","","","","","","key","j","16.66675000000008","720","446","./1_3_Stimuli/S_ambi40.png","他人","Word","朋友","Mismatch","j","true","Formal"
"","","","","","psychophysics","351","1029062","0.0-9.0-0.1-0.238","837","","j","","","","","","","","","","","","","key","j","16.666226890756935","720","446","./1_3_Stimuli/T_ambi40.png","朋友","Image","他人","Mismatch","j","true","Formal"
"","","","","","psychophysics","352","1030808","0.0-9.0-0.1-0.239","584","","f","","","","","","","","","","","","","key","f","16.665538461538606","720","446","./1_3_Stimuli/T_ambi40.png","他人","Word","他人","Match","f","true","Formal"
"","","","","","html-keyboard-response","353","1035555","0.0-9.0-1.1","4746","<style>.context{color:white; font-size: 35px; line-height:40px}</style>                        <div><p class='context'>您正确回答了90% 的试次。</p><p class='context'>您的平均反应时为857毫秒。</p><p> <div style = 'color: green'><按任意键进入休息></div></p>"," ","","","","","","","","","","","","","","","","","","","","","","","","",""
"","","","","","html-button-response","354","1080305","0.0-9.0-2.1","44746","
                  <p>您当前还剩余4组实验</p>
                  <p>现在是休息时间，当您结束休息后，您可以点击 结束休息 按钮 继续</p>
                  <p>建议休息时间还剩余<span id=""iii"">60</span>秒</p>","0","","","","","","","","","","","","","","","","","","","","","","","","",""
"","","","","","psychophysics","355","1082259","0.0-9.0-0.2-0.240","801","","f","","","","","","","","","","","","","key","f","16.66568376068384","720","446","./1_3_Stimuli/S_ambi40.png","朋友","Image","朋友","Match","f","true","Formal"
"","","","","","psychophysics","356","1084176","0.0-9.0-0.2-0.241","751","","f","","","","","","","","","","","","","key","f","16.664921052633424","720","446","./1_3_Stimuli/T_ambi40.png","他人","Image","他人","Match","f","true","Formal"
"","","","","","psychophysics","357","1085949","0.0-9.0-0.2-0.242","608","","f","","","","","","","","","","","","","key","f","16.66778095238177","720","446","./1_3_Stimuli/S_ambi40.png","朋友","Word","朋友","Match","f","true","Formal"
"","","","","","psychophysics","358","1087808","0.0-9.0-0.2-0.243","702","","f","","","","","","","","","","","","","key","f","16.668765765765833","720","446","./1_3_Stimuli/T_ambi40.png","他人","Word","他人","Match","f","true","Formal"
"","","","","","psychophysics","359","1089584","0.0-9.0-0.2-0.244","625","","f","","","","","","","","","","","","","key","f","16.66599999999938","720","446","./1_3_Stimuli/C_ambi40.png","自我","Image","自我","Match","f","true","Formal"
"","","","","","psychophysics","360","1091409","0.0-9.0-0.2-0.245","668","","j","","","","","","","","","","","","","key","j","16.666880733944442","720","446","./1_3_Stimuli/C_ambi40.png","他人","Image","自我","Mismatch","j","true","Formal"
"","","","","","psychophysics","361","1093274","0.0-9.0-0.2-0.246","700","","j","","","","","","","","","","","","","key","j","16.66361818181732","720","446","./1_3_Stimuli/S_ambi40.png","自我","Word","朋友","Mismatch","j","true","Formal"
"","","","","","psychophysics","362","1095054","0.0-9.0-0.2-0.247","630","","f","","","","","","","","","","","","","key","f","16.66544761904737","720","446","./1_3_Stimuli/S_ambi40.png","朋友","Word","朋友","Match","f","true","Formal"
"","","","","","psychophysics","363","1097079","0.0-9.0-0.2-0.248","872","","f","","","","","","","","","","","","","key","f","16.66807438016384","720","446","./1_3_Stimuli/T_ambi40.png","他人","Word","他人","Match","f","true","Formal"
"","","","","","psychophysics","364","1098944","0.0-9.0-0.2-0.249","703","","f","","","","","","","","","","","","","key","f","16.666846846847015","720","446","./1_3_Stimuli/C_ambi40.png","朋友","Word","自我","Mismatch","j","false","Formal"
"","","","","","psychophysics","365","1100875","0.0-9.0-0.2-0.250","769","","f","","","","","","","","","","","","","key","f","16.66811304347711","720","446","./1_3_Stimuli/S_ambi40.png","自我","Image","朋友","Mismatch","j","false","Formal"
"","","","","","psychophysics","366","1103205","0.0-9.0-0.2-0.251","1165","","j","","","","","","","","","","","","","key","j","16.66497826086951","720","446","./1_3_Stimuli/T_ambi40.png","自我","Image","他人","Mismatch","j","true","Formal"
"","","","","","psychophysics","367","1105221","0.0-9.0-0.2-0.252","864","","f","","","","","","","","","","","","","key","f","16.666408333333674","720","446","./1_3_Stimuli/C_ambi40.png","自我","Word","自我","Match","f","true","Formal"
"","","","","","psychophysics","368","1107020","0.0-9.0-0.2-0.253","646","","f","","","","","","","","","","","","","key","f","16.666140186915904","720","446","./1_3_Stimuli/C_ambi40.png","自我","Word","自我","Match","f","true","Formal"
"","","","","","psychophysics","369","1108680","0.0-9.0-0.2-0.254","506","","f","","","","","","","","","","","","","key","f","16.666696969697234","720","446","./1_3_Stimuli/C_ambi40.png","自我","Image","自我","Match","f","true","Formal"
"","","","","","psychophysics","370","1111347","0.0-9.0-0.2-0.255","1506","","f","","","","","","","","","","","","","key","f","16.666515723270592","720","446","./1_3_Stimuli/T_ambi40.png","他人","Image","他人","Match","f","true","Formal"
"","","","","","psychophysics","371","1113302","0.0-9.0-0.2-0.256","796","","j","","","","","","","","","","","","","key","j","16.669008620689496","720","446","./1_3_Stimuli/T_ambi40.png","朋友","Image","他人","Mismatch","j","true","Formal"
"","","","","","psychophysics","372","1116007","0.0-9.0-0.2-0.257","null","","null","","","","","","","","","","","","","key","null","16.66690062111683","720","446","./1_3_Stimuli/S_ambi40.png","他人","Word","朋友","Mismatch","j","false","Formal"
"","","","","","psychophysics","373","1118724","0.0-9.0-0.2-0.258","null","","null","","","","","","","","","","","","","key","null","16.66465217391353","720","446","./1_3_Stimuli/S_ambi40.png","他人","Image","朋友","Mismatch","j","false","Formal"
"","","","","","psychophysics","374","1120666","0.0-9.0-0.2-0.259","792","","j","","","","","","","","","","","","","key","j","16.663913043477045","720","446","./1_3_Stimuli/T_ambi40.png","自我","Word","他人","Mismatch","j","true","Formal"
"","","","","","psychophysics","375","1122571","0.0-9.0-0.2-0.260","748","","j","","","","","","","","","","","","","key","j","16.66470796460352","720","446","./1_3_Stimuli/C_ambi40.png","他人","Word","自我","Mismatch","j","true","Formal"
"","","","","","psychophysics","376","1124657","0.0-9.0-0.2-0.261","933","","j","","","","","","","","","","","","","key","j","16.667837398372804","720","446","./1_3_Stimuli/C_ambi40.png","朋友","Image","自我","Mismatch","j","true","Formal"
"","","","","","psychophysics","377","1126818","0.0-9.0-0.2-0.262","997","","f","","","","","","","","","","","","","key","f","16.66498437500013","720","446","./1_3_Stimuli/S_ambi40.png","朋友","Image","朋友","Match","f","true","Formal"
"","","","","","psychophysics","378","1128598","0.0-9.0-0.2-0.263","627","","j","","","","","","","","","","","","","key","j","16.66416037735916","720","446","./1_3_Stimuli/T_ambi40.png","朋友","Word","他人","Mismatch","j","true","Formal"
"","","","","","psychophysics","379","1130370","0.0-9.0-0.2-0.264","621","","f","","","","","","","","","","","","","key","f","16.66864150943331","720","446","./1_3_Stimuli/C_ambi40.png","自我","Word","自我","Match","f","true","Formal"
"","","","","","psychophysics","380","1132190","0.0-9.0-0.2-0.265","657","","j","","","","","","","","","","","","","key","j","16.667629629630095","720","446","./1_3_Stimuli/T_ambi40.png","朋友","Word","他人","Mismatch","j","true","Formal"
"","","","","","psychophysics","381","1134481","0.0-9.0-0.2-0.266","1132","","f","","","","","","","","","","","","","key","f","16.668713235294597","720","446","./1_3_Stimuli/C_ambi40.png","自我","Image","自我","Match","f","true","Formal"
"","","","","","psychophysics","382","1136673","0.0-9.0-0.2-0.267","1040","","j","","","","","","","","","","","","","key","j","16.668161538460005","720","446","./1_3_Stimuli/C_ambi40.png","朋友","Word","自我","Mismatch","j","true","Formal"
"","","","","","psychophysics","383","1138578","0.0-9.0-0.2-0.268","745","","j","","","","","","","","","","","","","key","j","16.666796460176975","720","446","./1_3_Stimuli/C_ambi40.png","朋友","Image","自我","Mismatch","j","true","Formal"
"","","","","","psychophysics","384","1140541","0.0-9.0-0.2-0.269","807","","j","","","","","","","","","","","","","key","j","16.66824786324834","720","446","./1_3_Stimuli/T_ambi40.png","自我","Image","他人","Mismatch","j","true","Formal"
"","","","","","psychophysics","385","1143090","0.0-9.0-0.2-0.270","1391","","f","","","","","","","","","","","","","key","f","16.668092105263465","720","446","./1_3_Stimuli/S_ambi40.png","朋友","Image","朋友","Match","f","true","Formal"
"","","","","","psychophysics","386","1145371","0.0-9.0-0.2-0.271","1121","","f","","","","","","","","","","","","","key","f","16.66781617647126","720","446","./1_3_Stimuli/S_ambi40.png","朋友","Image","朋友","Match","f","true","Formal"
"","","","","","psychophysics","387","1147356","0.0-9.0-0.2-0.272","823","","f","","","","","","","","","","","","","key","f","16.667440677965377","720","446","./1_3_Stimuli/T_ambi40.png","他人","Word","他人","Match","f","true","Formal"
"","","","","","psychophysics","388","1149501","0.0-9.0-0.2-0.273","985","","f","","","","","","","","","","","","","key","f","16.66498437500013","720","446","./1_3_Stimuli/S_ambi40.png","朋友","Word","朋友","Match","f","true","Formal"
"","","","","","psychophysics","389","1151246","0.0-9.0-0.2-0.274","580","","j","","","","","","","","","","","","","key","j","16.667805825242574","720","446","./1_3_Stimuli/S_ambi40.png","自我","Word","朋友","Mismatch","j","true","Formal"
"","","","","","psychophysics","390","1153739","0.0-9.0-0.2-0.275","1340","","j","","","","","","","","","","","","","key","j","16.667966442953034","720","446","./1_3_Stimuli/C_ambi40.png","他人","Word","自我","Mismatch","j","true","Formal"
"","","","","","psychophysics","391","1155764","0.0-9.0-0.2-0.276","865","","f","","","","","","","","","","","","","key","f","16.666225000001337","720","446","./1_3_Stimuli/T_ambi40.png","他人","Image","他人","Match","f","true","Formal"
"","","","","","psychophysics","392","1157971","0.0-9.0-0.2-0.277","1054","","j","","","","","","","","","","","","","key","j","16.66816030534425","720","446","./1_3_Stimuli/C_ambi40.png","他人","Image","自我","Mismatch","j","true","Formal"
"","","","","","psychophysics","393","1159736","0.0-9.0-0.2-0.278","604","","j","","","","","","","","","","","","","key","j","16.66827619047614","720","446","./1_3_Stimuli/T_ambi40.png","自我","Word","他人","Mismatch","j","true","Formal"
"","","","","","psychophysics","394","1162449","0.0-9.0-0.2-0.279","null","","null","","","","","","","","","","","","","key","null","16.667658385093272","720","446","./1_3_Stimuli/T_ambi40.png","朋友","Image","他人","Mismatch","j","false","Formal"
"","","","","","psychophysics","395","1164293","0.0-9.0-0.2-0.280","692","","f","","","","","","","","","","","","","key","f","16.66524770642084","720","446","./1_3_Stimuli/C_ambi40.png","自我","Word","自我","Match","f","true","Formal"
"","","","","","psychophysics","396","1166058","0.0-9.0-0.2-0.281","608","","f","","","","","","","","","","","","","key","f","16.665857142857497","720","446","./1_3_Stimuli/C_ambi40.png","自我","Image","自我","Match","f","true","Formal"
"","","","","","psychophysics","397","1167801","0.0-9.0-0.2-0.282","585","","j","","","","","","","","","","","","","key","j","16.664596153846315","720","446","./1_3_Stimuli/S_ambi40.png","自我","Image","朋友","Mismatch","j","true","Formal"
"","","","","","psychophysics","398","1170324","0.0-9.0-0.2-0.283","1358","","j","","","","","","","","","","","","","key","j","16.664946666667237","720","446","./1_3_Stimuli/S_ambi40.png","他人","Image","朋友","Mismatch","j","true","Formal"
"","","","","","psychophysics","399","1172199","0.0-9.0-0.2-0.284","716","","j","","","","","","","","","","","","","key","j","16.66669369369393","720","446","./1_3_Stimuli/S_ambi40.png","他人","Word","朋友","Mismatch","j","true","Formal"
"","","","","","psychophysics","400","1174235","0.0-9.0-0.2-0.285","885","","f","","","","","","","","","","","","","key","f","16.66468595041247","720","446","./1_3_Stimuli/T_ambi40.png","他人","Image","他人","Match","f","true","Formal"
"","","","","","psychophysics","401","1176110","0.0-9.0-0.2-0.286","711","","f","","","","","","","","","","","","","key","f","16.66697297297284","720","446","./1_3_Stimuli/S_ambi40.png","朋友","Word","朋友","Match","f","true","Formal"
"","","","","","psychophysics","402","1178121","0.0-9.0-0.2-0.287","855","","f","","","","","","","","","","","","","key","f","16.666533333332822","720","446","./1_3_Stimuli/T_ambi40.png","他人","Word","他人","Match","f","true","Formal"
"","","","","","psychophysics","403","1180131","0.0-9.0-0.2-0.288","848","","j","","","","","","","","","","","","","key","j","16.665201680672144","720","446","./1_3_Stimuli/C_ambi40.png","朋友","Word","自我","Mismatch","j","true","Formal"
"","","","","","psychophysics","404","1181968","0.0-9.0-0.2-0.289","684","","f","","","","","","","","","","","","","key","f","16.665963302753063","720","446","./1_3_Stimuli/C_ambi40.png","自我","Image","自我","Match","f","true","Formal"
"","","","","","psychophysics","405","1184067","0.0-9.0-0.2-0.290","934","","j","","","","","","","","","","","","","key","j","16.66695999999903","720","446","./1_3_Stimuli/T_ambi40.png","他人","Word","他人","Match","f","false","Formal"
"","","","","","psychophysics","406","1186574","0.0-9.0-0.2-0.291","1341","","j","","","","","","","","","","","","","key","j","16.665697986577268","720","446","./1_3_Stimuli/S_ambi40.png","自我","Word","朋友","Mismatch","j","true","Formal"
"","","","","","psychophysics","407","1188840","0.0-9.0-0.2-0.292","1107","","f","","","","","","","","","","","","","key","f","20.454436363635416","720","446","./1_3_Stimuli/S_ambi40.png","朋友","Image","朋友","Match","f","true","Formal"
"","","","","","psychophysics","408","1190556","0.0-9.0-0.2-0.293","556","","f","","","","","","","","","","","","","key","f","16.6655196078423","720","446","./1_3_Stimuli/S_ambi40.png","朋友","Image","朋友","Match","f","true","Formal"
"","","","","","psychophysics","409","1192617","0.0-9.0-0.2-0.294","908","","j","","","","","","","","","","","","","key","j","16.665245901640567","720","446","./1_3_Stimuli/T_ambi40.png","他人","Image","他人","Match","f","false","Formal"
"","","","","","psychophysics","410","1194612","0.0-9.0-0.2-0.295","840","","j","","","","","","","","","","","","","key","j","16.666873949579895","720","446","./1_3_Stimuli/T_ambi40.png","朋友","Word","他人","Mismatch","j","true","Formal"
"","","","","","psychophysics","411","1196426","0.0-9.0-0.2-0.296","662","","f","","","","","","","","","","","","","key","f","16.666666666666668","720","446","./1_3_Stimuli/C_ambi40.png","自我","Image","自我","Match","f","true","Formal"
"","","","","","psychophysics","412","1198297","0.0-9.0-0.2-0.297","713","","j","","","","","","","","","","","","","key","j","16.66826126126044","720","446","./1_3_Stimuli/C_ambi40.png","他人","Word","自我","Mismatch","j","true","Formal"
"","","","","","psychophysics","413","1200017","0.0-9.0-0.2-0.298","568","","f","","","","","","","","","","","","","key","f","16.66915686274468","720","446","./1_3_Stimuli/T_ambi40.png","他人","Word","他人","Match","f","true","Formal"
"","","","","","psychophysics","414","1201892","0.0-9.0-0.2-0.299","721","","j","","","","","","","","","","","","","key","j","16.66711607142809","720","446","./1_3_Stimuli/C_ambi40.png","他人","Image","自我","Mismatch","j","true","Formal"
"","","","","","psychophysics","415","1204259","0.0-9.0-0.2-0.300","1204","","j","","","","","","","","","","","","","key","j","16.665063829787062","720","446","./1_3_Stimuli/T_ambi40.png","自我","Word","他人","Mismatch","j","true","Formal"
"","","","","","psychophysics","416","1206811","0.0-9.0-0.2-0.301","1396","","f","","","","","","","","","","","","","key","f","16.664973684209766","720","446","./1_3_Stimuli/S_ambi40.png","朋友","Word","朋友","Match","f","true","Formal"
"","","","","","psychophysics","417","1209066","0.0-9.0-0.2-0.302","1101","","f","","","","","","","","","","","","","key","f","16.664888059701283","720","446","./1_3_Stimuli/T_ambi40.png","他人","Image","他人","Match","f","true","Formal"
"","","","","","psychophysics","418","1210866","0.0-9.0-0.2-0.303","645","","f","","","","","","","","","","","","","key","f","16.664317757008753","720","446","./1_3_Stimuli/C_ambi40.png","自我","Word","自我","Match","f","true","Formal"
"","","","","","psychophysics","419","1212723","0.0-9.0-0.2-0.304","702","","j","","","","","","","","","","","","","key","j","16.664342342343115","720","446","./1_3_Stimuli/C_ambi40.png","朋友","Image","自我","Mismatch","j","true","Formal"
"","","","","","psychophysics","420","1215014","0.0-9.0-0.2-0.305","1129","","j","","","","","","","","","","","","","key","j","16.66669117647175","720","446","./1_3_Stimuli/T_ambi40.png","自我","Image","他人","Mismatch","j","true","Formal"
