"success","timeout","failed_images","failed_audio","failed_video","trial_type","trial_index","time_elapsed","internal_node_id","rt","stimulus","response","value","item_width_mm","item_height_mm","item_width_px","px2mm","view_dist_mm","item_width_deg","px2deg","scale_factor","win_width_deg","win_height_deg","view_history","response_type","key_press","avg_frame_time","center_x","center_y","image","word","target","valence","matchness","correct_response","correct","exp_condition"
"true","false","[]","[]","[]","preload","0","881","0.0-0.0","","","","","","","","","","","","","","","","","","","","","","","","","","","",""
"","","","","","html-keyboard-response","1","17713","0.0-1.0","16830","
     <p>您好，欢迎参加本次实验。</p>
     <p>为充分保障您的权利，请确保您已经知晓并同意《参与实验同意书》以及《数据公开知情同意书》。</p>
     <p>如果您未见过上述内容，请咨询实验员。</p>
     <p>如果您选择继续实验，则表示您已经清楚两份知情同意书的内容并同意。</p>
     <p> <div style = ""color: green""><按任意键至下页></div> </p>
     "," ","","","","","","","","","","","","","","","","","","","","","","","","",""
"","","","","","html-keyboard-response","2","18140","0.0-2.0-0.0","426","
      <p>本实验首先需要您填写一些基本个人信息。</p>
      <p> <div style = ""color: green""><按任意键至下页></div></p>
      "," ","","","","","","","","","","","","","","","","","","","","","","","","",""
"","","","","","call-function","3","18140","0.0-2.0-1.0","","","","","","","","","","","","","","","","","","","","","","","","","","","",""
"","","","","","survey-html-form","4","22298","0.0-2.0-2.0","4154","","{""Q0"":""1015""}","","","","","","","","","","","","","","","","","","","","","","","","",""
"","","","","","html-button-response","5","23369","0.0-2.0-3.0","1067","<p style = 'color : white'>您的性别</p>","0","","","","","","","","","","","","","","","","","","","","","","","","",""
"","","","","","survey-html-form","6","28426","0.0-2.0-4.0","5055","","{""Q0"":""2002""}","","","","","","","","","","","","","","","","","","","","","","","","",""
"","","","","","survey-html-form","7","30248","0.0-2.0-5.0","1817","","{""Q0"":""5""}","","","","","","","","","","","","","","","","","","","","","","","","",""
"","","","","","virtual-chinrest","8","58609","0.0-3.0","28357","","","","85.6","53.98","448.08442653903097","5.235638887635202","546.16","8.96168853078062","50","0.8346641343658086","26.36","13.08","","","","","","","","","","","","","",""
"true","","","","","fullscreen","9","60539","0.0-4.0","","","","","","","","","","","","","","","","","","","","","","","","","","","",""
"","","","","","instructions","10","65777","0.0-5.0","5234","","","","","","","","","","","","","","[{""page_index"":0,""viewing_time"":1074},{""page_index"":1,""viewing_time"":1961},{""page_index"":2,""viewing_time"":1249},{""page_index"":3,""viewing_time"":950}]","","","","","","","","","","","","",""
"","","","","","html-keyboard-response","11","69433","0.0-6.0","null","<count-down title=""""></count-down>","null","","","","","","","","","","","","","","","","","","","","","","","","",""
"","","","","","psychophysics","12","71260","0.0-7.0-0.0-0.0","659","","f","","","","","","","","","","","","","key","f","16.646564814814795","683","380","./1_3_Stimuli/C_ambi40.png","他人","Image","自我","Mismatch","f","true","Practice"
"","","","","","html-keyboard-response","13","71571","0.0-7.0-0.0-1.0","null","<span style='color:GreenYellow; font-size: 70px;'>正确! </span>","null","","","","","","","","","","","","","","","","","","","","","","","","","feedback"
"","","","","","psychophysics","14","73605","0.0-7.0-0.0-0.1","881","","j","","","","","","","","","","","","","key","j","16.64869421487602","683","380","./1_3_Stimuli/T_ambi40.png","朋友","Image","朋友","Match","j","true","Practice"
"","","","","","html-keyboard-response","15","73908","0.0-7.0-0.0-1.1","null","<span style='color:GreenYellow; font-size: 70px;'>正确! </span>","null","","","","","","","","","","","","","","","","","","","","","","","","","feedback"
"","","","","","psychophysics","16","75720","0.0-7.0-0.0-0.2","660","","f","","","","","","","","","","","","","key","f","16.649611111111206","683","380","./1_3_Stimuli/C_ambi40.png","他人","Word","自我","Mismatch","f","true","Practice"
"","","","","","html-keyboard-response","17","76035","0.0-7.0-0.0-1.2","null","<span style='color:GreenYellow; font-size: 70px;'>正确! </span>","null","","","","","","","","","","","","","","","","","","","","","","","","","feedback"
"","","","","","psychophysics","18","77770","0.0-7.0-0.0-0.3","584","","f","","","","","","","","","","","","","key","f","16.647708737864008","683","380","./1_3_Stimuli/T_ambi40.png","自我","Word","朋友","Mismatch","f","true","Practice"
"","","","","","html-keyboard-response","19","78072","0.0-7.0-0.0-1.3","null","<span style='color:GreenYellow; font-size: 70px;'>正确! </span>","null","","","","","","","","","","","","","","","","","","","","","","","","","feedback"
"","","","","","psychophysics","20","80041","0.0-7.0-0.0-0.4","809","","j","","","","","","","","","","","","","key","j","16.646393162393135","683","380","./1_3_Stimuli/S_ambi40.png","他人","Image","他人","Match","j","true","Practice"
"","","","","","html-keyboard-response","21","80345","0.0-7.0-0.0-1.4","null","<span style='color:GreenYellow; font-size: 70px;'>正确! </span>","null","","","","","","","","","","","","","","","","","","","","","","","","","feedback"
"","","","","","psychophysics","22","82075","0.0-7.0-0.0-0.5","573","","f","","","","","","","","","","","","","key","f","16.648242718446603","683","380","./1_3_Stimuli/S_ambi40.png","自我","Word","他人","Mismatch","f","true","Practice"
"","","","","","html-keyboard-response","23","82387","0.0-7.0-0.0-1.5","null","<span style='color:GreenYellow; font-size: 70px;'>正确! </span>","null","","","","","","","","","","","","","","","","","","","","","","","","","feedback"
"","","","","","psychophysics","24","84296","0.0-7.0-0.0-0.6","745","","f","","","","","","","","","","","","","key","f","16.650247787610645","683","380","./1_3_Stimuli/S_ambi40.png","自我","Image","他人","Mismatch","f","true","Practice"
"","","","","","html-keyboard-response","25","84600","0.0-7.0-0.0-1.6","null","<span style='color:GreenYellow; font-size: 70px;'>正确! </span>","null","","","","","","","","","","","","","","","","","","","","","","","","","feedback"
"","","","","","psychophysics","26","86563","0.0-7.0-0.0-0.7","799","","j","","","","","","","","","","","","","key","j","16.64849999999996","683","380","./1_3_Stimuli/T_ambi40.png","朋友","Word","朋友","Match","j","true","Practice"
"","","","","","html-keyboard-response","27","86876","0.0-7.0-0.0-1.7","null","<span style='color:GreenYellow; font-size: 70px;'>正确! </span>","null","","","","","","","","","","","","","","","","","","","","","","","","","feedback"
"","","","","","psychophysics","28","88585","0.0-7.0-0.0-0.8","557","","j","","","","","","","","","","","","","key","j","16.648803921568625","683","380","./1_3_Stimuli/C_ambi40.png","自我","Image","自我","Match","j","true","Practice"
"","","","","","html-keyboard-response","29","88888","0.0-7.0-0.0-1.8","null","<span style='color:GreenYellow; font-size: 70px;'>正确! </span>","null","","","","","","","","","","","","","","","","","","","","","","","","","feedback"
"","","","","","psychophysics","30","90605","0.0-7.0-0.0-0.9","563","","f","","","","","","","","","","","","","key","f","16.648117647058896","683","380","./1_3_Stimuli/C_ambi40.png","朋友","Image","自我","Mismatch","f","true","Practice"
"","","","","","html-keyboard-response","31","90917","0.0-7.0-0.0-1.9","null","<span style='color:GreenYellow; font-size: 70px;'>正确! </span>","null","","","","","","","","","","","","","","","","","","","","","","","","","feedback"
"","","","","","psychophysics","32","92997","0.0-7.0-0.0-0.10","922","","f","","","","","","","","","","","","","key","f","16.64771774193545","683","380","./1_3_Stimuli/T_ambi40.png","他人","Word","朋友","Mismatch","f","true","Practice"
"","","","","","html-keyboard-response","33","93301","0.0-7.0-0.0-1.10","null","<span style='color:GreenYellow; font-size: 70px;'>正确! </span>","null","","","","","","","","","","","","","","","","","","","","","","","","","feedback"
"","","","","","psychophysics","34","95032","0.0-7.0-0.0-0.11","577","","j","","","","","","","","","","","","","key","j","16.64866990291257","683","380","./1_3_Stimuli/C_ambi40.png","自我","Image","自我","Match","j","true","Practice"
"","","","","","html-keyboard-response","35","95343","0.0-7.0-0.0-1.11","null","<span style='color:GreenYellow; font-size: 70px;'>正确! </span>","null","","","","","","","","","","","","","","","","","","","","","","","","","feedback"
"","","","","","psychophysics","36","97430","0.0-7.0-0.0-0.12","934","","f","","","","","","","","","","","","","key","f","16.6490322580646","683","380","./1_3_Stimuli/S_ambi40.png","朋友","Image","他人","Mismatch","f","true","Practice"
"","","","","","html-keyboard-response","37","97746","0.0-7.0-0.0-1.12","null","<span style='color:GreenYellow; font-size: 70px;'>正确! </span>","null","","","","","","","","","","","","","","","","","","","","","","","","","feedback"
"","","","","","psychophysics","38","99462","0.0-7.0-0.0-0.13","562","","j","","","","","","","","","","","","","key","j","16.647607843137223","683","380","./1_3_Stimuli/S_ambi40.png","他人","Word","他人","Match","j","true","Practice"
"","","","","","html-keyboard-response","39","99765","0.0-7.0-0.0-1.13","null","<span style='color:GreenYellow; font-size: 70px;'>正确! </span>","null","","","","","","","","","","","","","","","","","","","","","","","","","feedback"
"","","","","","psychophysics","40","101853","0.0-7.0-0.0-0.14","931","","j","","","","","","","","","","","","","key","j","16.648919354838714","683","380","./1_3_Stimuli/T_ambi40.png","朋友","Word","朋友","Match","j","true","Practice"
"","","","","","html-keyboard-response","41","102155","0.0-7.0-0.0-1.14","null","<span style='color:GreenYellow; font-size: 70px;'>正确! </span>","null","","","","","","","","","","","","","","","","","","","","","","","","","feedback"
"","","","","","psychophysics","42","103919","0.0-7.0-0.0-0.15","612","","j","","","","","","","","","","","","","key","j","16.647838095238104","683","380","./1_3_Stimuli/C_ambi40.png","自我","Word","自我","Match","j","true","Practice"
"","","","","","html-keyboard-response","43","104230","0.0-7.0-0.0-1.15","null","<span style='color:GreenYellow; font-size: 70px;'>正确! </span>","null","","","","","","","","","","","","","","","","","","","","","","","","","feedback"
"","","","","","psychophysics","44","106072","0.0-7.0-0.0-0.16","679","","f","","","","","","","","","","","","","key","f","16.650073394495216","683","380","./1_3_Stimuli/T_ambi40.png","自我","Image","朋友","Mismatch","f","true","Practice"
"","","","","","html-keyboard-response","45","106383","0.0-7.0-0.0-1.16","null","<span style='color:GreenYellow; font-size: 70px;'>正确! </span>","null","","","","","","","","","","","","","","","","","","","","","","","","","feedback"
"","","","","","psychophysics","46","108298","0.0-7.0-0.0-0.17","758","","j","","","","","","","","","","","","","key","j","16.64750877192975","683","380","./1_3_Stimuli/T_ambi40.png","他人","Image","朋友","Mismatch","f","false","Practice"
"","","","","","html-keyboard-response","47","108601","0.0-7.0-0.0-1.17","null","<span style='color:red; font-size: 70px;'>错误! </span>","null","","","","","","","","","","","","","","","","","","","","","","","","","feedback"
"","","","","","psychophysics","48","110354","0.0-7.0-0.0-0.18","599","","f","","","","","","","","","","","","","key","f","16.650173076922957","683","380","./1_3_Stimuli/T_ambi40.png","朋友","Image","朋友","Match","j","false","Practice"
"","","","","","html-keyboard-response","49","110660","0.0-7.0-0.0-1.18","null","<span style='color:red; font-size: 70px;'>错误! </span>","null","","","","","","","","","","","","","","","","","","","","","","","","","feedback"
"","","","","","psychophysics","50","112494","0.0-7.0-0.0-0.19","678","","f","","","","","","","","","","","","","key","f","16.648559633027517","683","380","./1_3_Stimuli/C_ambi40.png","朋友","Word","自我","Mismatch","f","true","Practice"
"","","","","","html-keyboard-response","51","112807","0.0-7.0-0.0-1.19","null","<span style='color:GreenYellow; font-size: 70px;'>正确! </span>","null","","","","","","","","","","","","","","","","","","","","","","","","","feedback"
"","","","","","psychophysics","52","114523","0.0-7.0-0.0-0.20","556","","j","","","","","","","","","","","","","key","j","16.648970588235077","683","380","./1_3_Stimuli/C_ambi40.png","自我","Word","自我","Match","j","true","Practice"
"","","","","","html-keyboard-response","53","114832","0.0-7.0-0.0-1.20","null","<span style='color:GreenYellow; font-size: 70px;'>正确! </span>","null","","","","","","","","","","","","","","","","","","","","","","","","","feedback"
"","","","","","psychophysics","54","116836","0.0-7.0-0.0-0.21","837","","f","","","","","","","","","","","","","key","f","16.645386554621904","683","380","./1_3_Stimuli/S_ambi40.png","朋友","Word","他人","Mismatch","f","true","Practice"
"","","","","","html-keyboard-response","55","117142","0.0-7.0-0.0-1.21","null","<span style='color:GreenYellow; font-size: 70px;'>正确! </span>","null","","","","","","","","","","","","","","","","","","","","","","","","","feedback"
"","","","","","psychophysics","56","119068","0.0-7.0-0.0-0.22","772","","j","","","","","","","","","","","","","key","j","16.648600000000062","683","380","./1_3_Stimuli/S_ambi40.png","他人","Word","他人","Match","j","true","Practice"
"","","","","","html-keyboard-response","57","119375","0.0-7.0-0.0-1.22","null","<span style='color:GreenYellow; font-size: 70px;'>正确! </span>","null","","","","","","","","","","","","","","","","","","","","","","","","","feedback"
"","","","","","psychophysics","58","121087","0.0-7.0-0.0-0.23","561","","j","","","","","","","","","","","","","key","j","16.648539215686398","683","380","./1_3_Stimuli/S_ambi40.png","他人","Image","他人","Match","j","true","Practice"
"","","","","","html-keyboard-response","59","121395","0.0-7.0-0.0-1.23","null","<span style='color:GreenYellow; font-size: 70px;'>正确! </span>","null","","","","","","","","","","","","","","","","","","","","","","","","","feedback"
"","","","","","html-keyboard-response","60","216878","0.0-8.0","95464","<style>.context{color:white; font-size: 35px; line-height:40px}</style>                          <div><p class='context'>您正确回答了92% 的试次。</p><p class='context'>您的平均反应时为702毫秒。</p><p class='context'>恭喜您完成练习。现在请休息3~5分钟。</p><p class='context'>之后，按任意键进入正式实验。需要注意的是，正式实验将不再提供反应是否正确的反馈。</p><p class='footer' style='font-size: 35px; line-height:40px;'>请在进入正式实验实验之前将您的<span style='color: lightgreen;'>食指</span>放在电脑键盘的相应键位上进行按键。</p>"," ","","","","","","","","","","","","","","","","","","","","","","","","",""
"","","","","","psychophysics","61","218940","0.0-9.0-0.0-0.0","903","","j","","","","","","","","","","","","","key","j","16.648723577235813","659","323","./1_3_Stimuli/S_ambi40.png","自我","Word","他人","Mismatch","f","false","Formal"
"","","","","","psychophysics","62","220807","0.0-9.0-0.0-0.1","707","","f","","","","","","","","","","","","","key","f","16.64829729729739","659","323","./1_3_Stimuli/C_ambi40.png","他人","Word","自我","Mismatch","f","true","Formal"
"","","","","","psychophysics","63","222664","0.0-9.0-0.0-0.2","704","","f","","","","","","","","","","","","","key","f","16.648636363636417","659","323","./1_3_Stimuli/S_ambi40.png","他人","Word","他人","Match","j","false","Formal"
"","","","","","psychophysics","64","224340","0.0-9.0-0.0-0.3","517","","j","","","","","","","","","","","","","key","j","16.64847474747468","659","323","./1_3_Stimuli/S_ambi40.png","他人","Word","他人","Match","j","true","Formal"
"","","","","","psychophysics","65","226132","0.0-9.0-0.0-0.4","636","","f","","","","","","","","","","","","","key","f","16.648448598130756","659","323","./1_3_Stimuli/C_ambi40.png","自我","Word","自我","Match","j","false","Formal"
"","","","","","psychophysics","66","228156","0.0-9.0-0.0-0.5","870","","j","","","","","","","","","","","","","key","j","16.648516666666545","659","323","./1_3_Stimuli/S_ambi40.png","自我","Image","他人","Mismatch","f","false","Formal"
"","","","","","psychophysics","67","230042","0.0-9.0-0.0-0.6","734","","j","","","","","","","","","","","","","key","j","16.649999999999896","659","323","./1_3_Stimuli/S_ambi40.png","他人","Image","他人","Match","j","true","Formal"
"","","","","","psychophysics","68","231764","0.0-9.0-0.0-0.7","569","","f","","","","","","","","","","","","","key","f","16.64979411764715","659","323","./1_3_Stimuli/S_ambi40.png","朋友","Image","他人","Mismatch","f","true","Formal"
"","","","","","psychophysics","69","233592","0.0-9.0-0.0-0.8","673","","j","","","","","","","","","","","","","key","j","16.649633027522913","659","323","./1_3_Stimuli/T_ambi40.png","朋友","Word","朋友","Match","j","true","Formal"
"","","","","","psychophysics","70","235410","0.0-9.0-0.0-0.9","658","","f","","","","","","","","","","","","","key","f","16.647379629629775","659","323","./1_3_Stimuli/S_ambi40.png","朋友","Word","他人","Mismatch","f","true","Formal"
"","","","","","psychophysics","71","237825","0.0-9.0-0.0-0.10","1261","","j","","","","","","","","","","","","","key","j","16.64796527777758","659","323","./1_3_Stimuli/T_ambi40.png","朋友","Image","朋友","Match","j","true","Formal"
"","","","","","psychophysics","72","239734","0.0-9.0-0.0-0.11","755","","f","","","","","","","","","","","","","key","f","16.64971929824535","659","323","./1_3_Stimuli/T_ambi40.png","自我","Word","朋友","Mismatch","f","true","Formal"
"","","","","","psychophysics","73","241581","0.0-9.0-0.0-0.12","696","","j","","","","","","","","","","","","","key","j","16.648590909091183","659","323","./1_3_Stimuli/C_ambi40.png","他人","Image","自我","Mismatch","f","false","Formal"
"","","","","","psychophysics","74","243165","0.0-9.0-0.0-0.13","424","","f","","","","","","","","","","","","","key","f","16.64819148936163","659","323","./1_3_Stimuli/T_ambi40.png","朋友","Image","朋友","Match","j","false","Formal"
"","","","","","psychophysics","75","245087","0.0-9.0-0.0-0.14","769","","j","","","","","","","","","","","","","key","j","16.64873684210531","659","323","./1_3_Stimuli/T_ambi40.png","朋友","Word","朋友","Match","j","true","Formal"
"","","","","","psychophysics","76","246909","0.0-9.0-0.0-0.15","670","","f","","","","","","","","","","","","","key","f","16.648137614678873","659","323","./1_3_Stimuli/T_ambi40.png","自我","Image","朋友","Mismatch","f","true","Formal"
"","","","","","psychophysics","77","248690","0.0-9.0-0.0-0.16","628","","j","","","","","","","","","","","","","key","j","16.64804716981104","659","323","./1_3_Stimuli/T_ambi40.png","他人","Word","朋友","Mismatch","f","false","Formal"
"","","","","","psychophysics","78","250528","0.0-9.0-0.0-0.17","686","","j","","","","","","","","","","","","","key","j","16.647119266054712","659","323","./1_3_Stimuli/T_ambi40.png","他人","Image","朋友","Mismatch","f","false","Formal"
"","","","","","psychophysics","79","252254","0.0-9.0-0.0-0.18","572","","f","","","","","","","","","","","","","key","f","16.64719417475693","659","323","./1_3_Stimuli/C_ambi40.png","朋友","Word","自我","Mismatch","f","true","Formal"
"","","","","","psychophysics","80","254057","0.0-9.0-0.0-0.19","644","","j","","","","","","","","","","","","","key","j","16.649383177570062","659","323","./1_3_Stimuli/C_ambi40.png","自我","Image","自我","Match","j","true","Formal"
"","","","","","psychophysics","81","256035","0.0-9.0-0.0-0.20","824","","j","","","","","","","","","","","","","key","j","16.646811965811683","659","323","./1_3_Stimuli/S_ambi40.png","他人","Image","他人","Match","j","true","Formal"
"","","","","","psychophysics","82","258210","0.0-9.0-0.0-0.21","1017","","f","","","","","","","","","","","","","key","f","16.649620155038587","659","323","./1_3_Stimuli/C_ambi40.png","朋友","Image","自我","Mismatch","f","true","Formal"
"","","","","","psychophysics","83","259943","0.0-9.0-0.0-0.22","576","","j","","","","","","","","","","","","","key","j","16.65036893203895","659","323","./1_3_Stimuli/C_ambi40.png","自我","Image","自我","Match","j","true","Formal"
"","","","","","psychophysics","84","261868","0.0-9.0-0.0-0.23","765","","j","","","","","","","","","","","","","key","j","16.648535087719466","659","323","./1_3_Stimuli/C_ambi40.png","自我","Word","自我","Match","j","true","Formal"
"","","","","","psychophysics","85","263492","0.0-9.0-0.0-0.24","464","","f","","","","","","","","","","","","","key","f","16.648343749999793","659","323","./1_3_Stimuli/T_ambi40.png","朋友","Image","朋友","Match","j","false","Formal"
"","","","","","psychophysics","86","265694","0.0-9.0-0.0-0.25","1043","","f","","","","","","","","","","","","","key","f","16.647343511450572","659","323","./1_3_Stimuli/T_ambi40.png","他人","Image","朋友","Mismatch","f","true","Formal"
"","","","","","psychophysics","87","267726","0.0-9.0-0.0-0.26","876","","j","","","","","","","","","","","","","key","j","16.650016528925637","659","323","./1_3_Stimuli/S_ambi40.png","他人","Word","他人","Match","j","true","Formal"
"","","","","","psychophysics","88","269541","0.0-9.0-0.0-0.27","663","","j","","","","","","","","","","","","","key","j","16.647289719626254","659","323","./1_3_Stimuli/C_ambi40.png","自我","Word","自我","Match","j","true","Formal"
"","","","","","psychophysics","89","271323","0.0-9.0-0.0-0.28","626","","f","","","","","","","","","","","","","key","f","16.648509433961973","659","323","./1_3_Stimuli/S_ambi40.png","他人","Word","他人","Match","j","false","Formal"
"","","","","","psychophysics","90","273230","0.0-9.0-0.0-0.29","755","","f","","","","","","","","","","","","","key","f","16.64714035087698","659","323","./1_3_Stimuli/S_ambi40.png","朋友","Image","他人","Mismatch","f","true","Formal"
"","","","","","psychophysics","91","275400","0.0-9.0-0.0-0.30","1007","","j","","","","","","","","","","","","","key","j","16.64817054263567","659","323","./1_3_Stimuli/T_ambi40.png","朋友","Image","朋友","Match","j","true","Formal"
"","","","","","psychophysics","92","278033","0.0-9.0-0.0-0.31","1477","","j","","","","","","","","","","","","","key","j","16.64861146496812","659","323","./1_3_Stimuli/T_ambi40.png","朋友","Word","朋友","Match","j","true","Formal"
"","","","","","psychophysics","93","279825","0.0-9.0-0.0-0.32","639","","f","","","","","","","","","","","","","key","f","16.649794392523283","659","323","./1_3_Stimuli/T_ambi40.png","自我","Image","朋友","Mismatch","f","true","Formal"
"","","","","","psychophysics","94","281630","0.0-9.0-0.0-0.33","647","","j","","","","","","","","","","","","","key","j","16.648504672896784","659","323","./1_3_Stimuli/C_ambi40.png","朋友","Word","自我","Mismatch","f","false","Formal"
"","","","","","psychophysics","95","283395","0.0-9.0-0.0-0.34","614","","j","","","","","","","","","","","","","key","j","16.648711538461683","659","323","./1_3_Stimuli/C_ambi40.png","自我","Word","自我","Match","j","true","Formal"
"","","","","","psychophysics","96","285683","0.0-9.0-0.0-0.35","1135","","f","","","","","","","","","","","","","key","f","16.648316176470818","659","323","./1_3_Stimuli/S_ambi40.png","他人","Image","他人","Match","j","false","Formal"
"","","","","","psychophysics","97","287565","0.0-9.0-0.0-0.36","727","","j","","","","","","","","","","","","","key","j","16.648464285714","659","323","./1_3_Stimuli/T_ambi40.png","他人","Word","朋友","Mismatch","f","false","Formal"
"","","","","","psychophysics","98","289662","0.0-9.0-0.0-0.37","939","","f","","","","","","","","","","","","","key","f","16.648432000000028","659","323","./1_3_Stimuli/C_ambi40.png","他人","Image","自我","Mismatch","f","true","Formal"
"","","","","","psychophysics","99","291548","0.0-9.0-0.0-0.38","726","","f","","","","","","","","","","","","","key","f","16.64837499999963","659","323","./1_3_Stimuli/C_ambi40.png","他人","Word","自我","Mismatch","f","true","Formal"
"","","","","","psychophysics","100","293322","0.0-9.0-0.0-0.39","618","","j","","","","","","","","","","","","","key","j","16.6504857142855","659","323","./1_3_Stimuli/T_ambi40.png","朋友","Word","朋友","Match","j","true","Formal"
"","","","","","psychophysics","101","295674","0.0-9.0-0.0-0.40","1201","","f","","","","","","","","","","","","","key","f","16.649328571428693","659","323","./1_3_Stimuli/S_ambi40.png","朋友","Word","他人","Mismatch","f","true","Formal"
"","","","","","psychophysics","102","297334","0.0-9.0-0.0-0.41","502","","j","","","","","","","","","","","","","key","j","16.648587628865982","659","323","./1_3_Stimuli/C_ambi40.png","自我","Image","自我","Match","j","true","Formal"
"","","","","","psychophysics","103","299910","0.0-9.0-0.0-0.42","1419","","f","","","","","","","","","","","","","key","f","16.64757516339887","659","323","./1_3_Stimuli/S_ambi40.png","他人","Image","他人","Match","j","false","Formal"
"","","","","","psychophysics","104","301536","0.0-9.0-0.0-0.43","475","","j","","","","","","","","","","","","","key","j","16.648536082474184","659","323","./1_3_Stimuli/C_ambi40.png","自我","Image","自我","Match","j","true","Formal"
"","","","","","psychophysics","105","303349","0.0-9.0-0.0-0.44","656","","f","","","","","","","","","","","","","key","f","16.648416666667025","659","323","./1_3_Stimuli/C_ambi40.png","朋友","Image","自我","Mismatch","f","true","Formal"
"","","","","","psychophysics","106","305235","0.0-9.0-0.0-0.45","728","","j","","","","","","","","","","","","","key","j","16.647517857142834","659","323","./1_3_Stimuli/T_ambi40.png","自我","Word","朋友","Mismatch","f","false","Formal"
"","","","","","psychophysics","107","307234","0.0-9.0-0.0-0.46","845","","f","","","","","","","","","","","","","key","f","16.648470588235337","659","323","./1_3_Stimuli/S_ambi40.png","自我","Image","他人","Mismatch","f","true","Formal"
"","","","","","psychophysics","108","309133","0.0-9.0-0.0-0.47","746","","f","","","","","","","","","","","","","key","f","16.64851327433634","659","323","./1_3_Stimuli/S_ambi40.png","自我","Word","他人","Mismatch","f","true","Formal"
"","","","","","psychophysics","109","310789","0.0-9.0-0.0-0.48","503","","j","","","","","","","","","","","","","key","j","16.649755102041183","659","323","./1_3_Stimuli/C_ambi40.png","自我","Image","自我","Match","j","true","Formal"
"","","","","","psychophysics","110","312558","0.0-9.0-0.0-0.49","607","","f","","","","","","","","","","","","","key","f","16.648409523809374","659","323","./1_3_Stimuli/T_ambi40.png","他人","Word","朋友","Mismatch","f","true","Formal"
"","","","","","psychophysics","111","314391","0.0-9.0-0.0-0.50","675","","j","","","","","","","","","","","","","key","j","16.650229357798164","659","323","./1_3_Stimuli/S_ambi40.png","他人","Image","他人","Match","j","true","Formal"
"","","","","","psychophysics","112","316383","0.0-9.0-0.0-0.51","840","","j","","","","","","","","","","","","","key","j","16.648537815126353","659","323","./1_3_Stimuli/T_ambi40.png","朋友","Image","朋友","Match","j","true","Formal"
"","","","","","psychophysics","113","318238","0.0-9.0-0.0-0.52","698","","f","","","","","","","","","","","","","key","f","16.647554545454806","659","323","./1_3_Stimuli/T_ambi40.png","自我","Word","朋友","Mismatch","f","true","Formal"
"","","","","","psychophysics","114","320096","0.0-9.0-0.0-0.53","704","","f","","","","","","","","","","","","","key","f","16.647135135135088","659","323","./1_3_Stimuli/C_ambi40.png","朋友","Image","自我","Mismatch","f","true","Formal"
"","","","","","psychophysics","115","322234","0.0-9.0-0.0-0.54","976","","f","","","","","","","","","","","","","key","f","16.648779527559203","659","323","./1_3_Stimuli/C_ambi40.png","他人","Word","自我","Mismatch","f","true","Formal"
"","","","","","psychophysics","116","324091","0.0-9.0-0.0-0.55","704","","j","","","","","","","","","","","","","key","j","16.64560000000003","659","323","./1_3_Stimuli/S_ambi40.png","他人","Image","他人","Match","j","true","Formal"
"","","","","","psychophysics","117","326164","0.0-9.0-0.0-0.56","913","","j","","","","","","","","","","","","","key","j","16.647130081300887","659","323","./1_3_Stimuli/T_ambi40.png","朋友","Word","朋友","Match","j","true","Formal"
"","","","","","psychophysics","118","327857","0.0-9.0-0.0-0.57","540","","f","","","","","","","","","","","","","key","f","16.648376237623516","659","323","./1_3_Stimuli/C_ambi40.png","他人","Image","自我","Mismatch","f","true","Formal"
"","","","","","psychophysics","119","330451","0.0-9.0-0.0-0.58","1437","","j","","","","","","","","","","","","","key","j","16.648516129032377","659","323","./1_3_Stimuli/S_ambi40.png","他人","Word","他人","Match","j","true","Formal"
"","","","","","psychophysics","120","332298","0.0-9.0-0.0-0.59","693","","f","","","","","","","","","","","","","key","f","16.64704545454588","659","323","./1_3_Stimuli/T_ambi40.png","自我","Image","朋友","Mismatch","f","true","Formal"
"","","","","","psychophysics","121","334143","0.0-9.0-0.0-0.60","684","","j","","","","","","","","","","","","","key","j","16.648495412843918","659","323","./1_3_Stimuli/T_ambi40.png","朋友","Image","朋友","Match","j","true","Formal"
"","","","","","psychophysics","122","335949","0.0-9.0-0.0-0.61","644","","j","","","","","","","","","","","","","key","j","16.650093457943903","659","323","./1_3_Stimuli/C_ambi40.png","自我","Word","自我","Match","j","true","Formal"
"","","","","","psychophysics","123","338381","0.0-9.0-0.0-0.62","1276","","f","","","","","","","","","","","","","key","f","16.64846527777748","659","323","./1_3_Stimuli/S_ambi40.png","朋友","Image","他人","Mismatch","f","true","Formal"
"","","","","","psychophysics","124","340753","0.0-9.0-0.0-0.63","1219","","f","","","","","","","","","","","","","key","f","16.648147887324022","659","323","./1_3_Stimuli/C_ambi40.png","朋友","Word","自我","Mismatch","f","true","Formal"
"","","","","","psychophysics","125","343406","0.0-9.0-0.0-0.64","1492","","f","","","","","","","","","","","","","key","f","16.648487341771848","659","323","./1_3_Stimuli/S_ambi40.png","自我","Word","他人","Mismatch","f","true","Formal"
"","","","","","psychophysics","126","345191","0.0-9.0-0.0-0.65","627","","j","","","","","","","","","","","","","key","j","16.649471698113047","659","323","./1_3_Stimuli/C_ambi40.png","自我","Image","自我","Match","j","true","Formal"
"","","","","","psychophysics","127","347615","0.0-9.0-0.0-0.66","1270","","f","","","","","","","","","","","","","key","f","16.648268965517314","659","323","./1_3_Stimuli/S_ambi40.png","朋友","Word","他人","Mismatch","f","true","Formal"
"","","","","","psychophysics","128","349330","0.0-9.0-0.0-0.67","558","","j","","","","","","","","","","","","","key","j","16.648843137254623","659","323","./1_3_Stimuli/C_ambi40.png","自我","Word","自我","Match","j","true","Formal"
"","","","","","psychophysics","129","351784","0.0-9.0-0.0-0.68","1293","","f","","","","","","","","","","","","","key","f","16.648623287671384","659","323","./1_3_Stimuli/S_ambi40.png","自我","Image","他人","Mismatch","f","true","Formal"
"","","","","","psychophysics","130","353767","0.0-9.0-0.0-0.69","830","","j","","","","","","","","","","","","","key","j","16.648350427350085","659","323","./1_3_Stimuli/S_ambi40.png","他人","Word","他人","Match","j","true","Formal"
"","","","","","psychophysics","131","355656","0.0-9.0-0.0-0.70","737","","f","","","","","","","","","","","","","key","f","16.648159292035125","659","323","./1_3_Stimuli/T_ambi40.png","他人","Image","朋友","Mismatch","f","true","Formal"
"","","","","","psychophysics","132","357642","0.0-9.0-0.0-0.71","825","","j","","","","","","","","","","","","","key","j","16.648127118644002","659","323","./1_3_Stimuli/T_ambi40.png","朋友","Word","朋友","Match","j","true","Formal"
"","","","","","psychophysics","133","359576","0.0-9.0-0.0-0.72","778","","f","","","","","","","","","","","","","key","f","16.647904347826262","659","323","./1_3_Stimuli/S_ambi40.png","朋友","Image","他人","Mismatch","f","true","Formal"
"","","","","","psychophysics","134","361501","0.0-9.0-0.0-0.73","771","","j","","","","","","","","","","","","","key","j","16.647930434782502","659","323","./1_3_Stimuli/T_ambi40.png","朋友","Image","朋友","Match","j","true","Formal"
"","","","","","psychophysics","135","363256","0.0-9.0-0.0-0.74","596","","j","","","","","","","","","","","","","key","j","16.648105769231243","659","323","./1_3_Stimuli/C_ambi40.png","自我","Word","自我","Match","j","true","Formal"
"","","","","","psychophysics","136","365124","0.0-9.0-0.0-0.75","714","","j","","","","","","","","","","","","","key","j","16.649702702702427","659","323","./1_3_Stimuli/S_ambi40.png","他人","Image","他人","Match","j","true","Formal"
"","","","","","psychophysics","137","366953","0.0-9.0-0.0-0.76","670","","j","","","","","","","","","","","","","key","j","16.64879629629636","659","323","./1_3_Stimuli/T_ambi40.png","朋友","Image","朋友","Match","j","true","Formal"
"","","","","","psychophysics","138","368688","0.0-9.0-0.0-0.77","583","","j","","","","","","","","","","","","","key","j","16.648543689320274","659","323","./1_3_Stimuli/C_ambi40.png","自我","Word","自我","Match","j","true","Formal"
"","","","","","psychophysics","139","370437","0.0-9.0-0.0-0.78","587","","j","","","","","","","","","","","","","key","j","16.649592233009667","659","323","./1_3_Stimuli/T_ambi40.png","自我","Word","朋友","Mismatch","f","false","Formal"
"","","","","","psychophysics","140","372374","0.0-9.0-0.0-0.79","776","","f","","","","","","","","","","","","","key","f","16.648643478261224","659","323","./1_3_Stimuli/C_ambi40.png","他人","Image","自我","Mismatch","f","true","Formal"
"","","","","","psychophysics","141","374262","0.0-9.0-0.0-0.80","734","","f","","","","","","","","","","","","","key","f","16.648455357142666","659","323","./1_3_Stimuli/C_ambi40.png","他人","Word","自我","Mismatch","f","true","Formal"
"","","","","","psychophysics","142","376051","0.0-9.0-0.0-0.81","637","","j","","","","","","","","","","","","","key","j","16.64978301886827","659","323","./1_3_Stimuli/T_ambi40.png","朋友","Word","朋友","Match","j","true","Formal"
"","","","","","psychophysics","143","378098","0.0-9.0-0.0-0.82","892","","f","","","","","","","","","","","","","key","f","16.6469262295081","659","323","./1_3_Stimuli/S_ambi40.png","他人","Image","他人","Match","j","false","Formal"
"","","","","","psychophysics","144","379767","0.0-9.0-0.0-0.83","515","","j","","","","","","","","","","","","","key","j","16.648292929293337","659","323","./1_3_Stimuli/C_ambi40.png","自我","Image","自我","Match","j","true","Formal"
"","","","","","psychophysics","145","381582","0.0-9.0-0.0-0.84","662","","j","","","","","","","","","","","","","key","j","16.648277777777466","659","323","./1_3_Stimuli/S_ambi40.png","他人","Word","他人","Match","j","true","Formal"
"","","","","","psychophysics","146","383409","0.0-9.0-0.0-0.85","671","","f","","","","","","","","","","","","","key","f","16.64881651376165","659","323","./1_3_Stimuli/T_ambi40.png","他人","Image","朋友","Mismatch","f","true","Formal"
"","","","","","psychophysics","147","385217","0.0-9.0-0.0-0.86","652","","f","","","","","","","","","","","","","key","f","16.64978504672899","659","323","./1_3_Stimuli/S_ambi40.png","自我","Word","他人","Mismatch","f","true","Formal"
"","","","","","psychophysics","148","386964","0.0-9.0-0.0-0.87","595","","j","","","","","","","","","","","","","key","j","16.648451923077047","659","323","./1_3_Stimuli/C_ambi40.png","朋友","Image","自我","Mismatch","f","false","Formal"
"","","","","","psychophysics","149","389667","0.0-9.0-0.0-0.88","null","","null","","","","","","","","","","","","","key","null","16.648370370370504","659","323","./1_3_Stimuli/T_ambi40.png","朋友","Word","朋友","Match","j","false","Formal"
"","","","","","psychophysics","150","391557","0.0-9.0-0.0-0.89","732","","f","","","","","","","","","","","","","key","f","16.648410714285482","659","323","./1_3_Stimuli/C_ambi40.png","朋友","Word","自我","Mismatch","f","true","Formal"
"","","","","","psychophysics","151","393721","0.0-9.0-0.0-0.90","1008","","f","","","","","","","","","","","","","key","f","16.648054687500007","659","323","./1_3_Stimuli/S_ambi40.png","朋友","Word","他人","Mismatch","f","true","Formal"
"","","","","","psychophysics","152","395619","0.0-9.0-0.0-0.91","742","","f","","","","","","","","","","","","","key","f","16.649991150442162","659","323","./1_3_Stimuli/T_ambi40.png","自我","Image","朋友","Mismatch","f","true","Formal"
"","","","","","psychophysics","153","397302","0.0-9.0-0.0-0.92","529","","j","","","","","","","","","","","","","key","j","16.64839000000036","659","323","./1_3_Stimuli/C_ambi40.png","自我","Image","自我","Match","j","true","Formal"
"","","","","","psychophysics","154","399176","0.0-9.0-0.0-0.93","718","","f","","","","","","","","","","","","","key","f","16.648392857142817","659","323","./1_3_Stimuli/S_ambi40.png","自我","Image","他人","Mismatch","f","true","Formal"
"","","","","","psychophysics","155","401883","0.0-9.0-0.0-0.94","null","","null","","","","","","","","","","","","","key","null","16.647534161490483","659","323","./1_3_Stimuli/T_ambi40.png","他人","Word","朋友","Mismatch","f","false","Formal"
"","","","","","psychophysics","156","403890","0.0-9.0-0.0-0.95","851","","j","","","","","","","","","","","","","key","j","16.648361344537562","659","323","./1_3_Stimuli/S_ambi40.png","他人","Word","他人","Match","j","true","Formal"
"","","","","","psychophysics","157","406293","0.0-9.0-0.0-0.96","1246","","j","","","","","","","","","","","","","key","j","16.648839160839056","659","323","./1_3_Stimuli/C_ambi40.png","自我","Word","自我","Match","j","true","Formal"
"","","","","","psychophysics","158","407967","0.0-9.0-0.0-0.97","522","","j","","","","","","","","","","","","","key","j","16.64878787878828","659","323","./1_3_Stimuli/C_ambi40.png","自我","Word","自我","Match","j","true","Formal"
"","","","","","psychophysics","159","409952","0.0-9.0-0.0-0.98","833","","f","","","","","","","","","","","","","key","f","16.64960169491518","659","323","./1_3_Stimuli/T_ambi40.png","他人","Word","朋友","Mismatch","f","true","Formal"
"","","","","","psychophysics","160","411777","0.0-9.0-0.0-0.99","669","","f","","","","","","","","","","","","","key","f","16.648660550458963","659","323","./1_3_Stimuli/T_ambi40.png","他人","Image","朋友","Mismatch","f","true","Formal"
"","","","","","psychophysics","161","413665","0.0-9.0-0.0-0.100","730","","f","","","","","","","","","","","","","key","f","16.647857142857124","659","323","./1_3_Stimuli/S_ambi40.png","自我","Word","他人","Mismatch","f","true","Formal"
"","","","","","psychophysics","162","415676","0.0-9.0-0.0-0.101","857","","f","","","","","","","","","","","","","key","f","16.649874999999884","659","323","./1_3_Stimuli/S_ambi40.png","朋友","Image","他人","Mismatch","f","true","Formal"
"","","","","","psychophysics","163","417645","0.0-9.0-0.0-0.102","809","","f","","","","","","","","","","","","","key","f","16.647273504273752","659","323","./1_3_Stimuli/C_ambi40.png","朋友","Word","自我","Mismatch","f","true","Formal"
"","","","","","psychophysics","164","419570","0.0-9.0-0.0-0.103","771","","f","","","","","","","","","","","","","key","f","16.648252173913036","659","323","./1_3_Stimuli/T_ambi40.png","自我","Image","朋友","Mismatch","f","true","Formal"
"","","","","","psychophysics","165","422280","0.0-9.0-0.0-0.104","null","","null","","","","","","","","","","","","","key","null","16.647543209876556","659","323","./1_3_Stimuli/C_ambi40.png","朋友","Image","自我","Mismatch","f","false","Formal"
"","","","","","psychophysics","166","424156","0.0-9.0-0.0-0.105","716","","j","","","","","","","","","","","","","key","j","16.648657657657562","659","323","./1_3_Stimuli/S_ambi40.png","他人","Word","他人","Match","j","true","Formal"
"","","","","","psychophysics","167","425977","0.0-9.0-0.0-0.106","666","","f","","","","","","","","","","","","","key","f","16.64866666666704","659","323","./1_3_Stimuli/T_ambi40.png","朋友","Image","朋友","Match","j","false","Formal"
"","","","","","psychophysics","168","428387","0.0-9.0-0.0-0.107","1258","","j","","","","","","","","","","","","","key","j","16.64824475524491","659","323","./1_3_Stimuli/T_ambi40.png","朋友","Word","朋友","Match","j","true","Formal"
"","","","","","psychophysics","169","430227","0.0-9.0-0.0-0.108","689","","j","","","","","","","","","","","","","key","j","16.64817431192672","659","323","./1_3_Stimuli/T_ambi40.png","朋友","Word","朋友","Match","j","true","Formal"
"","","","","","psychophysics","170","431973","0.0-9.0-0.0-0.109","593","","j","","","","","","","","","","","","","key","j","16.648394230769416","659","323","./1_3_Stimuli/C_ambi40.png","自我","Image","自我","Match","j","true","Formal"
"","","","","","psychophysics","171","433645","0.0-9.0-0.0-0.110","521","","j","","","","","","","","","","","","","key","j","16.647171717171787","659","323","./1_3_Stimuli/C_ambi40.png","自我","Image","自我","Match","j","true","Formal"
"","","","","","psychophysics","172","435676","0.0-9.0-0.0-0.111","878","","j","","","","","","","","","","","","","key","j","16.64964999999987","659","323","./1_3_Stimuli/T_ambi40.png","朋友","Image","朋友","Match","j","true","Formal"
"","","","","","psychophysics","173","437943","0.0-9.0-0.0-0.112","1114","","f","","","","","","","","","","","","","key","f","16.648177777777892","659","323","./1_3_Stimuli/C_ambi40.png","他人","Image","自我","Mismatch","f","true","Formal"
"","","","","","psychophysics","174","440331","0.0-9.0-0.0-0.113","1238","","f","","","","","","","","","","","","","key","f","16.648447552447166","659","323","./1_3_Stimuli/S_ambi40.png","朋友","Word","他人","Mismatch","f","true","Formal"
"","","","","","psychophysics","175","442533","0.0-9.0-0.0-0.114","1048","","j","","","","","","","","","","","","","key","j","16.648091603053167","659","323","./1_3_Stimuli/S_ambi40.png","他人","Image","他人","Match","j","true","Formal"
"","","","","","psychophysics","176","444179","0.0-9.0-0.0-0.115","491","","j","","","","","","","","","","","","","key","j","16.646704081632436","659","323","./1_3_Stimuli/S_ambi40.png","他人","Image","他人","Match","j","true","Formal"
"","","","","","psychophysics","177","446298","0.0-9.0-0.0-0.116","964","","f","","","","","","","","","","","","","key","f","16.64730952380942","659","323","./1_3_Stimuli/S_ambi40.png","自我","Image","他人","Mismatch","f","true","Formal"
"","","","","","psychophysics","178","448125","0.0-9.0-0.0-0.117","672","","j","","","","","","","","","","","","","key","j","16.648321100917578","659","323","./1_3_Stimuli/S_ambi40.png","他人","Word","他人","Match","j","true","Formal"
"","","","","","psychophysics","179","450042","0.0-9.0-0.0-0.118","759","","f","","","","","","","","","","","","","key","f","16.646929203539848","659","323","./1_3_Stimuli/C_ambi40.png","他人","Word","自我","Mismatch","f","true","Formal"
"","","","","","psychophysics","180","452067","0.0-9.0-0.0-0.119","869","","f","","","","","","","","","","","","","key","f","16.64922314049572","659","323","./1_3_Stimuli/T_ambi40.png","自我","Word","朋友","Mismatch","f","true","Formal"
"","","","","","html-keyboard-response","181","464022","0.0-9.0-1.0","11954","<style>.context{color:white; font-size: 35px; line-height:40px}</style>                        <div><p class='context'>您正确回答了82% 的试次。</p><p class='context'>您的平均反应时为794毫秒。</p><p> <div style = 'color: green'><按任意键进入休息></div></p>"," ","","","","","","","","","","","","","","","","","","","","","","","","",""
"","","","","","html-button-response","182","513230","0.0-9.0-2.0","49202","
                  <p>您当前还剩余5组实验</p>
                  <p>现在是休息时间，当您结束休息后，您可以点击 结束休息 按钮 继续</p>
                  <p>建议休息时间还剩余<span id=""iii"">60</span>秒</p>","0","","","","","","","","","","","","","","","","","","","","","","","","",""
"","","","","","psychophysics","183","515464","0.0-9.0-0.1-0.120","1071","","f","","","","","","","","","","","","","key","f","16.649601503759378","659","323","./1_3_Stimuli/S_ambi40.png","自我","Image","他人","Mismatch","f","true","Formal"
"","","","","","psychophysics","184","517333","0.0-9.0-0.1-0.121","711","","f","","","","","","","","","","","","","key","f","16.649459459460214","659","323","./1_3_Stimuli/C_ambi40.png","他人","Word","自我","Mismatch","f","true","Formal"
"","","","","","psychophysics","185","519978","0.0-9.0-0.1-0.122","1490","","j","","","","","","","","","","","","","key","j","16.647537974683463","659","323","./1_3_Stimuli/S_ambi40.png","朋友","Word","他人","Mismatch","f","false","Formal"
"","","","","","psychophysics","186","521858","0.0-9.0-0.1-0.123","722","","f","","","","","","","","","","","","","key","f","16.648232142857783","659","323","./1_3_Stimuli/S_ambi40.png","朋友","Image","他人","Mismatch","f","true","Formal"
"","","","","","psychophysics","187","523578","0.0-9.0-0.1-0.124","562","","f","","","","","","","","","","","","","key","f","16.648147058822715","659","323","./1_3_Stimuli/S_ambi40.png","自我","Word","他人","Mismatch","f","true","Formal"
"","","","","","psychophysics","188","525767","0.0-9.0-0.1-0.125","1036","","j","","","","","","","","","","","","","key","j","16.6474923076923","659","323","./1_3_Stimuli/T_ambi40.png","朋友","Word","朋友","Match","j","true","Formal"
"","","","","","psychophysics","189","527624","0.0-9.0-0.1-0.126","696","","j","","","","","","","","","","","","","key","j","16.649654545454013","659","323","./1_3_Stimuli/T_ambi40.png","朋友","Image","朋友","Match","j","true","Formal"
"","","","","","psychophysics","190","529392","0.0-9.0-0.1-0.127","615","","j","","","","","","","","","","","","","key","j","16.648685714285378","659","323","./1_3_Stimuli/C_ambi40.png","自我","Word","自我","Match","j","true","Formal"
"","","","","","psychophysics","191","531285","0.0-9.0-0.1-0.128","739","","f","","","","","","","","","","","","","key","f","16.64853571428518","659","323","./1_3_Stimuli/C_ambi40.png","他人","Image","自我","Mismatch","f","true","Formal"
"","","","","","psychophysics","192","533553","0.0-9.0-0.1-0.129","1113","","f","","","","","","","","","","","","","key","f","16.64856296296283","659","323","./1_3_Stimuli/T_ambi40.png","自我","Image","朋友","Mismatch","f","true","Formal"
"","","","","","psychophysics","193","535304","0.0-9.0-0.1-0.130","600","","j","","","","","","","","","","","","","key","j","16.64833653846178","659","323","./1_3_Stimuli/C_ambi40.png","朋友","Word","自我","Mismatch","f","false","Formal"
"","","","","","psychophysics","194","537524","0.0-9.0-0.1-0.131","1062","","j","","","","","","","","","","","","","key","j","16.647333333333144","659","323","./1_3_Stimuli/S_ambi40.png","他人","Image","他人","Match","j","true","Formal"
"","","","","","psychophysics","195","539320","0.0-9.0-0.1-0.132","636","","j","","","","","","","","","","","","","key","j","16.647710280374312","659","323","./1_3_Stimuli/C_ambi40.png","自我","Image","自我","Match","j","true","Formal"
"","","","","","psychophysics","196","541307","0.0-9.0-0.1-0.133","827","","f","","","","","","","","","","","","","key","f","17.5582053571426","659","323","./1_3_Stimuli/T_ambi40.png","朋友","Image","朋友","Match","j","false","Formal"
"","","","","","psychophysics","197","543557","0.0-9.0-0.1-0.134","1095","","j","","","","","","","","","","","","","key","j","16.646037313432966","659","323","./1_3_Stimuli/T_ambi40.png","朋友","Word","朋友","Match","j","true","Formal"
"","","","","","psychophysics","198","545245","0.0-9.0-0.1-0.135","535","","f","","","","","","","","","","","","","key","f","16.64900990099056","659","323","./1_3_Stimuli/T_ambi40.png","他人","Image","朋友","Mismatch","f","true","Formal"
"","","","","","psychophysics","199","547029","0.0-9.0-0.1-0.136","631","","f","","","","","","","","","","","","","key","f","16.646311320755455","659","323","./1_3_Stimuli/T_ambi40.png","自我","Word","朋友","Mismatch","f","true","Formal"
"","","","","","psychophysics","200","548944","0.0-9.0-0.1-0.137","755","","j","","","","","","","","","","","","","key","j","16.646956140351104","659","323","./1_3_Stimuli/S_ambi40.png","他人","Word","他人","Match","j","true","Formal"
"","","","","","psychophysics","201","550674","0.0-9.0-0.1-0.138","570","","f","","","","","","","","","","","","","key","f","16.64780582524316","659","323","./1_3_Stimuli/T_ambi40.png","他人","Word","朋友","Mismatch","f","true","Formal"
"","","","","","psychophysics","202","553033","0.0-9.0-0.1-0.139","1198","","j","","","","","","","","","","","","","key","j","16.649257142856783","659","323","./1_3_Stimuli/S_ambi40.png","他人","Word","他人","Match","j","true","Formal"
"","","","","","psychophysics","203","555560","0.0-9.0-0.1-0.140","1361","","f","","","","","","","","","","","","","key","f","16.648166666666512","659","323","./1_3_Stimuli/C_ambi40.png","朋友","Image","自我","Mismatch","f","true","Formal"
"","","","","","psychophysics","204","557523","0.0-9.0-0.1-0.141","811","","j","","","","","","","","","","","","","key","j","16.649786324785527","659","323","./1_3_Stimuli/S_ambi40.png","他人","Image","他人","Match","j","true","Formal"
"","","","","","psychophysics","205","559366","0.0-9.0-0.1-0.142","692","","j","","","","","","","","","","","","","key","j","16.646745454545385","659","323","./1_3_Stimuli/C_ambi40.png","自我","Word","自我","Match","j","true","Formal"
"","","","","","psychophysics","206","561126","0.0-9.0-0.1-0.143","600","","j","","","","","","","","","","","","","key","j","16.647019047619377","659","323","./1_3_Stimuli/C_ambi40.png","自我","Image","自我","Match","j","true","Formal"
"","","","","","psychophysics","207","562951","0.0-9.0-0.1-0.144","673","","f","","","","","","","","","","","","","key","f","16.648064814815168","659","323","./1_3_Stimuli/S_ambi40.png","自我","Image","他人","Mismatch","f","true","Formal"
"","","","","","psychophysics","208","565195","0.0-9.0-0.1-0.145","1089","","f","","","","","","","","","","","","","key","f","16.649723880596756","659","323","./1_3_Stimuli/C_ambi40.png","他人","Image","自我","Mismatch","f","true","Formal"
"","","","","","psychophysics","209","567175","0.0-9.0-0.1-0.146","822","","j","","","","","","","","","","","","","key","j","16.649401709402547","659","323","./1_3_Stimuli/T_ambi40.png","朋友","Image","朋友","Match","j","true","Formal"
"","","","","","psychophysics","210","568910","0.0-9.0-0.1-0.147","581","","f","","","","","","","","","","","","","key","f","16.648135922329264","659","323","./1_3_Stimuli/C_ambi40.png","朋友","Word","自我","Mismatch","f","true","Formal"
"","","","","","psychophysics","211","571028","0.0-9.0-0.1-0.148","963","","f","","","","","","","","","","","","","key","f","16.64861111111185","659","323","./1_3_Stimuli/S_ambi40.png","朋友","Image","他人","Mismatch","f","true","Formal"
"","","","","","psychophysics","212","572753","0.0-9.0-0.1-0.149","573","","j","","","","","","","","","","","","","key","j","16.649582524270777","659","323","./1_3_Stimuli/C_ambi40.png","自我","Word","自我","Match","j","true","Formal"
"","","","","","psychophysics","213","574489","0.0-9.0-0.1-0.150","578","","f","","","","","","","","","","","","","key","f","16.650029126213393","659","323","./1_3_Stimuli/S_ambi40.png","朋友","Word","他人","Mismatch","f","true","Formal"
"","","","","","psychophysics","214","576363","0.0-9.0-0.1-0.151","720","","j","","","","","","","","","","","","","key","j","16.6484375","659","323","./1_3_Stimuli/T_ambi40.png","朋友","Word","朋友","Match","j","true","Formal"
"","","","","","psychophysics","215","578169","0.0-9.0-0.1-0.152","644","","j","","","","","","","","","","","","","key","j","16.64934579439235","659","323","./1_3_Stimuli/C_ambi40.png","自我","Image","自我","Match","j","true","Formal"
"","","","","","psychophysics","216","580888","0.0-9.0-0.1-0.153","null","","null","","","","","","","","","","","","","key","null","16.64837888198737","659","323","./1_3_Stimuli/S_ambi40.png","他人","Image","他人","Match","j","false","Formal"
"","","","","","psychophysics","217","583602","0.0-9.0-0.1-0.154","null","","null","","","","","","","","","","","","","key","null","16.649185185185576","659","323","./1_3_Stimuli/C_ambi40.png","朋友","Image","自我","Mismatch","f","false","Formal"
"","","","","","psychophysics","218","585814","0.0-9.0-0.1-0.155","1053","","j","","","","","","","","","","","","","key","j","16.64751908397","659","323","./1_3_Stimuli/S_ambi40.png","他人","Word","他人","Match","j","true","Formal"
"","","","","","psychophysics","219","587776","0.0-9.0-0.1-0.156","802","","j","","","","","","","","","","","","","key","j","16.64831896551688","659","323","./1_3_Stimuli/T_ambi40.png","朋友","Image","朋友","Match","j","true","Formal"
"","","","","","psychophysics","220","590158","0.0-9.0-0.1-0.157","1230","","f","","","","","","","","","","","","","key","f","16.646915492958318","659","323","./1_3_Stimuli/T_ambi40.png","自我","Word","朋友","Mismatch","f","true","Formal"
"","","","","","psychophysics","221","591915","0.0-9.0-0.1-0.158","598","","j","","","","","","","","","","","","","key","j","16.64830476190518","659","323","./1_3_Stimuli/C_ambi40.png","自我","Image","自我","Match","j","true","Formal"
"","","","","","psychophysics","222","593916","0.0-9.0-0.1-0.159","848","","j","","","","","","","","","","","","","key","j","16.64905042016875","659","323","./1_3_Stimuli/S_ambi40.png","他人","Word","他人","Match","j","true","Formal"
"","","","","","psychophysics","223","596182","0.0-9.0-0.1-0.160","1110","","j","","","","","","","","","","","","","key","j","16.647283582089802","659","323","./1_3_Stimuli/T_ambi40.png","朋友","Word","朋友","Match","j","true","Formal"
"","","","","","psychophysics","224","597942","0.0-9.0-0.1-0.161","606","","f","","","","","","","","","","","","","key","f","16.646942857142893","659","323","./1_3_Stimuli/T_ambi40.png","自我","Image","朋友","Mismatch","f","true","Formal"
"","","","","","psychophysics","225","600428","0.0-9.0-0.1-0.162","1335","","f","","","","","","","","","","","","","key","f","16.64843918918868","659","323","./1_3_Stimuli/T_ambi40.png","他人","Image","朋友","Mismatch","f","true","Formal"
"","","","","","psychophysics","226","602539","0.0-9.0-0.1-0.163","957","","f","","","","","","","","","","","","","key","f","16.648825396825227","659","323","./1_3_Stimuli/S_ambi40.png","自我","Word","他人","Mismatch","f","true","Formal"
"","","","","","psychophysics","227","605245","0.0-9.0-0.1-0.164","null","","null","","","","","","","","","","","","","key","null","16.647734567900994","659","323","./1_3_Stimuli/S_ambi40.png","他人","Image","他人","Match","j","false","Formal"
"","","","","","psychophysics","228","607231","0.0-9.0-0.1-0.165","828","","f","","","","","","","","","","","","","key","f","16.647008474575852","659","323","./1_3_Stimuli/C_ambi40.png","他人","Word","自我","Mismatch","f","true","Formal"
"","","","","","psychophysics","229","609197","0.0-9.0-0.1-0.166","801","","j","","","","","","","","","","","","","key","j","16.64974358974375","659","323","./1_3_Stimuli/T_ambi40.png","他人","Word","朋友","Mismatch","f","false","Formal"
"","","","","","psychophysics","230","611043","0.0-9.0-0.1-0.167","687","","j","","","","","","","","","","","","","key","j","16.6490818181816","659","323","./1_3_Stimuli/C_ambi40.png","自我","Word","自我","Match","j","true","Formal"
"","","","","","psychophysics","231","612780","0.0-9.0-0.1-0.168","580","","f","","","","","","","","","","","","","key","f","16.647145631068692","659","323","./1_3_Stimuli/T_ambi40.png","朋友","Image","朋友","Match","j","false","Formal"
"","","","","","psychophysics","232","615192","0.0-9.0-0.1-0.169","1258","","f","","","","","","","","","","","","","key","f","16.64757638888922","659","323","./1_3_Stimuli/T_ambi40.png","他人","Word","朋友","Mismatch","f","true","Formal"
"","","","","","psychophysics","233","617103","0.0-9.0-0.1-0.170","754","","f","","","","","","","","","","","","","key","f","16.64677192982523","659","323","./1_3_Stimuli/S_ambi40.png","他人","Image","他人","Match","j","false","Formal"
"","","","","","psychophysics","234","619255","0.0-9.0-0.1-0.171","992","","f","","","","","","","","","","","","","key","f","16.64728124999965","659","323","./1_3_Stimuli/S_ambi40.png","朋友","Word","他人","Mismatch","f","true","Formal"
"","","","","","psychophysics","235","621419","0.0-9.0-0.1-0.172","1008","","f","","","","","","","","","","","","","key","f","16.64834108527176","659","323","./1_3_Stimuli/T_ambi40.png","自我","Word","朋友","Mismatch","f","true","Formal"
"","","","","","psychophysics","236","623565","0.0-9.0-0.1-0.173","990","","f","","","","","","","","","","","","","key","f","16.64832031249989","659","323","./1_3_Stimuli/C_ambi40.png","他人","Word","自我","Mismatch","f","true","Formal"
"","","","","","psychophysics","237","625487","0.0-9.0-0.1-0.174","764","","j","","","","","","","","","","","","","key","j","16.648371681416474","659","323","./1_3_Stimuli/C_ambi40.png","自我","Image","自我","Match","j","true","Formal"
"","","","","","psychophysics","238","628195","0.0-9.0-0.1-0.175","null","","null","","","","","","","","","","","","","key","null","16.85779245283071","659","323","./1_3_Stimuli/T_ambi40.png","朋友","Image","朋友","Match","j","false","Formal"
"","","","","","psychophysics","239","629983","0.0-9.0-0.1-0.176","629","","f","","","","","","","","","","","","","key","f","16.64827358490515","659","323","./1_3_Stimuli/C_ambi40.png","朋友","Image","自我","Mismatch","f","true","Formal"
"","","","","","psychophysics","240","631837","0.0-9.0-0.1-0.177","700","","j","","","","","","","","","","","","","key","j","16.64823636363726","659","323","./1_3_Stimuli/T_ambi40.png","他人","Image","朋友","Mismatch","f","false","Formal"
"","","","","","psychophysics","241","633708","0.0-9.0-0.1-0.178","711","","j","","","","","","","","","","","","","key","j","16.64818918918939","659","323","./1_3_Stimuli/S_ambi40.png","他人","Word","他人","Match","j","true","Formal"
"","","","","","psychophysics","242","635499","0.0-9.0-0.1-0.179","637","","j","","","","","","","","","","","","","key","j","16.648280373832133","659","323","./1_3_Stimuli/C_ambi40.png","自我","Word","自我","Match","j","true","Formal"
"","","","","","psychophysics","243","637599","0.0-9.0-0.1-0.180","940","","f","","","","","","","","","","","","","key","f","16.648351999999957","659","323","./1_3_Stimuli/S_ambi40.png","朋友","Image","他人","Mismatch","f","true","Formal"
"","","","","","psychophysics","244","640322","0.0-9.0-0.1-0.181","null","","null","","","","","","","","","","","","","key","null","16.646487654321167","659","323","./1_3_Stimuli/S_ambi40.png","他人","Word","他人","Match","j","false","Formal"
"","","","","","psychophysics","245","642465","0.0-9.0-0.1-0.182","979","","j","","","","","","","","","","","","","key","j","16.64844881889766","659","323","./1_3_Stimuli/T_ambi40.png","朋友","Word","朋友","Match","j","true","Formal"
"","","","","","psychophysics","246","644655","0.0-9.0-0.1-0.183","1036","","j","","","","","","","","","","","","","key","j","16.648595419847442","659","323","./1_3_Stimuli/C_ambi40.png","自我","Image","自我","Match","j","true","Formal"
"","","","","","psychophysics","247","646364","0.0-9.0-0.1-0.184","547","","j","","","","","","","","","","","","","key","j","16.648702970296743","659","323","./1_3_Stimuli/C_ambi40.png","自我","Word","自我","Match","j","true","Formal"
"","","","","","psychophysics","248","648143","0.0-9.0-0.1-0.185","625","","f","","","","","","","","","","","","","key","f","16.6473238095242","659","323","./1_3_Stimuli/T_ambi40.png","自我","Image","朋友","Mismatch","f","true","Formal"
"","","","","","psychophysics","249","649999","0.0-9.0-0.1-0.186","702","","f","","","","","","","","","","","","","key","f","16.647000000000354","659","323","./1_3_Stimuli/S_ambi40.png","自我","Image","他人","Mismatch","f","true","Formal"
"","","","","","psychophysics","250","652491","0.0-9.0-0.1-0.187","1338","","f","","","","","","","","","","","","","key","f","16.648364864864757","659","323","./1_3_Stimuli/C_ambi40.png","他人","Image","自我","Mismatch","f","true","Formal"
"","","","","","psychophysics","251","654900","0.0-9.0-0.1-0.188","1252","","f","","","","","","","","","","","","","key","f","16.64483916083875","659","323","./1_3_Stimuli/C_ambi40.png","朋友","Word","自我","Mismatch","f","true","Formal"
"","","","","","psychophysics","252","656816","0.0-9.0-0.1-0.189","758","","j","","","","","","","","","","","","","key","j","16.646956140351104","659","323","./1_3_Stimuli/T_ambi40.png","朋友","Word","朋友","Match","j","true","Formal"
"","","","","","psychophysics","253","658712","0.0-9.0-0.1-0.190","741","","f","","","","","","","","","","","","","key","f","16.649769911504418","659","323","./1_3_Stimuli/S_ambi40.png","自我","Word","他人","Mismatch","f","true","Formal"
"","","","","","psychophysics","254","661144","0.0-9.0-0.1-0.191","1281","","j","","","","","","","","","","","","","key","j","16.648386206896173","659","323","./1_3_Stimuli/S_ambi40.png","他人","Image","他人","Match","j","true","Formal"
"","","","","","psychophysics","255","663135","0.0-9.0-0.1-0.192","838","","j","","","","","","","","","","","","","key","j","16.64730252100824","659","323","./1_3_Stimuli/C_ambi40.png","自我","Word","自我","Match","j","true","Formal"
"","","","","","psychophysics","256","665447","0.0-9.0-0.1-0.193","1159","","j","","","","","","","","","","","","","key","j","16.648355072463755","659","323","./1_3_Stimuli/S_ambi40.png","他人","Image","他人","Match","j","true","Formal"
"","","","","","psychophysics","257","667288","0.0-9.0-0.1-0.194","681","","f","","","","","","","","","","","","","key","f","16.64842201834929","659","323","./1_3_Stimuli/S_ambi40.png","自我","Word","他人","Mismatch","f","true","Formal"
"","","","","","psychophysics","258","669199","0.0-9.0-0.1-0.195","759","","j","","","","","","","","","","","","","key","j","16.648407079646184","659","323","./1_3_Stimuli/T_ambi40.png","朋友","Image","朋友","Match","j","true","Formal"
"","","","","","psychophysics","259","671061","0.0-9.0-0.1-0.196","708","","f","","","","","","","","","","","","","key","f","16.647315315314913","659","323","./1_3_Stimuli/T_ambi40.png","他人","Word","朋友","Mismatch","f","true","Formal"
"","","","","","psychophysics","260","672836","0.0-9.0-0.1-0.197","616","","f","","","","","","","","","","","","","key","f","16.6495142857145","659","323","./1_3_Stimuli/T_ambi40.png","自我","Word","朋友","Mismatch","f","true","Formal"
"","","","","","psychophysics","261","675072","0.0-9.0-0.1-0.198","1070","","j","","","","","","","","","","","","","key","j","16.648541353382974","659","323","./1_3_Stimuli/C_ambi40.png","自我","Word","自我","Match","j","true","Formal"
"","","","","","psychophysics","262","676903","0.0-9.0-0.1-0.199","671","","f","","","","","","","","","","","","","key","f","16.64690825688106","659","323","./1_3_Stimuli/T_ambi40.png","自我","Image","朋友","Mismatch","f","true","Formal"
"","","","","","psychophysics","263","678843","0.0-9.0-0.1-0.200","786","","j","","","","","","","","","","","","","key","j","16.64815652173964","659","323","./1_3_Stimuli/S_ambi40.png","朋友","Word","他人","Mismatch","f","false","Formal"
"","","","","","psychophysics","264","680666","0.0-9.0-0.1-0.201","668","","j","","","","","","","","","","","","","key","j","16.647110091742352","659","323","./1_3_Stimuli/T_ambi40.png","朋友","Word","朋友","Match","j","true","Formal"
"","","","","","psychophysics","265","682454","0.0-9.0-0.1-0.202","636","","j","","","","","","","","","","","","","key","j","16.64955660377361","659","323","./1_3_Stimuli/C_ambi40.png","自我","Image","自我","Match","j","true","Formal"
"","","","","","psychophysics","266","684418","0.0-9.0-0.1-0.203","810","","j","","","","","","","","","","","","","key","j","16.649410256410505","659","323","./1_3_Stimuli/S_ambi40.png","他人","Image","他人","Match","j","true","Formal"
"","","","","","psychophysics","267","686235","0.0-9.0-0.1-0.204","666","","f","","","","","","","","","","","","","key","f","16.64854629629688","659","323","./1_3_Stimuli/S_ambi40.png","自我","Image","他人","Mismatch","f","true","Formal"
"","","","","","psychophysics","268","688224","0.0-9.0-0.1-0.205","838","","f","","","","","","","","","","","","","key","f","16.648067226890717","659","323","./1_3_Stimuli/C_ambi40.png","朋友","Word","自我","Mismatch","f","true","Formal"
"","","","","","psychophysics","269","690140","0.0-9.0-0.1-0.206","761","","j","","","","","","","","","","","","","key","j","16.649526315790258","659","323","./1_3_Stimuli/S_ambi40.png","他人","Word","他人","Match","j","true","Formal"
"","","","","","psychophysics","270","692847","0.0-9.0-0.1-0.207","null","","null","","","","","","","","","","","","","key","null","16.648118012422778","659","323","./1_3_Stimuli/T_ambi40.png","朋友","Word","朋友","Match","j","false","Formal"
"","","","","","psychophysics","271","694672","0.0-9.0-0.1-0.208","660","","f","","","","","","","","","","","","","key","f","16.648370370370145","659","323","./1_3_Stimuli/C_ambi40.png","朋友","Image","自我","Mismatch","f","true","Formal"
"","","","","","psychophysics","272","696422","0.0-9.0-0.1-0.209","595","","j","","","","","","","","","","","","","key","j","16.647922330097412","659","323","./1_3_Stimuli/C_ambi40.png","自我","Image","自我","Match","j","true","Formal"
"","","","","","psychophysics","273","698629","0.0-9.0-0.1-0.210","1050","","f","","","","","","","","","","","","","key","f","16.648265151515123","659","323","./1_3_Stimuli/C_ambi40.png","他人","Image","自我","Mismatch","f","true","Formal"
"","","","","","psychophysics","274","700552","0.0-9.0-0.1-0.211","770","","j","","","","","","","","","","","","","key","j","16.649131578947785","659","323","./1_3_Stimuli/S_ambi40.png","他人","Word","他人","Match","j","true","Formal"
"","","","","","psychophysics","275","702681","0.0-9.0-0.1-0.212","975","","f","","","","","","","","","","","","","key","f","16.64851968503909","659","323","./1_3_Stimuli/T_ambi40.png","他人","Image","朋友","Mismatch","f","true","Formal"
"","","","","","psychophysics","276","704685","0.0-9.0-0.1-0.213","847","","j","","","","","","","","","","","","","key","j","16.64843697478983","659","323","./1_3_Stimuli/T_ambi40.png","朋友","Image","朋友","Match","j","true","Formal"
"","","","","","psychophysics","277","707304","0.0-9.0-0.1-0.214","1455","","f","","","","","","","","","","","","","key","f","16.648391025641615","659","323","./1_3_Stimuli/C_ambi40.png","他人","Word","自我","Mismatch","f","true","Formal"
"","","","","","psychophysics","278","709219","0.0-9.0-0.1-0.215","761","","f","","","","","","","","","","","","","key","f","16.649982456140336","659","323","./1_3_Stimuli/S_ambi40.png","朋友","Image","他人","Mismatch","f","true","Formal"
"","","","","","psychophysics","279","711158","0.0-9.0-0.1-0.216","780","","j","","","","","","","","","","","","","key","j","16.648307017543917","659","323","./1_3_Stimuli/S_ambi40.png","他人","Image","他人","Match","j","true","Formal"
"","","","","","psychophysics","280","712901","0.0-9.0-0.1-0.217","587","","j","","","","","","","","","","","","","key","j","16.6483689320389","659","323","./1_3_Stimuli/C_ambi40.png","自我","Image","自我","Match","j","true","Formal"
"","","","","","psychophysics","281","714638","0.0-9.0-0.1-0.218","586","","j","","","","","","","","","","","","","key","j","16.648223300970802","659","323","./1_3_Stimuli/T_ambi40.png","朋友","Image","朋友","Match","j","true","Formal"
"","","","","","psychophysics","282","716295","0.0-9.0-0.1-0.219","502","","f","","","","","","","","","","","","","key","f","16.647828282828378","659","323","./1_3_Stimuli/C_ambi40.png","他人","Image","自我","Mismatch","f","true","Formal"
"","","","","","psychophysics","283","719002","0.0-9.0-0.1-0.220","null","","null","","","","","","","","","","","","","key","null","16.64834782608672","659","323","./1_3_Stimuli/T_ambi40.png","他人","Word","朋友","Mismatch","f","false","Formal"
"","","","","","psychophysics","284","720798","0.0-9.0-0.1-0.221","637","","f","","","","","","","","","","","","","key","f","16.647424528301684","659","323","./1_3_Stimuli/S_ambi40.png","他人","Word","他人","Match","j","false","Formal"
"","","","","","psychophysics","285","722439","0.0-9.0-0.1-0.222","489","","j","","","","","","","","","","","","","key","j","16.647958762886137","659","323","./1_3_Stimuli/C_ambi40.png","自我","Image","自我","Match","j","true","Formal"
"","","","","","psychophysics","286","724295","0.0-9.0-0.1-0.223","703","","j","","","","","","","","","","","","","key","j","16.6497247706428","659","323","./1_3_Stimuli/S_ambi40.png","他人","Image","他人","Match","j","true","Formal"
"","","","","","psychophysics","287","726450","0.0-9.0-0.1-0.224","989","","f","","","","","","","","","","","","","key","f","16.64825000000019","659","323","./1_3_Stimuli/C_ambi40.png","朋友","Word","自我","Mismatch","f","true","Formal"
"","","","","","psychophysics","288","728301","0.0-9.0-0.1-0.225","699","","j","","","","","","","","","","","","","key","j","16.647063636363864","659","323","./1_3_Stimuli/T_ambi40.png","朋友","Word","朋友","Match","j","true","Formal"
"","","","","","psychophysics","289","730478","0.0-9.0-0.1-0.226","1021","","j","","","","","","","","","","","","","key","j","16.649361538461662","659","323","./1_3_Stimuli/T_ambi40.png","朋友","Image","朋友","Match","j","true","Formal"
"","","","","","psychophysics","290","732723","0.0-9.0-0.1-0.227","1085","","f","","","","","","","","","","","","","key","f","16.648559701492587","659","323","./1_3_Stimuli/T_ambi40.png","自我","Image","朋友","Mismatch","f","true","Formal"
"","","","","","psychophysics","291","734612","0.0-9.0-0.1-0.228","735","","j","","","","","","","","","","","","","key","j","16.64806249999986","659","323","./1_3_Stimuli/S_ambi40.png","他人","Word","他人","Match","j","true","Formal"
"","","","","","psychophysics","292","736374","0.0-9.0-0.1-0.229","610","","f","","","","","","","","","","","","","key","f","16.647561904761407","659","323","./1_3_Stimuli/S_ambi40.png","自我","Word","他人","Mismatch","f","true","Formal"
"","","","","","psychophysics","293","738328","0.0-9.0-0.1-0.230","802","","f","","","","","","","","","","","","","key","f","16.649817391303774","659","323","./1_3_Stimuli/S_ambi40.png","自我","Image","他人","Mismatch","f","true","Formal"
"","","","","","psychophysics","294","741039","0.0-9.0-0.1-0.231","null","","null","","","","","","","","","","","","","key","null","16.64739130434771","659","323","./1_3_Stimuli/T_ambi40.png","朋友","Word","朋友","Match","j","false","Formal"
"","","","","","psychophysics","295","742902","0.0-9.0-0.1-0.232","709","","f","","","","","","","","","","","","","key","f","16.648099099099216","659","323","./1_3_Stimuli/C_ambi40.png","朋友","Image","自我","Mismatch","f","true","Formal"
"","","","","","psychophysics","296","744708","0.0-9.0-0.1-0.233","651","","j","","","","","","","","","","","","","key","j","16.648000000000096","659","323","./1_3_Stimuli/C_ambi40.png","自我","Word","自我","Match","j","true","Formal"
"","","","","","psychophysics","297","746491","0.0-9.0-0.1-0.234","618","","f","","","","","","","","","","","","","key","f","16.648819047618392","659","323","./1_3_Stimuli/T_ambi40.png","自我","Word","朋友","Mismatch","f","true","Formal"
"","","","","","psychophysics","298","748258","0.0-9.0-0.1-0.235","613","","j","","","","","","","","","","","","","key","j","16.64739423076949","659","323","./1_3_Stimuli/C_ambi40.png","自我","Word","自我","Match","j","true","Formal"
"","","","","","psychophysics","299","750432","0.0-9.0-0.1-0.236","1021","","f","","","","","","","","","","","","","key","f","16.649348837208876","659","323","./1_3_Stimuli/S_ambi40.png","朋友","Word","他人","Mismatch","f","true","Formal"
"","","","","","psychophysics","300","752521","0.0-9.0-0.1-0.237","935","","f","","","","","","","","","","","","","key","f","16.649120967741304","659","323","./1_3_Stimuli/S_ambi40.png","朋友","Image","他人","Mismatch","f","true","Formal"
"","","","","","psychophysics","301","755228","0.0-9.0-0.1-0.238","null","","null","","","","","","","","","","","","","key","null","16.647807453416277","659","323","./1_3_Stimuli/C_ambi40.png","他人","Word","自我","Mismatch","f","false","Formal"
"","","","","","psychophysics","302","757198","0.0-9.0-0.1-0.239","805","","f","","","","","","","","","","","","","key","f","16.6477758620689","659","323","./1_3_Stimuli/T_ambi40.png","他人","Image","朋友","Mismatch","f","true","Formal"
"","","","","","html-keyboard-response","303","763720","0.0-9.0-1.1","6521","<style>.context{color:white; font-size: 35px; line-height:40px}</style>                        <div><p class='context'>您正确回答了85% 的试次。</p><p class='context'>您的平均反应时为824毫秒。</p><p> <div style = 'color: green'><按任意键进入休息></div></p>"," ","","","","","","","","","","","","","","","","","","","","","","","","",""
"","","","","","html-button-response","304","811258","0.0-9.0-2.1","47533","
                  <p>您当前还剩余4组实验</p>
                  <p>现在是休息时间，当您结束休息后，您可以点击 结束休息 按钮 继续</p>
                  <p>建议休息时间还剩余<span id=""iii"">60</span>秒</p>","0","","","","","","","","","","","","","","","","","","","","","","","","",""
"","","","","","psychophysics","305","813362","0.0-9.0-0.2-0.240","947","","j","","","","","","","","","","","","","key","j","16.648175999999978","659","323","./1_3_Stimuli/S_ambi40.png","他人","Image","他人","Match","j","true","Formal"
"","","","","","psychophysics","306","815056","0.0-9.0-0.2-0.241","543","","j","","","","","","","","","","","","","key","j","16.649485148514835","659","323","./1_3_Stimuli/C_ambi40.png","自我","Word","自我","Match","j","true","Formal"
"","","","","","psychophysics","307","817205","0.0-9.0-0.2-0.242","993","","f","","","","","","","","","","","","","key","f","16.648789062500327","659","323","./1_3_Stimuli/T_ambi40.png","他人","Image","朋友","Mismatch","f","true","Formal"
"","","","","","psychophysics","308","819687","0.0-9.0-0.2-0.243","1328","","f","","","","","","","","","","","","","key","f","16.648601351351466","659","323","./1_3_Stimuli/C_ambi40.png","他人","Word","自我","Mismatch","f","true","Formal"
"","","","","","psychophysics","309","822127","0.0-9.0-0.2-0.244","1286","","j","","","","","","","","","","","","","key","j","16.648499999999878","659","323","./1_3_Stimuli/T_ambi40.png","朋友","Image","朋友","Match","j","true","Formal"
"","","","","","psychophysics","310","823837","0.0-9.0-0.2-0.245","551","","f","","","","","","","","","","","","","key","f","16.648227722771317","659","323","./1_3_Stimuli/S_ambi40.png","自我","Image","他人","Mismatch","f","true","Formal"
"","","","","","psychophysics","311","825586","0.0-9.0-0.2-0.246","585","","f","","","","","","","","","","","","","key","f","16.64673076923086","659","323","./1_3_Stimuli/T_ambi40.png","自我","Word","朋友","Mismatch","f","true","Formal"
"","","","","","psychophysics","312","827331","0.0-9.0-0.2-0.247","584","","j","","","","","","","","","","","","","key","j","16.648417475728262","659","323","./1_3_Stimuli/S_ambi40.png","他人","Word","他人","Match","j","true","Formal"
"","","","","","psychophysics","313","829139","0.0-9.0-0.2-0.248","657","","f","","","","","","","","","","","","","key","f","16.648373831776144","659","323","./1_3_Stimuli/S_ambi40.png","朋友","Word","他人","Mismatch","f","true","Formal"
"","","","","","psychophysics","314","830984","0.0-9.0-0.2-0.249","688","","f","","","","","","","","","","","","","key","f","16.648345454545183","659","323","./1_3_Stimuli/C_ambi40.png","他人","Image","自我","Mismatch","f","true","Formal"
"","","","","","psychophysics","315","832888","0.0-9.0-0.2-0.250","743","","f","","","","","","","","","","","","","key","f","16.648460176990746","659","323","./1_3_Stimuli/C_ambi40.png","朋友","Word","自我","Mismatch","f","true","Formal"
"","","","","","psychophysics","316","834834","0.0-9.0-0.2-0.251","792","","j","","","","","","","","","","","","","key","j","16.64852173913007","659","323","./1_3_Stimuli/C_ambi40.png","自我","Image","自我","Match","j","true","Formal"
"","","","","","psychophysics","317","836470","0.0-9.0-0.2-0.252","480","","f","","","","","","","","","","","","","key","f","16.64724742268097","659","323","./1_3_Stimuli/C_ambi40.png","朋友","Image","自我","Mismatch","f","true","Formal"
"","","","","","psychophysics","318","838335","0.0-9.0-0.2-0.253","714","","f","","","","","","","","","","","","","key","f","16.647144144144","659","323","./1_3_Stimuli/T_ambi40.png","他人","Word","朋友","Mismatch","f","true","Formal"
"","","","","","psychophysics","319","840137","0.0-9.0-0.2-0.254","651","","j","","","","","","","","","","","","","key","j","16.647542056074872","659","323","./1_3_Stimuli/S_ambi40.png","他人","Image","他人","Match","j","true","Formal"
"","","","","","psychophysics","320","841879","0.0-9.0-0.2-0.255","581","","f","","","","","","","","","","","","","key","f","16.64869902912613","659","323","./1_3_Stimuli/S_ambi40.png","朋友","Image","他人","Mismatch","f","true","Formal"
"","","","","","psychophysics","321","843996","0.0-9.0-0.2-0.256","964","","f","","","","","","","","","","","","","key","f","16.649380952380376","659","323","./1_3_Stimuli/T_ambi40.png","自我","Image","朋友","Mismatch","f","true","Formal"
"","","","","","psychophysics","322","845931","0.0-9.0-0.2-0.257","783","","j","","","","","","","","","","","","","key","j","16.64837068965526","659","323","./1_3_Stimuli/S_ambi40.png","他人","Word","他人","Match","j","true","Formal"
"","","","","","psychophysics","323","847887","0.0-9.0-0.2-0.258","792","","f","","","","","","","","","","","","","key","f","16.64815517241368","659","323","./1_3_Stimuli/S_ambi40.png","自我","Word","他人","Mismatch","f","true","Formal"
"","","","","","psychophysics","324","849655","0.0-9.0-0.2-0.259","613","","j","","","","","","","","","","","","","key","j","16.64988571428583","659","323","./1_3_Stimuli/C_ambi40.png","自我","Word","自我","Match","j","true","Formal"
"","","","","","psychophysics","325","851373","0.0-9.0-0.2-0.260","565","","j","","","","","","","","","","","","","key","j","16.647990196078158","659","323","./1_3_Stimuli/C_ambi40.png","自我","Image","自我","Match","j","true","Formal"
"","","","","","psychophysics","326","853219","0.0-9.0-0.2-0.261","692","","j","","","","","","","","","","","","","key","j","16.648715596329932","659","323","./1_3_Stimuli/T_ambi40.png","朋友","Image","朋友","Match","j","true","Formal"
"","","","","","psychophysics","327","854959","0.0-9.0-0.2-0.262","588","","j","","","","","","","","","","","","","key","j","16.648451923077047","659","323","./1_3_Stimuli/T_ambi40.png","朋友","Word","朋友","Match","j","true","Formal"
"","","","","","psychophysics","328","856711","0.0-9.0-0.2-0.263","597","","j","","","","","","","","","","","","","key","j","16.648201923076368","659","323","./1_3_Stimuli/T_ambi40.png","朋友","Word","朋友","Match","j","true","Formal"
"","","","","","psychophysics","329","859391","0.0-9.0-0.2-0.264","1526","","j","","","","","","","","","","","","","key","j","16.64739999999947","659","323","./1_3_Stimuli/C_ambi40.png","自我","Word","自我","Match","j","true","Formal"
"","","","","","psychophysics","330","861117","0.0-9.0-0.2-0.265","570","","f","","","","","","","","","","","","","key","f","16.648715686274453","659","323","./1_3_Stimuli/T_ambi40.png","自我","Word","朋友","Mismatch","f","true","Formal"
"","","","","","psychophysics","331","862959","0.0-9.0-0.2-0.266","689","","f","","","","","","","","","","","","","key","f","16.64838532110091","659","323","./1_3_Stimuli/S_ambi40.png","自我","Word","他人","Mismatch","f","true","Formal"
"","","","","","psychophysics","332","864735","0.0-9.0-0.2-0.267","625","","j","","","","","","","","","","","","","key","j","16.649632075472013","659","323","./1_3_Stimuli/T_ambi40.png","朋友","Word","朋友","Match","j","true","Formal"
"","","","","","psychophysics","333","866734","0.0-9.0-0.2-0.268","844","","j","","","","","","","","","","","","","key","j","16.64842016806732","659","323","./1_3_Stimuli/S_ambi40.png","他人","Image","他人","Match","j","true","Formal"
"","","","","","psychophysics","334","868460","0.0-9.0-0.2-0.269","572","","f","","","","","","","","","","","","","key","f","16.646970873786753","659","323","./1_3_Stimuli/T_ambi40.png","他人","Word","朋友","Mismatch","f","true","Formal"
"","","","","","psychophysics","335","870574","0.0-9.0-0.2-0.270","961","","f","","","","","","","","","","","","","key","f","16.649119047618967","659","323","./1_3_Stimuli/C_ambi40.png","他人","Word","自我","Mismatch","f","true","Formal"
"","","","","","psychophysics","336","872576","0.0-9.0-0.2-0.271","842","","f","","","","","","","","","","","","","key","f","16.647100840336172","659","323","./1_3_Stimuli/S_ambi40.png","自我","Image","他人","Mismatch","f","true","Formal"
"","","","","","psychophysics","337","874443","0.0-9.0-0.2-0.272","712","","f","","","","","","","","","","","","","key","f","16.64822727272668","659","323","./1_3_Stimuli/C_ambi40.png","他人","Image","自我","Mismatch","f","true","Formal"
"","","","","","psychophysics","338","876983","0.0-9.0-0.2-0.273","1387","","j","","","","","","","","","","","","","key","j","16.648381578947394","659","323","./1_3_Stimuli/S_ambi40.png","他人","Word","他人","Match","j","true","Formal"
"","","","","","psychophysics","339","878833","0.0-9.0-0.2-0.274","693","","f","","","","","","","","","","","","","key","f","16.64825454545525","659","323","./1_3_Stimuli/C_ambi40.png","朋友","Word","自我","Mismatch","f","true","Formal"
"","","","","","psychophysics","340","880665","0.0-9.0-0.2-0.275","674","","j","","","","","","","","","","","","","key","j","16.647816513762212","659","323","./1_3_Stimuli/C_ambi40.png","自我","Image","自我","Match","j","true","Formal"
"","","","","","psychophysics","341","882520","0.0-9.0-0.2-0.276","698","","f","","","","","","","","","","","","","key","f","16.6479090909082","659","323","./1_3_Stimuli/S_ambi40.png","朋友","Image","他人","Mismatch","f","true","Formal"
"","","","","","psychophysics","342","884247","0.0-9.0-0.2-0.277","575","","j","","","","","","","","","","","","","key","j","16.646529411764668","659","323","./1_3_Stimuli/C_ambi40.png","自我","Image","自我","Match","j","true","Formal"
"","","","","","psychophysics","343","886460","0.0-9.0-0.2-0.278","1062","","f","","","","","","","","","","","","","key","f","16.649499999999534","659","323","./1_3_Stimuli/T_ambi40.png","他人","Image","朋友","Mismatch","f","true","Formal"
"","","","","","psychophysics","344","888354","0.0-9.0-0.2-0.279","736","","j","","","","","","","","","","","","","key","j","16.650125000000116","659","323","./1_3_Stimuli/T_ambi40.png","朋友","Image","朋友","Match","j","true","Formal"
"","","","","","psychophysics","345","890168","0.0-9.0-0.2-0.280","654","","j","","","","","","","","","","","","","key","j","16.648361111111527","659","323","./1_3_Stimuli/C_ambi40.png","自我","Word","自我","Match","j","true","Formal"
"","","","","","psychophysics","346","892173","0.0-9.0-0.2-0.281","849","","j","","","","","","","","","","","","","key","j","16.646991596638397","659","323","./1_3_Stimuli/S_ambi40.png","他人","Word","他人","Match","j","true","Formal"
"","","","","","psychophysics","347","894048","0.0-9.0-0.2-0.282","723","","j","","","","","","","","","","","","","key","j","16.649446428571537","659","323","./1_3_Stimuli/S_ambi40.png","他人","Image","他人","Match","j","true","Formal"
"","","","","","psychophysics","348","895838","0.0-9.0-0.2-0.283","630","","f","","","","","","","","","","","","","key","f","16.648254716980823","659","323","./1_3_Stimuli/C_ambi40.png","朋友","Image","自我","Mismatch","f","true","Formal"
"","","","","","psychophysics","349","898301","0.0-9.0-0.2-0.284","1312","","f","","","","","","","","","","","","","key","f","16.647346938775733","659","323","./1_3_Stimuli/S_ambi40.png","朋友","Word","他人","Mismatch","f","true","Formal"
"","","","","","psychophysics","350","900175","0.0-9.0-0.2-0.285","720","","j","","","","","","","","","","","","","key","j","16.64824999999941","659","323","./1_3_Stimuli/T_ambi40.png","朋友","Word","朋友","Match","j","true","Formal"
"","","","","","psychophysics","351","902075","0.0-9.0-0.2-0.286","740","","j","","","","","","","","","","","","","key","j","16.64983035714249","659","323","./1_3_Stimuli/T_ambi40.png","朋友","Image","朋友","Match","j","true","Formal"
"","","","","","psychophysics","352","903795","0.0-9.0-0.2-0.287","563","","f","","","","","","","","","","","","","key","f","16.647862745097417","659","323","./1_3_Stimuli/T_ambi40.png","自我","Image","朋友","Mismatch","f","true","Formal"
"","","","","","psychophysics","353","906107","0.0-9.0-0.2-0.288","1160","","f","","","","","","","","","","","","","key","f","16.647818840579536","659","323","./1_3_Stimuli/T_ambi40.png","他人","Word","朋友","Mismatch","f","true","Formal"
"","","","","","psychophysics","354","908059","0.0-9.0-0.2-0.289","800","","j","","","","","","","","","","","","","key","j","16.648922413793304","659","323","./1_3_Stimuli/S_ambi40.png","他人","Word","他人","Match","j","true","Formal"
"","","","","","psychophysics","355","909849","0.0-9.0-0.2-0.290","640","","f","","","","","","","","","","","","","key","f","16.648953271027715","659","323","./1_3_Stimuli/S_ambi40.png","朋友","Word","他人","Mismatch","f","true","Formal"
"","","","","","psychophysics","356","911496","0.0-9.0-0.2-0.291","488","","j","","","","","","","","","","","","","key","j","16.647051020407794","659","323","./1_3_Stimuli/C_ambi40.png","自我","Image","自我","Match","j","true","Formal"
"","","","","","psychophysics","357","914204","0.0-9.0-0.2-0.292","null","","null","","","","","","","","","","","","","key","null","16.648422360248134","659","323","./1_3_Stimuli/C_ambi40.png","他人","Word","自我","Mismatch","f","false","Formal"
"","","","","","psychophysics","358","915923","0.0-9.0-0.2-0.293","559","","j","","","","","","","","","","","","","key","j","16.648921568626903","659","323","./1_3_Stimuli/C_ambi40.png","自我","Word","自我","Match","j","true","Formal"
"","","","","","psychophysics","359","917611","0.0-9.0-0.2-0.294","527","","f","","","","","","","","","","","","","key","f","16.649020000000018","659","323","./1_3_Stimuli/C_ambi40.png","朋友","Image","自我","Mismatch","f","true","Formal"
"","","","","","psychophysics","360","920259","0.0-9.0-0.2-0.295","1495","","j","","","","","","","","","","","","","key","j","16.64760126582276","659","323","./1_3_Stimuli/T_ambi40.png","朋友","Word","朋友","Match","j","true","Formal"
"","","","","","psychophysics","361","922102","0.0-9.0-0.2-0.296","689","","f","","","","","","","","","","","","","key","f","16.6475272727273","659","323","./1_3_Stimuli/S_ambi40.png","自我","Image","他人","Mismatch","f","true","Formal"
"","","","","","psychophysics","362","924063","0.0-9.0-0.2-0.297","802","","j","","","","","","","","","","","","","key","j","16.647709401709456","659","323","./1_3_Stimuli/C_ambi40.png","自我","Image","自我","Match","j","true","Formal"
"","","","","","psychophysics","363","926363","0.0-9.0-0.2-0.298","1146","","j","","","","","","","","","","","","","key","j","16.64824817518289","659","323","./1_3_Stimuli/S_ambi40.png","他人","Word","他人","Match","j","true","Formal"
"","","","","","psychophysics","364","928114","0.0-9.0-0.2-0.299","593","","f","","","","","","","","","","","","","key","f","16.64799999999993","659","323","./1_3_Stimuli/T_ambi40.png","朋友","Image","朋友","Match","j","false","Formal"
"","","","","","psychophysics","365","929982","0.0-9.0-0.2-0.300","712","","f","","","","","","","","","","","","","key","f","16.647227272727864","659","323","./1_3_Stimuli/C_ambi40.png","朋友","Word","自我","Mismatch","f","true","Formal"
"","","","","","psychophysics","366","931738","0.0-9.0-0.2-0.301","601","","j","","","","","","","","","","","","","key","j","16.64927884615407","659","323","./1_3_Stimuli/T_ambi40.png","自我","Image","朋友","Mismatch","f","false","Formal"
"","","","","","psychophysics","367","933855","0.0-9.0-0.2-0.302","955","","j","","","","","","","","","","","","","key","j","16.64840476190494","659","323","./1_3_Stimuli/T_ambi40.png","朋友","Word","朋友","Match","j","true","Formal"
"","","","","","psychophysics","368","935626","0.0-9.0-0.2-0.303","617","","j","","","","","","","","","","","","","key","j","16.648285714286335","659","323","./1_3_Stimuli/C_ambi40.png","自我","Word","自我","Match","j","true","Formal"
"","","","","","psychophysics","369","937536","0.0-9.0-0.2-0.304","757","","j","","","","","","","","","","","","","key","j","16.64978947368422","659","323","./1_3_Stimuli/S_ambi40.png","他人","Image","他人","Match","j","true","Formal"
"","","","","","psychophysics","370","939477","0.0-9.0-0.2-0.305","789","","j","","","","","","","","","","","","","key","j","16.64872413793085","659","323","./1_3_Stimuli/T_ambi40.png","朋友","Image","朋友","Match","j","true","Formal"
"","","","","","psychophysics","371","941500","0.0-9.0-0.2-0.306","864","","j","","","","","","","","","","","","","key","j","16.648599999999472","659","323","./1_3_Stimuli/T_ambi40.png","他人","Image","朋友","Mismatch","f","false","Formal"
"","","","","","psychophysics","372","943348","0.0-9.0-0.2-0.307","692","","f","","","","","","","","","","","","","key","f","16.647678899082116","659","323","./1_3_Stimuli/C_ambi40.png","他人","Image","自我","Mismatch","f","true","Formal"
"","","","","","psychophysics","373","945577","0.0-9.0-0.2-0.308","1073","","f","","","","","","","","","","","","","key","f","16.648466165413858","659","323","./1_3_Stimuli/T_ambi40.png","自我","Word","朋友","Mismatch","f","true","Formal"
"","","","","","psychophysics","374","947840","0.0-9.0-0.2-0.309","1105","","j","","","","","","","","","","","","","key","j","16.64709629629549","659","323","./1_3_Stimuli/S_ambi40.png","他人","Image","他人","Match","j","true","Formal"
"","","","","","psychophysics","375","950227","0.0-9.0-0.2-0.310","1231","","f","","","","","","","","","","","","","key","f","16.64839436619749","659","323","./1_3_Stimuli/S_ambi40.png","自我","Word","他人","Mismatch","f","true","Formal"
"","","","","","psychophysics","376","952137","0.0-9.0-0.2-0.311","757","","f","","","","","","","","","","","","","key","f","16.648903508772747","659","323","./1_3_Stimuli/S_ambi40.png","朋友","Image","他人","Mismatch","f","true","Formal"
"","","","","","psychophysics","377","953792","0.0-9.0-0.2-0.312","497","","j","","","","","","","","","","","","","key","j","16.648346938776108","659","323","./1_3_Stimuli/C_ambi40.png","自我","Image","自我","Match","j","true","Formal"
"","","","","","psychophysics","378","956507","0.0-9.0-0.2-0.313","null","","null","","","","","","","","","","","","","key","null","16.64842236024886","659","323","./1_3_Stimuli/T_ambi40.png","朋友","Image","朋友","Match","j","false","Formal"
"","","","","","psychophysics","379","959221","0.0-9.0-0.2-0.314","null","","null","","","","","","","","","","","","","key","null","16.64839130434821","659","323","./1_3_Stimuli/C_ambi40.png","自我","Image","自我","Match","j","false","Formal"
"","","","","","psychophysics","380","961935","0.0-9.0-0.2-0.315","null","","null","","","","","","","","","","","","","key","null","16.64838509316779","659","323","./1_3_Stimuli/T_ambi40.png","朋友","Image","朋友","Match","j","false","Formal"
"","","","","","psychophysics","381","964043","0.0-9.0-0.2-0.316","952","","f","","","","","","","","","","","","","key","f","16.647200000000186","659","323","./1_3_Stimuli/C_ambi40.png","他人","Word","自我","Mismatch","f","true","Formal"
"","","","","","psychophysics","382","966747","0.0-9.0-0.2-0.317","null","","null","","","","","","","","","","","","","key","null","16.64904320987666","659","323","./1_3_Stimuli/S_ambi40.png","朋友","Image","他人","Mismatch","f","false","Formal"
"","","","","","psychophysics","383","969076","0.0-9.0-0.2-0.318","1170","","f","","","","","","","","","","","","","key","f","16.649246376811735","659","323","./1_3_Stimuli/C_ambi40.png","朋友","Word","自我","Mismatch","f","true","Formal"
"","","","","","psychophysics","384","971017","0.0-9.0-0.2-0.319","774","","j","","","","","","","","","","","","","key","j","16.649834782608945","659","323","./1_3_Stimuli/S_ambi40.png","他人","Word","他人","Match","j","true","Formal"
"","","","","","psychophysics","385","973062","0.0-9.0-0.2-0.320","888","","j","","","","","","","","","","","","","key","j","16.648450819671453","659","323","./1_3_Stimuli/T_ambi40.png","朋友","Word","朋友","Match","j","true","Formal"
"","","","","","psychophysics","386","974868","0.0-9.0-0.2-0.321","652","","j","","","","","","","","","","","","","key","j","16.648415094339246","659","323","./1_3_Stimuli/C_ambi40.png","自我","Word","自我","Match","j","true","Formal"
"","","","","","psychophysics","387","977364","0.0-9.0-0.2-0.322","1345","","f","","","","","","","","","","","","","key","f","16.64870469798662","659","323","./1_3_Stimuli/C_ambi40.png","朋友","Image","自我","Mismatch","f","true","Formal"
"","","","","","psychophysics","388","980066","0.0-9.0-0.2-0.323","null","","null","","","","","","","","","","","","","key","null","16.648401234567707","659","323","./1_3_Stimuli/T_ambi40.png","自我","Word","朋友","Mismatch","f","false","Formal"
"","","","","","psychophysics","389","982373","0.0-9.0-0.2-0.324","1153","","j","","","","","","","","","","","","","key","j","16.648291970803708","659","323","./1_3_Stimuli/T_ambi40.png","朋友","Word","朋友","Match","j","true","Formal"
"","","","","","psychophysics","390","984089","0.0-9.0-0.2-0.325","561","","f","","","","","","","","","","","","","key","f","16.64833333333338","659","323","./1_3_Stimuli/T_ambi40.png","自我","Image","朋友","Mismatch","f","true","Formal"
"","","","","","psychophysics","391","986392","0.0-9.0-0.2-0.326","1149","","f","","","","","","","","","","","","","key","f","16.64823357664205","659","323","./1_3_Stimuli/S_ambi40.png","自我","Word","他人","Mismatch","f","true","Formal"
"","","","","","psychophysics","392","988645","0.0-9.0-0.2-0.327","1091","","j","","","","","","","","","","","","","key","j","16.647425373134364","659","323","./1_3_Stimuli/S_ambi40.png","他人","Word","他人","Match","j","true","Formal"
"","","","","","psychophysics","393","990547","0.0-9.0-0.2-0.328","742","","f","","","","","","","","","","","","","key","f","16.64952212389336","659","323","./1_3_Stimuli/T_ambi40.png","他人","Image","朋友","Mismatch","f","true","Formal"
"","","","","","psychophysics","394","992671","0.0-9.0-0.2-0.329","971","","f","","","","","","","","","","","","","key","f","16.649905511811486","659","323","./1_3_Stimuli/S_ambi40.png","他人","Image","他人","Match","j","false","Formal"
"","","","","","psychophysics","395","994437","0.0-9.0-0.2-0.330","604","","f","","","","","","","","","","","","","key","f","16.648266666667492","659","323","./1_3_Stimuli/C_ambi40.png","他人","Image","自我","Mismatch","f","true","Formal"
"","","","","","psychophysics","396","996467","0.0-9.0-0.2-0.331","873","","f","","","","","","","","","","","","","key","f","16.648157024793598","659","323","./1_3_Stimuli/S_ambi40.png","自我","Image","他人","Mismatch","f","true","Formal"
"","","","","","psychophysics","397","998756","0.0-9.0-0.2-0.332","1127","","j","","","","","","","","","","","","","key","j","16.648580882352476","659","323","./1_3_Stimuli/S_ambi40.png","他人","Image","他人","Match","j","true","Formal"
"","","","","","psychophysics","398","1000784","0.0-9.0-0.2-0.333","874","","f","","","","","","","","","","","","","key","f","16.64730578512415","659","323","./1_3_Stimuli/S_ambi40.png","朋友","Word","他人","Mismatch","f","true","Formal"
"","","","","","psychophysics","399","1002779","0.0-9.0-0.2-0.334","841","","j","","","","","","","","","","","","","key","j","16.648344537814562","659","323","./1_3_Stimuli/C_ambi40.png","自我","Word","自我","Match","j","true","Formal"
"","","","","","psychophysics","400","1004784","0.0-9.0-0.2-0.335","849","","f","","","","","","","","","","","","","key","f","16.64945378151288","659","323","./1_3_Stimuli/T_ambi40.png","他人","Word","朋友","Mismatch","f","true","Formal"
"","","","","","psychophysics","401","1007322","0.0-9.0-0.2-0.336","1385","","f","","","","","","","","","","","","","key","f","16.647888157895068","659","323","./1_3_Stimuli/S_ambi40.png","自我","Image","他人","Mismatch","f","true","Formal"
"","","","","","psychophysics","402","1009802","0.0-9.0-0.2-0.337","1322","","f","","","","","","","","","","","","","key","f","16.648060810811206","659","323","./1_3_Stimuli/T_ambi40.png","他人","Word","朋友","Mismatch","f","true","Formal"
"","","","","","psychophysics","403","1012513","0.0-9.0-0.2-0.338","null","","null","","","","","","","","","","","","","key","null","16.648124223602473","659","323","./1_3_Stimuli/T_ambi40.png","朋友","Word","朋友","Match","j","false","Formal"
"","","","","","psychophysics","404","1014681","0.0-9.0-0.2-0.339","1007","","f","","","","","","","","","","","","","key","f","16.64820155038773","659","323","./1_3_Stimuli/S_ambi40.png","他人","Word","他人","Match","j","false","Formal"
"","","","","","psychophysics","405","1016606","0.0-9.0-0.2-0.340","763","","j","","","","","","","","","","","","","key","j","16.6488421052631","659","323","./1_3_Stimuli/T_ambi40.png","朋友","Image","朋友","Match","j","true","Formal"
"","","","","","psychophysics","406","1018228","0.0-9.0-0.2-0.341","471","","j","","","","","","","","","","","","","key","j","16.647855670102537","659","323","./1_3_Stimuli/C_ambi40.png","自我","Image","自我","Match","j","true","Formal"
"","","","","","psychophysics","407","1020084","0.0-9.0-0.2-0.342","701","","f","","","","","","","","","","","","","key","f","16.648354545454705","659","323","./1_3_Stimuli/C_ambi40.png","朋友","Image","自我","Mismatch","f","true","Formal"
"","","","","","psychophysics","408","1022657","0.0-9.0-0.2-0.343","1421","","j","","","","","","","","","","","","","key","j","16.64942207792169","659","323","./1_3_Stimuli/T_ambi40.png","自我","Word","朋友","Mismatch","f","false","Formal"
"","","","","","psychophysics","409","1024569","0.0-9.0-0.2-0.344","759","","j","","","","","","","","","","","","","key","j","16.64699999999925","659","323","./1_3_Stimuli/S_ambi40.png","他人","Image","他人","Match","j","true","Formal"
"","","","","","psychophysics","410","1026745","0.0-9.0-0.2-0.345","1012","","j","","","","","","","","","","","","","key","j","16.64731007751958","659","323","./1_3_Stimuli/C_ambi40.png","自我","Image","自我","Match","j","true","Formal"
"","","","","","psychophysics","411","1028544","0.0-9.0-0.2-0.346","648","","f","","","","","","","","","","","","","key","f","16.64842056074815","659","323","./1_3_Stimuli/T_ambi40.png","自我","Image","朋友","Mismatch","f","true","Formal"
"","","","","","psychophysics","412","1030688","0.0-9.0-0.2-0.347","991","","j","","","","","","","","","","","","","key","j","16.648476562500946","659","323","./1_3_Stimuli/T_ambi40.png","朋友","Word","朋友","Match","j","true","Formal"
"","","","","","psychophysics","413","1032515","0.0-9.0-0.2-0.348","673","","f","","","","","","","","","","","","","key","f","16.649651376146036","659","323","./1_3_Stimuli/T_ambi40.png","他人","Image","朋友","Mismatch","f","true","Formal"
"","","","","","psychophysics","414","1034221","0.0-9.0-0.2-0.349","555","","j","","","","","","","","","","","","","key","j","16.649599999999626","659","323","./1_3_Stimuli/C_ambi40.png","自我","Word","自我","Match","j","true","Formal"
"","","","","","psychophysics","415","1036014","0.0-9.0-0.2-0.350","642","","f","","","","","","","","","","","","","key","f","16.647500000000086","659","323","./1_3_Stimuli/C_ambi40.png","朋友","Word","自我","Mismatch","f","true","Formal"
"","","","","","psychophysics","416","1038473","0.0-9.0-0.2-0.351","1303","","f","","","","","","","","","","","","","key","f","16.64958503401401","659","323","./1_3_Stimuli/C_ambi40.png","他人","Image","自我","Mismatch","f","true","Formal"
"","","","","","psychophysics","417","1040388","0.0-9.0-0.2-0.352","761","","f","","","","","","","","","","","","","key","f","16.64798245613929","659","323","./1_3_Stimuli/S_ambi40.png","自我","Word","他人","Mismatch","f","true","Formal"
"","","","","","psychophysics","418","1042251","0.0-9.0-0.2-0.353","708","","j","","","","","","","","","","","","","key","j","16.646819819817907","659","323","./1_3_Stimuli/S_ambi40.png","他人","Image","他人","Match","j","true","Formal"
"","","","","","psychophysics","419","1043905","0.0-9.0-0.2-0.354","492","","j","","","","","","","","","","","","","key","j","16.646663265305154","659","323","./1_3_Stimuli/S_ambi40.png","他人","Word","他人","Match","j","true","Formal"
"","","","","","psychophysics","420","1045634","0.0-9.0-0.2-0.355","574","","f","","","","","","","","","","","","","key","f","16.648116504854876","659","323","./1_3_Stimuli/S_ambi40.png","朋友","Word","他人","Mismatch","f","true","Formal"
"","","","","","psychophysics","421","1048350","0.0-9.0-0.2-0.356","null","","null","","","","","","","","","","","","","key","null","16.647956521739108","659","323","./1_3_Stimuli/S_ambi40.png","朋友","Image","他人","Mismatch","f","false","Formal"
"","","","","","psychophysics","422","1050695","0.0-9.0-0.2-0.357","1190","","f","","","","","","","","","","","","","key","f","16.648528571428532","659","323","./1_3_Stimuli/C_ambi40.png","他人","Word","自我","Mismatch","f","true","Formal"
