"Subject","Trial","Matching","Label_Origin_Identity","Label_English_Identity","Label_Standardized_Identity","RT_ms","RT_sec","ACC"
2,1,"Nonmatching","Fremder","Stranger","Stranger",1567,1.567,1
2,2,"Nonmatching","Ich","Self","Self",1601,1.601,1
2,3,"Matching","Fremder","Stranger","Stranger",1230,1.23,1
2,4,"Matching","Ich","Self","Self",879,0.879,1
2,5,"Matching","Ich","Self","Self",1022,1.022,1
2,6,"Nonmatching","Ich","Self","Self",753,0.753,1
2,7,"Nonmatching","Fremder","Stranger","Stranger",1312,1.312,1
2,8,"Matching","Fremder","Stranger","Stranger",1519,1.519,1
2,9,"Nonmatching","Fremder","Stranger","Stranger",1240,1.24,1
2,10,"Nonmatching","Ich","Self","Self",825,0.825,0
2,11,"Matching","Fremder","Stranger","Stranger",1238,1.238,1
2,12,"Matching","Ich","Self","Self",810,0.81,1
2,13,"Matching","Fremder","Stranger","Stranger",925,0.925,0
2,14,"Matching","Ich","Self","Self",834,0.834,1
2,15,"Nonmatching","Ich","Self","Self",635,0.635,1
2,16,"Nonmatching","Fremder","Stranger","Stranger",563,0.563,0
2,17,"Matching","Fremder","Stranger","Stranger",1031,1.031,1
2,18,"Nonmatching","Fremder","Stranger","Stranger",1071,1.071,1
2,19,"Nonmatching","Ich","Self","Self",1053,1.053,1
2,20,"Matching","Ich","Self","Self",722,0.722,1
2,21,"Matching","Fremder","Stranger","Stranger",965,0.965,1
2,22,"Matching","Ich","Self","Self",793,0.793,1
2,23,"Nonmatching","Ich","Self","Self",837,0.837,1
2,24,"Nonmatching","Fremder","Stranger","Stranger",1333,1.333,1
2,25,"Matching","Ich","Self","Self",962,0.962,1
2,26,"Nonmatching","Fremder","Stranger","Stranger",882,0.882,1
2,27,"Nonmatching","Ich","Self","Self",912,0.912,0
2,28,"Matching","Fremder","Stranger","Stranger",1209,1.209,1
2,29,"Nonmatching","Fremder","Stranger","Stranger",1054,1.054,1
2,30,"Matching","Fremder","Stranger","Stranger",914,0.914,1
2,31,"Matching","Ich","Self","Self",1084,1.084,1
2,32,"Nonmatching","Ich","Self","Self",921,0.921,1
2,33,"Nonmatching","Ich","Self","Self",807,0.807,1
2,34,"Matching","Ich","Self","Self",559,0.559,1
2,35,"Nonmatching","Fremder","Stranger","Stranger",1258,1.258,1
2,36,"Matching","Fremder","Stranger","Stranger",1299,1.299,1
2,37,"Matching","Ich","Self","Self",656,0.656,1
2,38,"Nonmatching","Ich","Self","Self",853,0.853,1
2,39,"Nonmatching","Fremder","Stranger","Stranger",1045,1.045,1
2,40,"Matching","Fremder","Stranger","Stranger",1367,1.367,1
2,41,"Nonmatching","Fremder","Stranger","Stranger",800,0.8,1
2,42,"Matching","Fremder","Stranger","Stranger",925,0.925,1
2,43,"Matching","Ich","Self","Self",929,0.929,1
2,44,"Nonmatching","Ich","Self","Self",1031,1.031,1
2,45,"Matching","Fremder","Stranger","Stranger",1177,1.177,0
2,46,"Nonmatching","Ich","Self","Self",765,0.765,1
2,47,"Matching","Ich","Self","Self",535,0.535,1
2,48,"Nonmatching","Fremder","Stranger","Stranger",623,0.623,1
2,49,"Matching","Fremder","Stranger","Stranger",1095,1.095,1
2,50,"Nonmatching","Ich","Self","Self",838,0.838,1
2,51,"Nonmatching","Fremder","Stranger","Stranger",1327,1.327,1
2,52,"Matching","Ich","Self","Self",885,0.885,1
2,53,"Nonmatching","Ich","Self","Self",630,0.63,0
2,54,"Matching","Fremder","Stranger","Stranger",2023,2.023,0
2,55,"Matching","Ich","Self","Self",411,0.411,0
2,56,"Nonmatching","Fremder","Stranger","Stranger",935,0.935,1
2,57,"Matching","Ich","Self","Self",662,0.662,1
2,58,"Matching","Fremder","Stranger","Stranger",1202,1.202,1
2,59,"Nonmatching","Ich","Self","Self",589,0.589,0
2,60,"Nonmatching","Fremder","Stranger","Stranger",927,0.927,1
2,61,"Nonmatching","Fremder","Stranger","Stranger",1028,1.028,1
2,62,"Nonmatching","Ich","Self","Self",939,0.939,1
2,63,"Matching","Fremder","Stranger","Stranger",912,0.912,1
2,64,"Matching","Ich","Self","Self",768,0.768,1
2,65,"Matching","Fremder","Stranger","Stranger",703,0.703,1
2,66,"Matching","Ich","Self","Self",657,0.657,1
2,67,"Nonmatching","Ich","Self","Self",886,0.886,1
2,68,"Nonmatching","Fremder","Stranger","Stranger",1524,1.524,1
2,69,"Nonmatching","Fremder","Stranger","Stranger",2746,2.746,1
2,70,"Matching","Fremder","Stranger","Stranger",1312,1.312,1
2,71,"Nonmatching","Ich","Self","Self",860,0.86,1
2,72,"Matching","Ich","Self","Self",847,0.847,1
2,73,"Nonmatching","Fremder","Stranger","Stranger",1075,1.075,1
2,74,"Nonmatching","Ich","Self","Self",794,0.794,1
2,75,"Matching","Ich","Self","Self",596,0.596,1
2,76,"Matching","Fremder","Stranger","Stranger",809,0.809,0
2,77,"Matching","Ich","Self","Self",510,0.51,1
2,78,"Nonmatching","Ich","Self","Self",684,0.684,1
2,79,"Nonmatching","Fremder","Stranger","Stranger",1060,1.06,1
2,80,"Matching","Fremder","Stranger","Stranger",842,0.842,1
2,81,"Nonmatching","Fremder","Stranger","Stranger",731,0.731,1
2,82,"Nonmatching","Ich","Self","Self",805,0.805,1
2,83,"Matching","Fremder","Stranger","Stranger",848,0.848,1
2,84,"Matching","Ich","Self","Self",542,0.542,1
2,85,"Nonmatching","Ich","Self","Self",687,0.687,1
2,86,"Matching","Ich","Self","Self",629,0.629,1
2,87,"Matching","Fremder","Stranger","Stranger",982,0.982,1
2,88,"Nonmatching","Fremder","Stranger","Stranger",927,0.927,1
2,89,"Matching","Ich","Self","Self",560,0.56,1
2,90,"Nonmatching","Fremder","Stranger","Stranger",714,0.714,1
2,91,"Nonmatching","Ich","Self","Self",792,0.792,1
2,92,"Matching","Fremder","Stranger","Stranger",721,0.721,1
2,93,"Matching","Ich","Self","Self",631,0.631,1
2,94,"Nonmatching","Ich","Self","Self",615,0.615,1
2,95,"Matching","Fremder","Stranger","Stranger",744,0.744,0
2,96,"Nonmatching","Fremder","Stranger","Stranger",595,0.595,0
2,97,"Nonmatching","Fremder","Stranger","Stranger",664,0.664,1
2,98,"Nonmatching","Ich","Self","Self",886,0.886,1
2,99,"Matching","Fremder","Stranger","Stranger",949,0.949,1
2,100,"Matching","Ich","Self","Self",999,0.999,1
2,101,"Matching","Ich","Self","Self",537,0.537,1
2,102,"Nonmatching","Fremder","Stranger","Stranger",794,0.794,1
2,103,"Nonmatching","Ich","Self","Self",737,0.737,1
2,104,"Matching","Fremder","Stranger","Stranger",972,0.972,1
2,105,"Nonmatching","Ich","Self","Self",659,0.659,1
2,106,"Matching","Fremder","Stranger","Stranger",701,0.701,1
2,107,"Nonmatching","Fremder","Stranger","Stranger",828,0.828,1
2,108,"Matching","Ich","Self","Self",603,0.603,1
2,109,"Nonmatching","Ich","Self","Self",850,0.85,1
2,110,"Nonmatching","Fremder","Stranger","Stranger",985,0.985,1
2,111,"Matching","Fremder","Stranger","Stranger",1455,1.455,0
2,112,"Matching","Ich","Self","Self",547,0.547,1
2,113,"Matching","Ich","Self","Self",1015,1.015,1
2,114,"Nonmatching","Fremder","Stranger","Stranger",1156,1.156,1
2,115,"Matching","Fremder","Stranger","Stranger",1650,1.65,1
2,116,"Nonmatching","Ich","Self","Self",899,0.899,1
2,117,"Matching","Ich","Self","Self",701,0.701,1
2,118,"Nonmatching","Fremder","Stranger","Stranger",676,0.676,0
2,119,"Nonmatching","Ich","Self","Self",1142,1.142,1
2,120,"Matching","Fremder","Stranger","Stranger",1343,1.343,1
2,121,"Matching","Ich","Self","Self",805,0.805,0
2,122,"Nonmatching","Ich","Self","Self",1159,1.159,0
2,123,"Matching","Fremder","Stranger","Stranger",1366,1.366,1
2,124,"Nonmatching","Fremder","Stranger","Stranger",1406,1.406,1
2,125,"Nonmatching","Ich","Self","Self",630,0.63,1
2,126,"Nonmatching","Fremder","Stranger","Stranger",847,0.847,1
2,127,"Matching","Fremder","Stranger","Stranger",1017,1.017,1
2,128,"Matching","Ich","Self","Self",572,0.572,0
3,1,"Matching","Fremder","Stranger","Stranger",1120,1.12,1
3,2,"Nonmatching","Fremder","Stranger","Stranger",762,0.762,1
3,3,"Nonmatching","Ich","Self","Self",728,0.728,1
3,4,"Matching","Ich","Self","Self",654,0.654,1
3,5,"Nonmatching","Fremder","Stranger","Stranger",519,0.519,1
3,6,"Nonmatching","Ich","Self","Self",404,0.404,1
3,7,"Matching","Fremder","Stranger","Stranger",546,0.546,1
3,8,"Matching","Ich","Self","Self",367,0.367,1
3,9,"Nonmatching","Ich","Self","Self",681,0.681,1
3,10,"Matching","Ich","Self","Self",569,0.569,1
3,11,"Matching","Fremder","Stranger","Stranger",405,0.405,1
3,12,"Nonmatching","Fremder","Stranger","Stranger",452,0.452,1
3,13,"Matching","Fremder","Stranger","Stranger",800,0.8,1
3,14,"Nonmatching","Ich","Self","Self",1066,1.066,0
3,15,"Nonmatching","Fremder","Stranger","Stranger",665,0.665,1
3,16,"Matching","Ich","Self","Self",788,0.788,1
3,17,"Nonmatching","Fremder","Stranger","Stranger",684,0.684,1
3,18,"Nonmatching","Ich","Self","Self",636,0.636,1
3,19,"Matching","Fremder","Stranger","Stranger",392,0.392,1
3,20,"Matching","Ich","Self","Self",717,0.717,1
3,21,"Nonmatching","Ich","Self","Self",683,0.683,1
3,22,"Matching","Fremder","Stranger","Stranger",424,0.424,1
3,23,"Matching","Ich","Self","Self",442,0.442,1
3,24,"Nonmatching","Fremder","Stranger","Stranger",466,0.466,1
3,25,"Nonmatching","Ich","Self","Self",594,0.594,1
3,26,"Matching","Ich","Self","Self",423,0.423,1
3,27,"Nonmatching","Fremder","Stranger","Stranger",560,0.56,1
3,28,"Matching","Fremder","Stranger","Stranger",899,0.899,1
3,29,"Nonmatching","Ich","Self","Self",592,0.592,1
3,30,"Matching","Ich","Self","Self",537,0.537,1
3,31,"Nonmatching","Fremder","Stranger","Stranger",603,0.603,1
3,32,"Matching","Fremder","Stranger","Stranger",778,0.778,1
3,33,"Nonmatching","Ich","Self","Self",1014,1.014,1
3,34,"Matching","Fremder","Stranger","Stranger",646,0.646,1
3,35,"Matching","Ich","Self","Self",700,0.7,1
3,36,"Nonmatching","Fremder","Stranger","Stranger",479,0.479,0
3,37,"Matching","Ich","Self","Self",822,0.822,1
3,38,"Nonmatching","Fremder","Stranger","Stranger",668,0.668,1
3,39,"Nonmatching","Ich","Self","Self",731,0.731,1
3,40,"Matching","Fremder","Stranger","Stranger",425,0.425,0
3,41,"Matching","Ich","Self","Self",617,0.617,1
3,42,"Nonmatching","Ich","Self","Self",514,0.514,1
3,43,"Nonmatching","Fremder","Stranger","Stranger",710,0.71,1
3,44,"Matching","Fremder","Stranger","Stranger",807,0.807,1
3,45,"Matching","Ich","Self","Self",533,0.533,1
3,46,"Nonmatching","Ich","Self","Self",384,0.384,1
3,47,"Matching","Fremder","Stranger","Stranger",717,0.717,1
3,48,"Nonmatching","Fremder","Stranger","Stranger",665,0.665,1
3,49,"Nonmatching","Fremder","Stranger","Stranger",392,0.392,1
3,50,"Matching","Ich","Self","Self",697,0.697,1
3,51,"Nonmatching","Ich","Self","Self",455,0.455,1
3,52,"Matching","Fremder","Stranger","Stranger",786,0.786,1
3,53,"Nonmatching","Fremder","Stranger","Stranger",614,0.614,0
3,54,"Nonmatching","Ich","Self","Self",688,0.688,1
3,55,"Matching","Fremder","Stranger","Stranger",1312,1.312,1
3,56,"Matching","Ich","Self","Self",553,0.553,1
3,57,"Nonmatching","Fremder","Stranger","Stranger",366,0.366,1
3,58,"Matching","Fremder","Stranger","Stranger",918,0.918,0
3,59,"Nonmatching","Ich","Self","Self",504,0.504,1
3,60,"Matching","Ich","Self","Self",548,0.548,1
3,61,"Nonmatching","Fremder","Stranger","Stranger",583,0.583,1
3,62,"Matching","Fremder","Stranger","Stranger",633,0.633,1
3,63,"Nonmatching","Ich","Self","Self",578,0.578,1
3,64,"Matching","Ich","Self","Self",579,0.579,1
3,65,"Matching","Fremder","Stranger","Stranger",556,0.556,1
3,66,"Nonmatching","Ich","Self","Self",472,0.472,1
3,67,"Matching","Ich","Self","Self",584,0.584,1
3,68,"Nonmatching","Fremder","Stranger","Stranger",423,0.423,1
3,69,"Matching","Ich","Self","Self",424,0.424,1
3,70,"Nonmatching","Fremder","Stranger","Stranger",469,0.469,1
3,71,"Matching","Fremder","Stranger","Stranger",395,0.395,1
3,72,"Nonmatching","Ich","Self","Self",497,0.497,1
3,73,"Nonmatching","Fremder","Stranger","Stranger",475,0.475,1
3,74,"Matching","Ich","Self","Self",521,0.521,1
3,75,"Matching","Fremder","Stranger","Stranger",529,0.529,1
3,76,"Nonmatching","Ich","Self","Self",685,0.685,1
3,77,"Matching","Ich","Self","Self",492,0.492,1
3,78,"Nonmatching","Ich","Self","Self",846,0.846,1
3,79,"Nonmatching","Fremder","Stranger","Stranger",550,0.55,1
3,80,"Matching","Fremder","Stranger","Stranger",746,0.746,1
3,81,"Matching","Fremder","Stranger","Stranger",1079,1.079,1
3,82,"Nonmatching","Fremder","Stranger","Stranger",400,0.4,1
3,83,"Nonmatching","Ich","Self","Self",441,0.441,1
3,84,"Matching","Ich","Self","Self",412,0.412,1
3,85,"Matching","Fremder","Stranger","Stranger",416,0.416,1
3,86,"Matching","Ich","Self","Self",373,0.373,1
3,87,"Nonmatching","Ich","Self","Self",446,0.446,1
3,88,"Nonmatching","Fremder","Stranger","Stranger",422,0.422,1
3,89,"Matching","Ich","Self","Self",579,0.579,1
3,90,"Nonmatching","Fremder","Stranger","Stranger",503,0.503,1
3,91,"Nonmatching","Ich","Self","Self",431,0.431,1
3,92,"Matching","Fremder","Stranger","Stranger",459,0.459,1
3,93,"Matching","Fremder","Stranger","Stranger",499,0.499,1
3,94,"Matching","Ich","Self","Self",448,0.448,1
3,95,"Nonmatching","Ich","Self","Self",356,0.356,1
3,96,"Nonmatching","Fremder","Stranger","Stranger",414,0.414,1
3,97,"Nonmatching","Fremder","Stranger","Stranger",758,0.758,1
3,98,"Matching","Ich","Self","Self",516,0.516,1
3,99,"Nonmatching","Ich","Self","Self",409,0.409,0
3,100,"Matching","Fremder","Stranger","Stranger",711,0.711,1
3,101,"Nonmatching","Fremder","Stranger","Stranger",468,0.468,1
3,102,"Nonmatching","Ich","Self","Self",571,0.571,1
3,103,"Matching","Fremder","Stranger","Stranger",464,0.464,0
3,104,"Matching","Ich","Self","Self",558,0.558,1
3,105,"Nonmatching","Fremder","Stranger","Stranger",814,0.814,1
3,106,"Matching","Fremder","Stranger","Stranger",492,0.492,1
3,107,"Nonmatching","Ich","Self","Self",364,0.364,1
3,108,"Matching","Ich","Self","Self",652,0.652,1
3,109,"Matching","Fremder","Stranger","Stranger",383,0.383,0
3,110,"Nonmatching","Ich","Self","Self",406,0.406,1
3,111,"Matching","Ich","Self","Self",552,0.552,1
3,112,"Nonmatching","Fremder","Stranger","Stranger",395,0.395,1
3,113,"Nonmatching","Ich","Self","Self",575,0.575,1
3,114,"Matching","Ich","Self","Self",473,0.473,1
3,115,"Matching","Fremder","Stranger","Stranger",697,0.697,1
3,116,"Nonmatching","Fremder","Stranger","Stranger",459,0.459,1
3,117,"Matching","Ich","Self","Self",548,0.548,1
3,118,"Nonmatching","Fremder","Stranger","Stranger",632,0.632,1
3,119,"Nonmatching","Ich","Self","Self",617,0.617,1
3,120,"Matching","Fremder","Stranger","Stranger",551,0.551,1
3,121,"Nonmatching","Fremder","Stranger","Stranger",525,0.525,1
3,122,"Matching","Fremder","Stranger","Stranger",718,0.718,1
3,123,"Matching","Ich","Self","Self",559,0.559,1
3,124,"Nonmatching","Ich","Self","Self",547,0.547,1
3,125,"Nonmatching","Ich","Self","Self",412,0.412,1
3,126,"Nonmatching","Fremder","Stranger","Stranger",706,0.706,1
3,127,"Matching","Fremder","Stranger","Stranger",455,0.455,1
3,128,"Matching","Ich","Self","Self",390,0.39,1
4,1,"Matching","Fremder","Stranger","Stranger",1275,1.275,1
4,2,"Nonmatching","Fremder","Stranger","Stranger",957,0.957,1
4,3,"Nonmatching","Ich","Self","Self",1351,1.351,1
4,4,"Matching","Ich","Self","Self",613,0.613,1
4,5,"Nonmatching","Ich","Self","Self",1106,1.106,1
4,6,"Nonmatching","Fremder","Stranger","Stranger",1008,1.008,1
4,7,"Matching","Fremder","Stranger","Stranger",1447,1.447,1
4,8,"Matching","Ich","Self","Self",824,0.824,1
4,9,"Matching","Ich","Self","Self",882,0.882,1
4,10,"Nonmatching","Ich","Self","Self",1302,1.302,1
4,11,"Matching","Fremder","Stranger","Stranger",1281,1.281,1
4,12,"Nonmatching","Fremder","Stranger","Stranger",833,0.833,1
4,13,"Matching","Fremder","Stranger","Stranger",1164,1.164,1
4,14,"Matching","Ich","Self","Self",1088,1.088,1
4,15,"Nonmatching","Fremder","Stranger","Stranger",1345,1.345,1
4,16,"Nonmatching","Ich","Self","Self",1010,1.01,1
4,17,"Matching","Fremder","Stranger","Stranger",1159,1.159,1
4,18,"Matching","Ich","Self","Self",1510,1.51,1
4,19,"Nonmatching","Ich","Self","Self",1129,1.129,1
4,20,"Nonmatching","Fremder","Stranger","Stranger",1456,1.456,1
4,21,"Nonmatching","Fremder","Stranger","Stranger",754,0.754,1
4,22,"Nonmatching","Ich","Self","Self",1014,1.014,1
4,23,"Matching","Fremder","Stranger","Stranger",1113,1.113,1
4,24,"Matching","Ich","Self","Self",842,0.842,1
4,25,"Nonmatching","Ich","Self","Self",830,0.83,1
4,26,"Matching","Ich","Self","Self",746,0.746,1
4,27,"Nonmatching","Fremder","Stranger","Stranger",914,0.914,1
4,28,"Matching","Fremder","Stranger","Stranger",1539,1.539,1
4,29,"Matching","Ich","Self","Self",880,0.88,1
4,30,"Nonmatching","Ich","Self","Self",1862,1.862,1
4,31,"Nonmatching","Fremder","Stranger","Stranger",962,0.962,1
4,32,"Matching","Fremder","Stranger","Stranger",1388,1.388,1
4,33,"Nonmatching","Fremder","Stranger","Stranger",1303,1.303,1
4,34,"Matching","Ich","Self","Self",760,0.76,1
4,35,"Matching","Fremder","Stranger","Stranger",1286,1.286,1
4,36,"Nonmatching","Ich","Self","Self",1072,1.072,1
4,37,"Matching","Fremder","Stranger","Stranger",1247,1.247,1
4,38,"Matching","Ich","Self","Self",1117,1.117,1
4,39,"Nonmatching","Fremder","Stranger","Stranger",991,0.991,1
4,40,"Nonmatching","Ich","Self","Self",1335,1.335,1
4,41,"Matching","Ich","Self","Self",681,0.681,1
4,42,"Nonmatching","Ich","Self","Self",1416,1.416,1
4,43,"Nonmatching","Fremder","Stranger","Stranger",1450,1.45,1
4,44,"Matching","Fremder","Stranger","Stranger",1056,1.056,1
4,45,"Nonmatching","Fremder","Stranger","Stranger",860,0.86,1
4,46,"Nonmatching","Ich","Self","Self",1152,1.152,1
4,47,"Matching","Fremder","Stranger","Stranger",890,0.89,1
4,48,"Matching","Ich","Self","Self",606,0.606,1
4,49,"Nonmatching","Fremder","Stranger","Stranger",2033,2.033,1
4,50,"Nonmatching","Ich","Self","Self",544,0.544,1
4,51,"Matching","Fremder","Stranger","Stranger",954,0.954,1
4,52,"Matching","Ich","Self","Self",676,0.676,1
4,53,"Matching","Ich","Self","Self",925,0.925,1
4,54,"Nonmatching","Fremder","Stranger","Stranger",801,0.801,1
4,55,"Nonmatching","Ich","Self","Self",1189,1.189,1
4,56,"Matching","Fremder","Stranger","Stranger",694,0.694,1
4,57,"Matching","Ich","Self","Self",2120,2.12,1
4,58,"Nonmatching","Ich","Self","Self",837,0.837,1
4,59,"Nonmatching","Fremder","Stranger","Stranger",895,0.895,1
4,60,"Matching","Fremder","Stranger","Stranger",1081,1.081,1
4,61,"Nonmatching","Ich","Self","Self",915,0.915,1
4,62,"Nonmatching","Fremder","Stranger","Stranger",1689,1.689,1
4,63,"Matching","Ich","Self","Self",771,0.771,1
4,64,"Matching","Fremder","Stranger","Stranger",1307,1.307,1
4,65,"Nonmatching","Ich","Self","Self",1089,1.089,1
4,66,"Nonmatching","Fremder","Stranger","Stranger",1461,1.461,1
4,67,"Matching","Ich","Self","Self",684,0.684,1
4,68,"Matching","Fremder","Stranger","Stranger",798,0.798,1
4,69,"Nonmatching","Fremder","Stranger","Stranger",752,0.752,1
4,70,"Matching","Ich","Self","Self",830,0.83,1
4,71,"Matching","Fremder","Stranger","Stranger",830,0.83,1
4,72,"Nonmatching","Ich","Self","Self",907,0.907,1
4,73,"Nonmatching","Ich","Self","Self",990,0.99,1
4,74,"Nonmatching","Fremder","Stranger","Stranger",1081,1.081,1
4,75,"Matching","Fremder","Stranger","Stranger",1582,1.582,1
4,76,"Matching","Ich","Self","Self",924,0.924,1
4,77,"Matching","Ich","Self","Self",607,0.607,1
4,78,"Matching","Fremder","Stranger","Stranger",1066,1.066,1
4,79,"Nonmatching","Ich","Self","Self",837,0.837,1
4,80,"Nonmatching","Fremder","Stranger","Stranger",1380,1.38,1
4,81,"Nonmatching","Ich","Self","Self",1244,1.244,1
4,82,"Nonmatching","Fremder","Stranger","Stranger",1321,1.321,1
4,83,"Matching","Ich","Self","Self",719,0.719,1
4,84,"Matching","Fremder","Stranger","Stranger",1063,1.063,1
4,85,"Matching","Fremder","Stranger","Stranger",1570,1.57,1
4,86,"Nonmatching","Ich","Self","Self",939,0.939,1
4,87,"Matching","Ich","Self","Self",661,0.661,1
4,88,"Nonmatching","Fremder","Stranger","Stranger",1314,1.314,1
4,89,"Matching","Ich","Self","Self",583,0.583,1
4,90,"Nonmatching","Ich","Self","Self",2655,2.655,1
4,91,"Matching","Fremder","Stranger","Stranger",1396,1.396,1
4,92,"Nonmatching","Fremder","Stranger","Stranger",1093,1.093,1
4,93,"Nonmatching","Ich","Self","Self",1634,1.634,1
4,94,"Matching","Ich","Self","Self",554,0.554,1
4,95,"Nonmatching","Fremder","Stranger","Stranger",1359,1.359,1
4,96,"Matching","Fremder","Stranger","Stranger",1198,1.198,1
4,97,"Matching","Fremder","Stranger","Stranger",961,0.961,1
4,98,"Nonmatching","Ich","Self","Self",1694,1.694,1
4,99,"Matching","Ich","Self","Self",763,0.763,1
4,100,"Nonmatching","Fremder","Stranger","Stranger",1408,1.408,1
4,101,"Nonmatching","Fremder","Stranger","Stranger",1019,1.019,1
4,102,"Nonmatching","Ich","Self","Self",1159,1.159,1
4,103,"Matching","Ich","Self","Self",1322,1.322,1
4,104,"Matching","Fremder","Stranger","Stranger",2081,2.081,1
4,105,"Matching","Ich","Self","Self",897,0.897,1
4,106,"Matching","Fremder","Stranger","Stranger",1021,1.021,1
4,107,"Nonmatching","Ich","Self","Self",1054,1.054,1
4,108,"Nonmatching","Fremder","Stranger","Stranger",1169,1.169,1
4,109,"Matching","Ich","Self","Self",742,0.742,1
4,110,"Nonmatching","Fremder","Stranger","Stranger",1065,1.065,1
4,111,"Nonmatching","Ich","Self","Self",2506,2.506,1
4,112,"Matching","Fremder","Stranger","Stranger",1270,1.27,1
4,113,"Matching","Fremder","Stranger","Stranger",1427,1.427,1
4,114,"Nonmatching","Fremder","Stranger","Stranger",1348,1.348,1
4,115,"Matching","Ich","Self","Self",774,0.774,1
4,116,"Nonmatching","Ich","Self","Self",1215,1.215,1
4,117,"Matching","Fremder","Stranger","Stranger",837,0.837,1
4,118,"Nonmatching","Fremder","Stranger","Stranger",887,0.887,1
4,119,"Nonmatching","Ich","Self","Self",1411,1.411,1
4,120,"Matching","Ich","Self","Self",650,0.65,1
4,121,"Matching","Ich","Self","Self",736,0.736,1
4,122,"Nonmatching","Fremder","Stranger","Stranger",999,0.999,1
4,123,"Matching","Fremder","Stranger","Stranger",1023,1.023,1
4,124,"Nonmatching","Ich","Self","Self",1092,1.092,1
4,125,"Matching","Fremder","Stranger","Stranger",907,0.907,1
4,126,"Matching","Ich","Self","Self",685,0.685,1
4,127,"Nonmatching","Ich","Self","Self",2917,2.917,1
4,128,"Nonmatching","Fremder","Stranger","Stranger",1239,1.239,1
5,1,"Nonmatching","Ich","Self","Self",1124,1.124,1
5,2,"Matching","Fremder","Stranger","Stranger",1018,1.018,1
5,3,"Matching","Ich","Self","Self",559,0.559,1
5,4,"Nonmatching","Fremder","Stranger","Stranger",835,0.835,1
5,5,"Nonmatching","Ich","Self","Self",988,0.988,1
5,6,"Nonmatching","Fremder","Stranger","Stranger",1300,1.3,1
5,7,"Matching","Fremder","Stranger","Stranger",804,0.804,1
5,8,"Matching","Ich","Self","Self",1297,1.297,1
5,9,"Nonmatching","Ich","Self","Self",702,0.702,1
5,10,"Matching","Ich","Self","Self",680,0.68,1
5,11,"Matching","Fremder","Stranger","Stranger",791,0.791,1
5,12,"Nonmatching","Fremder","Stranger","Stranger",605,0.605,1
5,13,"Nonmatching","Ich","Self","Self",658,0.658,1
5,14,"Matching","Ich","Self","Self",571,0.571,1
5,15,"Matching","Fremder","Stranger","Stranger",340,0.34,1
5,16,"Nonmatching","Fremder","Stranger","Stranger",500,0.5,0
5,17,"Matching","Fremder","Stranger","Stranger",714,0.714,1
5,18,"Nonmatching","Fremder","Stranger","Stranger",752,0.752,1
5,19,"Matching","Ich","Self","Self",882,0.882,1
5,20,"Nonmatching","Ich","Self","Self",815,0.815,1
5,21,"Nonmatching","Ich","Self","Self",489,0.489,1
5,22,"Matching","Ich","Self","Self",613,0.613,1
5,23,"Nonmatching","Fremder","Stranger","Stranger",603,0.603,1
5,24,"Matching","Fremder","Stranger","Stranger",1152,1.152,1
5,25,"Matching","Ich","Self","Self",576,0.576,1
5,26,"Nonmatching","Ich","Self","Self",368,0.368,1
5,27,"Matching","Fremder","Stranger","Stranger",652,0.652,1
5,28,"Nonmatching","Fremder","Stranger","Stranger",484,0.484,1
5,29,"Matching","Fremder","Stranger","Stranger",722,0.722,1
5,30,"Nonmatching","Ich","Self","Self",554,0.554,1
5,31,"Matching","Ich","Self","Self",521,0.521,1
5,32,"Nonmatching","Fremder","Stranger","Stranger",535,0.535,1
5,33,"Matching","Ich","Self","Self",446,0.446,1
5,34,"Matching","Fremder","Stranger","Stranger",518,0.518,1
5,35,"Nonmatching","Fremder","Stranger","Stranger",367,0.367,1
5,36,"Nonmatching","Ich","Self","Self",421,0.421,1
5,37,"Nonmatching","Fremder","Stranger","Stranger",644,0.644,0
5,38,"Matching","Fremder","Stranger","Stranger",592,0.592,1
5,39,"Nonmatching","Ich","Self","Self",591,0.591,1
5,40,"Matching","Ich","Self","Self",800,0.8,1
5,41,"Nonmatching","Ich","Self","Self",409,0.409,1
5,42,"Matching","Ich","Self","Self",430,0.43,1
5,43,"Matching","Fremder","Stranger","Stranger",457,0.457,1
5,44,"Nonmatching","Fremder","Stranger","Stranger",743,0.743,1
5,45,"Matching","Ich","Self","Self",611,0.611,1
5,46,"Nonmatching","Ich","Self","Self",522,0.522,1
5,47,"Matching","Fremder","Stranger","Stranger",841,0.841,0
5,48,"Nonmatching","Fremder","Stranger","Stranger",612,0.612,1
5,49,"Matching","Fremder","Stranger","Stranger",418,0.418,1
5,50,"Nonmatching","Fremder","Stranger","Stranger",478,0.478,1
5,51,"Nonmatching","Ich","Self","Self",622,0.622,1
5,52,"Matching","Ich","Self","Self",762,0.762,1
5,53,"Nonmatching","Fremder","Stranger","Stranger",756,0.756,1
5,54,"Matching","Fremder","Stranger","Stranger",929,0.929,1
5,55,"Nonmatching","Ich","Self","Self",471,0.471,1
5,56,"Matching","Ich","Self","Self",425,0.425,1
5,57,"Nonmatching","Fremder","Stranger","Stranger",600,0.6,1
5,58,"Matching","Ich","Self","Self",503,0.503,1
5,59,"Nonmatching","Ich","Self","Self",366,0.366,1
5,60,"Matching","Fremder","Stranger","Stranger",726,0.726,1
5,61,"Nonmatching","Ich","Self","Self",413,0.413,1
5,62,"Matching","Fremder","Stranger","Stranger",787,0.787,1
5,63,"Matching","Ich","Self","Self",602,0.602,1
5,64,"Nonmatching","Fremder","Stranger","Stranger",581,0.581,1
5,65,"Nonmatching","Ich","Self","Self",506,0.506,1
5,66,"Matching","Ich","Self","Self",658,0.658,1
5,67,"Matching","Fremder","Stranger","Stranger",635,0.635,1
5,68,"Nonmatching","Fremder","Stranger","Stranger",454,0.454,1
5,69,"Nonmatching","Ich","Self","Self",693,0.693,1
5,70,"Matching","Ich","Self","Self",615,0.615,1
5,71,"Nonmatching","Fremder","Stranger","Stranger",778,0.778,1
5,72,"Matching","Fremder","Stranger","Stranger",613,0.613,1
5,73,"Matching","Ich","Self","Self",637,0.637,0
5,74,"Matching","Fremder","Stranger","Stranger",608,0.608,1
5,75,"Nonmatching","Ich","Self","Self",518,0.518,1
5,76,"Nonmatching","Fremder","Stranger","Stranger",813,0.813,1
5,77,"Nonmatching","Ich","Self","Self",466,0.466,1
5,78,"Matching","Fremder","Stranger","Stranger",442,0.442,1
5,79,"Nonmatching","Fremder","Stranger","Stranger",527,0.527,1
5,80,"Matching","Ich","Self","Self",515,0.515,1
5,81,"Matching","Fremder","Stranger","Stranger",383,0.383,0
5,82,"Nonmatching","Fremder","Stranger","Stranger",1609,1.609,0
5,83,"Matching","Ich","Self","Self",724,0.724,1
5,84,"Nonmatching","Ich","Self","Self",494,0.494,1
5,85,"Matching","Fremder","Stranger","Stranger",501,0.501,1
5,86,"Nonmatching","Fremder","Stranger","Stranger",365,0.365,1
5,87,"Matching","Ich","Self","Self",510,0.51,1
5,88,"Nonmatching","Ich","Self","Self",424,0.424,1
5,89,"Nonmatching","Fremder","Stranger","Stranger",502,0.502,1
5,90,"Matching","Ich","Self","Self",766,0.766,1
5,91,"Matching","Fremder","Stranger","Stranger",593,0.593,1
5,92,"Nonmatching","Ich","Self","Self",410,0.41,1
5,93,"Nonmatching","Ich","Self","Self",566,0.566,1
5,94,"Matching","Ich","Self","Self",490,0.49,1
5,95,"Matching","Fremder","Stranger","Stranger",575,0.575,1
5,96,"Nonmatching","Fremder","Stranger","Stranger",608,0.608,1
5,97,"Nonmatching","Fremder","Stranger","Stranger",673,0.673,1
5,98,"Nonmatching","Ich","Self","Self",677,0.677,0
5,99,"Matching","Fremder","Stranger","Stranger",851,0.851,0
5,100,"Matching","Ich","Self","Self",728,0.728,1
5,101,"Matching","Fremder","Stranger","Stranger",677,0.677,1
5,102,"Matching","Ich","Self","Self",693,0.693,1
5,103,"Nonmatching","Ich","Self","Self",449,0.449,1
5,104,"Nonmatching","Fremder","Stranger","Stranger",490,0.49,0
5,105,"Matching","Fremder","Stranger","Stranger",908,0.908,1
5,106,"Nonmatching","Fremder","Stranger","Stranger",1277,1.277,1
5,107,"Nonmatching","Ich","Self","Self",676,0.676,1
5,108,"Matching","Ich","Self","Self",538,0.538,1
5,109,"Matching","Fremder","Stranger","Stranger",1010,1.01,1
5,110,"Nonmatching","Fremder","Stranger","Stranger",554,0.554,1
5,111,"Matching","Ich","Self","Self",1415,1.415,1
5,112,"Nonmatching","Ich","Self","Self",454,0.454,1
5,113,"Nonmatching","Fremder","Stranger","Stranger",677,0.677,1
5,114,"Matching","Ich","Self","Self",861,0.861,1
5,115,"Matching","Fremder","Stranger","Stranger",798,0.798,1
5,116,"Nonmatching","Ich","Self","Self",581,0.581,1
5,117,"Nonmatching","Ich","Self","Self",401,0.401,1
5,118,"Nonmatching","Fremder","Stranger","Stranger",847,0.847,0
5,119,"Matching","Fremder","Stranger","Stranger",512,0.512,1
5,120,"Matching","Ich","Self","Self",473,0.473,1
5,121,"Matching","Fremder","Stranger","Stranger",721,0.721,1
5,122,"Matching","Ich","Self","Self",1255,1.255,1
5,123,"Nonmatching","Fremder","Stranger","Stranger",439,0.439,1
5,124,"Nonmatching","Ich","Self","Self",374,0.374,1
5,125,"Nonmatching","Ich","Self","Self",453,0.453,1
5,126,"Nonmatching","Fremder","Stranger","Stranger",484,0.484,1
5,127,"Matching","Ich","Self","Self",1034,1.034,1
5,128,"Matching","Fremder","Stranger","Stranger",468,0.468,1
6,1,"Matching","Ich","Self","Self",1592,1.592,1
6,2,"Matching","Fremder","Stranger","Stranger",848,0.848,1
6,3,"Nonmatching","Ich","Self","Self",610,0.61,1
6,4,"Nonmatching","Fremder","Stranger","Stranger",1521,1.521,1
6,5,"Nonmatching","Fremder","Stranger","Stranger",1400,1.4,1
6,6,"Nonmatching","Ich","Self","Self",682,0.682,1
6,7,"Matching","Ich","Self","Self",587,0.587,1
6,8,"Matching","Fremder","Stranger","Stranger",725,0.725,1
6,9,"Matching","Ich","Self","Self",1157,1.157,1
6,10,"Nonmatching","Ich","Self","Self",826,0.826,1
6,11,"Nonmatching","Fremder","Stranger","Stranger",843,0.843,1
6,12,"Matching","Fremder","Stranger","Stranger",1134,1.134,1
6,13,"Nonmatching","Ich","Self","Self",605,0.605,1
6,14,"Matching","Fremder","Stranger","Stranger",990,0.99,1
6,15,"Nonmatching","Fremder","Stranger","Stranger",741,0.741,1
6,16,"Matching","Ich","Self","Self",549,0.549,1
6,17,"Nonmatching","Fremder","Stranger","Stranger",1394,1.394,1
6,18,"Matching","Ich","Self","Self",1041,1.041,1
6,19,"Nonmatching","Ich","Self","Self",723,0.723,1
6,20,"Matching","Fremder","Stranger","Stranger",1400,1.4,1
6,21,"Nonmatching","Ich","Self","Self",626,0.626,1
6,22,"Matching","Fremder","Stranger","Stranger",1261,1.261,1
6,23,"Matching","Ich","Self","Self",962,0.962,1
6,24,"Nonmatching","Fremder","Stranger","Stranger",1001,1.001,1
6,25,"Nonmatching","Fremder","Stranger","Stranger",1426,1.426,1
6,26,"Nonmatching","Ich","Self","Self",686,0.686,1
6,27,"Matching","Fremder","Stranger","Stranger",1084,1.084,1
6,28,"Matching","Ich","Self","Self",562,0.562,1
6,29,"Nonmatching","Ich","Self","Self",622,0.622,1
6,30,"Nonmatching","Fremder","Stranger","Stranger",683,0.683,1
6,31,"Matching","Ich","Self","Self",1044,1.044,1
6,32,"Matching","Fremder","Stranger","Stranger",736,0.736,1
6,33,"Matching","Fremder","Stranger","Stranger",636,0.636,1
6,34,"Matching","Ich","Self","Self",715,0.715,1
6,35,"Nonmatching","Ich","Self","Self",739,0.739,1
6,36,"Nonmatching","Fremder","Stranger","Stranger",858,0.858,1
6,37,"Nonmatching","Fremder","Stranger","Stranger",829,0.829,1
6,38,"Matching","Fremder","Stranger","Stranger",644,0.644,1
6,39,"Matching","Ich","Self","Self",500,0.5,1
6,40,"Nonmatching","Ich","Self","Self",716,0.716,1
6,41,"Matching","Ich","Self","Self",889,0.889,1
6,42,"Nonmatching","Fremder","Stranger","Stranger",845,0.845,1
6,43,"Matching","Fremder","Stranger","Stranger",780,0.78,1
6,44,"Nonmatching","Ich","Self","Self",570,0.57,1
6,45,"Matching","Fremder","Stranger","Stranger",766,0.766,0
6,46,"Nonmatching","Fremder","Stranger","Stranger",1185,1.185,1
6,47,"Matching","Ich","Self","Self",832,0.832,1
6,48,"Nonmatching","Ich","Self","Self",831,0.831,1
6,49,"Matching","Ich","Self","Self",482,0.482,1
6,50,"Nonmatching","Fremder","Stranger","Stranger",1007,1.007,1
6,51,"Matching","Fremder","Stranger","Stranger",896,0.896,1
6,52,"Nonmatching","Ich","Self","Self",925,0.925,1
6,53,"Nonmatching","Ich","Self","Self",650,0.65,1
6,54,"Nonmatching","Fremder","Stranger","Stranger",1113,1.113,1
6,55,"Matching","Fremder","Stranger","Stranger",884,0.884,1
6,56,"Matching","Ich","Self","Self",829,0.829,1
6,57,"Nonmatching","Ich","Self","Self",771,0.771,1
6,58,"Matching","Ich","Self","Self",628,0.628,1
6,59,"Matching","Fremder","Stranger","Stranger",458,0.458,0
6,60,"Nonmatching","Fremder","Stranger","Stranger",660,0.66,1
6,61,"Nonmatching","Fremder","Stranger","Stranger",772,0.772,1
6,62,"Nonmatching","Ich","Self","Self",680,0.68,1
6,63,"Matching","Ich","Self","Self",672,0.672,1
6,64,"Matching","Fremder","Stranger","Stranger",880,0.88,1
6,65,"Matching","Fremder","Stranger","Stranger",590,0.59,1
6,66,"Nonmatching","Fremder","Stranger","Stranger",1139,1.139,0
6,67,"Matching","Ich","Self","Self",954,0.954,1
6,68,"Nonmatching","Ich","Self","Self",1181,1.181,1
6,69,"Matching","Fremder","Stranger","Stranger",1475,1.475,1
6,70,"Matching","Ich","Self","Self",895,0.895,1
6,71,"Nonmatching","Ich","Self","Self",906,0.906,1
6,72,"Nonmatching","Fremder","Stranger","Stranger",1056,1.056,1
6,73,"Nonmatching","Ich","Self","Self",634,0.634,1
6,74,"Nonmatching","Fremder","Stranger","Stranger",1133,1.133,1
6,75,"Matching","Fremder","Stranger","Stranger",957,0.957,1
6,76,"Matching","Ich","Self","Self",842,0.842,1
6,77,"Nonmatching","Ich","Self","Self",802,0.802,1
6,78,"Nonmatching","Fremder","Stranger","Stranger",821,0.821,1
6,79,"Matching","Ich","Self","Self",714,0.714,1
6,80,"Matching","Fremder","Stranger","Stranger",873,0.873,1
6,81,"Nonmatching","Fremder","Stranger","Stranger",733,0.733,1
6,82,"Nonmatching","Ich","Self","Self",987,0.987,1
6,83,"Matching","Ich","Self","Self",959,0.959,1
6,84,"Matching","Fremder","Stranger","Stranger",890,0.89,1
6,85,"Nonmatching","Ich","Self","Self",789,0.789,1
6,86,"Matching","Fremder","Stranger","Stranger",946,0.946,1
6,87,"Nonmatching","Fremder","Stranger","Stranger",819,0.819,1
6,88,"Matching","Ich","Self","Self",752,0.752,1
6,89,"Nonmatching","Fremder","Stranger","Stranger",647,0.647,1
6,90,"Matching","Fremder","Stranger","Stranger",613,0.613,1
6,91,"Nonmatching","Ich","Self","Self",534,0.534,1
6,92,"Matching","Ich","Self","Self",776,0.776,1
6,93,"Matching","Ich","Self","Self",665,0.665,1
6,94,"Matching","Fremder","Stranger","Stranger",618,0.618,1
6,95,"Nonmatching","Ich","Self","Self",375,0.375,1
6,96,"Nonmatching","Fremder","Stranger","Stranger",429,0.429,1
6,97,"Nonmatching","Ich","Self","Self",635,0.635,1
6,98,"Matching","Ich","Self","Self",411,0.411,1
6,99,"Nonmatching","Fremder","Stranger","Stranger",451,0.451,1
6,100,"Matching","Fremder","Stranger","Stranger",532,0.532,0
6,101,"Matching","Ich","Self","Self",962,0.962,1
6,102,"Nonmatching","Fremder","Stranger","Stranger",451,0.451,1
6,103,"Matching","Fremder","Stranger","Stranger",752,0.752,1
6,104,"Nonmatching","Ich","Self","Self",424,0.424,1
6,105,"Nonmatching","Ich","Self","Self",480,0.48,1
6,106,"Matching","Fremder","Stranger","Stranger",305,0.305,1
6,107,"Matching","Ich","Self","Self",446,0.446,1
6,108,"Nonmatching","Fremder","Stranger","Stranger",527,0.527,0
6,109,"Matching","Ich","Self","Self",658,0.658,1
6,110,"Matching","Fremder","Stranger","Stranger",818,0.818,1
6,111,"Nonmatching","Fremder","Stranger","Stranger",528,0.528,1
6,112,"Nonmatching","Ich","Self","Self",664,0.664,1
6,113,"Nonmatching","Ich","Self","Self",372,0.372,1
6,114,"Matching","Fremder","Stranger","Stranger",707,0.707,1
6,115,"Matching","Ich","Self","Self",493,0.493,1
6,116,"Nonmatching","Fremder","Stranger","Stranger",585,0.585,1
6,117,"Matching","Fremder","Stranger","Stranger",461,0.461,1
6,118,"Nonmatching","Ich","Self","Self",399,0.399,1
6,119,"Matching","Ich","Self","Self",442,0.442,1
6,120,"Nonmatching","Fremder","Stranger","Stranger",566,0.566,1
6,121,"Matching","Fremder","Stranger","Stranger",721,0.721,1
6,122,"Nonmatching","Fremder","Stranger","Stranger",485,0.485,1
6,123,"Matching","Ich","Self","Self",657,0.657,1
6,124,"Nonmatching","Ich","Self","Self",498,0.498,1
6,125,"Matching","Fremder","Stranger","Stranger",509,0.509,1
6,126,"Nonmatching","Fremder","Stranger","Stranger",526,0.526,1
6,127,"Nonmatching","Ich","Self","Self",630,0.63,1
6,128,"Matching","Ich","Self","Self",598,0.598,1
7,1,"Matching","Ich","Self","Self",5741,5.741,1
7,2,"Matching","Fremder","Stranger","Stranger",1075,1.075,1
7,3,"Nonmatching","Fremder","Stranger","Stranger",1258,1.258,1
7,4,"Nonmatching","Ich","Self","Self",1458,1.458,1
7,5,"Nonmatching","Ich","Self","Self",767,0.767,1
7,6,"Matching","Ich","Self","Self",2176,2.176,1
7,7,"Matching","Fremder","Stranger","Stranger",1812,1.812,1
7,8,"Nonmatching","Fremder","Stranger","Stranger",1134,1.134,1
7,9,"Nonmatching","Fremder","Stranger","Stranger",983,0.983,1
7,10,"Matching","Ich","Self","Self",1656,1.656,1
7,11,"Matching","Fremder","Stranger","Stranger",3939,3.939,1
7,12,"Nonmatching","Ich","Self","Self",944,0.944,1
7,13,"Matching","Ich","Self","Self",3092,3.092,1
7,14,"Nonmatching","Ich","Self","Self",951,0.951,1
7,15,"Nonmatching","Fremder","Stranger","Stranger",2696,2.696,1
7,16,"Matching","Fremder","Stranger","Stranger",1200,1.2,1
7,17,"Nonmatching","Fremder","Stranger","Stranger",1155,1.155,1
7,18,"Nonmatching","Ich","Self","Self",895,0.895,1
7,19,"Matching","Ich","Self","Self",961,0.961,1
7,20,"Matching","Fremder","Stranger","Stranger",1250,1.25,1
7,21,"Nonmatching","Fremder","Stranger","Stranger",1434,1.434,1
7,22,"Matching","Fremder","Stranger","Stranger",1118,1.118,1
7,23,"Matching","Ich","Self","Self",713,0.713,1
7,24,"Nonmatching","Ich","Self","Self",892,0.892,1
7,25,"Matching","Fremder","Stranger","Stranger",892,0.892,1
7,26,"Nonmatching","Ich","Self","Self",922,0.922,1
7,27,"Matching","Ich","Self","Self",688,0.688,1
7,28,"Nonmatching","Fremder","Stranger","Stranger",931,0.931,1
7,29,"Nonmatching","Ich","Self","Self",1317,1.317,1
7,30,"Nonmatching","Fremder","Stranger","Stranger",612,0.612,1
7,31,"Matching","Ich","Self","Self",634,0.634,1
7,32,"Matching","Fremder","Stranger","Stranger",736,0.736,1
7,33,"Matching","Ich","Self","Self",818,0.818,1
7,34,"Matching","Fremder","Stranger","Stranger",1238,1.238,1
7,35,"Nonmatching","Fremder","Stranger","Stranger",1446,1.446,1
7,36,"Nonmatching","Ich","Self","Self",747,0.747,1
7,37,"Matching","Ich","Self","Self",915,0.915,1
7,38,"Nonmatching","Fremder","Stranger","Stranger",1678,1.678,1
7,39,"Nonmatching","Ich","Self","Self",643,0.643,1
7,40,"Matching","Fremder","Stranger","Stranger",730,0.73,1
7,41,"Matching","Ich","Self","Self",707,0.707,1
7,42,"Nonmatching","Fremder","Stranger","Stranger",851,0.851,1
7,43,"Matching","Fremder","Stranger","Stranger",776,0.776,1
7,44,"Nonmatching","Ich","Self","Self",829,0.829,1
7,45,"Matching","Fremder","Stranger","Stranger",931,0.931,1
7,46,"Nonmatching","Fremder","Stranger","Stranger",701,0.701,1
7,47,"Nonmatching","Ich","Self","Self",737,0.737,1
7,48,"Matching","Ich","Self","Self",1098,1.098,1
7,49,"Nonmatching","Ich","Self","Self",616,0.616,1
7,50,"Nonmatching","Fremder","Stranger","Stranger",691,0.691,1
7,51,"Matching","Fremder","Stranger","Stranger",733,0.733,1
7,52,"Matching","Ich","Self","Self",1444,1.444,1
7,53,"Nonmatching","Fremder","Stranger","Stranger",927,0.927,1
7,54,"Matching","Ich","Self","Self",1032,1.032,1
7,55,"Nonmatching","Ich","Self","Self",549,0.549,1
7,56,"Matching","Fremder","Stranger","Stranger",827,0.827,1
7,57,"Nonmatching","Ich","Self","Self",515,0.515,1
7,58,"Matching","Ich","Self","Self",640,0.64,1
7,59,"Nonmatching","Fremder","Stranger","Stranger",950,0.95,1
7,60,"Matching","Fremder","Stranger","Stranger",904,0.904,1
7,61,"Nonmatching","Fremder","Stranger","Stranger",751,0.751,1
7,62,"Nonmatching","Ich","Self","Self",666,0.666,1
7,63,"Matching","Fremder","Stranger","Stranger",745,0.745,1
7,64,"Matching","Ich","Self","Self",531,0.531,1
7,65,"Nonmatching","Fremder","Stranger","Stranger",639,0.639,1
7,66,"Matching","Fremder","Stranger","Stranger",664,0.664,1
7,67,"Matching","Ich","Self","Self",659,0.659,1
7,68,"Nonmatching","Ich","Self","Self",565,0.565,1
7,69,"Matching","Fremder","Stranger","Stranger",692,0.692,1
7,70,"Matching","Ich","Self","Self",607,0.607,1
7,71,"Nonmatching","Ich","Self","Self",553,0.553,1
7,72,"Nonmatching","Fremder","Stranger","Stranger",594,0.594,1
7,73,"Matching","Ich","Self","Self",693,0.693,1
7,74,"Nonmatching","Fremder","Stranger","Stranger",564,0.564,1
7,75,"Nonmatching","Ich","Self","Self",845,0.845,1
7,76,"Matching","Fremder","Stranger","Stranger",1034,1.034,1
7,77,"Matching","Fremder","Stranger","Stranger",764,0.764,1
7,78,"Nonmatching","Ich","Self","Self",617,0.617,1
7,79,"Matching","Ich","Self","Self",710,0.71,1
7,80,"Nonmatching","Fremder","Stranger","Stranger",1094,1.094,0
7,81,"Matching","Ich","Self","Self",867,0.867,1
7,82,"Matching","Fremder","Stranger","Stranger",1335,1.335,1
7,83,"Nonmatching","Fremder","Stranger","Stranger",891,0.891,1
7,84,"Nonmatching","Ich","Self","Self",675,0.675,1
7,85,"Nonmatching","Fremder","Stranger","Stranger",752,0.752,1
7,86,"Matching","Ich","Self","Self",667,0.667,1
7,87,"Matching","Fremder","Stranger","Stranger",814,0.814,1
7,88,"Nonmatching","Ich","Self","Self",893,0.893,1
7,89,"Matching","Fremder","Stranger","Stranger",785,0.785,1
7,90,"Nonmatching","Fremder","Stranger","Stranger",538,0.538,1
7,91,"Nonmatching","Ich","Self","Self",1366,1.366,1
7,92,"Matching","Ich","Self","Self",1186,1.186,1
7,93,"Matching","Ich","Self","Self",736,0.736,1
7,94,"Nonmatching","Ich","Self","Self",687,0.687,1
7,95,"Matching","Fremder","Stranger","Stranger",867,0.867,1
7,96,"Nonmatching","Fremder","Stranger","Stranger",673,0.673,1
7,97,"Nonmatching","Fremder","Stranger","Stranger",733,0.733,1
7,98,"Matching","Fremder","Stranger","Stranger",909,0.909,1
7,99,"Matching","Ich","Self","Self",679,0.679,1
7,100,"Nonmatching","Ich","Self","Self",1120,1.12,1
7,101,"Nonmatching","Ich","Self","Self",541,0.541,1
7,102,"Matching","Fremder","Stranger","Stranger",630,0.63,1
7,103,"Nonmatching","Fremder","Stranger","Stranger",603,0.603,1
7,104,"Matching","Ich","Self","Self",558,0.558,1
7,105,"Nonmatching","Fremder","Stranger","Stranger",622,0.622,1
7,106,"Matching","Ich","Self","Self",486,0.486,1
7,107,"Nonmatching","Ich","Self","Self",662,0.662,1
7,108,"Matching","Fremder","Stranger","Stranger",662,0.662,1
7,109,"Nonmatching","Ich","Self","Self",522,0.522,1
7,110,"Matching","Fremder","Stranger","Stranger",608,0.608,1
7,111,"Nonmatching","Fremder","Stranger","Stranger",621,0.621,1
7,112,"Matching","Ich","Self","Self",544,0.544,1
7,113,"Nonmatching","Ich","Self","Self",518,0.518,1
7,114,"Matching","Fremder","Stranger","Stranger",643,0.643,1
7,115,"Nonmatching","Fremder","Stranger","Stranger",515,0.515,1
7,116,"Matching","Ich","Self","Self",451,0.451,1
7,117,"Nonmatching","Fremder","Stranger","Stranger",533,0.533,1
7,118,"Nonmatching","Ich","Self","Self",539,0.539,1
7,119,"Matching","Fremder","Stranger","Stranger",809,0.809,0
7,120,"Matching","Ich","Self","Self",577,0.577,1
7,121,"Matching","Fremder","Stranger","Stranger",564,0.564,1
7,122,"Nonmatching","Ich","Self","Self",552,0.552,1
7,123,"Nonmatching","Fremder","Stranger","Stranger",656,0.656,1
7,124,"Matching","Ich","Self","Self",635,0.635,1
7,125,"Nonmatching","Ich","Self","Self",493,0.493,1
7,126,"Matching","Fremder","Stranger","Stranger",532,0.532,1
7,127,"Matching","Ich","Self","Self",544,0.544,1
7,128,"Nonmatching","Fremder","Stranger","Stranger",578,0.578,1
8,1,"Matching","Ich","Self","Self",513,0.513,1
8,2,"Matching","Fremder","Stranger","Stranger",626,0.626,0
8,3,"Nonmatching","Ich","Self","Self",1068,1.068,1
8,4,"Nonmatching","Fremder","Stranger","Stranger",940,0.94,1
8,5,"Matching","Fremder","Stranger","Stranger",811,0.811,1
8,6,"Nonmatching","Fremder","Stranger","Stranger",834,0.834,1
8,7,"Nonmatching","Ich","Self","Self",888,0.888,1
8,8,"Matching","Ich","Self","Self",1033,1.033,1
8,9,"Matching","Fremder","Stranger","Stranger",1170,1.17,1
8,10,"Matching","Ich","Self","Self",971,0.971,1
8,11,"Nonmatching","Ich","Self","Self",678,0.678,1
8,12,"Nonmatching","Fremder","Stranger","Stranger",914,0.914,1
8,13,"Nonmatching","Ich","Self","Self",834,0.834,1
8,14,"Nonmatching","Fremder","Stranger","Stranger",635,0.635,1
8,15,"Matching","Ich","Self","Self",709,0.709,1
8,16,"Matching","Fremder","Stranger","Stranger",1003,1.003,1
8,17,"Matching","Ich","Self","Self",1365,1.365,1
8,18,"Nonmatching","Ich","Self","Self",596,0.596,1
8,19,"Nonmatching","Fremder","Stranger","Stranger",1296,1.296,1
8,20,"Matching","Fremder","Stranger","Stranger",1689,1.689,1
8,21,"Matching","Fremder","Stranger","Stranger",1073,1.073,1
8,22,"Nonmatching","Fremder","Stranger","Stranger",620,0.62,1
8,23,"Matching","Ich","Self","Self",1068,1.068,1
8,24,"Nonmatching","Ich","Self","Self",1138,1.138,1
8,25,"Matching","Fremder","Stranger","Stranger",876,0.876,1
8,26,"Nonmatching","Fremder","Stranger","Stranger",1159,1.159,1
8,27,"Matching","Ich","Self","Self",1067,1.067,1
8,28,"Nonmatching","Ich","Self","Self",1173,1.173,1
8,29,"Matching","Fremder","Stranger","Stranger",973,0.973,1
8,30,"Matching","Ich","Self","Self",539,0.539,1
8,31,"Nonmatching","Ich","Self","Self",706,0.706,1
8,32,"Nonmatching","Fremder","Stranger","Stranger",713,0.713,1
8,33,"Nonmatching","Ich","Self","Self",622,0.622,1
8,34,"Matching","Fremder","Stranger","Stranger",1294,1.294,1
8,35,"Matching","Ich","Self","Self",511,0.511,1
8,36,"Nonmatching","Fremder","Stranger","Stranger",638,0.638,1
8,37,"Matching","Ich","Self","Self",834,0.834,1
8,38,"Nonmatching","Ich","Self","Self",706,0.706,1
8,39,"Matching","Fremder","Stranger","Stranger",1099,1.099,1
8,40,"Nonmatching","Fremder","Stranger","Stranger",984,0.984,1
8,41,"Matching","Ich","Self","Self",994,0.994,1
8,42,"Nonmatching","Ich","Self","Self",940,0.94,1
8,43,"Matching","Fremder","Stranger","Stranger",909,0.909,1
8,44,"Nonmatching","Fremder","Stranger","Stranger",1485,1.485,1
8,45,"Matching","Ich","Self","Self",537,0.537,1
8,46,"Nonmatching","Fremder","Stranger","Stranger",703,0.703,1
8,47,"Nonmatching","Ich","Self","Self",815,0.815,1
8,48,"Matching","Fremder","Stranger","Stranger",884,0.884,1
8,49,"Nonmatching","Ich","Self","Self",761,0.761,1
8,50,"Matching","Ich","Self","Self",629,0.629,1
8,51,"Nonmatching","Fremder","Stranger","Stranger",904,0.904,1
8,52,"Matching","Fremder","Stranger","Stranger",906,0.906,1
8,53,"Matching","Fremder","Stranger","Stranger",1248,1.248,1
8,54,"Matching","Ich","Self","Self",705,0.705,1
8,55,"Nonmatching","Fremder","Stranger","Stranger",553,0.553,1
8,56,"Nonmatching","Ich","Self","Self",692,0.692,1
8,57,"Matching","Ich","Self","Self",611,0.611,1
8,58,"Matching","Fremder","Stranger","Stranger",822,0.822,1
8,59,"Nonmatching","Ich","Self","Self",733,0.733,1
8,60,"Nonmatching","Fremder","Stranger","Stranger",878,0.878,1
8,61,"Nonmatching","Fremder","Stranger","Stranger",604,0.604,1
8,62,"Matching","Ich","Self","Self",1018,1.018,1
8,63,"Nonmatching","Ich","Self","Self",737,0.737,1
8,64,"Matching","Fremder","Stranger","Stranger",1274,1.274,1
8,65,"Matching","Ich","Self","Self",790,0.79,1
8,66,"Matching","Fremder","Stranger","Stranger",1355,1.355,1
8,67,"Nonmatching","Ich","Self","Self",683,0.683,1
8,68,"Nonmatching","Fremder","Stranger","Stranger",604,0.604,1
8,69,"Matching","Fremder","Stranger","Stranger",739,0.739,1
8,70,"Nonmatching","Fremder","Stranger","Stranger",750,0.75,1
8,71,"Matching","Ich","Self","Self",817,0.817,1
8,72,"Nonmatching","Ich","Self","Self",641,0.641,1
8,73,"Nonmatching","Fremder","Stranger","Stranger",643,0.643,1
8,74,"Nonmatching","Ich","Self","Self",1585,1.585,1
8,75,"Matching","Ich","Self","Self",504,0.504,1
8,76,"Matching","Fremder","Stranger","Stranger",817,0.817,1
8,77,"Matching","Ich","Self","Self",1319,1.319,1
8,78,"Nonmatching","Fremder","Stranger","Stranger",812,0.812,1
8,79,"Matching","Fremder","Stranger","Stranger",858,0.858,1
8,80,"Nonmatching","Ich","Self","Self",682,0.682,1
8,81,"Nonmatching","Ich","Self","Self",688,0.688,1
8,82,"Matching","Fremder","Stranger","Stranger",894,0.894,1
8,83,"Matching","Ich","Self","Self",933,0.933,1
8,84,"Nonmatching","Fremder","Stranger","Stranger",1250,1.25,1
8,85,"Matching","Ich","Self","Self",1285,1.285,1
8,86,"Nonmatching","Ich","Self","Self",610,0.61,1
8,87,"Nonmatching","Fremder","Stranger","Stranger",607,0.607,1
8,88,"Matching","Fremder","Stranger","Stranger",1268,1.268,1
8,89,"Nonmatching","Ich","Self","Self",793,0.793,1
8,90,"Nonmatching","Fremder","Stranger","Stranger",719,0.719,1
8,91,"Matching","Fremder","Stranger","Stranger",644,0.644,1
8,92,"Matching","Ich","Self","Self",1068,1.068,1
8,93,"Nonmatching","Ich","Self","Self",657,0.657,1
8,94,"Matching","Fremder","Stranger","Stranger",663,0.663,1
8,95,"Nonmatching","Fremder","Stranger","Stranger",700,0.7,1
8,96,"Matching","Ich","Self","Self",521,0.521,1
8,97,"Nonmatching","Ich","Self","Self",845,0.845,1
8,98,"Matching","Fremder","Stranger","Stranger",715,0.715,1
8,99,"Nonmatching","Fremder","Stranger","Stranger",740,0.74,1
8,100,"Matching","Ich","Self","Self",530,0.53,1
8,101,"Nonmatching","Ich","Self","Self",686,0.686,1
8,102,"Matching","Ich","Self","Self",580,0.58,1
8,103,"Nonmatching","Fremder","Stranger","Stranger",622,0.622,1
8,104,"Matching","Fremder","Stranger","Stranger",1145,1.145,1
8,105,"Nonmatching","Ich","Self","Self",665,0.665,1
8,106,"Nonmatching","Fremder","Stranger","Stranger",909,0.909,1
8,107,"Matching","Ich","Self","Self",671,0.671,1
8,108,"Matching","Fremder","Stranger","Stranger",639,0.639,0
8,109,"Nonmatching","Fremder","Stranger","Stranger",768,0.768,1
8,110,"Matching","Ich","Self","Self",637,0.637,1
8,111,"Matching","Fremder","Stranger","Stranger",750,0.75,1
8,112,"Nonmatching","Ich","Self","Self",712,0.712,1
8,113,"Nonmatching","Fremder","Stranger","Stranger",1200,1.2,1
8,114,"Matching","Ich","Self","Self",581,0.581,1
8,115,"Nonmatching","Ich","Self","Self",578,0.578,1
8,116,"Matching","Fremder","Stranger","Stranger",617,0.617,1
8,117,"Matching","Ich","Self","Self",655,0.655,1
8,118,"Matching","Fremder","Stranger","Stranger",709,0.709,1
8,119,"Nonmatching","Fremder","Stranger","Stranger",542,0.542,1
8,120,"Nonmatching","Ich","Self","Self",673,0.673,1
8,121,"Nonmatching","Ich","Self","Self",624,0.624,1
8,122,"Nonmatching","Fremder","Stranger","Stranger",670,0.67,1
8,123,"Matching","Ich","Self","Self",681,0.681,1
8,124,"Matching","Fremder","Stranger","Stranger",639,0.639,1
8,125,"Matching","Fremder","Stranger","Stranger",874,0.874,1
8,126,"Nonmatching","Ich","Self","Self",855,0.855,1
8,127,"Nonmatching","Fremder","Stranger","Stranger",548,0.548,1
8,128,"Matching","Ich","Self","Self",795,0.795,1
9,1,"Matching","Ich","Self","Self",510,0.51,1
9,2,"Matching","Fremder","Stranger","Stranger",653,0.653,1
9,3,"Nonmatching","Ich","Self","Self",669,0.669,1
9,4,"Nonmatching","Fremder","Stranger","Stranger",1126,1.126,1
9,5,"Nonmatching","Fremder","Stranger","Stranger",644,0.644,1
9,6,"Matching","Fremder","Stranger","Stranger",683,0.683,1
9,7,"Matching","Ich","Self","Self",610,0.61,1
9,8,"Nonmatching","Ich","Self","Self",789,0.789,1
9,9,"Matching","Fremder","Stranger","Stranger",683,0.683,1
9,10,"Nonmatching","Ich","Self","Self",697,0.697,1
9,11,"Nonmatching","Fremder","Stranger","Stranger",589,0.589,1
9,12,"Matching","Ich","Self","Self",569,0.569,1
9,13,"Nonmatching","Ich","Self","Self",576,0.576,1
9,14,"Nonmatching","Fremder","Stranger","Stranger",730,0.73,1
9,15,"Matching","Ich","Self","Self",613,0.613,1
9,16,"Matching","Fremder","Stranger","Stranger",754,0.754,1
9,17,"Matching","Fremder","Stranger","Stranger",554,0.554,0
9,18,"Nonmatching","Fremder","Stranger","Stranger",794,0.794,1
9,19,"Matching","Ich","Self","Self",621,0.621,1
9,20,"Nonmatching","Ich","Self","Self",559,0.559,1
9,21,"Matching","Fremder","Stranger","Stranger",608,0.608,0
9,22,"Nonmatching","Fremder","Stranger","Stranger",685,0.685,1
9,23,"Nonmatching","Ich","Self","Self",663,0.663,1
9,24,"Matching","Ich","Self","Self",501,0.501,1
9,25,"Nonmatching","Fremder","Stranger","Stranger",674,0.674,1
9,26,"Nonmatching","Ich","Self","Self",635,0.635,1
9,27,"Matching","Ich","Self","Self",660,0.66,1
9,28,"Matching","Fremder","Stranger","Stranger",778,0.778,1
9,29,"Nonmatching","Fremder","Stranger","Stranger",704,0.704,1
9,30,"Matching","Ich","Self","Self",565,0.565,1
9,31,"Nonmatching","Ich","Self","Self",589,0.589,1
9,32,"Matching","Fremder","Stranger","Stranger",683,0.683,1
9,33,"Matching","Ich","Self","Self",649,0.649,1
9,34,"Nonmatching","Fremder","Stranger","Stranger",612,0.612,1
9,35,"Nonmatching","Ich","Self","Self",668,0.668,1
9,36,"Matching","Fremder","Stranger","Stranger",559,0.559,1
9,37,"Nonmatching","Ich","Self","Self",667,0.667,1
9,38,"Nonmatching","Fremder","Stranger","Stranger",824,0.824,1
9,39,"Matching","Fremder","Stranger","Stranger",850,0.85,1
9,40,"Matching","Ich","Self","Self",679,0.679,1
9,41,"Matching","Ich","Self","Self",538,0.538,1
9,42,"Nonmatching","Fremder","Stranger","Stranger",633,0.633,1
9,43,"Matching","Fremder","Stranger","Stranger",564,0.564,1
9,44,"Nonmatching","Ich","Self","Self",563,0.563,1
9,45,"Matching","Ich","Self","Self",628,0.628,1
9,46,"Nonmatching","Ich","Self","Self",503,0.503,1
9,47,"Nonmatching","Fremder","Stranger","Stranger",743,0.743,1
9,48,"Matching","Fremder","Stranger","Stranger",833,0.833,1
9,49,"Matching","Ich","Self","Self",585,0.585,1
9,50,"Matching","Fremder","Stranger","Stranger",510,0.51,1
9,51,"Nonmatching","Fremder","Stranger","Stranger",501,0.501,1
9,52,"Nonmatching","Ich","Self","Self",694,0.694,1
9,53,"Nonmatching","Ich","Self","Self",617,0.617,1
9,54,"Nonmatching","Fremder","Stranger","Stranger",732,0.732,1
9,55,"Matching","Fremder","Stranger","Stranger",575,0.575,1
9,56,"Matching","Ich","Self","Self",698,0.698,1
9,57,"Nonmatching","Fremder","Stranger","Stranger",447,0.447,1
9,58,"Matching","Ich","Self","Self",502,0.502,1
9,59,"Nonmatching","Ich","Self","Self",630,0.63,1
9,60,"Matching","Fremder","Stranger","Stranger",555,0.555,1
9,61,"Matching","Fremder","Stranger","Stranger",637,0.637,1
9,62,"Nonmatching","Ich","Self","Self",693,0.693,1
9,63,"Nonmatching","Fremder","Stranger","Stranger",544,0.544,1
9,64,"Matching","Ich","Self","Self",696,0.696,1
9,65,"Matching","Fremder","Stranger","Stranger",794,0.794,1
9,66,"Nonmatching","Ich","Self","Self",606,0.606,1
9,67,"Nonmatching","Fremder","Stranger","Stranger",705,0.705,1
9,68,"Matching","Ich","Self","Self",521,0.521,1
9,69,"Nonmatching","Ich","Self","Self",599,0.599,1
9,70,"Matching","Fremder","Stranger","Stranger",530,0.53,1
9,71,"Matching","Ich","Self","Self",542,0.542,0
9,72,"Nonmatching","Fremder","Stranger","Stranger",570,0.57,1
9,73,"Nonmatching","Fremder","Stranger","Stranger",611,0.611,1
9,74,"Matching","Ich","Self","Self",531,0.531,1
9,75,"Matching","Fremder","Stranger","Stranger",591,0.591,1
9,76,"Nonmatching","Ich","Self","Self",671,0.671,1
9,77,"Matching","Fremder","Stranger","Stranger",766,0.766,1
9,78,"Nonmatching","Fremder","Stranger","Stranger",606,0.606,1
9,79,"Nonmatching","Ich","Self","Self",610,0.61,1
9,80,"Matching","Ich","Self","Self",551,0.551,0
9,81,"Nonmatching","Ich","Self","Self",543,0.543,0
9,82,"Matching","Ich","Self","Self",720,0.72,1
9,83,"Nonmatching","Fremder","Stranger","Stranger",650,0.65,1
9,84,"Matching","Fremder","Stranger","Stranger",538,0.538,1
9,85,"Nonmatching","Fremder","Stranger","Stranger",491,0.491,1
9,86,"Matching","Fremder","Stranger","Stranger",537,0.537,1
9,87,"Matching","Ich","Self","Self",516,0.516,0
9,88,"Nonmatching","Ich","Self","Self",697,0.697,1
9,89,"Nonmatching","Ich","Self","Self",524,0.524,1
9,90,"Nonmatching","Fremder","Stranger","Stranger",497,0.497,1
9,91,"Matching","Ich","Self","Self",528,0.528,1
9,92,"Matching","Fremder","Stranger","Stranger",577,0.577,1
9,93,"Matching","Fremder","Stranger","Stranger",614,0.614,1
9,94,"Nonmatching","Fremder","Stranger","Stranger",557,0.557,1
9,95,"Nonmatching","Ich","Self","Self",489,0.489,1
9,96,"Matching","Ich","Self","Self",558,0.558,1
9,97,"Nonmatching","Ich","Self","Self",660,0.66,1
9,98,"Matching","Fremder","Stranger","Stranger",694,0.694,1
9,99,"Matching","Ich","Self","Self",671,0.671,1
9,100,"Nonmatching","Fremder","Stranger","Stranger",732,0.732,0
9,101,"Nonmatching","Ich","Self","Self",747,0.747,1
9,102,"Matching","Ich","Self","Self",753,0.753,1
9,103,"Nonmatching","Fremder","Stranger","Stranger",607,0.607,1
9,104,"Matching","Fremder","Stranger","Stranger",509,0.509,1
9,105,"Nonmatching","Ich","Self","Self",576,0.576,1
9,106,"Nonmatching","Fremder","Stranger","Stranger",724,0.724,1
9,107,"Matching","Fremder","Stranger","Stranger",512,0.512,1
9,108,"Matching","Ich","Self","Self",561,0.561,1
9,109,"Matching","Fremder","Stranger","Stranger",447,0.447,1
9,110,"Matching","Ich","Self","Self",520,0.52,1
9,111,"Nonmatching","Ich","Self","Self",649,0.649,1
9,112,"Nonmatching","Fremder","Stranger","Stranger",743,0.743,1
9,113,"Matching","Fremder","Stranger","Stranger",499,0.499,1
9,114,"Nonmatching","Ich","Self","Self",661,0.661,1
9,115,"Nonmatching","Fremder","Stranger","Stranger",579,0.579,1
9,116,"Matching","Ich","Self","Self",557,0.557,1
9,117,"Matching","Fremder","Stranger","Stranger",633,0.633,1
9,118,"Matching","Ich","Self","Self",586,0.586,1
9,119,"Nonmatching","Ich","Self","Self",673,0.673,1
9,120,"Nonmatching","Fremder","Stranger","Stranger",607,0.607,1
9,121,"Matching","Ich","Self","Self",531,0.531,1
9,122,"Matching","Fremder","Stranger","Stranger",597,0.597,1
9,123,"Nonmatching","Ich","Self","Self",621,0.621,1
9,124,"Nonmatching","Fremder","Stranger","Stranger",625,0.625,1
9,125,"Nonmatching","Fremder","Stranger","Stranger",653,0.653,1
9,126,"Nonmatching","Ich","Self","Self",659,0.659,1
9,127,"Matching","Ich","Self","Self",560,0.56,0
9,128,"Matching","Fremder","Stranger","Stranger",570,0.57,1
10,1,"Matching","Ich","Self","Self",1307,1.307,1
10,2,"Nonmatching","Fremder","Stranger","Stranger",1261,1.261,1
10,3,"Matching","Fremder","Stranger","Stranger",863,0.863,1
10,4,"Nonmatching","Ich","Self","Self",1723,1.723,1
10,5,"Matching","Ich","Self","Self",660,0.66,1
10,6,"Nonmatching","Ich","Self","Self",616,0.616,1
10,7,"Matching","Fremder","Stranger","Stranger",518,0.518,1
10,8,"Nonmatching","Fremder","Stranger","Stranger",835,0.835,1
10,9,"Matching","Ich","Self","Self",730,0.73,1
10,10,"Nonmatching","Fremder","Stranger","Stranger",810,0.81,1
10,11,"Matching","Fremder","Stranger","Stranger",529,0.529,1
10,12,"Nonmatching","Ich","Self","Self",755,0.755,1
10,13,"Nonmatching","Fremder","Stranger","Stranger",696,0.696,1
10,14,"Matching","Ich","Self","Self",834,0.834,1
10,15,"Matching","Fremder","Stranger","Stranger",758,0.758,0
10,16,"Nonmatching","Ich","Self","Self",929,0.929,1
10,17,"Nonmatching","Fremder","Stranger","Stranger",749,0.749,1
10,18,"Matching","Ich","Self","Self",937,0.937,1
10,19,"Nonmatching","Ich","Self","Self",672,0.672,1
10,20,"Matching","Fremder","Stranger","Stranger",1055,1.055,1
10,21,"Matching","Fremder","Stranger","Stranger",817,0.817,1
10,22,"Nonmatching","Ich","Self","Self",673,0.673,1
10,23,"Matching","Ich","Self","Self",749,0.749,1
10,24,"Nonmatching","Fremder","Stranger","Stranger",769,0.769,1
10,25,"Matching","Ich","Self","Self",853,0.853,1
10,26,"Matching","Fremder","Stranger","Stranger",879,0.879,1
10,27,"Nonmatching","Fremder","Stranger","Stranger",927,0.927,1
10,28,"Nonmatching","Ich","Self","Self",710,0.71,1
10,29,"Nonmatching","Fremder","Stranger","Stranger",693,0.693,1
10,30,"Nonmatching","Ich","Self","Self",821,0.821,1
10,31,"Matching","Ich","Self","Self",637,0.637,1
10,32,"Matching","Fremder","Stranger","Stranger",566,0.566,1
10,33,"Matching","Fremder","Stranger","Stranger",810,0.81,1
10,34,"Matching","Ich","Self","Self",511,0.511,0
10,35,"Nonmatching","Fremder","Stranger","Stranger",712,0.712,1
10,36,"Nonmatching","Ich","Self","Self",727,0.727,1
10,37,"Nonmatching","Ich","Self","Self",796,0.796,1
10,38,"Matching","Ich","Self","Self",678,0.678,1
10,39,"Matching","Fremder","Stranger","Stranger",517,0.517,1
10,40,"Nonmatching","Fremder","Stranger","Stranger",741,0.741,1
10,41,"Matching","Fremder","Stranger","Stranger",828,0.828,1
10,42,"Matching","Ich","Self","Self",778,0.778,1
10,43,"Nonmatching","Ich","Self","Self",774,0.774,1
10,44,"Nonmatching","Fremder","Stranger","Stranger",792,0.792,1
10,45,"Nonmatching","Fremder","Stranger","Stranger",798,0.798,1
10,46,"Matching","Fremder","Stranger","Stranger",730,0.73,1
10,47,"Matching","Ich","Self","Self",497,0.497,1
10,48,"Nonmatching","Ich","Self","Self",587,0.587,1
10,49,"Matching","Ich","Self","Self",864,0.864,1
10,50,"Matching","Fremder","Stranger","Stranger",540,0.54,1
10,51,"Nonmatching","Fremder","Stranger","Stranger",638,0.638,1
10,52,"Nonmatching","Ich","Self","Self",914,0.914,1
10,53,"Matching","Fremder","Stranger","Stranger",705,0.705,1
10,54,"Matching","Ich","Self","Self",744,0.744,1
10,55,"Nonmatching","Ich","Self","Self",661,0.661,1
10,56,"Nonmatching","Fremder","Stranger","Stranger",560,0.56,1
10,57,"Nonmatching","Fremder","Stranger","Stranger",530,0.53,1
10,58,"Matching","Fremder","Stranger","Stranger",545,0.545,1
10,59,"Matching","Ich","Self","Self",672,0.672,1
10,60,"Nonmatching","Ich","Self","Self",378,0.378,1
10,61,"Nonmatching","Fremder","Stranger","Stranger",399,0.399,1
10,62,"Nonmatching","Ich","Self","Self",667,0.667,1
10,63,"Matching","Fremder","Stranger","Stranger",435,0.435,1
10,64,"Matching","Ich","Self","Self",392,0.392,1
10,65,"Nonmatching","Fremder","Stranger","Stranger",2181,2.181,1
10,66,"Matching","Ich","Self","Self",682,0.682,1
10,67,"Matching","Fremder","Stranger","Stranger",573,0.573,1
10,68,"Nonmatching","Ich","Self","Self",834,0.834,1
10,69,"Nonmatching","Ich","Self","Self",645,0.645,1
10,70,"Nonmatching","Fremder","Stranger","Stranger",399,0.399,1
10,71,"Matching","Ich","Self","Self",732,0.732,1
10,72,"Matching","Fremder","Stranger","Stranger",672,0.672,1
10,73,"Matching","Fremder","Stranger","Stranger",479,0.479,1
10,74,"Nonmatching","Fremder","Stranger","Stranger",664,0.664,1
10,75,"Matching","Ich","Self","Self",576,0.576,1
10,76,"Nonmatching","Ich","Self","Self",428,0.428,1
10,77,"Nonmatching","Ich","Self","Self",1331,1.331,1
10,78,"Matching","Fremder","Stranger","Stranger",549,0.549,1
10,79,"Matching","Ich","Self","Self",552,0.552,1
10,80,"Nonmatching","Fremder","Stranger","Stranger",522,0.522,1
10,81,"Matching","Fremder","Stranger","Stranger",624,0.624,1
10,82,"Nonmatching","Ich","Self","Self",548,0.548,1
10,83,"Matching","Ich","Self","Self",504,0.504,1
10,84,"Nonmatching","Fremder","Stranger","Stranger",558,0.558,1
10,85,"Nonmatching","Fremder","Stranger","Stranger",779,0.779,1
10,86,"Matching","Ich","Self","Self",677,0.677,1
10,87,"Matching","Fremder","Stranger","Stranger",857,0.857,1
10,88,"Nonmatching","Ich","Self","Self",741,0.741,1
10,89,"Matching","Ich","Self","Self",633,0.633,1
10,90,"Nonmatching","Ich","Self","Self",576,0.576,1
10,91,"Matching","Fremder","Stranger","Stranger",575,0.575,1
10,92,"Nonmatching","Fremder","Stranger","Stranger",609,0.609,1
10,93,"Matching","Ich","Self","Self",1023,1.023,1
10,94,"Nonmatching","Fremder","Stranger","Stranger",693,0.693,1
10,95,"Nonmatching","Ich","Self","Self",426,0.426,1
10,96,"Matching","Fremder","Stranger","Stranger",627,0.627,1
10,97,"Matching","Ich","Self","Self",540,0.54,1
10,98,"Nonmatching","Fremder","Stranger","Stranger",542,0.542,1
10,99,"Matching","Fremder","Stranger","Stranger",875,0.875,1
10,100,"Nonmatching","Ich","Self","Self",392,0.392,1
10,101,"Nonmatching","Fremder","Stranger","Stranger",358,0.358,1
10,102,"Matching","Ich","Self","Self",399,0.399,1
10,103,"Matching","Fremder","Stranger","Stranger",462,0.462,1
10,104,"Nonmatching","Ich","Self","Self",716,0.716,1
10,105,"Nonmatching","Fremder","Stranger","Stranger",651,0.651,1
10,106,"Nonmatching","Ich","Self","Self",726,0.726,1
10,107,"Matching","Fremder","Stranger","Stranger",823,0.823,1
10,108,"Matching","Ich","Self","Self",490,0.49,1
10,109,"Matching","Ich","Self","Self",479,0.479,1
10,110,"Nonmatching","Ich","Self","Self",729,0.729,1
10,111,"Nonmatching","Fremder","Stranger","Stranger",692,0.692,1
10,112,"Matching","Fremder","Stranger","Stranger",708,0.708,1
10,113,"Matching","Fremder","Stranger","Stranger",724,0.724,1
10,114,"Nonmatching","Fremder","Stranger","Stranger",644,0.644,1
10,115,"Matching","Ich","Self","Self",518,0.518,1
10,116,"Nonmatching","Ich","Self","Self",508,0.508,1
10,117,"Nonmatching","Fremder","Stranger","Stranger",535,0.535,1
10,118,"Matching","Fremder","Stranger","Stranger",543,0.543,1
10,119,"Matching","Ich","Self","Self",495,0.495,1
10,120,"Nonmatching","Ich","Self","Self",400,0.4,1
10,121,"Nonmatching","Ich","Self","Self",478,0.478,1
10,122,"Matching","Fremder","Stranger","Stranger",517,0.517,1
10,123,"Matching","Ich","Self","Self",444,0.444,1
10,124,"Nonmatching","Fremder","Stranger","Stranger",794,0.794,1
10,125,"Nonmatching","Fremder","Stranger","Stranger",740,0.74,1
10,126,"Nonmatching","Ich","Self","Self",670,0.67,1
10,127,"Matching","Fremder","Stranger","Stranger",427,0.427,1
10,128,"Matching","Ich","Self","Self",613,0.613,1
11,1,"Nonmatching","Ich","Self","Self",843,0.843,1
11,2,"Nonmatching","Fremder","Stranger","Stranger",851,0.851,1
11,3,"Matching","Fremder","Stranger","Stranger",798,0.798,1
11,4,"Matching","Ich","Self","Self",865,0.865,1
11,5,"Nonmatching","Fremder","Stranger","Stranger",1601,1.601,1
11,6,"Nonmatching","Ich","Self","Self",756,0.756,1
11,7,"Matching","Ich","Self","Self",625,0.625,1
11,8,"Matching","Fremder","Stranger","Stranger",543,0.543,0
11,9,"Nonmatching","Ich","Self","Self",633,0.633,1
11,10,"Nonmatching","Fremder","Stranger","Stranger",1264,1.264,1
11,11,"Matching","Ich","Self","Self",642,0.642,1
11,12,"Matching","Fremder","Stranger","Stranger",730,0.73,1
11,13,"Nonmatching","Fremder","Stranger","Stranger",642,0.642,1
11,14,"Matching","Ich","Self","Self",623,0.623,1
11,15,"Matching","Fremder","Stranger","Stranger",701,0.701,1
11,16,"Nonmatching","Ich","Self","Self",848,0.848,1
11,17,"Nonmatching","Ich","Self","Self",1393,1.393,1
11,18,"Nonmatching","Fremder","Stranger","Stranger",651,0.651,1
11,19,"Matching","Fremder","Stranger","Stranger",1014,1.014,0
11,20,"Matching","Ich","Self","Self",570,0.57,1
11,21,"Matching","Fremder","Stranger","Stranger",818,0.818,0
11,22,"Nonmatching","Ich","Self","Self",839,0.839,1
11,23,"Nonmatching","Fremder","Stranger","Stranger",816,0.816,1
11,24,"Matching","Ich","Self","Self",658,0.658,1
11,25,"Nonmatching","Fremder","Stranger","Stranger",868,0.868,1
11,26,"Nonmatching","Ich","Self","Self",745,0.745,1
11,27,"Matching","Ich","Self","Self",727,0.727,1
11,28,"Matching","Fremder","Stranger","Stranger",741,0.741,1
11,29,"Nonmatching","Fremder","Stranger","Stranger",840,0.84,1
11,30,"Matching","Fremder","Stranger","Stranger",960,0.96,1
11,31,"Nonmatching","Ich","Self","Self",837,0.837,1
11,32,"Matching","Ich","Self","Self",708,0.708,1
11,33,"Nonmatching","Ich","Self","Self",727,0.727,1
11,34,"Matching","Fremder","Stranger","Stranger",740,0.74,1
11,35,"Nonmatching","Fremder","Stranger","Stranger",561,0.561,1
11,36,"Matching","Ich","Self","Self",667,0.667,1
11,37,"Matching","Fremder","Stranger","Stranger",816,0.816,1
11,38,"Nonmatching","Fremder","Stranger","Stranger",607,0.607,1
11,39,"Nonmatching","Ich","Self","Self",793,0.793,1
11,40,"Matching","Ich","Self","Self",624,0.624,1
11,41,"Matching","Ich","Self","Self",599,0.599,1
11,42,"Nonmatching","Ich","Self","Self",611,0.611,1
11,43,"Matching","Fremder","Stranger","Stranger",1089,1.089,1
11,44,"Nonmatching","Fremder","Stranger","Stranger",804,0.804,1
11,45,"Nonmatching","Ich","Self","Self",716,0.716,1
11,46,"Matching","Ich","Self","Self",654,0.654,1
11,47,"Matching","Fremder","Stranger","Stranger",675,0.675,0
11,48,"Nonmatching","Fremder","Stranger","Stranger",765,0.765,1
11,49,"Matching","Ich","Self","Self",916,0.916,1
11,50,"Nonmatching","Ich","Self","Self",705,0.705,1
11,51,"Nonmatching","Fremder","Stranger","Stranger",764,0.764,1
11,52,"Matching","Fremder","Stranger","Stranger",509,0.509,0
11,53,"Matching","Ich","Self","Self",634,0.634,1
11,54,"Nonmatching","Ich","Self","Self",677,0.677,1
11,55,"Nonmatching","Fremder","Stranger","Stranger",501,0.501,1
11,56,"Matching","Fremder","Stranger","Stranger",1063,1.063,1
11,57,"Matching","Ich","Self","Self",721,0.721,1
11,58,"Nonmatching","Fremder","Stranger","Stranger",819,0.819,1
11,59,"Nonmatching","Ich","Self","Self",737,0.737,1
11,60,"Matching","Fremder","Stranger","Stranger",811,0.811,1
11,61,"Nonmatching","Ich","Self","Self",812,0.812,1
11,62,"Matching","Ich","Self","Self",945,0.945,1
11,63,"Matching","Fremder","Stranger","Stranger",771,0.771,1
11,64,"Nonmatching","Fremder","Stranger","Stranger",591,0.591,1
11,65,"Nonmatching","Fremder","Stranger","Stranger",669,0.669,1
11,66,"Nonmatching","Ich","Self","Self",577,0.577,1
11,67,"Matching","Ich","Self","Self",590,0.59,1
11,68,"Matching","Fremder","Stranger","Stranger",967,0.967,1
11,69,"Matching","Ich","Self","Self",581,0.581,1
11,70,"Nonmatching","Fremder","Stranger","Stranger",777,0.777,1
11,71,"Nonmatching","Ich","Self","Self",656,0.656,1
11,72,"Matching","Fremder","Stranger","Stranger",635,0.635,1
11,73,"Nonmatching","Fremder","Stranger","Stranger",619,0.619,1
11,74,"Matching","Fremder","Stranger","Stranger",636,0.636,1
11,75,"Matching","Ich","Self","Self",522,0.522,1
11,76,"Nonmatching","Ich","Self","Self",764,0.764,1
11,77,"Nonmatching","Ich","Self","Self",1928,1.928,1
11,78,"Nonmatching","Fremder","Stranger","Stranger",547,0.547,0
11,79,"Matching","Fremder","Stranger","Stranger",860,0.86,1
11,80,"Matching","Ich","Self","Self",741,0.741,1
11,81,"Matching","Fremder","Stranger","Stranger",630,0.63,1
11,82,"Nonmatching","Fremder","Stranger","Stranger",696,0.696,1
11,83,"Nonmatching","Ich","Self","Self",1308,1.308,1
11,84,"Matching","Ich","Self","Self",911,0.911,1
11,85,"Nonmatching","Fremder","Stranger","Stranger",662,0.662,1
11,86,"Matching","Ich","Self","Self",737,0.737,1
11,87,"Matching","Fremder","Stranger","Stranger",664,0.664,1
11,88,"Nonmatching","Ich","Self","Self",645,0.645,1
11,89,"Nonmatching","Fremder","Stranger","Stranger",650,0.65,1
11,90,"Matching","Ich","Self","Self",619,0.619,1
11,91,"Matching","Fremder","Stranger","Stranger",613,0.613,1
11,92,"Nonmatching","Ich","Self","Self",607,0.607,1
11,93,"Nonmatching","Fremder","Stranger","Stranger",631,0.631,0
11,94,"Nonmatching","Ich","Self","Self",817,0.817,1
11,95,"Matching","Fremder","Stranger","Stranger",517,0.517,0
11,96,"Matching","Ich","Self","Self",587,0.587,1
11,97,"Matching","Ich","Self","Self",687,0.687,1
11,98,"Nonmatching","Fremder","Stranger","Stranger",918,0.918,1
11,99,"Matching","Fremder","Stranger","Stranger",673,0.673,1
11,100,"Nonmatching","Ich","Self","Self",825,0.825,1
11,101,"Matching","Ich","Self","Self",652,0.652,1
11,102,"Matching","Fremder","Stranger","Stranger",838,0.838,1
11,103,"Nonmatching","Fremder","Stranger","Stranger",643,0.643,1
11,104,"Nonmatching","Ich","Self","Self",735,0.735,1
11,105,"Nonmatching","Fremder","Stranger","Stranger",882,0.882,1
11,106,"Matching","Fremder","Stranger","Stranger",714,0.714,1
11,107,"Matching","Ich","Self","Self",565,0.565,1
11,108,"Nonmatching","Ich","Self","Self",586,0.586,1
11,109,"Matching","Fremder","Stranger","Stranger",704,0.704,1
11,110,"Nonmatching","Fremder","Stranger","Stranger",634,0.634,1
11,111,"Nonmatching","Ich","Self","Self",622,0.622,1
11,112,"Matching","Ich","Self","Self",625,0.625,1
11,113,"Nonmatching","Fremder","Stranger","Stranger",782,0.782,1
11,114,"Matching","Ich","Self","Self",627,0.627,1
11,115,"Nonmatching","Ich","Self","Self",643,0.643,1
11,116,"Matching","Fremder","Stranger","Stranger",759,0.759,1
11,117,"Nonmatching","Fremder","Stranger","Stranger",541,0.541,1
11,118,"Matching","Ich","Self","Self",504,0.504,1
11,119,"Nonmatching","Ich","Self","Self",550,0.55,1
11,120,"Matching","Fremder","Stranger","Stranger",560,0.56,0
11,121,"Nonmatching","Ich","Self","Self",1143,1.143,1
11,122,"Matching","Fremder","Stranger","Stranger",589,0.589,1
11,123,"Nonmatching","Fremder","Stranger","Stranger",643,0.643,1
11,124,"Matching","Ich","Self","Self",590,0.59,1
11,125,"Nonmatching","Fremder","Stranger","Stranger",785,0.785,1
11,126,"Matching","Fremder","Stranger","Stranger",489,0.489,1
11,127,"Matching","Ich","Self","Self",724,0.724,1
11,128,"Nonmatching","Ich","Self","Self",833,0.833,1
12,1,"Nonmatching","Fremder","Stranger","Stranger",746,0.746,1
12,2,"Matching","Fremder","Stranger","Stranger",754,0.754,0
12,3,"Nonmatching","Ich","Self","Self",706,0.706,0
12,4,"Matching","Ich","Self","Self",752,0.752,1
12,5,"Nonmatching","Ich","Self","Self",794,0.794,1
12,6,"Matching","Ich","Self","Self",820,0.82,1
12,7,"Nonmatching","Fremder","Stranger","Stranger",738,0.738,1
12,8,"Matching","Fremder","Stranger","Stranger",740,0.74,0
12,9,"Nonmatching","Ich","Self","Self",635,0.635,1
12,10,"Matching","Ich","Self","Self",634,0.634,1
12,11,"Matching","Fremder","Stranger","Stranger",1123,1.123,0
12,12,"Nonmatching","Fremder","Stranger","Stranger",920,0.92,1
12,13,"Matching","Ich","Self","Self",634,0.634,1
12,14,"Matching","Fremder","Stranger","Stranger",1082,1.082,1
12,15,"Nonmatching","Fremder","Stranger","Stranger",831,0.831,1
12,16,"Nonmatching","Ich","Self","Self",1018,1.018,1
12,17,"Matching","Ich","Self","Self",653,0.653,1
12,18,"Nonmatching","Ich","Self","Self",713,0.713,1
12,19,"Nonmatching","Fremder","Stranger","Stranger",743,0.743,1
12,20,"Matching","Fremder","Stranger","Stranger",983,0.983,1
12,21,"Nonmatching","Fremder","Stranger","Stranger",764,0.764,1
12,22,"Matching","Fremder","Stranger","Stranger",877,0.877,1
12,23,"Nonmatching","Ich","Self","Self",793,0.793,1
12,24,"Matching","Ich","Self","Self",650,0.65,1
12,25,"Matching","Fremder","Stranger","Stranger",810,0.81,1
12,26,"Nonmatching","Ich","Self","Self",588,0.588,1
12,27,"Matching","Ich","Self","Self",674,0.674,1
12,28,"Nonmatching","Fremder","Stranger","Stranger",648,0.648,1
12,29,"Matching","Fremder","Stranger","Stranger",810,0.81,1
12,30,"Nonmatching","Fremder","Stranger","Stranger",454,0.454,1
12,31,"Matching","Ich","Self","Self",416,0.416,1
12,32,"Nonmatching","Ich","Self","Self",617,0.617,1
12,33,"Nonmatching","Ich","Self","Self",693,0.693,1
12,34,"Matching","Ich","Self","Self",460,0.46,1
12,35,"Nonmatching","Fremder","Stranger","Stranger",639,0.639,1
12,36,"Matching","Fremder","Stranger","Stranger",425,0.425,1
12,37,"Matching","Fremder","Stranger","Stranger",765,0.765,1
12,38,"Nonmatching","Ich","Self","Self",548,0.548,1
12,39,"Nonmatching","Fremder","Stranger","Stranger",570,0.57,1
12,40,"Matching","Ich","Self","Self",591,0.591,0
12,41,"Nonmatching","Ich","Self","Self",465,0.465,1
12,42,"Nonmatching","Fremder","Stranger","Stranger",545,0.545,1
12,43,"Matching","Ich","Self","Self",498,0.498,1
12,44,"Matching","Fremder","Stranger","Stranger",417,0.417,1
12,45,"Nonmatching","Fremder","Stranger","Stranger",536,0.536,1
12,46,"Matching","Ich","Self","Self",551,0.551,1
12,47,"Nonmatching","Ich","Self","Self",481,0.481,1
12,48,"Matching","Fremder","Stranger","Stranger",524,0.524,1
12,49,"Matching","Fremder","Stranger","Stranger",448,0.448,0
12,50,"Nonmatching","Ich","Self","Self",475,0.475,1
12,51,"Nonmatching","Fremder","Stranger","Stranger",555,0.555,1
12,52,"Matching","Ich","Self","Self",520,0.52,1
12,53,"Matching","Fremder","Stranger","Stranger",695,0.695,1
12,54,"Matching","Ich","Self","Self",700,0.7,1
12,55,"Nonmatching","Fremder","Stranger","Stranger",474,0.474,1
12,56,"Nonmatching","Ich","Self","Self",686,0.686,1
12,57,"Matching","Fremder","Stranger","Stranger",615,0.615,1
12,58,"Nonmatching","Ich","Self","Self",644,0.644,1
12,59,"Matching","Ich","Self","Self",511,0.511,1
12,60,"Nonmatching","Fremder","Stranger","Stranger",568,0.568,1
12,61,"Matching","Fremder","Stranger","Stranger",517,0.517,1
12,62,"Matching","Ich","Self","Self",565,0.565,1
12,63,"Nonmatching","Ich","Self","Self",400,0.4,1
12,64,"Nonmatching","Fremder","Stranger","Stranger",555,0.555,1
12,65,"Matching","Ich","Self","Self",436,0.436,0
12,66,"Nonmatching","Fremder","Stranger","Stranger",493,0.493,1
12,67,"Matching","Fremder","Stranger","Stranger",687,0.687,1
12,68,"Nonmatching","Ich","Self","Self",673,0.673,1
12,69,"Nonmatching","Fremder","Stranger","Stranger",565,0.565,1
12,70,"Matching","Ich","Self","Self",422,0.422,1
12,71,"Matching","Fremder","Stranger","Stranger",562,0.562,1
12,72,"Nonmatching","Ich","Self","Self",484,0.484,1
12,73,"Nonmatching","Ich","Self","Self",485,0.485,1
12,74,"Matching","Ich","Self","Self",535,0.535,1
12,75,"Nonmatching","Fremder","Stranger","Stranger",622,0.622,1
12,76,"Matching","Fremder","Stranger","Stranger",533,0.533,1
12,77,"Matching","Fremder","Stranger","Stranger",409,0.409,1
12,78,"Nonmatching","Fremder","Stranger","Stranger",502,0.502,1
12,79,"Matching","Ich","Self","Self",426,0.426,1
12,80,"Nonmatching","Ich","Self","Self",483,0.483,1
12,81,"Nonmatching","Ich","Self","Self",438,0.438,1
12,82,"Matching","Ich","Self","Self",510,0.51,1
12,83,"Nonmatching","Fremder","Stranger","Stranger",650,0.65,1
12,84,"Matching","Fremder","Stranger","Stranger",561,0.561,1
12,85,"Matching","Fremder","Stranger","Stranger",498,0.498,1
12,86,"Nonmatching","Fremder","Stranger","Stranger",491,0.491,1
12,87,"Matching","Ich","Self","Self",488,0.488,1
12,88,"Nonmatching","Ich","Self","Self",434,0.434,1
12,89,"Nonmatching","Ich","Self","Self",495,0.495,1
12,90,"Nonmatching","Fremder","Stranger","Stranger",503,0.503,1
12,91,"Matching","Ich","Self","Self",481,0.481,1
12,92,"Matching","Fremder","Stranger","Stranger",575,0.575,1
12,93,"Matching","Ich","Self","Self",401,0.401,1
12,94,"Nonmatching","Fremder","Stranger","Stranger",673,0.673,1
12,95,"Matching","Fremder","Stranger","Stranger",543,0.543,1
12,96,"Nonmatching","Ich","Self","Self",550,0.55,1
12,97,"Nonmatching","Fremder","Stranger","Stranger",556,0.556,1
12,98,"Nonmatching","Ich","Self","Self",413,0.413,1
12,99,"Matching","Ich","Self","Self",522,0.522,1
12,100,"Matching","Fremder","Stranger","Stranger",470,0.47,1
12,101,"Nonmatching","Fremder","Stranger","Stranger",754,0.754,1
12,102,"Matching","Ich","Self","Self",585,0.585,1
12,103,"Matching","Fremder","Stranger","Stranger",595,0.595,1
12,104,"Nonmatching","Ich","Self","Self",596,0.596,1
12,105,"Matching","Ich","Self","Self",621,0.621,1
12,106,"Nonmatching","Fremder","Stranger","Stranger",532,0.532,1
12,107,"Nonmatching","Ich","Self","Self",570,0.57,1
12,108,"Matching","Fremder","Stranger","Stranger",498,0.498,1
12,109,"Matching","Ich","Self","Self",473,0.473,1
12,110,"Nonmatching","Fremder","Stranger","Stranger",497,0.497,1
12,111,"Matching","Fremder","Stranger","Stranger",586,0.586,1
12,112,"Nonmatching","Ich","Self","Self",408,0.408,1
12,113,"Nonmatching","Fremder","Stranger","Stranger",434,0.434,1
12,114,"Matching","Ich","Self","Self",528,0.528,1
12,115,"Matching","Fremder","Stranger","Stranger",619,0.619,1
12,116,"Nonmatching","Ich","Self","Self",538,0.538,1
12,117,"Nonmatching","Fremder","Stranger","Stranger",710,0.71,1
12,118,"Nonmatching","Ich","Self","Self",412,0.412,1
12,119,"Matching","Ich","Self","Self",580,0.58,1
12,120,"Matching","Fremder","Stranger","Stranger",461,0.461,0
12,121,"Nonmatching","Ich","Self","Self",462,0.462,1
12,122,"Matching","Fremder","Stranger","Stranger",473,0.473,1
12,123,"Matching","Ich","Self","Self",462,0.462,1
12,124,"Nonmatching","Fremder","Stranger","Stranger",585,0.585,1
12,125,"Matching","Ich","Self","Self",510,0.51,1
12,126,"Matching","Fremder","Stranger","Stranger",577,0.577,1
12,127,"Nonmatching","Ich","Self","Self",561,0.561,1
12,128,"Nonmatching","Fremder","Stranger","Stranger",525,0.525,1
13,1,"Matching","Ich","Self","Self",974,0.974,1
13,2,"Nonmatching","Ich","Self","Self",921,0.921,1
13,3,"Nonmatching","Fremder","Stranger","Stranger",1013,1.013,1
13,4,"Matching","Fremder","Stranger","Stranger",1502,1.502,1
13,5,"Matching","Ich","Self","Self",1362,1.362,1
13,6,"Matching","Fremder","Stranger","Stranger",591,0.591,0
13,7,"Nonmatching","Ich","Self","Self",2283,2.283,1
13,8,"Nonmatching","Fremder","Stranger","Stranger",929,0.929,1
13,9,"Matching","Ich","Self","Self",670,0.67,1
13,10,"Matching","Fremder","Stranger","Stranger",1290,1.29,1
13,11,"Nonmatching","Fremder","Stranger","Stranger",1003,1.003,1
13,12,"Nonmatching","Ich","Self","Self",1093,1.093,1
13,13,"Nonmatching","Fremder","Stranger","Stranger",885,0.885,1
13,14,"Nonmatching","Ich","Self","Self",1038,1.038,1
13,15,"Matching","Fremder","Stranger","Stranger",505,0.505,1
13,16,"Matching","Ich","Self","Self",491,0.491,1
13,17,"Nonmatching","Fremder","Stranger","Stranger",951,0.951,1
13,18,"Nonmatching","Ich","Self","Self",716,0.716,1
13,19,"Matching","Fremder","Stranger","Stranger",1090,1.09,1
13,20,"Matching","Ich","Self","Self",904,0.904,1
13,21,"Nonmatching","Fremder","Stranger","Stranger",1039,1.039,1
13,22,"Nonmatching","Ich","Self","Self",1764,1.764,1
13,23,"Matching","Ich","Self","Self",864,0.864,1
13,24,"Matching","Fremder","Stranger","Stranger",1004,1.004,1
13,25,"Nonmatching","Fremder","Stranger","Stranger",1532,1.532,1
13,26,"Matching","Fremder","Stranger","Stranger",921,0.921,1
13,27,"Nonmatching","Ich","Self","Self",1245,1.245,1
13,28,"Matching","Ich","Self","Self",773,0.773,1
13,29,"Matching","Fremder","Stranger","Stranger",817,0.817,1
13,30,"Nonmatching","Ich","Self","Self",993,0.993,1
13,31,"Nonmatching","Fremder","Stranger","Stranger",853,0.853,1
13,32,"Matching","Ich","Self","Self",997,0.997,1
13,33,"Nonmatching","Ich","Self","Self",970,0.97,1
13,34,"Matching","Fremder","Stranger","Stranger",989,0.989,1
13,35,"Nonmatching","Fremder","Stranger","Stranger",665,0.665,1
13,36,"Matching","Ich","Self","Self",1185,1.185,1
13,37,"Nonmatching","Fremder","Stranger","Stranger",585,0.585,1
13,38,"Nonmatching","Ich","Self","Self",564,0.564,1
13,39,"Matching","Fremder","Stranger","Stranger",500,0.5,1
13,40,"Matching","Ich","Self","Self",1087,1.087,1
13,41,"Matching","Ich","Self","Self",704,0.704,1
13,42,"Nonmatching","Fremder","Stranger","Stranger",619,0.619,1
13,43,"Nonmatching","Ich","Self","Self",569,0.569,1
13,44,"Matching","Fremder","Stranger","Stranger",393,0.393,1
13,45,"Matching","Fremder","Stranger","Stranger",881,0.881,1
13,46,"Matching","Ich","Self","Self",606,0.606,1
13,47,"Nonmatching","Ich","Self","Self",497,0.497,1
13,48,"Nonmatching","Fremder","Stranger","Stranger",612,0.612,1
13,49,"Matching","Ich","Self","Self",401,0.401,1
13,50,"Nonmatching","Fremder","Stranger","Stranger",536,0.536,1
13,51,"Nonmatching","Ich","Self","Self",395,0.395,1
13,52,"Matching","Fremder","Stranger","Stranger",341,0.341,1
13,53,"Matching","Fremder","Stranger","Stranger",467,0.467,1
13,54,"Nonmatching","Ich","Self","Self",472,0.472,1
13,55,"Nonmatching","Fremder","Stranger","Stranger",588,0.588,1
13,56,"Matching","Ich","Self","Self",399,0.399,1
13,57,"Nonmatching","Fremder","Stranger","Stranger",444,0.444,1
13,58,"Matching","Ich","Self","Self",345,0.345,1
13,59,"Nonmatching","Ich","Self","Self",536,0.536,1
13,60,"Matching","Fremder","Stranger","Stranger",548,0.548,1
13,61,"Nonmatching","Fremder","Stranger","Stranger",547,0.547,1
13,62,"Matching","Ich","Self","Self",432,0.432,1
13,63,"Matching","Fremder","Stranger","Stranger",432,0.432,1
13,64,"Nonmatching","Ich","Self","Self",414,0.414,1
13,65,"Nonmatching","Ich","Self","Self",381,0.381,1
13,66,"Nonmatching","Fremder","Stranger","Stranger",385,0.385,1
13,67,"Matching","Fremder","Stranger","Stranger",377,0.377,1
13,68,"Matching","Ich","Self","Self",452,0.452,1
13,69,"Matching","Ich","Self","Self",430,0.43,1
13,70,"Nonmatching","Fremder","Stranger","Stranger",501,0.501,1
13,71,"Matching","Fremder","Stranger","Stranger",493,0.493,1
13,72,"Nonmatching","Ich","Self","Self",464,0.464,1
13,73,"Nonmatching","Fremder","Stranger","Stranger",562,0.562,1
13,74,"Matching","Fremder","Stranger","Stranger",612,0.612,1
13,75,"Nonmatching","Ich","Self","Self",925,0.925,1
13,76,"Matching","Ich","Self","Self",450,0.45,1
13,77,"Matching","Fremder","Stranger","Stranger",498,0.498,1
13,78,"Matching","Ich","Self","Self",517,0.517,1
13,79,"Nonmatching","Ich","Self","Self",428,0.428,1
13,80,"Nonmatching","Fremder","Stranger","Stranger",613,0.613,1
13,81,"Nonmatching","Ich","Self","Self",442,0.442,1
13,82,"Matching","Ich","Self","Self",407,0.407,1
13,83,"Nonmatching","Fremder","Stranger","Stranger",529,0.529,1
13,84,"Matching","Fremder","Stranger","Stranger",422,0.422,1
13,85,"Matching","Ich","Self","Self",471,0.471,1
13,86,"Nonmatching","Ich","Self","Self",392,0.392,1
13,87,"Nonmatching","Fremder","Stranger","Stranger",487,0.487,1
13,88,"Matching","Fremder","Stranger","Stranger",407,0.407,1
13,89,"Matching","Ich","Self","Self",582,0.582,1
13,90,"Nonmatching","Fremder","Stranger","Stranger",475,0.475,1
13,91,"Matching","Fremder","Stranger","Stranger",407,0.407,1
13,92,"Nonmatching","Ich","Self","Self",486,0.486,1
13,93,"Matching","Ich","Self","Self",406,0.406,1
13,94,"Matching","Fremder","Stranger","Stranger",438,0.438,1
13,95,"Nonmatching","Ich","Self","Self",494,0.494,1
13,96,"Nonmatching","Fremder","Stranger","Stranger",695,0.695,1
13,97,"Matching","Ich","Self","Self",316,0.316,1
13,98,"Matching","Fremder","Stranger","Stranger",605,0.605,1
13,99,"Nonmatching","Ich","Self","Self",486,0.486,1
13,100,"Nonmatching","Fremder","Stranger","Stranger",617,0.617,1
13,101,"Matching","Ich","Self","Self",493,0.493,1
13,102,"Nonmatching","Fremder","Stranger","Stranger",584,0.584,1
13,103,"Nonmatching","Ich","Self","Self",475,0.475,1
13,104,"Matching","Fremder","Stranger","Stranger",1180,1.18,1
13,105,"Matching","Ich","Self","Self",576,0.576,1
13,106,"Nonmatching","Fremder","Stranger","Stranger",538,0.538,1
13,107,"Nonmatching","Ich","Self","Self",542,0.542,1
13,108,"Matching","Fremder","Stranger","Stranger",514,0.514,1
13,109,"Nonmatching","Fremder","Stranger","Stranger",453,0.453,1
13,110,"Matching","Ich","Self","Self",520,0.52,1
13,111,"Matching","Fremder","Stranger","Stranger",605,0.605,1
13,112,"Nonmatching","Ich","Self","Self",512,0.512,1
13,113,"Matching","Ich","Self","Self",386,0.386,1
13,114,"Nonmatching","Ich","Self","Self",549,0.549,1
13,115,"Nonmatching","Fremder","Stranger","Stranger",556,0.556,1
13,116,"Matching","Fremder","Stranger","Stranger",508,0.508,1
13,117,"Nonmatching","Ich","Self","Self",626,0.626,1
13,118,"Nonmatching","Fremder","Stranger","Stranger",470,0.47,1
13,119,"Matching","Fremder","Stranger","Stranger",367,0.367,1
13,120,"Matching","Ich","Self","Self",392,0.392,1
13,121,"Nonmatching","Fremder","Stranger","Stranger",558,0.558,1
13,122,"Nonmatching","Ich","Self","Self",375,0.375,1
13,123,"Matching","Fremder","Stranger","Stranger",298,0.298,1
13,124,"Matching","Ich","Self","Self",392,0.392,1
13,125,"Nonmatching","Ich","Self","Self",338,0.338,1
13,126,"Matching","Ich","Self","Self",367,0.367,1
13,127,"Nonmatching","Fremder","Stranger","Stranger",464,0.464,1
13,128,"Matching","Fremder","Stranger","Stranger",459,0.459,1
14,1,"Matching","Fremder","Stranger","Stranger",1127,1.127,1
14,2,"Matching","Ich","Self","Self",802,0.802,1
14,3,"Nonmatching","Fremder","Stranger","Stranger",539,0.539,1
14,4,"Nonmatching","Ich","Self","Self",758,0.758,1
14,5,"Nonmatching","Ich","Self","Self",593,0.593,1
14,6,"Nonmatching","Fremder","Stranger","Stranger",526,0.526,1
14,7,"Matching","Ich","Self","Self",754,0.754,1
14,8,"Matching","Fremder","Stranger","Stranger",443,0.443,1
14,9,"Nonmatching","Ich","Self","Self",514,0.514,1
14,10,"Nonmatching","Fremder","Stranger","Stranger",562,0.562,1
14,11,"Matching","Fremder","Stranger","Stranger",843,0.843,1
14,12,"Matching","Ich","Self","Self",724,0.724,1
14,13,"Matching","Ich","Self","Self",545,0.545,1
14,14,"Matching","Fremder","Stranger","Stranger",665,0.665,1
14,15,"Nonmatching","Fremder","Stranger","Stranger",539,0.539,1
14,16,"Nonmatching","Ich","Self","Self",723,0.723,1
14,17,"Matching","Ich","Self","Self",564,0.564,1
14,18,"Nonmatching","Fremder","Stranger","Stranger",549,0.549,1
14,19,"Nonmatching","Ich","Self","Self",607,0.607,1
14,20,"Matching","Fremder","Stranger","Stranger",660,0.66,1
14,21,"Nonmatching","Ich","Self","Self",662,0.662,1
14,22,"Matching","Ich","Self","Self",520,0.52,1
14,23,"Matching","Fremder","Stranger","Stranger",599,0.599,1
14,24,"Nonmatching","Fremder","Stranger","Stranger",949,0.949,1
14,25,"Nonmatching","Ich","Self","Self",688,0.688,1
14,26,"Matching","Ich","Self","Self",564,0.564,1
14,27,"Matching","Fremder","Stranger","Stranger",604,0.604,1
14,28,"Nonmatching","Fremder","Stranger","Stranger",538,0.538,1
14,29,"Nonmatching","Ich","Self","Self",525,0.525,1
14,30,"Nonmatching","Fremder","Stranger","Stranger",659,0.659,1
14,31,"Matching","Fremder","Stranger","Stranger",429,0.429,1
14,32,"Matching","Ich","Self","Self",557,0.557,0
14,33,"Matching","Fremder","Stranger","Stranger",550,0.55,1
14,34,"Nonmatching","Fremder","Stranger","Stranger",646,0.646,1
14,35,"Nonmatching","Ich","Self","Self",756,0.756,1
14,36,"Matching","Ich","Self","Self",569,0.569,1
14,37,"Matching","Ich","Self","Self",658,0.658,1
14,38,"Nonmatching","Fremder","Stranger","Stranger",677,0.677,1
14,39,"Matching","Fremder","Stranger","Stranger",717,0.717,1
14,40,"Nonmatching","Ich","Self","Self",570,0.57,1
14,41,"Nonmatching","Fremder","Stranger","Stranger",822,0.822,1
14,42,"Matching","Fremder","Stranger","Stranger",565,0.565,1
14,43,"Nonmatching","Ich","Self","Self",579,0.579,1
14,44,"Matching","Ich","Self","Self",708,0.708,1
14,45,"Nonmatching","Fremder","Stranger","Stranger",582,0.582,1
14,46,"Nonmatching","Ich","Self","Self",633,0.633,1
14,47,"Matching","Fremder","Stranger","Stranger",499,0.499,1
14,48,"Matching","Ich","Self","Self",659,0.659,1
14,49,"Matching","Ich","Self","Self",521,0.521,1
14,50,"Matching","Fremder","Stranger","Stranger",678,0.678,1
14,51,"Nonmatching","Fremder","Stranger","Stranger",515,0.515,1
14,52,"Nonmatching","Ich","Self","Self",794,0.794,1
14,53,"Matching","Ich","Self","Self",1168,1.168,0
14,54,"Nonmatching","Fremder","Stranger","Stranger",654,0.654,1
14,55,"Nonmatching","Ich","Self","Self",932,0.932,1
14,56,"Matching","Fremder","Stranger","Stranger",431,0.431,1
14,57,"Nonmatching","Fremder","Stranger","Stranger",626,0.626,1
14,58,"Nonmatching","Ich","Self","Self",828,0.828,1
14,59,"Matching","Ich","Self","Self",673,0.673,1
14,60,"Matching","Fremder","Stranger","Stranger",959,0.959,1
14,61,"Nonmatching","Fremder","Stranger","Stranger",631,0.631,1
14,62,"Matching","Fremder","Stranger","Stranger",624,0.624,1
14,63,"Matching","Ich","Self","Self",1073,1.073,0
14,64,"Nonmatching","Ich","Self","Self",698,0.698,1
14,65,"Matching","Ich","Self","Self",649,0.649,1
14,66,"Matching","Fremder","Stranger","Stranger",613,0.613,1
14,67,"Nonmatching","Ich","Self","Self",678,0.678,1
14,68,"Nonmatching","Fremder","Stranger","Stranger",575,0.575,1
14,69,"Nonmatching","Ich","Self","Self",604,0.604,1
14,70,"Matching","Fremder","Stranger","Stranger",692,0.692,1
14,71,"Nonmatching","Fremder","Stranger","Stranger",530,0.53,1
14,72,"Matching","Ich","Self","Self",901,0.901,1
14,73,"Matching","Ich","Self","Self",605,0.605,1
14,74,"Matching","Fremder","Stranger","Stranger",754,0.754,1
14,75,"Nonmatching","Ich","Self","Self",730,0.73,1
14,76,"Nonmatching","Fremder","Stranger","Stranger",803,0.803,1
14,77,"Matching","Fremder","Stranger","Stranger",665,0.665,1
14,78,"Nonmatching","Ich","Self","Self",1215,1.215,1
14,79,"Nonmatching","Fremder","Stranger","Stranger",864,0.864,1
14,80,"Matching","Ich","Self","Self",828,0.828,1
14,81,"Nonmatching","Fremder","Stranger","Stranger",735,0.735,1
14,82,"Matching","Ich","Self","Self",423,0.423,1
14,83,"Matching","Fremder","Stranger","Stranger",511,0.511,1
14,84,"Nonmatching","Ich","Self","Self",806,0.806,1
14,85,"Nonmatching","Ich","Self","Self",820,0.82,1
14,86,"Matching","Ich","Self","Self",690,0.69,1
14,87,"Matching","Fremder","Stranger","Stranger",1784,1.784,1
14,88,"Nonmatching","Fremder","Stranger","Stranger",1166,1.166,1
14,89,"Matching","Fremder","Stranger","Stranger",740,0.74,1
14,90,"Matching","Ich","Self","Self",707,0.707,1
14,91,"Nonmatching","Fremder","Stranger","Stranger",1761,1.761,1
14,92,"Nonmatching","Ich","Self","Self",1144,1.144,1
14,93,"Nonmatching","Fremder","Stranger","Stranger",718,0.718,0
14,94,"Matching","Fremder","Stranger","Stranger",437,0.437,1
14,95,"Nonmatching","Ich","Self","Self",498,0.498,1
14,96,"Matching","Ich","Self","Self",488,0.488,1
14,97,"Matching","Fremder","Stranger","Stranger",437,0.437,1
14,98,"Nonmatching","Ich","Self","Self",509,0.509,1
14,99,"Nonmatching","Fremder","Stranger","Stranger",493,0.493,1
14,100,"Matching","Ich","Self","Self",486,0.486,1
14,101,"Matching","Fremder","Stranger","Stranger",473,0.473,1
14,102,"Nonmatching","Fremder","Stranger","Stranger",529,0.529,1
14,103,"Matching","Ich","Self","Self",576,0.576,1
14,104,"Nonmatching","Ich","Self","Self",566,0.566,1
14,105,"Matching","Ich","Self","Self",530,0.53,1
14,106,"Matching","Fremder","Stranger","Stranger",536,0.536,1
14,107,"Nonmatching","Fremder","Stranger","Stranger",612,0.612,1
14,108,"Nonmatching","Ich","Self","Self",713,0.713,1
14,109,"Nonmatching","Fremder","Stranger","Stranger",680,0.68,1
14,110,"Matching","Ich","Self","Self",728,0.728,1
14,111,"Matching","Fremder","Stranger","Stranger",599,0.599,1
14,112,"Nonmatching","Ich","Self","Self",632,0.632,1
14,113,"Matching","Ich","Self","Self",628,0.628,0
14,114,"Matching","Fremder","Stranger","Stranger",411,0.411,1
14,115,"Nonmatching","Ich","Self","Self",523,0.523,1
14,116,"Nonmatching","Fremder","Stranger","Stranger",486,0.486,1
14,117,"Nonmatching","Ich","Self","Self",399,0.399,1
14,118,"Nonmatching","Fremder","Stranger","Stranger",503,0.503,1
14,119,"Matching","Ich","Self","Self",642,0.642,1
14,120,"Matching","Fremder","Stranger","Stranger",511,0.511,1
14,121,"Nonmatching","Fremder","Stranger","Stranger",635,0.635,1
14,122,"Nonmatching","Ich","Self","Self",936,0.936,1
14,123,"Matching","Ich","Self","Self",845,0.845,1
14,124,"Matching","Fremder","Stranger","Stranger",640,0.64,1
14,125,"Nonmatching","Ich","Self","Self",562,0.562,1
14,126,"Nonmatching","Fremder","Stranger","Stranger",480,0.48,1
14,127,"Matching","Fremder","Stranger","Stranger",623,0.623,1
14,128,"Matching","Ich","Self","Self",2517,2.517,1
15,1,"Nonmatching","Ich","Self","Self",804,0.804,1
15,2,"Matching","Fremder","Stranger","Stranger",926,0.926,1
15,3,"Matching","Ich","Self","Self",594,0.594,1
15,4,"Nonmatching","Fremder","Stranger","Stranger",588,0.588,1
15,5,"Nonmatching","Ich","Self","Self",716,0.716,1
15,6,"Nonmatching","Fremder","Stranger","Stranger",505,0.505,1
15,7,"Matching","Ich","Self","Self",475,0.475,1
15,8,"Matching","Fremder","Stranger","Stranger",353,0.353,1
15,9,"Matching","Fremder","Stranger","Stranger",484,0.484,1
15,10,"Nonmatching","Ich","Self","Self",632,0.632,1
15,11,"Nonmatching","Fremder","Stranger","Stranger",545,0.545,1
15,12,"Matching","Ich","Self","Self",480,0.48,1
15,13,"Matching","Fremder","Stranger","Stranger",433,0.433,1
15,14,"Matching","Ich","Self","Self",564,0.564,1
15,15,"Nonmatching","Ich","Self","Self",745,0.745,1
15,16,"Nonmatching","Fremder","Stranger","Stranger",732,0.732,1
15,17,"Matching","Fremder","Stranger","Stranger",356,0.356,1
15,18,"Matching","Ich","Self","Self",584,0.584,1
15,19,"Nonmatching","Fremder","Stranger","Stranger",653,0.653,1
15,20,"Nonmatching","Ich","Self","Self",601,0.601,1
15,21,"Nonmatching","Fremder","Stranger","Stranger",564,0.564,1
15,22,"Matching","Ich","Self","Self",505,0.505,1
15,23,"Nonmatching","Ich","Self","Self",518,0.518,1
15,24,"Matching","Fremder","Stranger","Stranger",563,0.563,1
15,25,"Nonmatching","Fremder","Stranger","Stranger",438,0.438,1
15,26,"Matching","Ich","Self","Self",851,0.851,1
15,27,"Matching","Fremder","Stranger","Stranger",607,0.607,0
15,28,"Nonmatching","Ich","Self","Self",645,0.645,1
15,29,"Nonmatching","Ich","Self","Self",489,0.489,1
15,30,"Matching","Fremder","Stranger","Stranger",475,0.475,1
15,31,"Matching","Ich","Self","Self",324,0.324,1
15,32,"Nonmatching","Fremder","Stranger","Stranger",517,0.517,1
15,33,"Nonmatching","Ich","Self","Self",603,0.603,1
15,34,"Nonmatching","Fremder","Stranger","Stranger",575,0.575,1
15,35,"Matching","Ich","Self","Self",535,0.535,1
15,36,"Matching","Fremder","Stranger","Stranger",758,0.758,1
15,37,"Nonmatching","Ich","Self","Self",543,0.543,1
15,38,"Nonmatching","Fremder","Stranger","Stranger",414,0.414,1
15,39,"Matching","Fremder","Stranger","Stranger",414,0.414,1
15,40,"Matching","Ich","Self","Self",396,0.396,1
15,41,"Matching","Fremder","Stranger","Stranger",653,0.653,1
15,42,"Nonmatching","Ich","Self","Self",470,0.47,1
15,43,"Matching","Ich","Self","Self",517,0.517,1
15,44,"Nonmatching","Fremder","Stranger","Stranger",573,0.573,1
15,45,"Nonmatching","Fremder","Stranger","Stranger",391,0.391,1
15,46,"Matching","Fremder","Stranger","Stranger",622,0.622,1
15,47,"Matching","Ich","Self","Self",315,0.315,1
15,48,"Nonmatching","Ich","Self","Self",378,0.378,1
15,49,"Matching","Fremder","Stranger","Stranger",736,0.736,1
15,50,"Nonmatching","Fremder","Stranger","Stranger",398,0.398,1
15,51,"Matching","Ich","Self","Self",402,0.402,1
15,52,"Nonmatching","Ich","Self","Self",445,0.445,1
15,53,"Matching","Ich","Self","Self",511,0.511,1
15,54,"Nonmatching","Fremder","Stranger","Stranger",463,0.463,1
15,55,"Nonmatching","Ich","Self","Self",492,0.492,1
15,56,"Matching","Fremder","Stranger","Stranger",473,0.473,1
15,57,"Nonmatching","Ich","Self","Self",625,0.625,1
15,58,"Matching","Ich","Self","Self",474,0.474,1
15,59,"Nonmatching","Fremder","Stranger","Stranger",612,0.612,1
15,60,"Matching","Fremder","Stranger","Stranger",396,0.396,1
15,61,"Nonmatching","Ich","Self","Self",425,0.425,1
15,62,"Nonmatching","Fremder","Stranger","Stranger",432,0.432,1
15,63,"Matching","Fremder","Stranger","Stranger",505,0.505,1
15,64,"Matching","Ich","Self","Self",444,0.444,1
15,65,"Matching","Ich","Self","Self",476,0.476,1
15,66,"Nonmatching","Ich","Self","Self",574,0.574,1
15,67,"Matching","Fremder","Stranger","Stranger",398,0.398,1
15,68,"Nonmatching","Fremder","Stranger","Stranger",740,0.74,1
15,69,"Matching","Fremder","Stranger","Stranger",589,0.589,1
15,70,"Nonmatching","Fremder","Stranger","Stranger",397,0.397,1
15,71,"Matching","Ich","Self","Self",575,0.575,1
15,72,"Nonmatching","Ich","Self","Self",420,0.42,1
15,73,"Matching","Fremder","Stranger","Stranger",495,0.495,1
15,74,"Matching","Ich","Self","Self",458,0.458,1
15,75,"Nonmatching","Fremder","Stranger","Stranger",450,0.45,1
15,76,"Nonmatching","Ich","Self","Self",534,0.534,1
15,77,"Matching","Ich","Self","Self",466,0.466,1
15,78,"Nonmatching","Ich","Self","Self",448,0.448,1
15,79,"Matching","Fremder","Stranger","Stranger",727,0.727,1
15,80,"Nonmatching","Fremder","Stranger","Stranger",494,0.494,1
15,81,"Matching","Ich","Self","Self",592,0.592,1
15,82,"Nonmatching","Fremder","Stranger","Stranger",637,0.637,1
15,83,"Matching","Fremder","Stranger","Stranger",597,0.597,1
15,84,"Nonmatching","Ich","Self","Self",501,0.501,1
15,85,"Nonmatching","Ich","Self","Self",459,0.459,1
15,86,"Matching","Ich","Self","Self",560,0.56,1
15,87,"Matching","Fremder","Stranger","Stranger",420,0.42,1
15,88,"Nonmatching","Fremder","Stranger","Stranger",460,0.46,1
15,89,"Matching","Fremder","Stranger","Stranger",485,0.485,1
15,90,"Nonmatching","Fremder","Stranger","Stranger",539,0.539,1
15,91,"Matching","Ich","Self","Self",756,0.756,1
15,92,"Nonmatching","Ich","Self","Self",487,0.487,1
15,93,"Matching","Fremder","Stranger","Stranger",755,0.755,0
15,94,"Matching","Ich","Self","Self",517,0.517,1
15,95,"Nonmatching","Ich","Self","Self",440,0.44,1
15,96,"Nonmatching","Fremder","Stranger","Stranger",488,0.488,1
15,97,"Nonmatching","Fremder","Stranger","Stranger",685,0.685,1
15,98,"Matching","Ich","Self","Self",486,0.486,1
15,99,"Nonmatching","Ich","Self","Self",464,0.464,1
15,100,"Matching","Fremder","Stranger","Stranger",380,0.38,1
15,101,"Nonmatching","Fremder","Stranger","Stranger",406,0.406,1
15,102,"Nonmatching","Ich","Self","Self",456,0.456,1
15,103,"Matching","Ich","Self","Self",597,0.597,1
15,104,"Matching","Fremder","Stranger","Stranger",438,0.438,1
15,105,"Nonmatching","Fremder","Stranger","Stranger",458,0.458,1
15,106,"Nonmatching","Ich","Self","Self",424,0.424,1
15,107,"Matching","Fremder","Stranger","Stranger",615,0.615,1
15,108,"Matching","Ich","Self","Self",521,0.521,1
15,109,"Nonmatching","Ich","Self","Self",601,0.601,1
15,110,"Nonmatching","Fremder","Stranger","Stranger",494,0.494,1
15,111,"Matching","Ich","Self","Self",409,0.409,1
15,112,"Matching","Fremder","Stranger","Stranger",342,0.342,1
15,113,"Nonmatching","Fremder","Stranger","Stranger",410,0.41,1
15,114,"Matching","Fremder","Stranger","Stranger",317,0.317,1
15,115,"Nonmatching","Ich","Self","Self",344,0.344,1
15,116,"Matching","Ich","Self","Self",539,0.539,1
