"Subject","Block","Trial","Matching","Speaker","Accent","Voice","Label","Label_Origin_Identity","Label_English_Identity","Label_Standardized_Identity","Shape_Origin_Identity","Shape_English_Identity","Shape_Standardized_Identity","RT_ms","RT_sec","ACC"
7434577,1,2,"Matching","S1","Scottish","S1_2.wav","self","self","Self","Self","self","Self","Self",675.5,0.6755,1
7434577,1,3,"Matching","S1","Scottish","S1_1.wav","self","self","Self","Self","self","Self","Self",425.90000000596,0.42590000000596,1
7434577,1,4,"Nonmatching","S1","Scottish","S1_2.wav","friend","friend","Friend","Close","self","Self","Self",567.200000017881,0.567200000017881,0
7434577,1,5,"Nonmatching","S1","Scottish","S1_1.wav","other","other","Stranger","Stranger","self","Self","Self",518,0.518,1
7434577,1,6,"Nonmatching","S3","Scottish","S3_1.wav","self","self","Self","Self","friend","Friend","Close",501,0.501,1
7434577,1,7,"Nonmatching","S1","Scottish","S1_1.wav","other","other","Stranger","Stranger","self","Self","Self",557.200000017881,0.557200000017881,1
7434577,1,8,"Matching","S1","Scottish","S1_2.wav","self","self","Self","Self","self","Self","Self",410.299999982119,0.410299999982119,1
7434577,1,9,"Nonmatching","S3","Scottish","S3_2.wav","other","other","Stranger","Stranger","friend","Friend","Close",527.09999999404,0.52709999999404,1
7434577,1,10,"Matching","S3","Scottish","S3_2.wav","friend","friend","Friend","Close","friend","Friend","Close",395.5,0.3955,1
7434577,1,11,"Nonmatching","S3","Scottish","S3_2.wav","self","self","Self","Self","friend","Friend","Close",378,0.378,1
7434577,1,12,"Matching","S1","Scottish","S1_1.wav","self","self","Self","Self","self","Self","Self",408.5,0.4085,1
7434577,1,13,"Nonmatching","S1","Scottish","S1_1.wav","other","other","Stranger","Stranger","self","Self","Self",423.100000023842,0.423100000023842,1
7434577,1,14,"Matching","S3","Scottish","S3_1.wav","friend","friend","Friend","Close","friend","Friend","Close",365.90000000596,0.36590000000596,1
7434577,1,15,"Matching","S2","Scottish","S2_1.wav","other","other","Stranger","Stranger","other","Other","Stranger",390.40000000596,0.39040000000596,1
7434577,1,16,"Nonmatching","S3","Scottish","S3_2.wav","self","self","Self","Self","friend","Friend","Close",411.09999999404,0.41109999999404,1
7434577,1,17,"Nonmatching","S3","Scottish","S3_2.wav","other","other","Stranger","Stranger","friend","Friend","Close",535.5,0.5355,1
7434577,1,18,"Matching","S2","Scottish","S2_2.wav","other","other","Stranger","Stranger","other","Other","Stranger",468.300000011921,0.468300000011921,0
7434577,1,19,"Matching","S2","Scottish","S2_1.wav","other","other","Stranger","Stranger","other","Other","Stranger",539.799999982119,0.539799999982119,1
7434577,1,20,"Nonmatching","S2","Scottish","S2_2.wav","self","self","Self","Self","other","Other","Stranger",384,0.384,1
7434577,1,21,"Nonmatching","S2","Scottish","S2_2.wav","friend","friend","Friend","Close","other","Other","Stranger",405,0.405,1
7434577,1,22,"Nonmatching","S1","Scottish","S1_1.wav","friend","friend","Friend","Close","self","Self","Self",339.09999999404,0.33909999999404,0
7434577,1,23,"Matching","S3","Scottish","S3_1.wav","friend","friend","Friend","Close","friend","Friend","Close",585.699999988079,0.585699999988079,1
7434577,1,24,"Matching","S3","Scottish","S3_1.wav","friend","friend","Friend","Close","friend","Friend","Close",446,0.446,1
7434577,1,25,"Matching","S2","Scottish","S2_2.wav","other","other","Stranger","Stranger","other","Other","Stranger",378.09999999404,0.37809999999404,1
7434577,1,26,"Matching","S1","Scottish","S1_2.wav","self","self","Self","Self","self","Self","Self",367,0.367,1
7434577,1,27,"Nonmatching","S3","Scottish","S3_2.wav","other","other","Stranger","Stranger","friend","Friend","Close",325.299999982119,0.325299999982119,0
7434577,1,28,"Matching","S1","Scottish","S1_1.wav","self","self","Self","Self","self","Self","Self",425.90000000596,0.42590000000596,1
7434577,1,29,"Matching","S1","Scottish","S1_2.wav","self","self","Self","Self","self","Self","Self",394.300000011921,0.394300000011921,1
7434577,1,30,"Matching","S3","Scottish","S3_2.wav","friend","friend","Friend","Close","friend","Friend","Close",354.299999982119,0.354299999982119,1
7434577,1,31,"Nonmatching","S3","Scottish","S3_1.wav","other","other","Stranger","Stranger","friend","Friend","Close",466,0.466,1
7434577,1,32,"Matching","S2","Scottish","S2_1.wav","other","other","Stranger","Stranger","other","Other","Stranger",345.299999982119,0.345299999982119,1
7434577,1,33,"Nonmatching","S1","Scottish","S1_2.wav","friend","friend","Friend","Close","self","Self","Self",440.59999999404,0.44059999999404,1
7434577,1,34,"Nonmatching","S2","Scottish","S2_2.wav","self","self","Self","Self","other","Other","Stranger",523.90000000596,0.52390000000596,1
7434577,1,35,"Matching","S3","Scottish","S3_2.wav","friend","friend","Friend","Close","friend","Friend","Close",407.59999999404,0.40759999999404,1
7434577,1,36,"Nonmatching","S1","Scottish","S1_2.wav","friend","friend","Friend","Close","self","Self","Self",516.09999999404,0.51609999999404,1
7434577,1,37,"Nonmatching","S2","Scottish","S2_1.wav","self","self","Self","Self","other","Other","Stranger",523.299999982119,0.523299999982119,1
7434577,1,38,"Nonmatching","S3","Scottish","S3_1.wav","other","other","Stranger","Stranger","friend","Friend","Close",591.899999976158,0.591899999976158,1
7434577,1,39,"Nonmatching","S3","Scottish","S3_1.wav","other","other","Stranger","Stranger","friend","Friend","Close",489.299999982119,0.489299999982119,1
7434577,1,40,"Nonmatching","S2","Scottish","S2_1.wav","friend","friend","Friend","Close","other","Other","Stranger",655.299999982119,0.655299999982119,1
7434577,1,41,"Nonmatching","S1","Scottish","S1_1.wav","friend","friend","Friend","Close","self","Self","Self",687.90000000596,0.68790000000596,1
7434577,1,42,"Matching","S3","Scottish","S3_1.wav","friend","friend","Friend","Close","friend","Friend","Close",351.5,0.3515,1
7434577,1,43,"Matching","S1","Scottish","S1_2.wav","self","self","Self","Self","self","Self","Self",394.90000000596,0.39490000000596,1
7434577,1,44,"Matching","S2","Scottish","S2_2.wav","other","other","Stranger","Stranger","other","Other","Stranger",352.199999988079,0.352199999988079,1
7434577,1,45,"Nonmatching","S2","Scottish","S2_1.wav","friend","friend","Friend","Close","other","Other","Stranger",421.299999982119,0.421299999982119,0
7434577,1,46,"Matching","S3","Scottish","S3_2.wav","friend","friend","Friend","Close","friend","Friend","Close",562.300000011921,0.562300000011921,1
7434577,1,47,"Matching","S1","Scottish","S1_1.wav","self","self","Self","Self","self","Self","Self",389.699999988079,0.389699999988079,1
7434577,1,48,"Matching","S3","Scottish","S3_2.wav","friend","friend","Friend","Close","friend","Friend","Close",368.90000000596,0.36890000000596,1
7434577,1,49,"Matching","S3","Scottish","S3_1.wav","friend","friend","Friend","Close","friend","Friend","Close",367.799999982119,0.367799999982119,1
7434577,1,50,"Matching","S1","Scottish","S1_1.wav","self","self","Self","Self","self","Self","Self",348,0.348,1
7434577,1,51,"Nonmatching","S2","Scottish","S2_2.wav","friend","friend","Friend","Close","other","Other","Stranger",418.40000000596,0.41840000000596,1
7434577,1,52,"Nonmatching","S1","Scottish","S1_2.wav","other","other","Stranger","Stranger","self","Self","Self",748.40000000596,0.74840000000596,0
7434577,1,53,"Nonmatching","S3","Scottish","S3_2.wav","self","self","Self","Self","friend","Friend","Close",631.09999999404,0.63109999999404,1
7434577,1,54,"Nonmatching","S3","Scottish","S3_1.wav","self","self","Self","Self","friend","Friend","Close",599.299999982119,0.599299999982119,1
7434577,1,55,"Nonmatching","S2","Scottish","S2_1.wav","self","self","Self","Self","other","Other","Stranger",509.300000011921,0.509300000011921,1
7434577,1,56,"Matching","S2","Scottish","S2_2.wav","other","other","Stranger","Stranger","other","Other","Stranger",536.199999988079,0.536199999988079,1
7434577,1,57,"Nonmatching","S3","Scottish","S3_1.wav","self","self","Self","Self","friend","Friend","Close",414.59999999404,0.41459999999404,1
7434577,1,58,"Matching","S2","Scottish","S2_1.wav","other","other","Stranger","Stranger","other","Other","Stranger",422.100000023842,0.422100000023842,1
7434577,1,59,"Nonmatching","S2","Scottish","S2_2.wav","friend","friend","Friend","Close","other","Other","Stranger",413.699999988079,0.413699999988079,1
7434577,1,60,"Matching","S2","Scottish","S2_2.wav","other","other","Stranger","Stranger","other","Other","Stranger",499.700000017881,0.499700000017881,1
7434577,1,61,"Matching","S2","Scottish","S2_1.wav","other","other","Stranger","Stranger","other","Other","Stranger",365.40000000596,0.36540000000596,1
7434577,1,62,"Nonmatching","S2","Scottish","S2_1.wav","friend","friend","Friend","Close","other","Other","Stranger",394.59999999404,0.39459999999404,1
7434577,1,63,"Matching","S3","Scottish","S3_1.wav","friend","friend","Friend","Close","friend","Friend","Close",545.90000000596,0.54590000000596,1
7434577,1,64,"Matching","S1","Scottish","S1_2.wav","self","self","Self","Self","self","Self","Self",377.699999988079,0.377699999988079,1
7434577,1,65,"Nonmatching","S2","Scottish","S2_1.wav","self","self","Self","Self","other","Other","Stranger",410.90000000596,0.41090000000596,1
7434577,1,66,"Nonmatching","S1","Scottish","S1_1.wav","friend","friend","Friend","Close","self","Self","Self",697.300000011921,0.697300000011921,1
7434577,1,67,"Nonmatching","S2","Scottish","S2_2.wav","self","self","Self","Self","other","Other","Stranger",447.699999988079,0.447699999988079,1
7434577,1,68,"Nonmatching","S1","Scottish","S1_2.wav","other","other","Stranger","Stranger","self","Self","Self",649.09999999404,0.64909999999404,1
7434577,1,69,"Nonmatching","S1","Scottish","S1_2.wav","other","other","Stranger","Stranger","self","Self","Self",449.399999976158,0.449399999976158,1
7434577,1,70,"Matching","S3","Scottish","S3_2.wav","friend","friend","Friend","Close","friend","Friend","Close",322.899999976158,0.322899999976158,1
7434577,1,71,"Matching","S2","Scottish","S2_1.wav","other","other","Stranger","Stranger","other","Other","Stranger",459.09999999404,0.45909999999404,1
7434577,1,72,"Matching","S1","Scottish","S1_1.wav","self","self","Self","Self","self","Self","Self",421,0.421,1
7434577,2,1,"Nonmatching","S2","Scottish","S2_1.wav","self","self","Self","Self","other","Other","Stranger",589,0.589,1
7434577,2,2,"Nonmatching","S2","Scottish","S2_2.wav","self","self","Self","Self","other","Other","Stranger",393.5,0.3935,1
7434577,2,3,"Matching","S1","Scottish","S1_2.wav","self","self","Self","Self","self","Self","Self",397.09999999404,0.39709999999404,0
7434577,2,4,"Matching","S2","Scottish","S2_2.wav","other","other","Stranger","Stranger","other","Other","Stranger",370.699999988079,0.370699999988079,0
7434577,2,5,"Matching","S1","Scottish","S1_1.wav","self","self","Self","Self","self","Self","Self",370.799999982119,0.370799999982119,1
7434577,2,6,"Nonmatching","S3","Scottish","S3_1.wav","self","self","Self","Self","friend","Friend","Close",437.300000011921,0.437300000011921,1
7434577,2,7,"Matching","S1","Scottish","S1_1.wav","self","self","Self","Self","self","Self","Self",472.399999976158,0.472399999976158,1
7434577,2,8,"Nonmatching","S2","Scottish","S2_1.wav","self","self","Self","Self","other","Other","Stranger",415.40000000596,0.41540000000596,1
7434577,2,9,"Nonmatching","S2","Scottish","S2_1.wav","friend","friend","Friend","Close","other","Other","Stranger",337.90000000596,0.33790000000596,0
7434577,2,10,"Matching","S3","Scottish","S3_2.wav","friend","friend","Friend","Close","friend","Friend","Close",292.799999982119,0.292799999982119,1
7434577,2,11,"Matching","S1","Scottish","S1_1.wav","self","self","Self","Self","self","Self","Self",382.09999999404,0.38209999999404,0
7434577,2,12,"Nonmatching","S3","Scottish","S3_1.wav","self","self","Self","Self","friend","Friend","Close",551.700000017881,0.551700000017881,1
7434577,2,13,"Nonmatching","S2","Scottish","S2_2.wav","self","self","Self","Self","other","Other","Stranger",419.90000000596,0.41990000000596,1
7434577,2,14,"Matching","S2","Scottish","S2_1.wav","other","other","Stranger","Stranger","other","Other","Stranger",355,0.355,1
7434577,2,15,"Nonmatching","S2","Scottish","S2_2.wav","self","self","Self","Self","other","Other","Stranger",346.5,0.3465,1
7434577,2,16,"Nonmatching","S3","Scottish","S3_1.wav","other","other","Stranger","Stranger","friend","Friend","Close",473.59999999404,0.47359999999404,1
7434577,2,17,"Matching","S1","Scottish","S1_2.wav","self","self","Self","Self","self","Self","Self",289.600000023842,0.289600000023842,1
7434577,2,18,"Matching","S1","Scottish","S1_2.wav","self","self","Self","Self","self","Self","Self",303.199999988079,0.303199999988079,1
7434577,2,19,"Matching","S3","Scottish","S3_2.wav","friend","friend","Friend","Close","friend","Friend","Close",413.09999999404,0.41309999999404,1
7434577,2,20,"Matching","S2","Scottish","S2_1.wav","other","other","Stranger","Stranger","other","Other","Stranger",302.199999988079,0.302199999988079,1
7434577,2,21,"Matching","S2","Scottish","S2_1.wav","other","other","Stranger","Stranger","other","Other","Stranger",409.90000000596,0.40990000000596,1
7434577,2,22,"Matching","S3","Scottish","S3_1.wav","friend","friend","Friend","Close","friend","Friend","Close",325.90000000596,0.32590000000596,1
7434577,2,23,"Matching","S3","Scottish","S3_1.wav","friend","friend","Friend","Close","friend","Friend","Close",365.800000011921,0.365800000011921,1
7434577,2,24,"Matching","S1","Scottish","S1_1.wav","self","self","Self","Self","self","Self","Self",335.700000017881,0.335700000017881,1
7434577,2,25,"Matching","S1","Scottish","S1_2.wav","self","self","Self","Self","self","Self","Self",388.799999982119,0.388799999982119,1
7434577,2,26,"Nonmatching","S2","Scottish","S2_2.wav","friend","friend","Friend","Close","other","Other","Stranger",504.100000023842,0.504100000023842,1
7434577,2,27,"Nonmatching","S2","Scottish","S2_2.wav","friend","friend","Friend","Close","other","Other","Stranger",518.800000011921,0.518800000011921,1
7434577,2,28,"Nonmatching","S3","Scottish","S3_2.wav","self","self","Self","Self","friend","Friend","Close",620.799999982119,0.620799999982119,0
7434577,2,29,"Nonmatching","S2","Scottish","S2_2.wav","friend","friend","Friend","Close","other","Other","Stranger",595.09999999404,0.59509999999404,1
7434577,2,30,"Nonmatching","S1","Scottish","S1_2.wav","other","other","Stranger","Stranger","self","Self","Self",604,0.604,1
7434577,2,31,"Matching","S2","Scottish","S2_2.wav","other","other","Stranger","Stranger","other","Other","Stranger",361.199999988079,0.361199999988079,1
7434577,2,32,"Nonmatching","S3","Scottish","S3_2.wav","self","self","Self","Self","friend","Friend","Close",445.300000011921,0.445300000011921,1
7434577,2,33,"Matching","S2","Scottish","S2_1.wav","other","other","Stranger","Stranger","other","Other","Stranger",464.5,0.4645,0
7434577,2,34,"Nonmatching","S1","Scottish","S1_1.wav","friend","friend","Friend","Close","self","Self","Self",572.299999982119,0.572299999982119,1
7434577,2,35,"Nonmatching","S1","Scottish","S1_2.wav","friend","friend","Friend","Close","self","Self","Self",484.199999988079,0.484199999988079,1
7434577,2,36,"Matching","S3","Scottish","S3_1.wav","friend","friend","Friend","Close","friend","Friend","Close",339.5,0.3395,1
7434577,2,37,"Nonmatching","S3","Scottish","S3_2.wav","other","other","Stranger","Stranger","friend","Friend","Close",414.5,0.4145,1
7434577,2,38,"Matching","S2","Scottish","S2_2.wav","other","other","Stranger","Stranger","other","Other","Stranger",412.200000017881,0.412200000017881,0
7434577,2,39,"Nonmatching","S3","Scottish","S3_2.wav","self","self","Self","Self","friend","Friend","Close",577.700000017881,0.577700000017881,1
7434577,2,40,"Nonmatching","S1","Scottish","S1_2.wav","friend","friend","Friend","Close","self","Self","Self",546,0.546,1
7434577,2,41,"Nonmatching","S1","Scottish","S1_1.wav","other","other","Stranger","Stranger","self","Self","Self",411,0.411,1
7434577,2,42,"Nonmatching","S3","Scottish","S3_1.wav","other","other","Stranger","Stranger","friend","Friend","Close",493.09999999404,0.49309999999404,1
7434577,2,43,"Matching","S3","Scottish","S3_1.wav","friend","friend","Friend","Close","friend","Friend","Close",324.300000011921,0.324300000011921,1
7434577,2,44,"Nonmatching","S2","Scottish","S2_1.wav","self","self","Self","Self","other","Other","Stranger",529.299999982119,0.529299999982119,1
7434577,2,45,"Matching","S2","Scottish","S2_1.wav","other","other","Stranger","Stranger","other","Other","Stranger",404.5,0.4045,1
7434577,2,46,"Matching","S1","Scottish","S1_1.wav","self","self","Self","Self","self","Self","Self",387.09999999404,0.38709999999404,1
7434577,2,47,"Matching","S3","Scottish","S3_2.wav","friend","friend","Friend","Close","friend","Friend","Close",429.300000011921,0.429300000011921,1
7434577,2,48,"Matching","S2","Scottish","S2_1.wav","other","other","Stranger","Stranger","other","Other","Stranger",384.600000023842,0.384600000023842,1
7434577,2,49,"Nonmatching","S1","Scottish","S1_1.wav","other","other","Stranger","Stranger","self","Self","Self",564.899999976158,0.564899999976158,1
7434577,2,50,"Matching","S3","Scottish","S3_2.wav","friend","friend","Friend","Close","friend","Friend","Close",404.300000011921,0.404300000011921,1
7434577,2,51,"Matching","S3","Scottish","S3_2.wav","friend","friend","Friend","Close","friend","Friend","Close",327.199999988079,0.327199999988079,1
7434577,2,52,"Nonmatching","S1","Scottish","S1_2.wav","friend","friend","Friend","Close","self","Self","Self",533,0.533,1
7434577,2,53,"Nonmatching","S1","Scottish","S1_1.wav","other","other","Stranger","Stranger","self","Self","Self",365.800000011921,0.365800000011921,1
7434577,2,54,"Nonmatching","S1","Scottish","S1_2.wav","other","other","Stranger","Stranger","self","Self","Self",380.800000011921,0.380800000011921,1
7434577,2,55,"Matching","S3","Scottish","S3_2.wav","friend","friend","Friend","Close","friend","Friend","Close",348.300000011921,0.348300000011921,1
7434577,2,56,"Matching","S1","Scottish","S1_2.wav","self","self","Self","Self","self","Self","Self",445.199999988079,0.445199999988079,1
7434577,2,57,"Matching","S2","Scottish","S2_2.wav","other","other","Stranger","Stranger","other","Other","Stranger",338.699999988079,0.338699999988079,1
7434577,2,58,"Matching","S1","Scottish","S1_1.wav","self","self","Self","Self","self","Self","Self",393.299999982119,0.393299999982119,1
7434577,2,59,"Nonmatching","S2","Scottish","S2_1.wav","friend","friend","Friend","Close","other","Other","Stranger",442.800000011921,0.442800000011921,1
7434577,2,60,"Nonmatching","S1","Scottish","S1_1.wav","friend","friend","Friend","Close","self","Self","Self",507.600000023842,0.507600000023842,1
7434577,2,61,"Matching","S2","Scottish","S2_2.wav","other","other","Stranger","Stranger","other","Other","Stranger",319.5,0.3195,1
7434577,2,62,"Matching","S3","Scottish","S3_1.wav","friend","friend","Friend","Close","friend","Friend","Close",331.200000017881,0.331200000017881,1
7434577,2,63,"Nonmatching","S3","Scottish","S3_1.wav","other","other","Stranger","Stranger","friend","Friend","Close",516,0.516,1
7434577,2,64,"Nonmatching","S1","Scottish","S1_2.wav","other","other","Stranger","Stranger","self","Self","Self",546.700000017881,0.546700000017881,1
7434577,2,65,"Nonmatching","S3","Scottish","S3_2.wav","other","other","Stranger","Stranger","friend","Friend","Close",438.59999999404,0.43859999999404,1
7434577,2,66,"Nonmatching","S1","Scottish","S1_1.wav","friend","friend","Friend","Close","self","Self","Self",811.700000017881,0.811700000017881,1
7434577,2,67,"Nonmatching","S3","Scottish","S3_2.wav","other","other","Stranger","Stranger","friend","Friend","Close",457.5,0.4575,1
7434577,2,68,"Nonmatching","S3","Scottish","S3_1.wav","self","self","Self","Self","friend","Friend","Close",535,0.535,1
7434577,2,69,"Matching","S2","Scottish","S2_2.wav","other","other","Stranger","Stranger","other","Other","Stranger",374.09999999404,0.37409999999404,1
7434577,2,70,"Nonmatching","S2","Scottish","S2_1.wav","friend","friend","Friend","Close","other","Other","Stranger",459.799999982119,0.459799999982119,1
7434577,2,71,"Matching","S1","Scottish","S1_2.wav","self","self","Self","Self","self","Self","Self",382.199999988079,0.382199999988079,1
7434577,2,72,"Matching","S3","Scottish","S3_1.wav","friend","friend","Friend","Close","friend","Friend","Close",345.399999976158,0.345399999976158,1
7434577,3,1,"Matching","S1","Scottish","S1_1.wav","self","self","Self","Self","self","Self","Self",452,0.452,1
7434577,3,2,"Nonmatching","S1","Scottish","S1_2.wav","friend","friend","Friend","Close","self","Self","Self",337.100000023842,0.337100000023842,1
7434577,3,3,"Nonmatching","S2","Scottish","S2_2.wav","self","self","Self","Self","other","Other","Stranger",335.5,0.3355,1
7434577,3,4,"Matching","S3","Scottish","S3_2.wav","friend","friend","Friend","Close","friend","Friend","Close",330.09999999404,0.33009999999404,1
7434577,3,5,"Matching","S2","Scottish","S2_2.wav","other","other","Stranger","Stranger","other","Other","Stranger",429.59999999404,0.42959999999404,1
7434577,3,6,"Matching","S1","Scottish","S1_2.wav","self","self","Self","Self","self","Self","Self",347,0.347,1
7434577,3,7,"Matching","S1","Scottish","S1_1.wav","self","self","Self","Self","self","Self","Self",337.59999999404,0.33759999999404,1
7434577,3,8,"Matching","S1","Scottish","S1_2.wav","self","self","Self","Self","self","Self","Self",359.800000011921,0.359800000011921,1
7434577,3,9,"Matching","S1","Scottish","S1_1.wav","self","self","Self","Self","self","Self","Self",324.09999999404,0.32409999999404,1
7434577,3,10,"Nonmatching","S3","Scottish","S3_2.wav","other","other","Stranger","Stranger","friend","Friend","Close",323.40000000596,0.32340000000596,0
7434577,3,11,"Nonmatching","S3","Scottish","S3_2.wav","self","self","Self","Self","friend","Friend","Close",427.5,0.4275,1
7434577,3,12,"Nonmatching","S1","Scottish","S1_2.wav","other","other","Stranger","Stranger","self","Self","Self",623.200000017881,0.623200000017881,1
7434577,3,13,"Nonmatching","S2","Scottish","S2_2.wav","self","self","Self","Self","other","Other","Stranger",427.59999999404,0.42759999999404,1
7434577,3,14,"Nonmatching","S3","Scottish","S3_1.wav","other","other","Stranger","Stranger","friend","Friend","Close",488.40000000596,0.48840000000596,1
7434577,3,15,"Matching","S1","Scottish","S1_2.wav","self","self","Self","Self","self","Self","Self",380.40000000596,0.38040000000596,1
7434577,3,16,"Matching","S3","Scottish","S3_1.wav","friend","friend","Friend","Close","friend","Friend","Close",571.5,0.5715,1
7434577,3,17,"Nonmatching","S1","Scottish","S1_2.wav","other","other","Stranger","Stranger","self","Self","Self",529.300000011921,0.529300000011921,1
7434577,3,18,"Matching","S2","Scottish","S2_1.wav","other","other","Stranger","Stranger","other","Other","Stranger",384,0.384,1
7434577,3,19,"Nonmatching","S3","Scottish","S3_2.wav","self","self","Self","Self","friend","Friend","Close",431.5,0.4315,1
7434577,3,20,"Nonmatching","S2","Scottish","S2_1.wav","self","self","Self","Self","other","Other","Stranger",473.59999999404,0.47359999999404,1
7434577,3,21,"Nonmatching","S2","Scottish","S2_1.wav","self","self","Self","Self","other","Other","Stranger",442.5,0.4425,1
7434577,3,22,"Matching","S1","Scottish","S1_1.wav","self","self","Self","Self","self","Self","Self",414.59999999404,0.41459999999404,1
7434577,3,23,"Nonmatching","S2","Scottish","S2_1.wav","self","self","Self","Self","other","Other","Stranger",419.100000023842,0.419100000023842,1
7434577,3,24,"Nonmatching","S1","Scottish","S1_2.wav","other","other","Stranger","Stranger","self","Self","Self",551,0.551,1
7434577,3,25,"Matching","S1","Scottish","S1_2.wav","self","self","Self","Self","self","Self","Self",344.5,0.3445,1
7434577,3,26,"Matching","S2","Scottish","S2_2.wav","other","other","Stranger","Stranger","other","Other","Stranger",372.700000017881,0.372700000017881,1
7434577,3,27,"Nonmatching","S1","Scottish","S1_1.wav","other","other","Stranger","Stranger","self","Self","Self",412,0.412,1
7434577,3,28,"Matching","S3","Scottish","S3_2.wav","friend","friend","Friend","Close","friend","Friend","Close",394.90000000596,0.39490000000596,1
7434577,3,29,"Nonmatching","S3","Scottish","S3_2.wav","other","other","Stranger","Stranger","friend","Friend","Close",507.800000011921,0.507800000011921,1
7434577,3,30,"Matching","S1","Scottish","S1_2.wav","self","self","Self","Self","self","Self","Self",361.199999988079,0.361199999988079,1
7434577,3,31,"Matching","S2","Scottish","S2_1.wav","other","other","Stranger","Stranger","other","Other","Stranger",402.199999988079,0.402199999988079,1
7434577,3,32,"Nonmatching","S3","Scottish","S3_2.wav","other","other","Stranger","Stranger","friend","Friend","Close",427.59999999404,0.42759999999404,1
7434577,3,33,"Nonmatching","S1","Scottish","S1_1.wav","other","other","Stranger","Stranger","self","Self","Self",448.899999976158,0.448899999976158,1
7434577,3,34,"Nonmatching","S2","Scottish","S2_1.wav","friend","friend","Friend","Close","other","Other","Stranger",506.5,0.5065,1
7434577,3,35,"Nonmatching","S1","Scottish","S1_1.wav","friend","friend","Friend","Close","self","Self","Self",654.800000011921,0.654800000011921,1
7434577,3,36,"Nonmatching","S3","Scottish","S3_2.wav","self","self","Self","Self","friend","Friend","Close",437.299999982119,0.437299999982119,1
7434577,3,37,"Matching","S1","Scottish","S1_1.wav","self","self","Self","Self","self","Self","Self",360.40000000596,0.36040000000596,1
7434577,3,38,"Matching","S2","Scottish","S2_2.wav","other","other","Stranger","Stranger","other","Other","Stranger",420.199999988079,0.420199999988079,1
7434577,3,39,"Matching","S3","Scottish","S3_2.wav","friend","friend","Friend","Close","friend","Friend","Close",362.59999999404,0.36259999999404,1
7434577,3,40,"Matching","S2","Scottish","S2_2.wav","other","other","Stranger","Stranger","other","Other","Stranger",404.09999999404,0.40409999999404,1
7434577,3,41,"Matching","S2","Scottish","S2_1.wav","other","other","Stranger","Stranger","other","Other","Stranger",413.5,0.4135,1
7434577,3,42,"Nonmatching","S1","Scottish","S1_2.wav","friend","friend","Friend","Close","self","Self","Self",456.40000000596,0.45640000000596,1
7434577,3,43,"Matching","S2","Scottish","S2_2.wav","other","other","Stranger","Stranger","other","Other","Stranger",394,0.394,1
7434577,3,44,"Nonmatching","S2","Scottish","S2_2.wav","friend","friend","Friend","Close","other","Other","Stranger",478.5,0.4785,1
7434577,3,45,"Matching","S3","Scottish","S3_1.wav","friend","friend","Friend","Close","friend","Friend","Close",397.699999988079,0.397699999988079,1
7434577,3,46,"Matching","S1","Scottish","S1_1.wav","self","self","Self","Self","self","Self","Self",357.5,0.3575,1
7434577,3,47,"Nonmatching","S1","Scottish","S1_1.wav","other","other","Stranger","Stranger","self","Self","Self",431.5,0.4315,1
7434577,3,48,"Nonmatching","S2","Scottish","S2_2.wav","friend","friend","Friend","Close","other","Other","Stranger",543.40000000596,0.54340000000596,1
7434577,3,49,"Nonmatching","S3","Scottish","S3_1.wav","other","other","Stranger","Stranger","friend","Friend","Close",697.5,0.6975,1
7434577,3,50,"Matching","S2","Scottish","S2_1.wav","other","other","Stranger","Stranger","other","Other","Stranger",394,0.394,1
7434577,3,51,"Nonmatching","S1","Scottish","S1_1.wav","friend","friend","Friend","Close","self","Self","Self",489.90000000596,0.48990000000596,1
7434577,3,52,"Matching","S2","Scottish","S2_1.wav","other","other","Stranger","Stranger","other","Other","Stranger",382.100000023842,0.382100000023842,1
7434577,3,53,"Matching","S1","Scottish","S1_2.wav","self","self","Self","Self","self","Self","Self",504.299999982119,0.504299999982119,1
7434577,3,54,"Matching","S3","Scottish","S3_1.wav","friend","friend","Friend","Close","friend","Friend","Close",481.90000000596,0.48190000000596,1
7434577,3,55,"Nonmatching","S2","Scottish","S2_1.wav","friend","friend","Friend","Close","other","Other","Stranger",448.59999999404,0.44859999999404,1
7434577,3,56,"Matching","S2","Scottish","S2_1.wav","other","other","Stranger","Stranger","other","Other","Stranger",392.59999999404,0.39259999999404,1
7434577,3,57,"Nonmatching","S3","Scottish","S3_1.wav","self","self","Self","Self","friend","Friend","Close",435.799999982119,0.435799999982119,1
7434577,3,58,"Nonmatching","S3","Scottish","S3_1.wav","self","self","Self","Self","friend","Friend","Close",449,0.449,1
7434577,3,59,"Matching","S2","Scottish","S2_2.wav","other","other","Stranger","Stranger","other","Other","Stranger",359.5,0.3595,1
7434577,3,60,"Matching","S3","Scottish","S3_2.wav","friend","friend","Friend","Close","friend","Friend","Close",360.90000000596,0.36090000000596,1
7434577,3,61,"Nonmatching","S3","Scottish","S3_1.wav","self","self","Self","Self","friend","Friend","Close",413.300000011921,0.413300000011921,1
7434577,3,62,"Matching","S3","Scottish","S3_2.wav","friend","friend","Friend","Close","friend","Friend","Close",406.40000000596,0.40640000000596,1
7434577,3,63,"Matching","S3","Scottish","S3_2.wav","friend","friend","Friend","Close","friend","Friend","Close",366,0.366,1
7434577,3,64,"Nonmatching","S2","Scottish","S2_2.wav","friend","friend","Friend","Close","other","Other","Stranger",479.700000017881,0.479700000017881,1
7434577,3,65,"Matching","S3","Scottish","S3_1.wav","friend","friend","Friend","Close","friend","Friend","Close",481.299999982119,0.481299999982119,1
7434577,3,66,"Nonmatching","S3","Scottish","S3_1.wav","other","other","Stranger","Stranger","friend","Friend","Close",448.5,0.4485,1
7434577,3,67,"Matching","S3","Scottish","S3_1.wav","friend","friend","Friend","Close","friend","Friend","Close",497.800000011921,0.497800000011921,1
7434577,3,68,"Matching","S3","Scottish","S3_1.wav","friend","friend","Friend","Close","friend","Friend","Close",371.5,0.3715,1
7434577,3,69,"Nonmatching","S2","Scottish","S2_2.wav","self","self","Self","Self","other","Other","Stranger",467.199999988079,0.467199999988079,1
7434577,3,70,"Nonmatching","S1","Scottish","S1_2.wav","friend","friend","Friend","Close","self","Self","Self",442.199999988079,0.442199999988079,1
7434577,3,71,"Nonmatching","S2","Scottish","S2_1.wav","friend","friend","Friend","Close","other","Other","Stranger",437.40000000596,0.43740000000596,1
7434577,3,72,"Nonmatching","S1","Scottish","S1_1.wav","friend","friend","Friend","Close","self","Self","Self",496.90000000596,0.49690000000596,1
7434611,1,1,"Nonmatching","S1","Scottish","S1_1.wav","other","other","Stranger","Stranger","self","Self","Self",693.09999999404,0.69309999999404,1
7434611,1,2,"Matching","S2","Scottish","S2_1.wav","friend","friend","Friend","Close","friend","Friend","Close",955.90000000596,0.95590000000596,1
7434611,1,3,"Matching","S3","Scottish","S3_2.wav","other","other","Stranger","Stranger","other","Other","Stranger",676.5,0.6765,0
7434611,1,4,"Nonmatching","S2","Scottish","S2_1.wav","self","self","Self","Self","friend","Friend","Close",403.59999999404,0.40359999999404,0
7434611,1,5,"Matching","S1","Scottish","S1_1.wav","self","self","Self","Self","self","Self","Self",747.699999988079,0.747699999988079,0
7434611,1,6,"Matching","S3","Scottish","S3_2.wav","other","other","Stranger","Stranger","other","Other","Stranger",400.299999982119,0.400299999982119,1
7434611,1,7,"Matching","S1","Scottish","S1_2.wav","self","self","Self","Self","self","Self","Self",525,0.525,1
7434611,1,8,"Matching","S2","Scottish","S2_2.wav","friend","friend","Friend","Close","friend","Friend","Close",865.90000000596,0.86590000000596,1
7434611,1,9,"Nonmatching","S1","Scottish","S1_2.wav","friend","friend","Friend","Close","self","Self","Self",713.700000017881,0.713700000017881,1
7434611,1,10,"Nonmatching","S2","Scottish","S2_1.wav","self","self","Self","Self","friend","Friend","Close",682.199999988079,0.682199999988079,1
7434611,1,11,"Matching","S2","Scottish","S2_2.wav","friend","friend","Friend","Close","friend","Friend","Close",919.800000011921,0.919800000011921,1
7434611,1,12,"Nonmatching","S2","Scottish","S2_1.wav","other","other","Stranger","Stranger","friend","Friend","Close",679.59999999404,0.67959999999404,1
7434611,1,13,"Nonmatching","S3","Scottish","S3_2.wav","self","self","Self","Self","other","Other","Stranger",434.5,0.4345,1
7434611,1,14,"Nonmatching","S3","Scottish","S3_2.wav","friend","friend","Friend","Close","other","Other","Stranger",855.200000017881,0.855200000017881,1
7434611,1,15,"Matching","S1","Scottish","S1_2.wav","self","self","Self","Self","self","Self","Self",409.09999999404,0.40909999999404,1
7434611,1,16,"Matching","S2","Scottish","S2_2.wav","friend","friend","Friend","Close","friend","Friend","Close",793.09999999404,0.79309999999404,1
7434611,1,17,"Matching","S3","Scottish","S3_1.wav","other","other","Stranger","Stranger","other","Other","Stranger",522.300000011921,0.522300000011921,1
7434611,1,18,"Matching","S1","Scottish","S1_1.wav","self","self","Self","Self","self","Self","Self",584.300000011921,0.584300000011921,0
7434611,1,19,"Matching","S1","Scottish","S1_1.wav","self","self","Self","Self","self","Self","Self",489.5,0.4895,1
7434611,1,20,"Nonmatching","S3","Scottish","S3_1.wav","self","self","Self","Self","other","Other","Stranger",458.299999982119,0.458299999982119,1
7434611,1,21,"Nonmatching","S1","Scottish","S1_2.wav","friend","friend","Friend","Close","self","Self","Self",801.299999982119,0.801299999982119,1
7434611,1,22,"Matching","S2","Scottish","S2_2.wav","friend","friend","Friend","Close","friend","Friend","Close",601.40000000596,0.60140000000596,1
7434611,1,23,"Nonmatching","S1","Scottish","S1_1.wav","other","other","Stranger","Stranger","self","Self","Self",447.700000017881,0.447700000017881,0
7434611,1,24,"Matching","S2","Scottish","S2_1.wav","friend","friend","Friend","Close","friend","Friend","Close",529.09999999404,0.52909999999404,1
7434611,1,25,"Matching","S3","Scottish","S3_1.wav","other","other","Stranger","Stranger","other","Other","Stranger",346.600000023842,0.346600000023842,1
7434611,1,26,"Matching","S2","Scottish","S2_2.wav","friend","friend","Friend","Close","friend","Friend","Close",471.800000011921,0.471800000011921,0
7434611,1,27,"Matching","S1","Scottish","S1_1.wav","self","self","Self","Self","self","Self","Self",378.899999976158,0.378899999976158,1
7434611,1,28,"Matching","S3","Scottish","S3_2.wav","other","other","Stranger","Stranger","other","Other","Stranger",297.59999999404,0.29759999999404,1
7434611,1,29,"Matching","S3","Scottish","S3_2.wav","other","other","Stranger","Stranger","other","Other","Stranger",338.40000000596,0.33840000000596,1
7434611,1,30,"Matching","S2","Scottish","S2_1.wav","friend","friend","Friend","Close","friend","Friend","Close",460.399999976158,0.460399999976158,1
7434611,1,31,"Matching","S3","Scottish","S3_1.wav","other","other","Stranger","Stranger","other","Other","Stranger",356.5,0.3565,1
7434611,1,32,"Nonmatching","S2","Scottish","S2_2.wav","self","self","Self","Self","friend","Friend","Close",753.90000000596,0.75390000000596,0
7434611,1,33,"Matching","S1","Scottish","S1_2.wav","self","self","Self","Self","self","Self","Self",345.5,0.3455,1
7434611,1,34,"Nonmatching","S3","Scottish","S3_2.wav","self","self","Self","Self","other","Other","Stranger",428,0.428,1
7434611,1,35,"Nonmatching","S1","Scottish","S1_2.wav","other","other","Stranger","Stranger","self","Self","Self",647,0.647,1
7434611,1,36,"Matching","S1","Scottish","S1_2.wav","self","self","Self","Self","self","Self","Self",392.799999982119,0.392799999982119,1
7434611,1,37,"Nonmatching","S1","Scottish","S1_1.wav","friend","friend","Friend","Close","self","Self","Self",702.90000000596,0.70290000000596,1
7434611,1,38,"Nonmatching","S1","Scottish","S1_1.wav","other","other","Stranger","Stranger","self","Self","Self",558.90000000596,0.55890000000596,1
7434611,1,39,"Matching","S3","Scottish","S3_2.wav","other","other","Stranger","Stranger","other","Other","Stranger",405.5,0.4055,0
7434611,1,40,"Matching","S3","Scottish","S3_1.wav","other","other","Stranger","Stranger","other","Other","Stranger",647.40000000596,0.64740000000596,1
7434611,1,41,"Nonmatching","S2","Scottish","S2_1.wav","self","self","Self","Self","friend","Friend","Close",432.09999999404,0.43209999999404,0
7434611,1,42,"Nonmatching","S1","Scottish","S1_2.wav","friend","friend","Friend","Close","self","Self","Self",419.59999999404,0.41959999999404,1
7434611,1,43,"Nonmatching","S3","Scottish","S3_2.wav","self","self","Self","Self","other","Other","Stranger",470.40000000596,0.47040000000596,1
7434611,1,44,"Nonmatching","S1","Scottish","S1_1.wav","friend","friend","Friend","Close","self","Self","Self",641.899999976158,0.641899999976158,1
7434611,1,45,"Nonmatching","S3","Scottish","S3_1.wav","friend","friend","Friend","Close","other","Other","Stranger",462.09999999404,0.46209999999404,1
7434611,1,46,"Matching","S1","Scottish","S1_1.wav","self","self","Self","Self","self","Self","Self",391,0.391,1
7434611,1,47,"Nonmatching","S3","Scottish","S3_2.wav","friend","friend","Friend","Close","other","Other","Stranger",336.899999976158,0.336899999976158,0
7434611,1,48,"Nonmatching","S1","Scottish","S1_2.wav","other","other","Stranger","Stranger","self","Self","Self",369.09999999404,0.36909999999404,1
7434611,1,49,"Matching","S2","Scottish","S2_1.wav","friend","friend","Friend","Close","friend","Friend","Close",777.199999988079,0.777199999988079,0
7434611,1,50,"Nonmatching","S1","Scottish","S1_2.wav","other","other","Stranger","Stranger","self","Self","Self",446,0.446,1
7434611,1,51,"Nonmatching","S2","Scottish","S2_1.wav","other","other","Stranger","Stranger","friend","Friend","Close",591.800000011921,0.591800000011921,1
7434611,1,52,"Matching","S3","Scottish","S3_2.wav","other","other","Stranger","Stranger","other","Other","Stranger",378.799999982119,0.378799999982119,1
7434611,1,53,"Nonmatching","S2","Scottish","S2_2.wav","self","self","Self","Self","friend","Friend","Close",704.199999988079,0.704199999988079,1
7434611,1,54,"Matching","S1","Scottish","S1_2.wav","self","self","Self","Self","self","Self","Self",318.09999999404,0.31809999999404,1
7434611,1,55,"Matching","S2","Scottish","S2_1.wav","friend","friend","Friend","Close","friend","Friend","Close",371.399999976158,0.371399999976158,1
7434611,1,56,"Matching","S2","Scottish","S2_2.wav","friend","friend","Friend","Close","friend","Friend","Close",339.199999988079,0.339199999988079,1
7434611,1,57,"Nonmatching","S2","Scottish","S2_2.wav","other","other","Stranger","Stranger","friend","Friend","Close",443.299999982119,0.443299999982119,1
7434611,1,58,"Nonmatching","S1","Scottish","S1_1.wav","friend","friend","Friend","Close","self","Self","Self",438.300000011921,0.438300000011921,1
7434611,1,59,"Nonmatching","S3","Scottish","S3_1.wav","friend","friend","Friend","Close","other","Other","Stranger",524,0.524,1
7434611,1,60,"Matching","S3","Scottish","S3_1.wav","other","other","Stranger","Stranger","other","Other","Stranger",397.699999988079,0.397699999988079,1
7434611,1,61,"Nonmatching","S2","Scottish","S2_2.wav","other","other","Stranger","Stranger","friend","Friend","Close",590.90000000596,0.59090000000596,1
7434611,1,62,"Matching","S1","Scottish","S1_2.wav","self","self","Self","Self","self","Self","Self",458.59999999404,0.45859999999404,1
7434611,1,63,"Matching","S3","Scottish","S3_1.wav","other","other","Stranger","Stranger","other","Other","Stranger",319.300000011921,0.319300000011921,1
7434611,1,64,"Matching","S2","Scottish","S2_1.wav","friend","friend","Friend","Close","friend","Friend","Close",541.5,0.5415,1
7434611,1,65,"Nonmatching","S2","Scottish","S2_2.wav","other","other","Stranger","Stranger","friend","Friend","Close",592.09999999404,0.59209999999404,1
7434611,1,66,"Nonmatching","S3","Scottish","S3_1.wav","friend","friend","Friend","Close","other","Other","Stranger",432.200000017881,0.432200000017881,1
7434611,1,67,"Nonmatching","S2","Scottish","S2_1.wav","other","other","Stranger","Stranger","friend","Friend","Close",626.299999982119,0.626299999982119,1
7434611,1,68,"Nonmatching","S3","Scottish","S3_1.wav","self","self","Self","Self","other","Other","Stranger",554.700000017881,0.554700000017881,1
7434611,1,69,"Matching","S1","Scottish","S1_1.wav","self","self","Self","Self","self","Self","Self",385.200000017881,0.385200000017881,1
7434611,1,70,"Nonmatching","S2","Scottish","S2_2.wav","self","self","Self","Self","friend","Friend","Close",497.200000017881,0.497200000017881,1
7434611,1,71,"Nonmatching","S3","Scottish","S3_2.wav","friend","friend","Friend","Close","other","Other","Stranger",538.399999976158,0.538399999976158,1
7434611,1,72,"Nonmatching","S3","Scottish","S3_1.wav","self","self","Self","Self","other","Other","Stranger",609.600000023842,0.609600000023842,1
7434611,2,1,"Matching","S1","Scottish","S1_2.wav","self","self","Self","Self","self","Self","Self",659.699999988079,0.659699999988079,1
7434611,2,2,"Nonmatching","S1","Scottish","S1_2.wav","friend","friend","Friend","Close","self","Self","Self",436.59999999404,0.43659999999404,1
7434611,2,3,"Nonmatching","S2","Scottish","S2_1.wav","other","other","Stranger","Stranger","friend","Friend","Close",617.699999988079,0.617699999988079,1
7434611,2,4,"Matching","S2","Scottish","S2_2.wav","friend","friend","Friend","Close","friend","Friend","Close",607,0.607,1
7434611,2,5,"Nonmatching","S1","Scottish","S1_1.wav","other","other","Stranger","Stranger","self","Self","Self",711,0.711,1
7434611,2,6,"Matching","S2","Scottish","S2_1.wav","friend","friend","Friend","Close","friend","Friend","Close",414.299999982119,0.414299999982119,1
7434611,2,7,"Matching","S1","Scottish","S1_2.wav","self","self","Self","Self","self","Self","Self",310.300000011921,0.310300000011921,1
7434611,2,8,"Matching","S1","Scottish","S1_1.wav","self","self","Self","Self","self","Self","Self",324.800000011921,0.324800000011921,1
7434611,2,9,"Matching","S1","Scottish","S1_2.wav","self","self","Self","Self","self","Self","Self",326.5,0.3265,1
7434611,2,10,"Nonmatching","S3","Scottish","S3_2.wav","friend","friend","Friend","Close","other","Other","Stranger",443.799999982119,0.443799999982119,1
7434611,2,11,"Nonmatching","S3","Scottish","S3_2.wav","friend","friend","Friend","Close","other","Other","Stranger",461.40000000596,0.46140000000596,1
7434611,2,12,"Nonmatching","S3","Scottish","S3_1.wav","self","self","Self","Self","other","Other","Stranger",611.600000023842,0.611600000023842,0
7434611,2,13,"Matching","S3","Scottish","S3_2.wav","other","other","Stranger","Stranger","other","Other","Stranger",591.100000023842,0.591100000023842,1
7434611,2,14,"Matching","S2","Scottish","S2_1.wav","friend","friend","Friend","Close","friend","Friend","Close",457.09999999404,0.45709999999404,1
7434611,2,15,"Nonmatching","S1","Scottish","S1_1.wav","friend","friend","Friend","Close","self","Self","Self",470,0.47,1
7434611,2,16,"Matching","S1","Scottish","S1_2.wav","self","self","Self","Self","self","Self","Self",372.5,0.3725,1
7434611,2,17,"Nonmatching","S2","Scottish","S2_2.wav","other","other","Stranger","Stranger","friend","Friend","Close",467.59999999404,0.46759999999404,1
7434611,2,18,"Matching","S1","Scottish","S1_1.wav","self","self","Self","Self","self","Self","Self",438.90000000596,0.43890000000596,1
7434611,2,19,"Matching","S1","Scottish","S1_1.wav","self","self","Self","Self","self","Self","Self",336.5,0.3365,1
7434611,2,20,"Matching","S3","Scottish","S3_2.wav","other","other","Stranger","Stranger","other","Other","Stranger",723.90000000596,0.72390000000596,1
7434611,2,21,"Nonmatching","S2","Scottish","S2_2.wav","other","other","Stranger","Stranger","friend","Friend","Close",598.5,0.5985,1
7434611,2,22,"Nonmatching","S2","Scottish","S2_2.wav","other","other","Stranger","Stranger","friend","Friend","Close",609.09999999404,0.60909999999404,1
7434611,2,23,"Nonmatching","S1","Scottish","S1_2.wav","other","other","Stranger","Stranger","self","Self","Self",423.799999982119,0.423799999982119,1
7434611,2,24,"Nonmatching","S3","Scottish","S3_1.wav","self","self","Self","Self","other","Other","Stranger",1264,1.264,1
7434611,2,25,"Matching","S2","Scottish","S2_2.wav","friend","friend","Friend","Close","friend","Friend","Close",523.5,0.5235,1
7434611,2,26,"Nonmatching","S3","Scottish","S3_1.wav","friend","friend","Friend","Close","other","Other","Stranger",458.300000011921,0.458300000011921,1
7434611,2,27,"Matching","S3","Scottish","S3_2.wav","other","other","Stranger","Stranger","other","Other","Stranger",390.800000011921,0.390800000011921,1
7434611,2,28,"Matching","S1","Scottish","S1_1.wav","self","self","Self","Self","self","Self","Self",372,0.372,1
7434611,2,29,"Matching","S3","Scottish","S3_2.wav","other","other","Stranger","Stranger","other","Other","Stranger",385.5,0.3855,1
7434611,2,30,"Matching","S2","Scottish","S2_2.wav","friend","friend","Friend","Close","friend","Friend","Close",531,0.531,1
7434611,2,31,"Nonmatching","S2","Scottish","S2_1.wav","self","self","Self","Self","friend","Friend","Close",663.90000000596,0.66390000000596,1
7434611,2,32,"Nonmatching","S3","Scottish","S3_1.wav","self","self","Self","Self","other","Other","Stranger",415.90000000596,0.41590000000596,1
7434611,2,33,"Nonmatching","S2","Scottish","S2_2.wav","self","self","Self","Self","friend","Friend","Close",1122,1.122,1
7434611,2,34,"Nonmatching","S2","Scottish","S2_1.wav","self","self","Self","Self","friend","Friend","Close",494.700000017881,0.494700000017881,1
7434611,2,35,"Nonmatching","S3","Scottish","S3_2.wav","self","self","Self","Self","other","Other","Stranger",382.40000000596,0.38240000000596,1
7434611,2,36,"Matching","S2","Scottish","S2_1.wav","friend","friend","Friend","Close","friend","Friend","Close",462.799999982119,0.462799999982119,1
7434611,2,37,"Nonmatching","S3","Scottish","S3_2.wav","self","self","Self","Self","other","Other","Stranger",381,0.381,1
7434611,2,38,"Nonmatching","S2","Scottish","S2_2.wav","self","self","Self","Self","friend","Friend","Close",461.699999988079,0.461699999988079,1
7434611,2,39,"Nonmatching","S2","Scottish","S2_2.wav","self","self","Self","Self","friend","Friend","Close",413.699999988079,0.413699999988079,1
7434611,2,40,"Nonmatching","S2","Scottish","S2_1.wav","other","other","Stranger","Stranger","friend","Friend","Close",708.800000011921,0.708800000011921,1
7434611,2,41,"Nonmatching","S1","Scottish","S1_2.wav","friend","friend","Friend","Close","self","Self","Self",383,0.383,1
7434611,2,42,"Matching","S3","Scottish","S3_2.wav","other","other","Stranger","Stranger","other","Other","Stranger",479.09999999404,0.47909999999404,1
7434611,2,43,"Nonmatching","S3","Scottish","S3_2.wav","self","self","Self","Self","other","Other","Stranger",434.800000011921,0.434800000011921,1
7434611,2,44,"Matching","S2","Scottish","S2_2.wav","friend","friend","Friend","Close","friend","Friend","Close",821.399999976158,0.821399999976158,1
7434611,2,45,"Matching","S3","Scottish","S3_1.wav","other","other","Stranger","Stranger","other","Other","Stranger",372,0.372,1
7434611,2,46,"Nonmatching","S1","Scottish","S1_2.wav","other","other","Stranger","Stranger","self","Self","Self",609.899999976158,0.609899999976158,1
7434611,2,47,"Matching","S3","Scottish","S3_2.wav","other","other","Stranger","Stranger","other","Other","Stranger",395.800000011921,0.395800000011921,0
7434611,2,48,"Matching","S3","Scottish","S3_1.wav","other","other","Stranger","Stranger","other","Other","Stranger",361.600000023842,0.361600000023842,1
7434611,2,49,"Nonmatching","S1","Scottish","S1_1.wav","friend","friend","Friend","Close","self","Self","Self",421.200000017881,0.421200000017881,1
7434611,2,50,"Nonmatching","S2","Scottish","S2_1.wav","self","self","Self","Self","friend","Friend","Close",396.40000000596,0.39640000000596,1
7434611,2,51,"Nonmatching","S1","Scottish","S1_2.wav","other","other","Stranger","Stranger","self","Self","Self",430,0.43,1
7434611,2,52,"Nonmatching","S1","Scottish","S1_1.wav","other","other","Stranger","Stranger","self","Self","Self",391.300000011921,0.391300000011921,1
7434611,2,53,"Matching","S1","Scottish","S1_1.wav","self","self","Self","Self","self","Self","Self",437.90000000596,0.43790000000596,1
7434611,2,54,"Matching","S1","Scottish","S1_2.wav","self","self","Self","Self","self","Self","Self",384.09999999404,0.38409999999404,1
7434611,2,55,"Matching","S2","Scottish","S2_2.wav","friend","friend","Friend","Close","friend","Friend","Close",753.5,0.7535,1
7434611,2,56,"Nonmatching","S3","Scottish","S3_1.wav","friend","friend","Friend","Close","other","Other","Stranger",694.899999976158,0.694899999976158,1
7434611,2,57,"Matching","S2","Scottish","S2_1.wav","friend","friend","Friend","Close","friend","Friend","Close",620,0.62,1
7434611,2,58,"Matching","S2","Scottish","S2_1.wav","friend","friend","Friend","Close","friend","Friend","Close",395.800000011921,0.395800000011921,1
7434611,2,59,"Matching","S1","Scottish","S1_1.wav","self","self","Self","Self","self","Self","Self",358.899999976158,0.358899999976158,1
7434611,2,60,"Matching","S2","Scottish","S2_1.wav","friend","friend","Friend","Close","friend","Friend","Close",431.59999999404,0.43159999999404,1
7434611,2,61,"Nonmatching","S1","Scottish","S1_1.wav","other","other","Stranger","Stranger","self","Self","Self",470.700000017881,0.470700000017881,1
7434611,2,62,"Matching","S3","Scottish","S3_1.wav","other","other","Stranger","Stranger","other","Other","Stranger",729.899999976158,0.729899999976158,1
7434611,2,63,"Nonmatching","S1","Scottish","S1_1.wav","friend","friend","Friend","Close","self","Self","Self",601.199999988079,0.601199999988079,1
7434611,2,64,"Nonmatching","S2","Scottish","S2_1.wav","other","other","Stranger","Stranger","friend","Friend","Close",439.199999988079,0.439199999988079,1
7434611,2,65,"Matching","S3","Scottish","S3_1.wav","other","other","Stranger","Stranger","other","Other","Stranger",352.899999976158,0.352899999976158,1
7434611,2,66,"Matching","S3","Scottish","S3_1.wav","other","other","Stranger","Stranger","other","Other","Stranger",336.200000017881,0.336200000017881,1
7434611,2,67,"Nonmatching","S3","Scottish","S3_2.wav","friend","friend","Friend","Close","other","Other","Stranger",593,0.593,0
7434611,2,68,"Matching","S3","Scottish","S3_1.wav","other","other","Stranger","Stranger","other","Other","Stranger",340.90000000596,0.34090000000596,1
7434611,2,69,"Matching","S2","Scottish","S2_2.wav","friend","friend","Friend","Close","friend","Friend","Close",407.5,0.4075,0
7434611,2,70,"Nonmatching","S1","Scottish","S1_2.wav","friend","friend","Friend","Close","self","Self","Self",481.200000017881,0.481200000017881,1
7434611,2,71,"Nonmatching","S3","Scottish","S3_1.wav","friend","friend","Friend","Close","other","Other","Stranger",451.200000017881,0.451200000017881,1
7434611,2,72,"Matching","S1","Scottish","S1_2.wav","self","self","Self","Self","self","Self","Self",765.300000011921,0.765300000011921,1
7434611,3,1,"Nonmatching","S3","Scottish","S3_2.wav","self","self","Self","Self","other","Other","Stranger",446.5,0.4465,1
7434611,3,2,"Nonmatching","S3","Scottish","S3_2.wav","friend","friend","Friend","Close","other","Other","Stranger",394.800000011921,0.394800000011921,0
7434611,3,3,"Nonmatching","S1","Scottish","S1_2.wav","other","other","Stranger","Stranger","self","Self","Self",436,0.436,1
7434611,3,4,"Matching","S1","Scottish","S1_2.wav","self","self","Self","Self","self","Self","Self",317.59999999404,0.31759999999404,1
7434611,3,5,"Nonmatching","S2","Scottish","S2_2.wav","other","other","Stranger","Stranger","friend","Friend","Close",592.40000000596,0.59240000000596,1
7434611,3,6,"Matching","S1","Scottish","S1_2.wav","self","self","Self","Self","self","Self","Self",373.899999976158,0.373899999976158,1
7434611,3,7,"Matching","S2","Scottish","S2_2.wav","friend","friend","Friend","Close","friend","Friend","Close",530,0.53,1
7434611,3,8,"Matching","S1","Scottish","S1_1.wav","self","self","Self","Self","self","Self","Self",406.299999982119,0.406299999982119,1
7434611,3,9,"Nonmatching","S2","Scottish","S2_2.wav","self","self","Self","Self","friend","Friend","Close",759.09999999404,0.75909999999404,0
7434611,3,10,"Nonmatching","S1","Scottish","S1_2.wav","other","other","Stranger","Stranger","self","Self","Self",499.800000011921,0.499800000011921,1
7434611,3,11,"Matching","S3","Scottish","S3_1.wav","other","other","Stranger","Stranger","other","Other","Stranger",391.799999982119,0.391799999982119,1
7434611,3,12,"Matching","S2","Scottish","S2_1.wav","friend","friend","Friend","Close","friend","Friend","Close",719.40000000596,0.71940000000596,1
7434611,3,13,"Nonmatching","S3","Scottish","S3_1.wav","friend","friend","Friend","Close","other","Other","Stranger",446.5,0.4465,1
7434611,3,14,"Nonmatching","S2","Scottish","S2_2.wav","other","other","Stranger","Stranger","friend","Friend","Close",589.5,0.5895,1
7434611,3,15,"Matching","S2","Scottish","S2_2.wav","friend","friend","Friend","Close","friend","Friend","Close",402,0.402,1
7434611,3,16,"Matching","S1","Scottish","S1_1.wav","self","self","Self","Self","self","Self","Self",613.899999976158,0.613899999976158,1
7434611,3,17,"Matching","S3","Scottish","S3_1.wav","other","other","Stranger","Stranger","other","Other","Stranger",572.09999999404,0.57209999999404,1
7434611,3,18,"Nonmatching","S1","Scottish","S1_1.wav","friend","friend","Friend","Close","self","Self","Self",597.200000017881,0.597200000017881,1
7434611,3,19,"Nonmatching","S1","Scottish","S1_1.wav","friend","friend","Friend","Close","self","Self","Self",426.5,0.4265,1
7434611,3,20,"Nonmatching","S3","Scottish","S3_1.wav","self","self","Self","Self","other","Other","Stranger",430.699999988079,0.430699999988079,1
7434611,3,21,"Nonmatching","S1","Scottish","S1_2.wav","friend","friend","Friend","Close","self","Self","Self",617.100000023842,0.617100000023842,1
7434611,3,22,"Nonmatching","S3","Scottish","S3_2.wav","friend","friend","Friend","Close","other","Other","Stranger",423.5,0.4235,1
7434611,3,23,"Nonmatching","S3","Scottish","S3_1.wav","self","self","Self","Self","other","Other","Stranger",515,0.515,1
7434611,3,24,"Matching","S2","Scottish","S2_1.wav","friend","friend","Friend","Close","friend","Friend","Close",596.5,0.5965,1
7434611,3,25,"Nonmatching","S2","Scottish","S2_1.wav","other","other","Stranger","Stranger","friend","Friend","Close",372.09999999404,0.37209999999404,1
7434611,3,26,"Matching","S1","Scottish","S1_1.wav","self","self","Self","Self","self","Self","Self",409.299999982119,0.409299999982119,1
7434611,3,27,"Matching","S3","Scottish","S3_2.wav","other","other","Stranger","Stranger","other","Other","Stranger",561.200000017881,0.561200000017881,1
7434611,3,28,"Matching","S1","Scottish","S1_2.wav","self","self","Self","Self","self","Self","Self",607.699999988079,0.607699999988079,1
7434611,3,29,"Matching","S3","Scottish","S3_1.wav","other","other","Stranger","Stranger","other","Other","Stranger",358.699999988079,0.358699999988079,1
7434611,3,30,"Matching","S2","Scottish","S2_2.wav","friend","friend","Friend","Close","friend","Friend","Close",447.90000000596,0.44790000000596,1
7434611,3,31,"Matching","S3","Scottish","S3_2.wav","other","other","Stranger","Stranger","other","Other","Stranger",448.300000011921,0.448300000011921,1
7434611,3,32,"Matching","S1","Scottish","S1_2.wav","self","self","Self","Self","self","Self","Self",838,0.838,1
7434611,3,33,"Matching","S1","Scottish","S1_2.wav","self","self","Self","Self","self","Self","Self",363.09999999404,0.36309999999404,1
7434611,3,34,"Nonmatching","S2","Scottish","S2_2.wav","self","self","Self","Self","friend","Friend","Close",904.199999988079,0.904199999988079,1
7434611,3,35,"Matching","S3","Scottish","S3_1.wav","other","other","Stranger","Stranger","other","Other","Stranger",313.199999988079,0.313199999988079,1
7434611,3,36,"Nonmatching","S2","Scottish","S2_1.wav","self","self","Self","Self","friend","Friend","Close",937.799999982119,0.937799999982119,1
7434611,3,37,"Nonmatching","S3","Scottish","S3_1.wav","friend","friend","Friend","Close","other","Other","Stranger",831.40000000596,0.83140000000596,1
7434611,3,38,"Matching","S3","Scottish","S3_2.wav","other","other","Stranger","Stranger","other","Other","Stranger",1111.90000000596,1.11190000000596,1
7434611,3,39,"Matching","S3","Scottish","S3_2.wav","other","other","Stranger","Stranger","other","Other","Stranger",335.59999999404,0.33559999999404,1
7434611,3,40,"Matching","S2","Scottish","S2_2.wav","friend","friend","Friend","Close","friend","Friend","Close",372.399999976158,0.372399999976158,1
7434611,3,41,"Nonmatching","S1","Scottish","S1_2.wav","other","other","Stranger","Stranger","self","Self","Self",473.700000017881,0.473700000017881,1
7434611,3,42,"Nonmatching","S1","Scottish","S1_1.wav","other","other","Stranger","Stranger","self","Self","Self",738.90000000596,0.73890000000596,1
7434611,3,43,"Matching","S1","Scottish","S1_2.wav","self","self","Self","Self","self","Self","Self",502.59999999404,0.50259999999404,1
7434611,3,44,"Matching","S2","Scottish","S2_1.wav","friend","friend","Friend","Close","friend","Friend","Close",366.40000000596,0.36640000000596,1
7434611,3,45,"Nonmatching","S3","Scottish","S3_1.wav","self","self","Self","Self","other","Other","Stranger",433.59999999404,0.43359999999404,1
7434611,3,46,"Nonmatching","S1","Scottish","S1_1.wav","friend","friend","Friend","Close","self","Self","Self",537.59999999404,0.53759999999404,1
7434611,3,47,"Matching","S1","Scottish","S1_1.wav","self","self","Self","Self","self","Self","Self",351.59999999404,0.35159999999404,1
7434611,3,48,"Matching","S2","Scottish","S2_2.wav","friend","friend","Friend","Close","friend","Friend","Close",678.299999982119,0.678299999982119,1
7434611,3,49,"Matching","S2","Scottish","S2_2.wav","friend","friend","Friend","Close","friend","Friend","Close",442.399999976158,0.442399999976158,0
7434611,3,50,"Matching","S2","Scottish","S2_1.wav","friend","friend","Friend","Close","friend","Friend","Close",374.899999976158,0.374899999976158,1
7434611,3,51,"Nonmatching","S3","Scottish","S3_2.wav","self","self","Self","Self","other","Other","Stranger",417.600000023842,0.417600000023842,1
7434611,3,52,"Matching","S2","Scottish","S2_1.wav","friend","friend","Friend","Close","friend","Friend","Close",499.5,0.4995,1
7434611,3,53,"Nonmatching","S2","Scottish","S2_2.wav","self","self","Self","Self","friend","Friend","Close",429.90000000596,0.42990000000596,1
7434611,3,54,"Matching","S3","Scottish","S3_2.wav","other","other","Stranger","Stranger","other","Other","Stranger",744.40000000596,0.74440000000596,1
7434611,3,55,"Nonmatching","S3","Scottish","S3_2.wav","self","self","Self","Self","other","Other","Stranger",395.700000017881,0.395700000017881,1
7434611,3,56,"Matching","S1","Scottish","S1_1.wav","self","self","Self","Self","self","Self","Self",565,0.565,1
7434611,3,57,"Nonmatching","S2","Scottish","S2_2.wav","other","other","Stranger","Stranger","friend","Friend","Close",466.59999999404,0.46659999999404,1
7434611,3,58,"Matching","S3","Scottish","S3_1.wav","other","other","Stranger","Stranger","other","Other","Stranger",316.90000000596,0.31690000000596,1
7434611,3,59,"Matching","S2","Scottish","S2_1.wav","friend","friend","Friend","Close","friend","Friend","Close",436.09999999404,0.43609999999404,1
7434611,3,60,"Matching","S3","Scottish","S3_2.wav","other","other","Stranger","Stranger","other","Other","Stranger",580.40000000596,0.58040000000596,1
7434611,3,61,"Nonmatching","S2","Scottish","S2_1.wav","self","self","Self","Self","friend","Friend","Close",430.90000000596,0.43090000000596,1
7434611,3,62,"Nonmatching","S3","Scottish","S3_2.wav","friend","friend","Friend","Close","other","Other","Stranger",1066,1.066,0
7434611,3,63,"Nonmatching","S1","Scottish","S1_1.wav","other","other","Stranger","Stranger","self","Self","Self",941.09999999404,0.94109999999404,1
7434611,3,64,"Nonmatching","S1","Scottish","S1_1.wav","other","other","Stranger","Stranger","self","Self","Self",437.699999988079,0.437699999988079,1
7434611,3,65,"Matching","S1","Scottish","S1_1.wav","self","self","Self","Self","self","Self","Self",367.699999988079,0.367699999988079,1
7434611,3,66,"Nonmatching","S2","Scottish","S2_1.wav","self","self","Self","Self","friend","Friend","Close",518,0.518,1
7434611,3,67,"Nonmatching","S1","Scottish","S1_2.wav","friend","friend","Friend","Close","self","Self","Self",446.199999988079,0.446199999988079,1
7434611,3,68,"Nonmatching","S3","Scottish","S3_1.wav","friend","friend","Friend","Close","other","Other","Stranger",478.199999988079,0.478199999988079,1
7434611,3,69,"Nonmatching","S1","Scottish","S1_2.wav","friend","friend","Friend","Close","self","Self","Self",807.09999999404,0.80709999999404,1
7434611,3,70,"Nonmatching","S2","Scottish","S2_1.wav","other","other","Stranger","Stranger","friend","Friend","Close",510.59999999404,0.51059999999404,1
7434611,3,71,"Nonmatching","S2","Scottish","S2_1.wav","other","other","Stranger","Stranger","friend","Friend","Close",704.699999988079,0.704699999988079,1
7434611,3,72,"Matching","S3","Scottish","S3_1.wav","other","other","Stranger","Stranger","other","Other","Stranger",367.5,0.3675,1
7434622,1,1,"Nonmatching","S3","Scottish","S3_2.wav","friend","friend","Friend","Close","self","Self","Self",1062,1.062,1
7434622,1,2,"Nonmatching","S2","Scottish","S2_1.wav","other","other","Stranger","Stranger","friend","Friend","Close",1120,1.12,0
7434622,1,3,"Matching","S1","Scottish","S1_1.wav","other","other","Stranger","Stranger","other","Other","Stranger",1148.19999999925,1.14819999999925,1
7434622,1,4,"Matching","S2","Scottish","S2_1.wav","friend","friend","Friend","Close","friend","Friend","Close",698.5,0.6985,0
7434622,1,5,"Nonmatching","S3","Scottish","S3_2.wav","other","other","Stranger","Stranger","self","Self","Self",754.900000002235,0.754900000002235,1
7434622,1,6,"Matching","S2","Scottish","S2_1.wav","friend","friend","Friend","Close","friend","Friend","Close",780.800000000745,0.780800000000745,1
7434622,1,7,"Nonmatching","S2","Scottish","S2_1.wav","self","self","Self","Self","friend","Friend","Close",745.400000002235,0.745400000002235,1
7434622,1,8,"Nonmatching","S2","Scottish","S2_1.wav","other","other","Stranger","Stranger","friend","Friend","Close",1090.10000000149,1.09010000000149,1
7434622,1,9,"Matching","S1","Scottish","S1_1.wav","other","other","Stranger","Stranger","other","Other","Stranger",1156.30000000075,1.15630000000075,1
7434622,1,10,"Matching","S1","Scottish","S1_2.wav","other","other","Stranger","Stranger","other","Other","Stranger",1003.09999999776,1.00309999999776,0
7434622,1,11,"Matching","S2","Scottish","S2_1.wav","friend","friend","Friend","Close","friend","Friend","Close",913.699999999255,0.913699999999255,0
7434622,1,12,"Matching","S1","Scottish","S1_1.wav","other","other","Stranger","Stranger","other","Other","Stranger",1097.19999999925,1.09719999999925,0
7434622,1,13,"Matching","S1","Scottish","S1_2.wav","other","other","Stranger","Stranger","other","Other","Stranger",629.300000000745,0.629300000000745,1
7434622,1,14,"Nonmatching","S2","Scottish","S2_2.wav","other","other","Stranger","Stranger","friend","Friend","Close",835.400000002235,0.835400000002235,1
7434622,1,15,"Nonmatching","S3","Scottish","S3_2.wav","other","other","Stranger","Stranger","self","Self","Self",714,0.714,1
7434622,1,16,"Matching","S1","Scottish","S1_1.wav","other","other","Stranger","Stranger","other","Other","Stranger",905.29999999702,0.90529999999702,1
7434622,1,17,"Nonmatching","S3","Scottish","S3_2.wav","friend","friend","Friend","Close","self","Self","Self",1174.10000000149,1.17410000000149,1
7434622,1,18,"Matching","S3","Scottish","S3_1.wav","self","self","Self","Self","self","Self","Self",881.800000000745,0.881800000000745,1
7434622,1,19,"Matching","S2","Scottish","S2_1.wav","friend","friend","Friend","Close","friend","Friend","Close",1129.30000000075,1.12930000000075,0
7434622,1,20,"Matching","S1","Scottish","S1_2.wav","other","other","Stranger","Stranger","other","Other","Stranger",617.5,0.6175,0
7434622,1,21,"Matching","S3","Scottish","S3_2.wav","self","self","Self","Self","self","Self","Self",566.099999997765,0.566099999997765,1
7434622,1,22,"Matching","S3","Scottish","S3_1.wav","self","self","Self","Self","self","Self","Self",588.400000002235,0.588400000002235,1
7434622,1,23,"Nonmatching","S2","Scottish","S2_1.wav","other","other","Stranger","Stranger","friend","Friend","Close",682.39999999851,0.68239999999851,0
7434622,1,24,"Matching","S2","Scottish","S2_2.wav","friend","friend","Friend","Close","friend","Friend","Close",803.39999999851,0.80339999999851,1
7434622,1,25,"Nonmatching","S2","Scottish","S2_2.wav","other","other","Stranger","Stranger","friend","Friend","Close",611.699999999255,0.611699999999255,1
7434622,1,26,"Matching","S1","Scottish","S1_2.wav","other","other","Stranger","Stranger","other","Other","Stranger",961.699999999255,0.961699999999255,0
7434622,1,27,"Nonmatching","S1","Scottish","S1_1.wav","friend","friend","Friend","Close","other","Other","Stranger",665.39999999851,0.66539999999851,1
7434622,1,28,"Nonmatching","S3","Scottish","S3_1.wav","other","other","Stranger","Stranger","self","Self","Self",537.800000000745,0.537800000000745,1
7434622,1,29,"Nonmatching","S2","Scottish","S2_2.wav","other","other","Stranger","Stranger","friend","Friend","Close",978.300000000745,0.978300000000745,0
7434622,1,30,"Nonmatching","S2","Scottish","S2_2.wav","self","self","Self","Self","friend","Friend","Close",840.29999999702,0.84029999999702,1
7434622,1,31,"Nonmatching","S1","Scottish","S1_1.wav","self","self","Self","Self","other","Other","Stranger",1017.19999999925,1.01719999999925,1
7434622,1,32,"Matching","S3","Scottish","S3_2.wav","self","self","Self","Self","self","Self","Self",582.199999999255,0.582199999999255,1
7434622,1,33,"Nonmatching","S2","Scottish","S2_1.wav","self","self","Self","Self","friend","Friend","Close",889.599999997765,0.889599999997765,1
7434622,1,34,"Nonmatching","S3","Scottish","S3_1.wav","other","other","Stranger","Stranger","self","Self","Self",888.10000000149,0.88810000000149,1
7434622,1,35,"Nonmatching","S1","Scottish","S1_1.wav","friend","friend","Friend","Close","other","Other","Stranger",1033.19999999925,1.03319999999925,0
7434622,1,36,"Matching","S2","Scottish","S2_1.wav","friend","friend","Friend","Close","friend","Friend","Close",785.900000002235,0.785900000002235,1
7434622,1,37,"Nonmatching","S1","Scottish","S1_2.wav","self","self","Self","Self","other","Other","Stranger",1001.80000000075,1.00180000000075,1
7434622,1,38,"Matching","S2","Scottish","S2_2.wav","friend","friend","Friend","Close","friend","Friend","Close",1019.40000000224,1.01940000000224,0
7434622,1,39,"Nonmatching","S1","Scottish","S1_2.wav","friend","friend","Friend","Close","other","Other","Stranger",1049.39999999851,1.04939999999851,1
7434622,1,40,"Nonmatching","S3","Scottish","S3_2.wav","friend","friend","Friend","Close","self","Self","Self",831.699999999255,0.831699999999255,1
7434622,1,41,"Nonmatching","S3","Scottish","S3_1.wav","friend","friend","Friend","Close","self","Self","Self",826.099999997765,0.826099999997765,1
7434622,1,42,"Nonmatching","S1","Scottish","S1_2.wav","self","self","Self","Self","other","Other","Stranger",1333.19999999925,1.33319999999925,1
7434622,1,43,"Nonmatching","S1","Scottish","S1_2.wav","friend","friend","Friend","Close","other","Other","Stranger",1187.79999999702,1.18779999999702,0
7434622,1,44,"Matching","S2","Scottish","S2_2.wav","friend","friend","Friend","Close","friend","Friend","Close",489,0.489,1
7434622,1,45,"Matching","S3","Scottish","S3_1.wav","self","self","Self","Self","self","Self","Self",880.20000000298,0.88020000000298,1
7434622,1,46,"Nonmatching","S3","Scottish","S3_1.wav","friend","friend","Friend","Close","self","Self","Self",599.29999999702,0.59929999999702,1
7434622,1,47,"Matching","S2","Scottish","S2_2.wav","friend","friend","Friend","Close","friend","Friend","Close",793.099999997765,0.793099999997765,0
7434622,1,48,"Matching","S3","Scottish","S3_1.wav","self","self","Self","Self","self","Self","Self",1022.80000000075,1.02280000000075,1
7434622,1,49,"Nonmatching","S2","Scottish","S2_2.wav","self","self","Self","Self","friend","Friend","Close",857.800000000745,0.857800000000745,1
7434622,1,50,"Matching","S3","Scottish","S3_2.wav","self","self","Self","Self","self","Self","Self",1217.30000000075,1.21730000000075,1
7434622,1,51,"Nonmatching","S1","Scottish","S1_2.wav","friend","friend","Friend","Close","other","Other","Stranger",1389.60000000149,1.38960000000149,1
7434622,1,52,"Matching","S1","Scottish","S1_2.wav","other","other","Stranger","Stranger","other","Other","Stranger",1361.69999999925,1.36169999999925,0
7434622,1,53,"Nonmatching","S1","Scottish","S1_1.wav","self","self","Self","Self","other","Other","Stranger",1019.60000000149,1.01960000000149,1
7434622,1,54,"Nonmatching","S2","Scottish","S2_2.wav","self","self","Self","Self","friend","Friend","Close",864.699999999255,0.864699999999255,1
7434622,1,55,"Nonmatching","S1","Scottish","S1_1.wav","friend","friend","Friend","Close","other","Other","Stranger",1024.40000000224,1.02440000000224,0
7434622,1,56,"Nonmatching","S1","Scottish","S1_2.wav","self","self","Self","Self","other","Other","Stranger",985.800000000745,0.985800000000745,1
7434622,1,57,"Nonmatching","S1","Scottish","S1_1.wav","self","self","Self","Self","other","Other","Stranger",865.300000000745,0.865300000000745,1
7434622,1,58,"Matching","S3","Scottish","S3_2.wav","self","self","Self","Self","self","Self","Self",1492.10000000149,1.49210000000149,1
7434622,1,59,"Matching","S3","Scottish","S3_2.wav","self","self","Self","Self","self","Self","Self",581.199999999255,0.581199999999255,1
7434622,1,60,"Matching","S3","Scottish","S3_1.wav","self","self","Self","Self","self","Self","Self",472.800000000745,0.472800000000745,1
7434622,1,61,"Matching","S3","Scottish","S3_1.wav","self","self","Self","Self","self","Self","Self",642.5,0.6425,1
7434622,1,62,"Matching","S2","Scottish","S2_1.wav","friend","friend","Friend","Close","friend","Friend","Close",1218.19999999925,1.21819999999925,1
7434622,1,63,"Nonmatching","S3","Scottish","S3_2.wav","other","other","Stranger","Stranger","self","Self","Self",1139.5,1.1395,1
7434622,1,64,"Matching","S1","Scottish","S1_1.wav","other","other","Stranger","Stranger","other","Other","Stranger",1274.09999999776,1.27409999999776,0
7434622,1,65,"Nonmatching","S3","Scottish","S3_1.wav","other","other","Stranger","Stranger","self","Self","Self",859.300000000745,0.859300000000745,0
7434622,1,67,"Matching","S1","Scottish","S1_2.wav","other","other","Stranger","Stranger","other","Other","Stranger",889.5,0.8895,1
7434622,1,68,"Nonmatching","S2","Scottish","S2_1.wav","self","self","Self","Self","friend","Friend","Close",997.699999999255,0.997699999999255,1
7434622,1,69,"Matching","S3","Scottish","S3_2.wav","self","self","Self","Self","self","Self","Self",1058.10000000149,1.05810000000149,1
7434622,1,70,"Nonmatching","S3","Scottish","S3_1.wav","friend","friend","Friend","Close","self","Self","Self",656.800000000745,0.656800000000745,1
7434622,1,71,"Matching","S1","Scottish","S1_1.wav","other","other","Stranger","Stranger","other","Other","Stranger",1009.19999999925,1.00919999999925,1
7434622,1,72,"Matching","S2","Scottish","S2_2.wav","friend","friend","Friend","Close","friend","Friend","Close",1128.80000000075,1.12880000000075,0
7434622,2,1,"Nonmatching","S3","Scottish","S3_1.wav","other","other","Stranger","Stranger","self","Self","Self",857.699999999255,0.857699999999255,0
7434622,2,2,"Nonmatching","S2","Scottish","S2_2.wav","other","other","Stranger","Stranger","friend","Friend","Close",713.699999999255,0.713699999999255,0
7434622,2,3,"Matching","S3","Scottish","S3_2.wav","self","self","Self","Self","self","Self","Self",499.300000000745,0.499300000000745,1
7434622,2,4,"Matching","S1","Scottish","S1_2.wav","other","other","Stranger","Stranger","other","Other","Stranger",699,0.699,1
7434622,2,5,"Nonmatching","S1","Scottish","S1_1.wav","friend","friend","Friend","Close","other","Other","Stranger",986.199999999255,0.986199999999255,1
7434622,2,6,"Nonmatching","S3","Scottish","S3_2.wav","friend","friend","Friend","Close","self","Self","Self",598.800000000745,0.598800000000745,1
7434622,2,7,"Nonmatching","S1","Scottish","S1_2.wav","friend","friend","Friend","Close","other","Other","Stranger",1225.5,1.2255,1
7434622,2,8,"Matching","S1","Scottish","S1_1.wav","other","other","Stranger","Stranger","other","Other","Stranger",1144.39999999851,1.14439999999851,1
7434622,2,9,"Matching","S1","Scottish","S1_1.wav","other","other","Stranger","Stranger","other","Other","Stranger",681,0.681,1
7434622,2,10,"Matching","S3","Scottish","S3_2.wav","self","self","Self","Self","self","Self","Self",610.599999997765,0.610599999997765,1
7434622,2,11,"Matching","S3","Scottish","S3_2.wav","self","self","Self","Self","self","Self","Self",497,0.497,1
7434622,2,12,"Nonmatching","S3","Scottish","S3_2.wav","other","other","Stranger","Stranger","self","Self","Self",620.39999999851,0.62039999999851,1
7434622,2,13,"Matching","S3","Scottish","S3_1.wav","self","self","Self","Self","self","Self","Self",671.300000000745,0.671300000000745,1
7434622,2,14,"Nonmatching","S3","Scottish","S3_1.wav","friend","friend","Friend","Close","self","Self","Self",640.900000002235,0.640900000002235,1
7434622,2,15,"Matching","S2","Scottish","S2_2.wav","friend","friend","Friend","Close","friend","Friend","Close",1304.89999999851,1.30489999999851,0
7434622,2,16,"Matching","S3","Scottish","S3_1.wav","self","self","Self","Self","self","Self","Self",492.199999999255,0.492199999999255,1
7434622,2,17,"Nonmatching","S1","Scottish","S1_1.wav","self","self","Self","Self","other","Other","Stranger",1044,1.044,1
7434622,2,18,"Nonmatching","S2","Scottish","S2_2.wav","self","self","Self","Self","friend","Friend","Close",761.699999999255,0.761699999999255,1
7434622,2,19,"Matching","S3","Scottish","S3_1.wav","self","self","Self","Self","self","Self","Self",1198.40000000224,1.19840000000224,1
7434622,2,20,"Matching","S1","Scottish","S1_2.wav","other","other","Stranger","Stranger","other","Other","Stranger",1390.70000000298,1.39070000000298,1
7434622,2,21,"Nonmatching","S3","Scottish","S3_2.wav","other","other","Stranger","Stranger","self","Self","Self",1126.89999999851,1.12689999999851,1
7434622,2,22,"Nonmatching","S2","Scottish","S2_1.wav","other","other","Stranger","Stranger","friend","Friend","Close",1073,1.073,1
7434622,2,23,"Matching","S3","Scottish","S3_1.wav","self","self","Self","Self","self","Self","Self",523.400000002235,0.523400000002235,1
7434622,2,24,"Nonmatching","S2","Scottish","S2_2.wav","self","self","Self","Self","friend","Friend","Close",891.5,0.8915,1
7434622,2,25,"Matching","S2","Scottish","S2_2.wav","friend","friend","Friend","Close","friend","Friend","Close",1036.19999999925,1.03619999999925,0
7434622,2,26,"Matching","S1","Scottish","S1_2.wav","other","other","Stranger","Stranger","other","Other","Stranger",1016.39999999851,1.01639999999851,1
7434622,2,27,"Matching","S1","Scottish","S1_1.wav","other","other","Stranger","Stranger","other","Other","Stranger",584.199999999255,0.584199999999255,1
7434622,2,28,"Nonmatching","S2","Scottish","S2_1.wav","other","other","Stranger","Stranger","friend","Friend","Close",847.699999999255,0.847699999999255,1
7434622,2,29,"Nonmatching","S1","Scottish","S1_2.wav","self","self","Self","Self","other","Other","Stranger",1049.30000000075,1.04930000000075,1
7434622,2,30,"Matching","S3","Scottish","S3_2.wav","self","self","Self","Self","self","Self","Self",637.900000002235,0.637900000002235,1
7434622,2,31,"Matching","S1","Scottish","S1_1.wav","other","other","Stranger","Stranger","other","Other","Stranger",1001.19999999925,1.00119999999925,1
7434622,2,32,"Matching","S2","Scottish","S2_1.wav","friend","friend","Friend","Close","friend","Friend","Close",894.79999999702,0.89479999999702,1
7434622,2,33,"Matching","S3","Scottish","S3_2.wav","self","self","Self","Self","self","Self","Self",673.5,0.6735,1
7434622,2,34,"Matching","S3","Scottish","S3_1.wav","self","self","Self","Self","self","Self","Self",453.39999999851,0.45339999999851,1
7434622,2,35,"Matching","S2","Scottish","S2_1.wav","friend","friend","Friend","Close","friend","Friend","Close",1512.10000000149,1.51210000000149,1
7434622,2,36,"Nonmatching","S2","Scottish","S2_1.wav","other","other","Stranger","Stranger","friend","Friend","Close",577.5,0.5775,1
7434622,2,37,"Matching","S1","Scottish","S1_2.wav","other","other","Stranger","Stranger","other","Other","Stranger",874.10000000149,0.87410000000149,1
7434622,2,38,"Matching","S2","Scottish","S2_2.wav","friend","friend","Friend","Close","friend","Friend","Close",1028.90000000224,1.02890000000224,1
7434622,2,39,"Matching","S3","Scottish","S3_1.wav","self","self","Self","Self","self","Self","Self",673.400000002235,0.673400000002235,1
7434622,2,40,"Nonmatching","S1","Scottish","S1_2.wav","self","self","Self","Self","other","Other","Stranger",658.10000000149,0.65810000000149,0
7434622,2,41,"Matching","S2","Scottish","S2_1.wav","friend","friend","Friend","Close","friend","Friend","Close",723.699999999255,0.723699999999255,1
7434622,2,42,"Nonmatching","S1","Scottish","S1_2.wav","self","self","Self","Self","other","Other","Stranger",650,0.65,0
7434622,2,43,"Matching","S1","Scottish","S1_1.wav","other","other","Stranger","Stranger","other","Other","Stranger",769.199999999255,0.769199999999255,1
7434622,2,44,"Matching","S1","Scottish","S1_1.wav","other","other","Stranger","Stranger","other","Other","Stranger",769.900000002235,0.769900000002235,1
7434622,2,45,"Nonmatching","S3","Scottish","S3_2.wav","friend","friend","Friend","Close","self","Self","Self",772.099999997765,0.772099999997765,1
7434622,2,46,"Matching","S1","Scottish","S1_2.wav","other","other","Stranger","Stranger","other","Other","Stranger",1121.10000000149,1.12110000000149,0
7434622,2,47,"Nonmatching","S1","Scottish","S1_1.wav","self","self","Self","Self","other","Other","Stranger",864.199999999255,0.864199999999255,1
7434622,2,48,"Matching","S2","Scottish","S2_2.wav","friend","friend","Friend","Close","friend","Friend","Close",576.89999999851,0.57689999999851,1
7434622,2,49,"Nonmatching","S2","Scottish","S2_2.wav","other","other","Stranger","Stranger","friend","Friend","Close",588.400000002235,0.588400000002235,1
7434622,2,50,"Matching","S2","Scottish","S2_1.wav","friend","friend","Friend","Close","friend","Friend","Close",708.300000000745,0.708300000000745,1
7434622,2,51,"Nonmatching","S1","Scottish","S1_2.wav","friend","friend","Friend","Close","other","Other","Stranger",1021.69999999925,1.02169999999925,1
7434622,2,52,"Nonmatching","S3","Scottish","S3_1.wav","other","other","Stranger","Stranger","self","Self","Self",1364.5,1.3645,1
7434622,2,53,"Matching","S1","Scottish","S1_2.wav","other","other","Stranger","Stranger","other","Other","Stranger",746.300000000745,0.746300000000745,1
7434622,2,54,"Matching","S2","Scottish","S2_2.wav","friend","friend","Friend","Close","friend","Friend","Close",664.900000002235,0.664900000002235,1
7434622,2,55,"Matching","S3","Scottish","S3_2.wav","self","self","Self","Self","self","Self","Self",676.199999999255,0.676199999999255,1
7434622,2,56,"Nonmatching","S3","Scottish","S3_1.wav","friend","friend","Friend","Close","self","Self","Self",549.800000000745,0.549800000000745,1
7434622,2,57,"Nonmatching","S2","Scottish","S2_1.wav","self","self","Self","Self","friend","Friend","Close",810.699999999255,0.810699999999255,1
7434622,2,58,"Nonmatching","S1","Scottish","S1_1.wav","friend","friend","Friend","Close","other","Other","Stranger",904.599999997765,0.904599999997765,1
7434622,2,59,"Matching","S2","Scottish","S2_1.wav","friend","friend","Friend","Close","friend","Friend","Close",964.199999999255,0.964199999999255,1
7434622,2,60,"Nonmatching","S3","Scottish","S3_1.wav","friend","friend","Friend","Close","self","Self","Self",834.39999999851,0.83439999999851,1
7434622,2,61,"Nonmatching","S3","Scottish","S3_1.wav","other","other","Stranger","Stranger","self","Self","Self",761.10000000149,0.76110000000149,1
7434622,2,62,"Nonmatching","S1","Scottish","S1_2.wav","friend","friend","Friend","Close","other","Other","Stranger",856.800000000745,0.856800000000745,1
7434622,2,63,"Nonmatching","S1","Scottish","S1_1.wav","self","self","Self","Self","other","Other","Stranger",1076.69999999925,1.07669999999925,1
7434622,2,64,"Nonmatching","S3","Scottish","S3_2.wav","friend","friend","Friend","Close","self","Self","Self",797,0.797,1
7434622,2,65,"Nonmatching","S2","Scottish","S2_2.wav","other","other","Stranger","Stranger","friend","Friend","Close",736.300000000745,0.736300000000745,1
7434622,2,66,"Matching","S2","Scottish","S2_2.wav","friend","friend","Friend","Close","friend","Friend","Close",791.70000000298,0.79170000000298,1
7434622,2,67,"Nonmatching","S3","Scottish","S3_2.wav","other","other","Stranger","Stranger","self","Self","Self",1018.30000000075,1.01830000000075,1
7434622,2,68,"Nonmatching","S2","Scottish","S2_2.wav","self","self","Self","Self","friend","Friend","Close",1031.69999999925,1.03169999999925,1
7434622,2,69,"Nonmatching","S2","Scottish","S2_1.wav","self","self","Self","Self","friend","Friend","Close",671.699999999255,0.671699999999255,1
7434622,2,70,"Nonmatching","S1","Scottish","S1_1.wav","friend","friend","Friend","Close","other","Other","Stranger",924.099999997765,0.924099999997765,1
7434622,2,71,"Matching","S2","Scottish","S2_1.wav","friend","friend","Friend","Close","friend","Friend","Close",896.300000000745,0.896300000000745,0
7434622,2,72,"Nonmatching","S2","Scottish","S2_1.wav","self","self","Self","Self","friend","Friend","Close",592.70000000298,0.59270000000298,1
7434622,3,1,"Matching","S3","Scottish","S3_1.wav","self","self","Self","Self","self","Self","Self",515.599999997765,0.515599999997765,1
7434622,3,2,"Nonmatching","S1","Scottish","S1_2.wav","self","self","Self","Self","other","Other","Stranger",697.10000000149,0.69710000000149,1
7434622,3,3,"Matching","S3","Scottish","S3_2.wav","self","self","Self","Self","self","Self","Self",460.5,0.4605,1
7434622,3,4,"Nonmatching","S1","Scottish","S1_2.wav","friend","friend","Friend","Close","other","Other","Stranger",744.699999999255,0.744699999999255,1
7434622,3,5,"Nonmatching","S1","Scottish","S1_2.wav","friend","friend","Friend","Close","other","Other","Stranger",666.39999999851,0.66639999999851,1
7434622,3,6,"Matching","S1","Scottish","S1_2.wav","other","other","Stranger","Stranger","other","Other","Stranger",687.900000002235,0.687900000002235,1
7434622,3,7,"Nonmatching","S3","Scottish","S3_1.wav","other","other","Stranger","Stranger","self","Self","Self",534.79999999702,0.53479999999702,1
7434622,3,8,"Matching","S2","Scottish","S2_2.wav","friend","friend","Friend","Close","friend","Friend","Close",664.400000002235,0.664400000002235,1
7434622,3,9,"Matching","S2","Scottish","S2_2.wav","friend","friend","Friend","Close","friend","Friend","Close",640.70000000298,0.64070000000298,1
7434622,3,10,"Matching","S2","Scottish","S2_2.wav","friend","friend","Friend","Close","friend","Friend","Close",548.400000002235,0.548400000002235,1
7434622,3,11,"Nonmatching","S1","Scottish","S1_1.wav","friend","friend","Friend","Close","other","Other","Stranger",756.400000002235,0.756400000002235,1
7434622,3,12,"Nonmatching","S3","Scottish","S3_2.wav","other","other","Stranger","Stranger","self","Self","Self",934.60000000149,0.93460000000149,0
7434622,3,13,"Nonmatching","S1","Scottish","S1_1.wav","self","self","Self","Self","other","Other","Stranger",857.199999999255,0.857199999999255,1
7434622,3,14,"Matching","S2","Scottish","S2_1.wav","friend","friend","Friend","Close","friend","Friend","Close",872.39999999851,0.87239999999851,1
7434622,3,15,"Nonmatching","S1","Scottish","S1_1.wav","friend","friend","Friend","Close","other","Other","Stranger",871,0.871,1
7434622,3,16,"Nonmatching","S2","Scottish","S2_2.wav","other","other","Stranger","Stranger","friend","Friend","Close",1264.5,1.2645,1
7434622,3,17,"Nonmatching","S2","Scottish","S2_1.wav","self","self","Self","Self","friend","Friend","Close",785.5,0.7855,1
7434622,3,18,"Nonmatching","S3","Scottish","S3_1.wav","other","other","Stranger","Stranger","self","Self","Self",944.699999999255,0.944699999999255,1
7434622,3,19,"Matching","S1","Scottish","S1_2.wav","other","other","Stranger","Stranger","other","Other","Stranger",760.79999999702,0.76079999999702,1
7434622,3,20,"Matching","S1","Scottish","S1_1.wav","other","other","Stranger","Stranger","other","Other","Stranger",1162.60000000149,1.16260000000149,1
7434622,3,21,"Nonmatching","S2","Scottish","S2_2.wav","self","self","Self","Self","friend","Friend","Close",1081.10000000149,1.08110000000149,1
7434622,3,22,"Matching","S3","Scottish","S3_1.wav","self","self","Self","Self","self","Self","Self",738.89999999851,0.73889999999851,1
7434622,3,23,"Nonmatching","S2","Scottish","S2_2.wav","other","other","Stranger","Stranger","friend","Friend","Close",608.5,0.6085,1
7434622,3,24,"Matching","S1","Scottish","S1_1.wav","other","other","Stranger","Stranger","other","Other","Stranger",956.5,0.9565,1
7434622,3,25,"Matching","S3","Scottish","S3_1.wav","self","self","Self","Self","self","Self","Self",964.89999999851,0.96489999999851,1
7434622,3,26,"Matching","S1","Scottish","S1_1.wav","other","other","Stranger","Stranger","other","Other","Stranger",761.199999999255,0.761199999999255,1
7434622,3,27,"Matching","S1","Scottish","S1_1.wav","other","other","Stranger","Stranger","other","Other","Stranger",730.800000000745,0.730800000000745,1
7434622,3,28,"Matching","S2","Scottish","S2_1.wav","friend","friend","Friend","Close","friend","Friend","Close",553,0.553,1
7434622,3,29,"Matching","S3","Scottish","S3_2.wav","self","self","Self","Self","self","Self","Self",570.89999999851,0.57089999999851,1
7434622,3,30,"Nonmatching","S2","Scottish","S2_2.wav","other","other","Stranger","Stranger","friend","Friend","Close",667,0.667,1
7434622,3,31,"Matching","S2","Scottish","S2_1.wav","friend","friend","Friend","Close","friend","Friend","Close",1154.30000000075,1.15430000000075,1
7434622,3,32,"Matching","S3","Scottish","S3_2.wav","self","self","Self","Self","self","Self","Self",695.39999999851,0.69539999999851,1
7434622,3,33,"Matching","S3","Scottish","S3_2.wav","self","self","Self","Self","self","Self","Self",739.300000000745,0.739300000000745,1
7434622,3,34,"Nonmatching","S3","Scottish","S3_2.wav","friend","friend","Friend","Close","self","Self","Self",722.89999999851,0.72289999999851,1
7434622,3,35,"Matching","S3","Scottish","S3_1.wav","self","self","Self","Self","self","Self","Self",643.099999997765,0.643099999997765,1
7434622,3,36,"Nonmatching","S1","Scottish","S1_1.wav","self","self","Self","Self","other","Other","Stranger",833,0.833,1
7434622,3,37,"Matching","S3","Scottish","S3_2.wav","self","self","Self","Self","self","Self","Self",707.60000000149,0.70760000000149,1
7434622,3,38,"Nonmatching","S2","Scottish","S2_2.wav","self","self","Self","Self","friend","Friend","Close",881,0.881,1
7434622,3,39,"Matching","S3","Scottish","S3_1.wav","self","self","Self","Self","self","Self","Self",720.400000002235,0.720400000002235,0
7434622,3,40,"Matching","S1","Scottish","S1_1.wav","other","other","Stranger","Stranger","other","Other","Stranger",665.599999997765,0.665599999997765,1
7434622,3,41,"Matching","S1","Scottish","S1_2.wav","other","other","Stranger","Stranger","other","Other","Stranger",1232.59999999776,1.23259999999776,1
7434622,3,42,"Nonmatching","S2","Scottish","S2_2.wav","self","self","Self","Self","friend","Friend","Close",754.5,0.7545,1
7434622,3,43,"Nonmatching","S1","Scottish","S1_1.wav","friend","friend","Friend","Close","other","Other","Stranger",999.199999999255,0.999199999999255,1
7434622,3,44,"Nonmatching","S3","Scottish","S3_2.wav","other","other","Stranger","Stranger","self","Self","Self",608.599999997765,0.608599999997765,1
7434622,3,45,"Matching","S1","Scottish","S1_2.wav","other","other","Stranger","Stranger","other","Other","Stranger",1105.59999999776,1.10559999999776,1
7434622,3,46,"Nonmatching","S3","Scottish","S3_1.wav","friend","friend","Friend","Close","self","Self","Self",721.900000002235,0.721900000002235,1
7434622,3,47,"Matching","S2","Scottish","S2_1.wav","friend","friend","Friend","Close","friend","Friend","Close",705.39999999851,0.70539999999851,1
7434622,3,48,"Matching","S3","Scottish","S3_2.wav","self","self","Self","Self","self","Self","Self",763,0.763,1
7434622,3,49,"Nonmatching","S3","Scottish","S3_2.wav","friend","friend","Friend","Close","self","Self","Self",566.800000000745,0.566800000000745,1
7434622,3,50,"Nonmatching","S2","Scottish","S2_1.wav","other","other","Stranger","Stranger","friend","Friend","Close",537.900000002235,0.537900000002235,1
7434622,3,51,"Nonmatching","S2","Scottish","S2_1.wav","other","other","Stranger","Stranger","friend","Friend","Close",852.699999999255,0.852699999999255,1
7434622,3,52,"Matching","S2","Scottish","S2_2.wav","friend","friend","Friend","Close","friend","Friend","Close",783.900000002235,0.783900000002235,1
7434622,3,53,"Nonmatching","S1","Scottish","S1_2.wav","friend","friend","Friend","Close","other","Other","Stranger",792.39999999851,0.79239999999851,1
7434622,3,54,"Nonmatching","S1","Scottish","S1_2.wav","self","self","Self","Self","other","Other","Stranger",952.5,0.9525,1
7434622,3,55,"Nonmatching","S3","Scottish","S3_2.wav","other","other","Stranger","Stranger","self","Self","Self",1018.5,1.0185,1
7434622,3,56,"Matching","S2","Scottish","S2_2.wav","friend","friend","Friend","Close","friend","Friend","Close",899.300000000745,0.899300000000745,1
7434622,3,57,"Nonmatching","S3","Scottish","S3_1.wav","friend","friend","Friend","Close","self","Self","Self",961,0.961,1
7434622,3,58,"Nonmatching","S1","Scottish","S1_2.wav","self","self","Self","Self","other","Other","Stranger",1033.39999999851,1.03339999999851,1
7434622,3,59,"Nonmatching","S3","Scottish","S3_1.wav","other","other","Stranger","Stranger","self","Self","Self",632.89999999851,0.63289999999851,1
7434622,3,60,"Matching","S1","Scottish","S1_2.wav","other","other","Stranger","Stranger","other","Other","Stranger",1042.40000000224,1.04240000000224,1
7434622,3,61,"Nonmatching","S3","Scottish","S3_1.wav","friend","friend","Friend","Close","self","Self","Self",832.5,0.8325,1
7434622,3,62,"Matching","S2","Scottish","S2_1.wav","friend","friend","Friend","Close","friend","Friend","Close",770.300000000745,0.770300000000745,1
7434622,3,63,"Matching","S1","Scottish","S1_2.wav","other","other","Stranger","Stranger","other","Other","Stranger",616.199999999255,0.616199999999255,1
7434622,3,64,"Matching","S2","Scottish","S2_1.wav","friend","friend","Friend","Close","friend","Friend","Close",650.60000000149,0.65060000000149,1
7434622,3,65,"Nonmatching","S2","Scottish","S2_1.wav","other","other","Stranger","Stranger","friend","Friend","Close",689.900000002235,0.689900000002235,1
7434622,3,66,"Nonmatching","S2","Scottish","S2_1.wav","self","self","Self","Self","friend","Friend","Close",660.199999999255,0.660199999999255,1
7434622,3,67,"Matching","S3","Scottish","S3_1.wav","self","self","Self","Self","self","Self","Self",624.5,0.6245,0
7434622,3,68,"Nonmatching","S1","Scottish","S1_1.wav","self","self","Self","Self","other","Other","Stranger",785.900000002235,0.785900000002235,1
7434622,3,69,"Nonmatching","S2","Scottish","S2_1.wav","self","self","Self","Self","friend","Friend","Close",833.300000000745,0.833300000000745,1
7434622,3,70,"Nonmatching","S3","Scottish","S3_2.wav","friend","friend","Friend","Close","self","Self","Self",626.10000000149,0.62610000000149,1
7434622,3,71,"Matching","S1","Scottish","S1_1.wav","other","other","Stranger","Stranger","other","Other","Stranger",976.800000000745,0.976800000000745,1
7434622,3,72,"Matching","S2","Scottish","S2_2.wav","friend","friend","Friend","Close","friend","Friend","Close",793.099999997765,0.793099999997765,1
7434626,1,1,"Nonmatching","S1","Scottish","S1_2.wav","self","self","Self","Self","friend","Friend","Close",1775.59999999963,1.77559999999963,1
7434626,1,2,"Nonmatching","S2","Scottish","S2_1.wav","self","self","Self","Self","other","Other","Stranger",1110.69999999925,1.11069999999925,0
7434626,1,3,"Matching","S1","Scottish","S1_1.wav","friend","friend","Friend","Close","friend","Friend","Close",949.800000000745,0.949800000000745,1
7434626,1,4,"Nonmatching","S3","Scottish","S3_1.wav","friend","friend","Friend","Close","self","Self","Self",775.900000000373,0.775900000000373,1
7434626,1,5,"Matching","S3","Scottish","S3_2.wav","self","self","Self","Self","self","Self","Self",857.099999999627,0.857099999999627,1
7434626,1,6,"Nonmatching","S2","Scottish","S2_1.wav","self","self","Self","Self","other","Other","Stranger",760.599999999627,0.760599999999627,1
7434626,1,7,"Matching","S3","Scottish","S3_1.wav","self","self","Self","Self","self","Self","Self",828.800000000745,0.828800000000745,1
7434626,1,8,"Nonmatching","S1","Scottish","S1_1.wav","self","self","Self","Self","friend","Friend","Close",761.400000000373,0.761400000000373,1
7434626,1,9,"Matching","S2","Scottish","S2_1.wav","other","other","Stranger","Stranger","other","Other","Stranger",761.400000000373,0.761400000000373,1
7434626,1,10,"Matching","S2","Scottish","S2_1.wav","other","other","Stranger","Stranger","other","Other","Stranger",519.699999999255,0.519699999999255,1
7434626,1,11,"Matching","S3","Scottish","S3_2.wav","self","self","Self","Self","self","Self","Self",1005.20000000112,1.00520000000112,1
7434626,1,12,"Matching","S1","Scottish","S1_1.wav","friend","friend","Friend","Close","friend","Friend","Close",896.900000000373,0.896900000000373,1
7434626,1,13,"Matching","S3","Scottish","S3_1.wav","self","self","Self","Self","self","Self","Self",1125.29999999888,1.12529999999888,1
7434626,1,14,"Nonmatching","S3","Scottish","S3_1.wav","other","other","Stranger","Stranger","self","Self","Self",579.800000000745,0.579800000000745,1
7434626,1,15,"Nonmatching","S1","Scottish","S1_2.wav","self","self","Self","Self","friend","Friend","Close",1139.5,1.1395,0
7434626,1,16,"Nonmatching","S1","Scottish","S1_1.wav","other","other","Stranger","Stranger","friend","Friend","Close",748.299999998882,0.748299999998882,1
7434626,1,17,"Matching","S3","Scottish","S3_2.wav","self","self","Self","Self","self","Self","Self",787.900000000373,0.787900000000373,1
7434626,1,18,"Matching","S1","Scottish","S1_2.wav","friend","friend","Friend","Close","friend","Friend","Close",884.89999999851,0.88489999999851,1
7434626,1,19,"Nonmatching","S3","Scottish","S3_2.wav","friend","friend","Friend","Close","self","Self","Self",956.099999999628,0.956099999999628,1
7434626,1,20,"Nonmatching","S2","Scottish","S2_1.wav","friend","friend","Friend","Close","other","Other","Stranger",973.900000000372,0.973900000000372,1
7434626,1,21,"Matching","S2","Scottish","S2_2.wav","other","other","Stranger","Stranger","other","Other","Stranger",735.5,0.7355,1
7434626,1,22,"Nonmatching","S2","Scottish","S2_1.wav","self","self","Self","Self","other","Other","Stranger",582.5,0.5825,1
7434626,1,23,"Nonmatching","S3","Scottish","S3_2.wav","friend","friend","Friend","Close","self","Self","Self",927,0.927,0
7434626,1,24,"Nonmatching","S3","Scottish","S3_1.wav","friend","friend","Friend","Close","self","Self","Self",1013.5,1.0135,0
7434626,1,25,"Nonmatching","S2","Scottish","S2_2.wav","friend","friend","Friend","Close","other","Other","Stranger",983.900000000372,0.983900000000372,1
7434626,1,26,"Nonmatching","S2","Scottish","S2_2.wav","self","self","Self","Self","other","Other","Stranger",744.5,0.7445,1
7434626,1,27,"Matching","S1","Scottish","S1_1.wav","friend","friend","Friend","Close","friend","Friend","Close",927.89999999851,0.92789999999851,1
7434626,1,28,"Matching","S1","Scottish","S1_2.wav","friend","friend","Friend","Close","friend","Friend","Close",921.400000000372,0.921400000000372,1
7434626,1,29,"Matching","S1","Scottish","S1_2.wav","friend","friend","Friend","Close","friend","Friend","Close",737.300000000745,0.737300000000745,1
7434626,1,30,"Matching","S2","Scottish","S2_2.wav","other","other","Stranger","Stranger","other","Other","Stranger",785.5,0.7855,1
7434626,1,31,"Matching","S3","Scottish","S3_2.wav","self","self","Self","Self","self","Self","Self",725.5,0.7255,1
7434626,1,32,"Nonmatching","S2","Scottish","S2_1.wav","friend","friend","Friend","Close","other","Other","Stranger",674.599999999627,0.674599999999627,1
7434626,1,33,"Nonmatching","S2","Scottish","S2_2.wav","self","self","Self","Self","other","Other","Stranger",771,0.771,1
7434626,1,34,"Matching","S1","Scottish","S1_1.wav","friend","friend","Friend","Close","friend","Friend","Close",842.5,0.8425,1
7434626,1,35,"Nonmatching","S2","Scottish","S2_1.wav","friend","friend","Friend","Close","other","Other","Stranger",579.60000000149,0.57960000000149,1
7434626,1,36,"Matching","S3","Scottish","S3_1.wav","self","self","Self","Self","self","Self","Self",745.300000000745,0.745300000000745,1
7434626,1,37,"Nonmatching","S3","Scottish","S3_2.wav","friend","friend","Friend","Close","self","Self","Self",566.699999999255,0.566699999999255,1
7434626,1,38,"Nonmatching","S2","Scottish","S2_2.wav","friend","friend","Friend","Close","other","Other","Stranger",606.5,0.6065,1
7434626,1,39,"Matching","S3","Scottish","S3_2.wav","self","self","Self","Self","self","Self","Self",866.700000001118,0.866700000001118,1
7434626,1,40,"Nonmatching","S3","Scottish","S3_2.wav","other","other","Stranger","Stranger","self","Self","Self",546.5,0.5465,1
7434626,1,41,"Nonmatching","S1","Scottish","S1_1.wav","self","self","Self","Self","friend","Friend","Close",821.800000000745,0.821800000000745,0
7434626,1,42,"Nonmatching","S1","Scottish","S1_2.wav","self","self","Self","Self","friend","Friend","Close",774.300000000745,0.774300000000745,1
7434626,1,43,"Nonmatching","S1","Scottish","S1_1.wav","other","other","Stranger","Stranger","friend","Friend","Close",710.700000001118,0.710700000001118,1
7434626,1,44,"Nonmatching","S1","Scottish","S1_2.wav","other","other","Stranger","Stranger","friend","Friend","Close",645.099999999627,0.645099999999627,1
7434626,1,45,"Matching","S1","Scottish","S1_2.wav","friend","friend","Friend","Close","friend","Friend","Close",899.199999999255,0.899199999999255,0
7434626,1,46,"Nonmatching","S3","Scottish","S3_2.wav","other","other","Stranger","Stranger","self","Self","Self",884.700000001118,0.884700000001118,1
7434626,1,47,"Matching","S2","Scottish","S2_2.wav","other","other","Stranger","Stranger","other","Other","Stranger",816.099999999627,0.816099999999627,1
7434626,1,48,"Nonmatching","S1","Scottish","S1_1.wav","other","other","Stranger","Stranger","friend","Friend","Close",606,0.606,1
7434626,1,49,"Nonmatching","S3","Scottish","S3_1.wav","other","other","Stranger","Stranger","self","Self","Self",1008.29999999888,1.00829999999888,1
7434626,1,50,"Matching","S2","Scottish","S2_1.wav","other","other","Stranger","Stranger","other","Other","Stranger",835.400000000373,0.835400000000373,1
7434626,1,51,"Matching","S3","Scottish","S3_1.wav","self","self","Self","Self","self","Self","Self",991.199999999255,0.991199999999255,1
7434626,1,52,"Matching","S2","Scottish","S2_2.wav","other","other","Stranger","Stranger","other","Other","Stranger",819.799999998882,0.819799999998882,1
7434626,1,53,"Matching","S1","Scottish","S1_2.wav","friend","friend","Friend","Close","friend","Friend","Close",867,0.867,1
7434626,1,54,"Matching","S1","Scottish","S1_1.wav","friend","friend","Friend","Close","friend","Friend","Close",574.900000000373,0.574900000000373,1
7434626,1,55,"Nonmatching","S1","Scottish","S1_1.wav","self","self","Self","Self","friend","Friend","Close",687.300000000745,0.687300000000745,1
7434626,1,56,"Matching","S2","Scottish","S2_1.wav","other","other","Stranger","Stranger","other","Other","Stranger",763.400000000373,0.763400000000373,1
7434626,1,57,"Matching","S1","Scottish","S1_2.wav","friend","friend","Friend","Close","friend","Friend","Close",733.5,0.7335,0
