"Subject","Block","Trial","Label","Matching","Label_Origin_Identity","Label_English_Identity","Label_Standardized_Identity","Shape_Origin_Identity","Shape_English_Identity","Shape_Standardized_Identity","Response","RT_ms","RT_sec","ACC"
"P24",1,1,"Stranger","Nonmatching","Stranger","Stranger","Stranger","Friend","Friend","Close","m",993.556099943817,0.993556099943817,1
"P24",1,2,"Friend","Matching","Friend","Friend","Close","Friend","Friend","Close","c",757.984899915755,0.757984899915755,1
"P24",1,3,"Friend","Matching","Friend","Friend","Close","Friend","Friend","Close","c",899.89549992606,0.89989549992606,1
"P24",1,4,"Friend","Nonmatching","Friend","Friend","Close","Self","Self","Self","c",683.3641002886,0.6833641002886,0
"P24",1,5,"You","Matching",NA,NA,NA,"Self","Self","Self","c",924.817000050098,0.924817000050098,1
"P24",1,6,"You","Nonmatching",NA,NA,NA,"Friend","Friend","Close","m",803.866799920797,0.803866799920797,1
"P24",1,7,"Stranger","Matching","Stranger","Stranger","Stranger","Stranger","Stranger","Stranger","m",1168.08079974726,1.16808079974726,0
"P24",1,8,"Friend","Nonmatching","Friend","Friend","Close","Stranger","Stranger","Stranger","None",NA,NA,0
"P24",1,9,"Stranger","Matching","Stranger","Stranger","Stranger","Stranger","Stranger","Stranger","None",NA,NA,0
"P24",1,10,"You","Nonmatching",NA,NA,NA,"Stranger","Stranger","Stranger","m",1247.95370036736,1.24795370036736,1
"P24",1,11,"Stranger","Nonmatching","Stranger","Stranger","Stranger","Self","Self","Self","m",1290.24749994278,1.29024749994278,1
"P24",1,12,"You","Matching",NA,NA,NA,"Self","Self","Self","c",994.310100097209,0.994310100097209,1
"P24",1,13,"Stranger","Nonmatching","Stranger","Stranger","Stranger","Self","Self","Self","m",774.861500132829,0.774861500132829,1
"P24",1,14,"Stranger","Matching","Stranger","Stranger","Stranger","Stranger","Stranger","Stranger","c",1123.68809990585,1.12368809990585,1
"P24",1,15,"Friend","Nonmatching","Friend","Friend","Close","Stranger","Stranger","Stranger","m",770.110399927944,0.770110399927944,1
"P24",1,16,"Stranger","Nonmatching","Stranger","Stranger","Stranger","Friend","Friend","Close","m",1295.50580028445,1.29550580028445,1
"P24",1,17,"Stranger","Matching","Stranger","Stranger","Stranger","Stranger","Stranger","Stranger","c",951.615200378001,0.951615200378001,1
"P24",1,18,"You","Matching",NA,NA,NA,"Self","Self","Self","c",814.054199960083,0.814054199960083,1
"P24",1,19,"Friend","Matching","Friend","Friend","Close","Friend","Friend","Close","c",809.94029995054,0.80994029995054,1
"P24",1,20,"You","Nonmatching",NA,NA,NA,"Stranger","Stranger","Stranger","m",933.409200049937,0.933409200049937,1
"P24",1,21,"You","Matching",NA,NA,NA,"Self","Self","Self","c",716.660699807107,0.716660699807107,1
"P24",1,22,"Friend","Nonmatching","Friend","Friend","Close","Self","Self","Self","m",1132.75919994339,1.13275919994339,1
"P24",1,23,"Friend","Matching","Friend","Friend","Close","Friend","Friend","Close","c",987.567799631506,0.987567799631506,1
"P24",1,24,"You","Nonmatching",NA,NA,NA,"Friend","Friend","Close","m",944.023900199682,0.944023900199682,1
"P24",1,25,"You","Matching",NA,NA,NA,"Self","Self","Self","c",742.3692997545,0.7423692997545,1
"P24",1,26,"You","Nonmatching",NA,NA,NA,"Friend","Friend","Close","m",901.086200028658,0.901086200028658,1
"P24",1,27,"Friend","Nonmatching","Friend","Friend","Close","Stranger","Stranger","Stranger","m",844.660799950361,0.844660799950361,1
"P24",1,28,"Stranger","Nonmatching","Stranger","Stranger","Stranger","Friend","Friend","Close","m",951.355199795216,0.951355199795216,1
"P24",1,29,"Stranger","Matching","Stranger","Stranger","Stranger","Stranger","Stranger","Stranger","c",1085.51329979673,1.08551329979673,1
"P24",1,30,"You","Nonmatching",NA,NA,NA,"Stranger","Stranger","Stranger","m",734.523000195622,0.734523000195622,1
"P24",1,31,"Friend","Matching","Friend","Friend","Close","Friend","Friend","Close","c",638.023299630731,0.638023299630731,1
"P24",1,32,"Friend","Matching","Friend","Friend","Close","Friend","Friend","Close","c",976.371599826962,0.976371599826962,1
"P24",1,33,"Stranger","Matching","Stranger","Stranger","Stranger","Stranger","Stranger","Stranger","c",1077.46589975432,1.07746589975432,1
"P24",1,34,"Stranger","Nonmatching","Stranger","Stranger","Stranger","Self","Self","Self","m",822.606099769473,0.822606099769473,1
"P24",1,35,"Friend","Nonmatching","Friend","Friend","Close","Self","Self","Self","m",849.686999805272,0.849686999805272,1
"P24",1,36,"You","Matching",NA,NA,NA,"Self","Self","Self","c",859.275399707258,0.859275399707258,1
"P24",1,37,"You","Matching",NA,NA,NA,"Self","Self","Self","c",933.151400182396,0.933151400182396,1
"P24",1,38,"Friend","Nonmatching","Friend","Friend","Close","Stranger","Stranger","Stranger","m",956.384600140154,0.956384600140154,1
"P24",1,39,"Friend","Matching","Friend","Friend","Close","Friend","Friend","Close","c",785.852200351655,0.785852200351655,1
"P24",1,40,"Stranger","Matching","Stranger","Stranger","Stranger","Stranger","Stranger","Stranger","m",734.083299990743,0.734083299990743,0
"P24",1,41,"Stranger","Nonmatching","Stranger","Stranger","Stranger","Friend","Friend","Close","m",940.706299617887,0.940706299617887,1
"P24",1,42,"You","Nonmatching",NA,NA,NA,"Friend","Friend","Close","c",1682.74120008573,1.68274120008573,0
"P24",1,43,"You","Nonmatching",NA,NA,NA,"Stranger","Stranger","Stranger","m",859.337199945003,0.859337199945003,1
"P24",1,44,"You","Matching",NA,NA,NA,"Self","Self","Self","c",773.130899760872,0.773130899760872,1
"P24",1,45,"Stranger","Nonmatching","Stranger","Stranger","Stranger","Self","Self","Self","None",NA,NA,0
"P24",1,46,"Stranger","Matching","Stranger","Stranger","Stranger","Stranger","Stranger","Stranger","c",1342.279500328,1.342279500328,1
"P24",1,47,"Friend","Nonmatching","Friend","Friend","Close","Self","Self","Self","m",868.341899942607,0.868341899942607,1
"P24",1,48,"Friend","Matching","Friend","Friend","Close","Friend","Friend","Close","c",686.223199591041,0.686223199591041,1
"P24",1,49,"Stranger","Matching","Stranger","Stranger","Stranger","Stranger","Stranger","Stranger","c",1054.76269964129,1.05476269964129,1
"P24",1,50,"You","Matching",NA,NA,NA,"Self","Self","Self","c",592.269899789244,0.592269899789244,1
"P24",1,51,"You","Nonmatching",NA,NA,NA,"Stranger","Stranger","Stranger","m",677.253299858421,0.677253299858421,1
"P24",1,52,"Stranger","Matching","Stranger","Stranger","Stranger","Stranger","Stranger","Stranger","None",NA,NA,0
"P24",1,53,"Friend","Nonmatching","Friend","Friend","Close","Stranger","Stranger","Stranger","m",756.357000209391,0.756357000209391,1
"P24",1,54,"You","Nonmatching",NA,NA,NA,"Friend","Friend","Close","m",978.121399879456,0.978121399879456,1
"P24",1,55,"You","Matching",NA,NA,NA,"Self","Self","Self","c",583.452899940312,0.583452899940312,1
"P24",1,56,"Friend","Nonmatching","Friend","Friend","Close","Self","Self","Self","m",891.809700056911,0.891809700056911,1
"P24",1,57,"Friend","Matching","Friend","Friend","Close","Friend","Friend","Close","c",788.537399843335,0.788537399843335,1
"P24",1,58,"Stranger","Nonmatching","Stranger","Stranger","Stranger","Friend","Friend","Close","m",880.824299994856,0.880824299994856,1
"P24",1,59,"Stranger","Nonmatching","Stranger","Stranger","Stranger","Self","Self","Self","m",729.955699760467,0.729955699760467,1
"P24",1,60,"Friend","Matching","Friend","Friend","Close","Friend","Friend","Close","c",745.241200085729,0.745241200085729,1
"P24",1,61,"Friend","Nonmatching","Friend","Friend","Close","Stranger","Stranger","Stranger","m",870.961599983275,0.870961599983275,1
"P24",1,62,"Friend","Matching","Friend","Friend","Close","Friend","Friend","Close","c",624.244299717247,0.624244299717247,1
"P24",1,63,"You","Matching",NA,NA,NA,"Self","Self","Self","c",643.524599727243,0.643524599727243,1
"P24",1,64,"You","Nonmatching",NA,NA,NA,"Friend","Friend","Close","m",838.097999803722,0.838097999803722,1
"P24",1,65,"Stranger","Matching","Stranger","Stranger","Stranger","Stranger","Stranger","Stranger","m",672.890800051391,0.672890800051391,0
"P24",1,66,"You","Matching",NA,NA,NA,"Self","Self","Self","c",881.657799705863,0.881657799705863,1
"P24",1,67,"You","Nonmatching",NA,NA,NA,"Stranger","Stranger","Stranger","m",778.96870020777,0.77896870020777,1
"P24",1,68,"Stranger","Nonmatching","Stranger","Stranger","Stranger","Friend","Friend","Close","m",728.22630032897,0.72822630032897,1
"P24",1,69,"Friend","Nonmatching","Friend","Friend","Close","Self","Self","Self","m",1079.30180011317,1.07930180011317,1
"P24",1,70,"Stranger","Nonmatching","Stranger","Stranger","Stranger","Self","Self","Self","m",792.431900277734,0.792431900277734,1
"P24",1,71,"Friend","Matching","Friend","Friend","Close","Friend","Friend","Close","c",900.908499956131,0.900908499956131,1
"P24",1,72,"Stranger","Matching","Stranger","Stranger","Stranger","Stranger","Stranger","Stranger","c",780.650600325316,0.780650600325316,1
"P24",1,73,"Friend","Nonmatching","Friend","Friend","Close","Self","Self","Self","m",1241.77840026096,1.24177840026096,1
"P24",1,74,"You","Matching",NA,NA,NA,"Self","Self","Self","c",724.003499839455,0.724003499839455,1
"P24",1,75,"Friend","Nonmatching","Friend","Friend","Close","Stranger","Stranger","Stranger","m",1315.13840006664,1.31513840006664,1
"P24",1,76,"Stranger","Matching","Stranger","Stranger","Stranger","Stranger","Stranger","Stranger","c",746.00419960916,0.74600419960916,1
"P24",1,77,"Friend","Matching","Friend","Friend","Close","Friend","Friend","Close","c",695.953200105578,0.695953200105578,1
"P24",1,78,"You","Nonmatching",NA,NA,NA,"Stranger","Stranger","Stranger","m",743.767799809575,0.743767799809575,1
"P24",1,79,"Friend","Matching","Friend","Friend","Close","Friend","Friend","Close","c",662.382100243121,0.662382100243121,1
"P24",1,80,"You","Matching",NA,NA,NA,"Self","Self","Self","c",1272.41340000182,1.27241340000182,1
"P24",1,81,"Stranger","Matching","Stranger","Stranger","Stranger","Stranger","Stranger","Stranger","c",784.443799871951,0.784443799871951,1
"P24",1,82,"You","Nonmatching",NA,NA,NA,"Friend","Friend","Close","m",765.417799819261,0.765417799819261,1
"P24",1,83,"Stranger","Nonmatching","Stranger","Stranger","Stranger","Friend","Friend","Close","None",NA,NA,0
"P24",1,84,"Stranger","Nonmatching","Stranger","Stranger","Stranger","Self","Self","Self","None",NA,NA,0
"P24",1,85,"You","Matching",NA,NA,NA,"Self","Self","Self","c",687.907599844038,0.687907599844038,1
"P24",1,86,"Friend","Nonmatching","Friend","Friend","Close","Self","Self","Self","m",1248.55190003291,1.24855190003291,1
"P24",1,87,"You","Nonmatching",NA,NA,NA,"Stranger","Stranger","Stranger","m",778.733300045133,0.778733300045133,1
"P24",1,88,"Stranger","Nonmatching","Stranger","Stranger","Stranger","Self","Self","Self","m",856.044999789447,0.856044999789447,1
"P24",1,89,"Stranger","Matching","Stranger","Stranger","Stranger","Stranger","Stranger","Stranger","c",753.75819997862,0.75375819997862,1
"P24",1,90,"Friend","Matching","Friend","Friend","Close","Friend","Friend","Close","c",591.312299948186,0.591312299948186,1
"P24",1,91,"Stranger","Nonmatching","Stranger","Stranger","Stranger","Friend","Friend","Close","m",1026.78950037807,1.02678950037807,1
"P24",1,92,"Friend","Nonmatching","Friend","Friend","Close","Stranger","Stranger","Stranger","None",NA,NA,0
"P24",1,93,"Stranger","Matching","Stranger","Stranger","Stranger","Stranger","Stranger","Stranger","c",742.663300130516,0.742663300130516,1
"P24",1,94,"You","Nonmatching",NA,NA,NA,"Friend","Friend","Close","m",1397.12410001084,1.39712410001084,1
"P24",1,95,"Friend","Matching","Friend","Friend","Close","Friend","Friend","Close","c",1576.62960002199,1.57662960002199,1
"P24",1,96,"You","Matching",NA,NA,NA,"Self","Self","Self","c",613.162599969655,0.613162599969655,1
"P24",1,97,"Stranger","Nonmatching","Stranger","Stranger","Stranger","Self","Self","Self","m",777.179399970919,0.777179399970919,1
"P24",1,98,"Friend","Nonmatching","Friend","Friend","Close","Self","Self","Self","m",1270.73470037431,1.27073470037431,1
"P24",1,99,"You","Nonmatching",NA,NA,NA,"Friend","Friend","Close","m",703.152700327337,0.703152700327337,1
"P24",1,100,"You","Matching",NA,NA,NA,"Self","Self","Self","c",686.961800325662,0.686961800325662,1
"P24",1,101,"Stranger","Nonmatching","Stranger","Stranger","Stranger","Friend","Friend","Close","m",799.559699837118,0.799559699837118,1
"P24",1,102,"You","Nonmatching",NA,NA,NA,"Stranger","Stranger","Stranger","m",860.26530014351,0.86026530014351,1
"P24",1,103,"Stranger","Matching","Stranger","Stranger","Stranger","Stranger","Stranger","Stranger","None",NA,NA,0
"P24",1,104,"Friend","Matching","Friend","Friend","Close","Friend","Friend","Close","c",747.27030005306,0.74727030005306,1
"P24",1,105,"You","Matching",NA,NA,NA,"Self","Self","Self","c",617.822899948806,0.617822899948806,1
"P24",1,106,"Friend","Nonmatching","Friend","Friend","Close","Stranger","Stranger","Stranger","m",1005.49199990928,1.00549199990928,1
"P24",1,107,"Stranger","Matching","Stranger","Stranger","Stranger","Stranger","Stranger","Stranger","c",720.156599767506,0.720156599767506,1
"P24",1,108,"Friend","Matching","Friend","Friend","Close","Friend","Friend","Close","c",622.764599975199,0.622764599975199,1
"P24",1,109,"You","Nonmatching",NA,NA,NA,"Stranger","Stranger","Stranger","m",769.809399731457,0.769809399731457,1
"P24",1,110,"Friend","Nonmatching","Friend","Friend","Close","Self","Self","Self","m",703.234899789095,0.703234899789095,1
"P24",1,111,"Stranger","Matching","Stranger","Stranger","Stranger","Stranger","Stranger","Stranger","c",638.231799937785,0.638231799937785,1
"P24",1,112,"You","Matching",NA,NA,NA,"Self","Self","Self","c",768.879199866205,0.768879199866205,1
"P24",1,113,"Stranger","Nonmatching","Stranger","Stranger","Stranger","Self","Self","Self","m",733.434800058603,0.733434800058603,1
"P24",1,114,"Stranger","Nonmatching","Stranger","Stranger","Stranger","Friend","Friend","Close","c",1068.56610020623,1.06856610020623,0
"P24",1,115,"You","Nonmatching",NA,NA,NA,"Friend","Friend","Close","m",941.027299966663,0.941027299966663,1
"P24",1,116,"Friend","Nonmatching","Friend","Friend","Close","Stranger","Stranger","Stranger","m",626.644100062549,0.626644100062549,1
"P24",1,117,"Friend","Matching","Friend","Friend","Close","Friend","Friend","Close","c",773.921799845994,0.773921799845994,1
"P24",1,118,"You","Matching",NA,NA,NA,"Self","Self","Self","c",659.222200047225,0.659222200047225,1
"P24",1,119,"Stranger","Matching","Stranger","Stranger","Stranger","Stranger","Stranger","Stranger","c",677.157599944621,0.677157599944621,1
"P24",1,120,"Friend","Matching","Friend","Friend","Close","Friend","Friend","Close","c",934.448300395161,0.934448300395161,1
"P24",2,1,"Stranger","Nonmatching","Stranger","Stranger","Stranger","Friend","Friend","Close","m",701.262500137091,0.701262500137091,1
"P24",2,2,"Friend","Nonmatching","Friend","Friend","Close","Stranger","Stranger","Stranger","m",606.049000285566,0.606049000285566,1
"P24",2,3,"Stranger","Matching","Stranger","Stranger","Stranger","Stranger","Stranger","Stranger","c",609.971700236201,0.609971700236201,1
"P24",2,4,"Friend","Nonmatching","Friend","Friend","Close","Self","Self","Self","m",693.189499899745,0.693189499899745,1
"P24",2,5,"Friend","Matching","Friend","Friend","Close","Friend","Friend","Close","c",821.783300023526,0.821783300023526,1
"P24",2,6,"Stranger","Nonmatching","Stranger","Stranger","Stranger","Self","Self","Self","m",624.995700083673,0.624995700083673,1
"P24",2,7,"Friend","Matching","Friend","Friend","Close","Friend","Friend","Close","c",628.268900327384,0.628268900327384,1
"P24",2,8,"You","Matching",NA,NA,NA,"Self","Self","Self","c",615.542099811137,0.615542099811137,1
"P24",2,9,"You","Nonmatching",NA,NA,NA,"Friend","Friend","Close","m",826.875099912286,0.826875099912286,1
"P24",2,10,"You","Matching",NA,NA,NA,"Self","Self","Self","c",678.091800305992,0.678091800305992,1
"P24",2,11,"Stranger","Matching","Stranger","Stranger","Stranger","Stranger","Stranger","Stranger","c",743.479500059038,0.743479500059038,1
"P24",2,12,"You","Nonmatching",NA,NA,NA,"Stranger","Stranger","Stranger","m",629.909200128168,0.629909200128168,1
"P24",2,13,"Stranger","Matching","Stranger","Stranger","Stranger","Stranger","Stranger","Stranger","c",729.15819985792,0.72915819985792,1
"P24",2,14,"You","Nonmatching",NA,NA,NA,"Friend","Friend","Close","m",1032.29080000892,1.03229080000892,1
"P24",2,15,"Stranger","Nonmatching","Stranger","Stranger","Stranger","Friend","Friend","Close","m",858.510800171643,0.858510800171643,1
"P24",2,16,"Stranger","Matching","Stranger","Stranger","Stranger","Stranger","Stranger","Stranger","c",708.518899977207,0.708518899977207,1
"P24",2,17,"Friend","Nonmatching","Friend","Friend","Close","Stranger","Stranger","Stranger","m",820.425400044769,0.820425400044769,1
"P24",2,18,"Friend","Nonmatching","Friend","Friend","Close","Self","Self","Self","m",831.446999683976,0.831446999683976,1
"P24",2,19,"Stranger","Nonmatching","Stranger","Stranger","Stranger","Self","Self","Self","m",730.68069992587,0.73068069992587,1
"P24",2,20,"You","Nonmatching",NA,NA,NA,"Stranger","Stranger","Stranger","m",793.944000266492,0.793944000266492,1
"P24",2,21,"Friend","Matching","Friend","Friend","Close","Friend","Friend","Close","c",661.813700105995,0.661813700105995,1
"P24",2,22,"Friend","Matching","Friend","Friend","Close","Friend","Friend","Close","c",1015.73059987277,1.01573059987277,1
"P24",2,23,"You","Matching",NA,NA,NA,"Self","Self","Self","c",603.726499713957,0.603726499713957,1
"P24",2,24,"You","Matching",NA,NA,NA,"Self","Self","Self","c",446.702999994159,0.446702999994159,1
"P24",2,25,"You","Nonmatching",NA,NA,NA,"Stranger","Stranger","Stranger","m",617.565299849957,0.617565299849957,1
"P24",2,26,"Friend","Matching","Friend","Friend","Close","Friend","Friend","Close","c",572.559100110084,0.572559100110084,1
"P24",2,27,"Friend","Nonmatching","Friend","Friend","Close","Stranger","Stranger","Stranger","m",610.259000211954,0.610259000211954,1
"P24",2,28,"Stranger","Matching","Stranger","Stranger","Stranger","Stranger","Stranger","Stranger","c",662.202599924058,0.662202599924058,1
"P24",2,29,"Stranger","Nonmatching","Stranger","Stranger","Stranger","Self","Self","Self","m",744.163200259209,0.744163200259209,1
"P24",2,30,"Stranger","Nonmatching","Stranger","Stranger","Stranger","Friend","Friend","Close","m",614.155100192875,0.614155100192875,1
"P24",2,31,"You","Matching",NA,NA,NA,"Self","Self","Self","c",602.580000180751,0.602580000180751,1
"P24",2,32,"Stranger","Matching","Stranger","Stranger","Stranger","Stranger","Stranger","Stranger","c",846.58640017733,0.84658640017733,1
"P24",2,33,"Friend","Matching","Friend","Friend","Close","Friend","Friend","Close","c",457.069699652493,0.457069699652493,1
"P24",2,34,"You","Nonmatching",NA,NA,NA,"Friend","Friend","Close","m",595.1371002011,0.5951371002011,1
"P24",2,35,"Friend","Nonmatching","Friend","Friend","Close","Self","Self","Self","m",584.109700284898,0.584109700284898,1
"P24",2,36,"You","Matching",NA,NA,NA,"Self","Self","Self","c",829.155600164086,0.829155600164086,1
"P24",2,37,"You","Matching",NA,NA,NA,"Self","Self","Self","c",568.427999969572,0.568427999969572,1
"P24",2,38,"Friend","Nonmatching","Friend","Friend","Close","Stranger","Stranger","Stranger","m",877.870600204915,0.877870600204915,1
"P24",2,39,"You","Nonmatching",NA,NA,NA,"Friend","Friend","Close","m",903.554399963468,0.903554399963468,1
"P24",2,40,"Friend","Nonmatching","Friend","Friend","Close","Self","Self","Self","m",815.140199847519,0.815140199847519,1
"P24",2,41,"Stranger","Nonmatching","Stranger","Stranger","Stranger","Self","Self","Self","m",666.37389967218,0.66637389967218,1
"P24",2,42,"Friend","Matching","Friend","Friend","Close","Friend","Friend","Close","c",620.297099929303,0.620297099929303,1
"P24",2,43,"Stranger","Matching","Stranger","Stranger","Stranger","Stranger","Stranger","Stranger","c",959.638400003314,0.959638400003314,1
"P24",2,44,"You","Matching",NA,NA,NA,"Self","Self","Self","c",581.323700025678,0.581323700025678,1
"P24",2,45,"Stranger","Nonmatching","Stranger","Stranger","Stranger","Friend","Friend","Close","m",922.629900276661,0.922629900276661,1
"P24",2,46,"Friend","Matching","Friend","Friend","Close","Friend","Friend","Close","c",1313.61020030454,1.31361020030454,1
"P24",2,47,"You","Nonmatching",NA,NA,NA,"Stranger","Stranger","Stranger","m",809.255800209939,0.809255800209939,1
"P24",2,48,"Stranger","Matching","Stranger","Stranger","Stranger","Stranger","Stranger","Stranger","c",837.205700110644,0.837205700110644,1
"P24",2,49,"Stranger","Nonmatching","Stranger","Stranger","Stranger","Friend","Friend","Close","m",799.717499874532,0.799717499874532,1
"P24",2,50,"Stranger","Matching","Stranger","Stranger","Stranger","Stranger","Stranger","Stranger","c",988.006200175732,0.988006200175732,1
"P24",2,51,"Friend","Nonmatching","Friend","Friend","Close","Self","Self","Self","m",800.351799931377,0.800351799931377,1
"P24",2,52,"Stranger","Nonmatching","Stranger","Stranger","Stranger","Self","Self","Self","m",876.186600420624,0.876186600420624,1
"P24",2,53,"Friend","Nonmatching","Friend","Friend","Close","Stranger","Stranger","Stranger","m",1013.0722001195,1.0130722001195,1
"P24",2,54,"Friend","Matching","Friend","Friend","Close","Friend","Friend","Close","c",985.105200204998,0.985105200204998,1
"P24",2,55,"You","Matching",NA,NA,NA,"Self","Self","Self","c",606.190700083971,0.606190700083971,1
"P24",2,56,"You","Nonmatching",NA,NA,NA,"Friend","Friend","Close","m",674.046999774873,0.674046999774873,1
"P24",2,57,"Stranger","Matching","Stranger","Stranger","Stranger","Stranger","Stranger","Stranger","c",739.256999921054,0.739256999921054,1
"P24",2,58,"You","Nonmatching",NA,NA,NA,"Stranger","Stranger","Stranger","m",689.84240014106,0.68984240014106,1
"P24",2,59,"You","Matching",NA,NA,NA,"Self","Self","Self","c",722.473500296474,0.722473500296474,1
"P24",2,60,"Friend","Matching","Friend","Friend","Close","Friend","Friend","Close","c",673.781699966639,0.673781699966639,1
"P24",2,61,"You","Matching",NA,NA,NA,"Self","Self","Self","c",803.040899801999,0.803040899801999,1
"P24",2,62,"Friend","Nonmatching","Friend","Friend","Close","Self","Self","Self","m",747.980399988592,0.747980399988592,1
"P24",2,63,"Friend","Nonmatching","Friend","Friend","Close","Stranger","Stranger","Stranger","m",650.740999728441,0.650740999728441,1
"P24",2,64,"You","Nonmatching",NA,NA,NA,"Stranger","Stranger","Stranger","m",653.270000126213,0.653270000126213,1
"P24",2,65,"Stranger","Nonmatching","Stranger","Stranger","Stranger","Friend","Friend","Close","m",767.178600188345,0.767178600188345,1
"P24",2,66,"Stranger","Matching","Stranger","Stranger","Stranger","Stranger","Stranger","Stranger","c",749.056000262499,0.749056000262499,1
"P24",2,67,"You","Matching",NA,NA,NA,"Self","Self","Self","c",843.533900100738,0.843533900100738,1
"P24",2,68,"Friend","Matching","Friend","Friend","Close","Friend","Friend","Close","c",454.085800331086,0.454085800331086,1
"P24",2,69,"You","Nonmatching",NA,NA,NA,"Friend","Friend","Close","m",576.06690004468,0.57606690004468,1
"P24",2,70,"Stranger","Matching","Stranger","Stranger","Stranger","Stranger","Stranger","Stranger","c",645.633399952203,0.645633399952203,1
"P24",2,71,"Stranger","Nonmatching","Stranger","Stranger","Stranger","Self","Self","Self","m",568.204200360924,0.568204200360924,1
"P24",2,72,"Friend","Matching","Friend","Friend","Close","Friend","Friend","Close","c",606.341699603945,0.606341699603945,1
"P24",2,73,"You","Nonmatching",NA,NA,NA,"Friend","Friend","Close","m",658.263199962676,0.658263199962676,1
"P24",2,74,"Stranger","Matching","Stranger","Stranger","Stranger","Stranger","Stranger","Stranger","c",612.080599647015,0.612080599647015,1
"P24",2,75,"Stranger","Nonmatching","Stranger","Stranger","Stranger","Friend","Friend","Close","m",792.08580031991,0.79208580031991,1
"P24",2,76,"Friend","Matching","Friend","Friend","Close","Friend","Friend","Close","c",548.379600048065,0.548379600048065,1
"P24",2,77,"Stranger","Nonmatching","Stranger","Stranger","Stranger","Self","Self","Self","m",602.654699701816,0.602654699701816,1
"P24",2,78,"Stranger","Matching","Stranger","Stranger","Stranger","Stranger","Stranger","Stranger","m",542.566200252622,0.542566200252622,0
"P24",2,79,"Friend","Nonmatching","Friend","Friend","Close","Stranger","Stranger","Stranger","m",757.342599797994,0.757342599797994,1
"P24",2,80,"Friend","Matching","Friend","Friend","Close","Friend","Friend","Close","c",531.304799951613,0.531304799951613,1
"P24",2,81,"Friend","Nonmatching","Friend","Friend","Close","Self","Self","Self","m",682.314800098538,0.682314800098538,1
"P24",2,82,"You","Nonmatching",NA,NA,NA,"Stranger","Stranger","Stranger","m",763.077500276268,0.763077500276268,1
"P24",2,83,"You","Matching",NA,NA,NA,"Self","Self","Self","c",552.45119985193,0.55245119985193,1
"P24",2,84,"You","Matching",NA,NA,NA,"Self","Self","Self","c",606.87360027805,0.60687360027805,1
"P24",2,85,"Friend","Nonmatching","Friend","Friend","Close","Self","Self","Self","m",593.865599948913,0.593865599948913,1
"P24",2,86,"Friend","Matching","Friend","Friend","Close","Friend","Friend","Close","c",470.904000103474,0.470904000103474,1
"P24",2,87,"You","Matching",NA,NA,NA,"Self","Self","Self","c",672.403099946678,0.672403099946678,1
"P24",2,88,"Friend","Matching","Friend","Friend","Close","Friend","Friend","Close","c",897.751499898732,0.897751499898732,1
"P24",2,89,"Friend","Nonmatching","Friend","Friend","Close","Stranger","Stranger","Stranger","m",777.933499775827,0.777933499775827,1
"P24",2,90,"Stranger","Matching","Stranger","Stranger","Stranger","Stranger","Stranger","Stranger","c",903.098800219595,0.903098800219595,1
"P24",2,91,"Stranger","Nonmatching","Stranger","Stranger","Stranger","Friend","Friend","Close","m",798.963500186801,0.798963500186801,1
"P24",2,92,"Stranger","Matching","Stranger","Stranger","Stranger","Stranger","Stranger","Stranger","c",731.426399666816,0.731426399666816,1
"P24",2,93,"Stranger","Nonmatching","Stranger","Stranger","Stranger","Self","Self","Self","m",874.059500172734,0.874059500172734,1
"P24",2,94,"You","Matching",NA,NA,NA,"Self","Self","Self","c",547.100499738008,0.547100499738008,1
"P24",2,95,"You","Nonmatching",NA,NA,NA,"Friend","Friend","Close","m",761.905999854207,0.761905999854207,1
"P24",2,96,"You","Nonmatching",NA,NA,NA,"Stranger","Stranger","Stranger","m",983.258400112391,0.983258400112391,1
"P24",2,97,"Stranger","Matching","Stranger","Stranger","Stranger","Stranger","Stranger","Stranger","c",668.805200140923,0.668805200140923,1
"P24",2,98,"Stranger","Matching","Stranger","Stranger","Stranger","Stranger","Stranger","Stranger","c",798.674600198865,0.798674600198865,1
"P24",2,99,"Friend","Matching","Friend","Friend","Close","Friend","Friend","Close","c",635.292999912053,0.635292999912053,1
"P24",2,100,"Friend","Nonmatching","Friend","Friend","Close","Stranger","Stranger","Stranger","m",781.844399869442,0.781844399869442,1
"P24",2,101,"Friend","Nonmatching","Friend","Friend","Close","Self","Self","Self","m",714.937299955636,0.714937299955636,1
"P24",2,102,"Stranger","Nonmatching","Stranger","Stranger","Stranger","Friend","Friend","Close","m",906.210700049996,0.906210700049996,1
"P24",2,103,"You","Matching",NA,NA,NA,"Self","Self","Self","c",626.060800161213,0.626060800161213,1
"P24",2,104,"You","Matching",NA,NA,NA,"Self","Self","Self","c",581.225600093603,0.581225600093603,1
"P24",2,105,"You","Nonmatching",NA,NA,NA,"Friend","Friend","Close","m",713.379200082272,0.713379200082272,1
"P24",2,106,"Friend","Matching","Friend","Friend","Close","Friend","Friend","Close","c",663.889700081199,0.663889700081199,1
"P24",2,107,"Stranger","Nonmatching","Stranger","Stranger","Stranger","Self","Self","Self","m",697.527899872512,0.697527899872512,1
"P24",2,108,"You","Nonmatching",NA,NA,NA,"Stranger","Stranger","Stranger","m",714.254700113088,0.714254700113088,1
"P24",2,109,"Stranger","Matching","Stranger","Stranger","Stranger","Stranger","Stranger","Stranger","c",778.236799873412,0.778236799873412,1
"P24",2,110,"Friend","Matching","Friend","Friend","Close","Friend","Friend","Close","c",583.456200081855,0.583456200081855,1
"P24",2,111,"Friend","Nonmatching","Friend","Friend","Close","Self","Self","Self","m",796.828099992126,0.796828099992126,1
"P24",2,112,"Stranger","Matching","Stranger","Stranger","Stranger","Stranger","Stranger","Stranger","c",808.563800062984,0.808563800062984,1
"P24",2,113,"Stranger","Nonmatching","Stranger","Stranger","Stranger","Self","Self","Self","m",596.58299991861,0.59658299991861,1
"P24",2,114,"Stranger","Nonmatching","Stranger","Stranger","Stranger","Friend","Friend","Close","m",873.003200162202,0.873003200162202,1
"P24",2,115,"You","Matching",NA,NA,NA,"Self","Self","Self","c",610.10430008173,0.61010430008173,1
"P24",2,116,"You","Nonmatching",NA,NA,NA,"Stranger","Stranger","Stranger","m",710.23239986971,0.71023239986971,1
"P24",2,117,"You","Matching",NA,NA,NA,"Self","Self","Self","c",598.055199719965,0.598055199719965,1
"P24",2,118,"Friend","Matching","Friend","Friend","Close","Friend","Friend","Close","c",858.872700016946,0.858872700016946,1
"P24",2,119,"Friend","Nonmatching","Friend","Friend","Close","Stranger","Stranger","Stranger","m",580.632000230253,0.580632000230253,1
"P24",2,120,"You","Nonmatching",NA,NA,NA,"Friend","Friend","Close","m",825.9221999906,0.8259221999906,1
"P24",3,1,"Friend","Nonmatching","Friend","Friend","Close","Stranger","Stranger","Stranger","m",793.833800125867,0.793833800125867,1
"P24",3,2,"Friend","Matching","Friend","Friend","Close","Friend","Friend","Close","c",726.388900075108,0.726388900075108,1
"P24",3,3,"You","Matching",NA,NA,NA,"Self","Self","Self","c",565.473900176585,0.565473900176585,1
"P24",3,4,"Stranger","Nonmatching","Stranger","Stranger","Stranger","Self","Self","Self","m",555.888299830258,0.555888299830258,1
"P24",3,5,"You","Nonmatching",NA,NA,NA,"Friend","Friend","Close","c",753.7198998034,0.7537198998034,0
"P24",3,6,"Stranger","Matching","Stranger","Stranger","Stranger","Stranger","Stranger","Stranger","c",863.582800142467,0.863582800142467,1
"P24",3,7,"Stranger","Nonmatching","Stranger","Stranger","Stranger","Friend","Friend","Close","m",825.386700220406,0.825386700220406,1
"P24",3,8,"You","Matching",NA,NA,NA,"Self","Self","Self","c",724.564800038934,0.724564800038934,1
"P24",3,9,"Friend","Nonmatching","Friend","Friend","Close","Self","Self","Self","m",722.917799837887,0.722917799837887,1
"P24",3,10,"Stranger","Matching","Stranger","Stranger","Stranger","Stranger","Stranger","Stranger","c",754.29780036211,0.75429780036211,1
"P24",3,11,"Friend","Matching","Friend","Friend","Close","Friend","Friend","Close","c",640.257699880749,0.640257699880749,1
"P24",3,12,"You","Nonmatching",NA,NA,NA,"Stranger","Stranger","Stranger","m",626.782100182027,0.626782100182027,1
"P24",3,13,"Stranger","Matching","Stranger","Stranger","Stranger","Stranger","Stranger","Stranger","c",597.992099821568,0.597992099821568,1
"P24",3,14,"Friend","Nonmatching","Friend","Friend","Close","Stranger","Stranger","Stranger","m",890.830399934202,0.890830399934202,1
"P24",3,15,"Stranger","Nonmatching","Stranger","Stranger","Stranger","Friend","Friend","Close","m",674.491799902171,0.674491799902171,1
"P24",3,16,"You","Nonmatching",NA,NA,NA,"Friend","Friend","Close","m",675.741200335324,0.675741200335324,1
"P24",3,17,"Friend","Nonmatching","Friend","Friend","Close","Self","Self","Self","m",725.104799959809,0.725104799959809,1
"P24",3,18,"You","Matching",NA,NA,NA,"Self","Self","Self","c",564.155699685216,0.564155699685216,1
"P24",3,19,"You","Nonmatching",NA,NA,NA,"Stranger","Stranger","Stranger","m",762.320599984378,0.762320599984378,1
"P24",3,20,"Stranger","Matching","Stranger","Stranger","Stranger","Stranger","Stranger","Stranger","c",648.058999795467,0.648058999795467,1
"P24",3,21,"Friend","Matching","Friend","Friend","Close","Friend","Friend","Close","c",810.816899873316,0.810816899873316,1
"P24",3,22,"You","Matching",NA,NA,NA,"Self","Self","Self","c",550.553299952298,0.550553299952298,1
"P24",3,23,"Friend","Matching","Friend","Friend","Close","Friend","Friend","Close","c",733.271299861372,0.733271299861372,1
"P24",3,24,"Stranger","Nonmatching","Stranger","Stranger","Stranger","Self","Self","Self","m",636.527399998158,0.636527399998158,1
"P24",3,25,"You","Matching",NA,NA,NA,"Self","Self","Self","c",702.969999983907,0.702969999983907,1
"P24",3,26,"Friend","Matching","Friend","Friend","Close","Friend","Friend","Close","c",927.126800175756,0.927126800175756,1
"P24",3,27,"Friend","Matching","Friend","Friend","Close","Friend","Friend","Close","c",550.04070000723,0.55004070000723,1
"P24",3,28,"Friend","Nonmatching","Friend","Friend","Close","Stranger","Stranger","Stranger","m",732.844700105488,0.732844700105488,1
"P24",3,29,"Friend","Nonmatching","Friend","Friend","Close","Self","Self","Self","m",923.340199980885,0.923340199980885,1
"P24",3,30,"You","Matching",NA,NA,NA,"Self","Self","Self","c",738.75330016017,0.73875330016017,1
"P24",3,31,"Stranger","Matching","Stranger","Stranger","Stranger","Stranger","Stranger","Stranger","c",687.766099814326,0.687766099814326,1
"P24",3,32,"You","Nonmatching",NA,NA,NA,"Friend","Friend","Close","m",624.956400133669,0.624956400133669,1
"P24",3,33,"Stranger","Nonmatching","Stranger","Stranger","Stranger","Friend","Friend","Close","m",772.197300102562,0.772197300102562,1
"P24",3,34,"Stranger","Matching","Stranger","Stranger","Stranger","Stranger","Stranger","Stranger","c",768.815600313246,0.768815600313246,1
"P24",3,35,"You","Nonmatching",NA,NA,NA,"Stranger","Stranger","Stranger","m",654.57439981401,0.65457439981401,1
"P24",3,36,"Stranger","Nonmatching","Stranger","Stranger","Stranger","Self","Self","Self","m",768.42310000211,0.76842310000211,1
"P24",3,37,"You","Matching",NA,NA,NA,"Self","Self","Self","c",477.59519983083,0.47759519983083,1
"P24",3,38,"Friend","Nonmatching","Friend","Friend","Close","Stranger","Stranger","Stranger","m",999.126099981368,0.999126099981368,1
"P24",3,39,"Friend","Matching","Friend","Friend","Close","Friend","Friend","Close","c",827.602500095963,0.827602500095963,1
"P24",3,40,"You","Nonmatching",NA,NA,NA,"Friend","Friend","Close","m",678.541900124401,0.678541900124401,1
"P24",3,41,"Friend","Matching","Friend","Friend","Close","Friend","Friend","Close","c",695.167100057006,0.695167100057006,1
"P24",3,42,"You","Nonmatching",NA,NA,NA,"Stranger","Stranger","Stranger","m",503.647999837995,0.503647999837995,1
"P24",3,43,"Stranger","Matching","Stranger","Stranger","Stranger","Stranger","Stranger","Stranger","c",639.831099659204,0.639831099659204,1
"P24",3,44,"Friend","Nonmatching","Friend","Friend","Close","Self","Self","Self","m",594.44920020178,0.59444920020178,1
"P24",3,45,"Stranger","Nonmatching","Stranger","Stranger","Stranger","Friend","Friend","Close","m",999.129100237042,0.999129100237042,1
"P24",3,46,"Stranger","Matching","Stranger","Stranger","Stranger","Stranger","Stranger","Stranger","c",555.326399859041,0.555326399859041,1
"P24",3,47,"Stranger","Nonmatching","Stranger","Stranger","Stranger","Self","Self","Self","m",769.036400131881,0.769036400131881,1
"P24",3,48,"You","Matching",NA,NA,NA,"Self","Self","Self","c",686.69080035761,0.68669080035761,1
"P24",3,49,"You","Nonmatching",NA,NA,NA,"Friend","Friend","Close","m",703.134799841791,0.703134799841791,1
"P24",3,50,"Stranger","Nonmatching","Stranger","Stranger","Stranger","Friend","Friend","Close","m",703.098600264639,0.703098600264639,1
"P24",3,51,"Stranger","Matching","Stranger","Stranger","Stranger","Stranger","Stranger","Stranger","c",622.944899834692,0.622944899834692,1
"P24",3,52,"Friend","Matching","Friend","Friend","Close","Friend","Friend","Close","c",722.415499854833,0.722415499854833,1
"P24",3,53,"Stranger","Matching","Stranger","Stranger","Stranger","Stranger","Stranger","Stranger","c",800.13980017975,0.80013980017975,1
"P24",3,54,"You","Matching",NA,NA,NA,"Self","Self","Self","c",556.77150003612,0.55677150003612,1
"P24",3,55,"You","Nonmatching",NA,NA,NA,"Stranger","Stranger","Stranger","m",643.679200205952,0.643679200205952,1
"P24",3,56,"Stranger","Nonmatching","Stranger","Stranger","Stranger","Self","Self","Self","m",1476.72730032355,1.47672730032355,1
"P24",3,57,"Friend","Matching","Friend","Friend","Close","Friend","Friend","Close","c",564.835700206459,0.564835700206459,1
"P24",3,58,"You","Matching",NA,NA,NA,"Self","Self","Self","c",618.766299914569,0.618766299914569,1
"P24",3,59,"Friend","Nonmatching","Friend","Friend","Close","Stranger","Stranger","Stranger","m",846.106099896133,0.846106099896133,1
"P24",3,60,"Friend","Nonmatching","Friend","Friend","Close","Self","Self","Self","m",616.652499884367,0.616652499884367,1
"P24",3,61,"Friend","Nonmatching","Friend","Friend","Close","Self","Self","Self","m",588.537100236863,0.588537100236863,1
"P24",3,62,"Stranger","Nonmatching","Stranger","Stranger","Stranger","Friend","Friend","Close","m",880.692800041288,0.880692800041288,1
"P24",3,63,"Friend","Nonmatching","Friend","Friend","Close","Stranger","Stranger","Stranger","m",681.182399857789,0.681182399857789,1
"P24",3,64,"You","Nonmatching",NA,NA,NA,"Stranger","Stranger","Stranger","m",666.186599992216,0.666186599992216,1
"P24",3,65,"Stranger","Nonmatching","Stranger","Stranger","Stranger","Self","Self","Self","m",734.934800304472,0.734934800304472,1
"P24",3,66,"Friend","Matching","Friend","Friend","Close","Friend","Friend","Close","c",603.396099992096,0.603396099992096,1
"P24",3,67,"Stranger","Matching","Stranger","Stranger","Stranger","Stranger","Stranger","Stranger","c",735.378600191325,0.735378600191325,1
"P24",3,68,"You","Matching",NA,NA,NA,"Self","Self","Self","c",814.527800306678,0.814527800306678,1
"P24",3,69,"Friend","Matching","Friend","Friend","Close","Friend","Friend","Close","c",858.510800171643,0.858510800171643,1
"P24",3,70,"You","Nonmatching",NA,NA,NA,"Friend","Friend","Close","c",675.565999932587,0.675565999932587,0
"P24",3,71,"Stranger","Matching","Stranger","Stranger","Stranger","Stranger","Stranger","Stranger","c",724.146299995482,0.724146299995482,1
"P24",3,72,"You","Matching",NA,NA,NA,"Self","Self","Self","c",867.352299857885,0.867352299857885,1
"P24",3,73,"Stranger","Nonmatching","Stranger","Stranger","Stranger","Self","Self","Self","m",637.253799941391,0.637253799941391,1
"P24",3,74,"Stranger","Matching","Stranger","Stranger","Stranger","Stranger","Stranger","Stranger","c",606.981699820608,0.606981699820608,1
"P24",3,75,"Friend","Nonmatching","Friend","Friend","Close","Stranger","Stranger","Stranger","m",1250.34120026976,1.25034120026976,1
"P24",3,76,"Stranger","Matching","Stranger","Stranger","Stranger","Stranger","Stranger","Stranger","c",731.648200191557,0.731648200191557,1
"P24",3,77,"Friend","Matching","Friend","Friend","Close","Friend","Friend","Close","c",539.265099912882,0.539265099912882,1
"P24",3,78,"You","Matching",NA,NA,NA,"Self","Self","Self","c",609.747600276023,0.609747600276023,1
"P24",3,79,"You","Nonmatching",NA,NA,NA,"Stranger","Stranger","Stranger","m",533.864500001073,0.533864500001073,1
"P24",3,80,"Friend","Nonmatching","Friend","Friend","Close","Self","Self","Self","m",845.15619976446,0.84515619976446,1
"P24",3,81,"Stranger","Nonmatching","Stranger","Stranger","Stranger","Friend","Friend","Close","m",678.8206002675,0.6788206002675,1
"P24",3,82,"Friend","Matching","Friend","Friend","Close","Friend","Friend","Close","c",616.212799679488,0.616212799679488,1
"P24",3,83,"You","Nonmatching",NA,NA,NA,"Friend","Friend","Close","m",684.390699956566,0.684390699956566,1
"P24",3,84,"You","Matching",NA,NA,NA,"Self","Self","Self","c",573.449399787933,0.573449399787933,1
"P24",3,85,"Friend","Nonmatching","Friend","Friend","Close","Self","Self","Self","m",513.893999624997,0.513893999624997,1
"P24",3,86,"You","Matching",NA,NA,NA,"Self","Self","Self","c",810.227000154555,0.810227000154555,1
"P24",3,87,"Friend","Nonmatching","Friend","Friend","Close","Stranger","Stranger","Stranger","m",581.499699968845,0.581499699968845,1
"P24",3,88,"You","Nonmatching",NA,NA,NA,"Stranger","Stranger","Stranger","m",602.014199830592,0.602014199830592,1
"P24",3,89,"You","Nonmatching",NA,NA,NA,"Friend","Friend","Close","m",942.500399891287,0.942500399891287,1
"P24",3,90,"Friend","Matching","Friend","Friend","Close","Friend","Friend","Close","c",611.754300072789,0.611754300072789,1
"P24",3,91,"You","Matching",NA,NA,NA,"Self","Self","Self","c",759.651000145823,0.759651000145823,1
"P24",3,92,"Stranger","Nonmatching","Stranger","Stranger","Stranger","Self","Self","Self","m",645.639199763536,0.645639199763536,1
"P24",3,93,"Stranger","Matching","Stranger","Stranger","Stranger","Stranger","Stranger","Stranger","c",680.421199649572,0.680421199649572,1
"P24",3,94,"Friend","Matching","Friend","Friend","Close","Friend","Friend","Close","c",568.534199614078,0.568534199614078,1
"P24",3,95,"Stranger","Matching","Stranger","Stranger","Stranger","Stranger","Stranger","Stranger","c",686.149899847806,0.686149899847806,1
"P24",3,96,"Stranger","Nonmatching","Stranger","Stranger","Stranger","Friend","Friend","Close","m",574.74990002811,0.57474990002811,1
"P24",3,97,"Friend","Matching","Friend","Friend","Close","Friend","Friend","Close","c",612.102299928665,0.612102299928665,1
"P24",3,98,"Friend","Nonmatching","Friend","Friend","Close","Stranger","Stranger","Stranger","m",632.028300315142,0.632028300315142,1
"P24",3,99,"You","Nonmatching",NA,NA,NA,"Friend","Friend","Close","m",827.290799934417,0.827290799934417,1
"P24",3,100,"You","Matching",NA,NA,NA,"Self","Self","Self","c",774.417900014669,0.774417900014669,1
"P24",3,101,"You","Matching",NA,NA,NA,"Self","Self","Self","c",803.670799825341,0.803670799825341,1
"P24",3,102,"Stranger","Matching","Stranger","Stranger","Stranger","Stranger","Stranger","Stranger","c",670.841700397432,0.670841700397432,1
"P24",3,103,"Friend","Nonmatching","Friend","Friend","Close","Self","Self","Self","m",800.059699919075,0.800059699919075,1
"P24",3,104,"Stranger","Nonmatching","Stranger","Stranger","Stranger","Friend","Friend","Close","m",635.825199540704,0.635825199540704,1
"P24",3,105,"Stranger","Matching","Stranger","Stranger","Stranger","Stranger","Stranger","Stranger","c",607.203800231218,0.607203800231218,1
"P24",3,106,"Friend","Matching","Friend","Friend","Close","Friend","Friend","Close","c",611.193099990487,0.611193099990487,1
"P24",3,107,"You","Nonmatching",NA,NA,NA,"Stranger","Stranger","Stranger","m",663.092100061476,0.663092100061476,1
"P24",3,108,"Stranger","Nonmatching","Stranger","Stranger","Stranger","Self","Self","Self","m",777.055399958044,0.777055399958044,1
"P24",3,109,"Stranger","Nonmatching","Stranger","Stranger","Stranger","Friend","Friend","Close","c",630.326500162482,0.630326500162482,0
"P24",3,110,"Stranger","Nonmatching","Stranger","Stranger","Stranger","Self","Self","Self","m",792.90430014953,0.79290430014953,1
"P24",3,111,"You","Nonmatching",NA,NA,NA,"Friend","Friend","Close","m",741.501299664378,0.741501299664378,1
"P24",3,112,"Stranger","Matching","Stranger","Stranger","Stranger","Stranger","Stranger","Stranger","c",771.274900063872,0.771274900063872,1
"P24",3,113,"Stranger","Matching","Stranger","Stranger","Stranger","Stranger","Stranger","Stranger","c",672.541900072247,0.672541900072247,1
"P24",3,114,"You","Nonmatching",NA,NA,NA,"Stranger","Stranger","Stranger","m",561.450100038201,0.561450100038201,1
"P24",3,115,"Friend","Nonmatching","Friend","Friend","Close","Self","Self","Self","m",759.080300107598,0.759080300107598,1
"P24",3,116,"Friend","Matching","Friend","Friend","Close","Friend","Friend","Close","c",644.255300052464,0.644255300052464,1
"P24",3,117,"Friend","Nonmatching","Friend","Friend","Close","Stranger","Stranger","Stranger","m",662.920199800283,0.662920199800283,1
"P24",3,118,"Friend","Matching","Friend","Friend","Close","Friend","Friend","Close","c",504.801400005817,0.504801400005817,1
"P24",3,119,"You","Matching",NA,NA,NA,"Self","Self","Self","c",496.761499904096,0.496761499904096,1
"P24",3,120,"You","Matching",NA,NA,NA,"Self","Self","Self","c",457.591000013053,0.457591000013053,1
"P30B",1,1,"Friend","Matching","Friend","Friend","Close","Friend","Friend","Close","c",738.600699987728,0.738600699987728,1
"P30B",1,2,"Stranger","Matching","Stranger","Stranger","Stranger","Stranger","Stranger","Stranger","c",1072.79710000148,1.07279710000148,1
"P30B",1,3,"Stranger","Nonmatching","Stranger","Stranger","Stranger","Self","Self","Self","m",689.356399991084,0.689356399991084,1
"P30B",1,4,"Friend","Matching","Friend","Friend","Close","Friend","Friend","Close","c",322.788499994203,0.322788499994203,1
"P30B",1,5,"You","Nonmatching",NA,NA,NA,"Stranger","Stranger","Stranger","m",850.217400002293,0.850217400002293,1
"P30B",1,6,"You","Nonmatching",NA,NA,NA,"Friend","Friend","Close","m",669.008800003212,0.669008800003212,1
"P30B",1,7,"Friend","Nonmatching","Friend","Friend","Close","Stranger","Stranger","Stranger","m",766.415599995526,0.766415599995526,1
"P30B",1,8,"Stranger","Matching","Stranger","Stranger","Stranger","Stranger","Stranger","Stranger","m",395.477400015807,0.395477400015807,0
"P30B",1,9,"You","Matching",NA,NA,NA,"Self","Self","Self","c",664.93790000095,0.66493790000095,1
"P30B",1,10,"Stranger","Nonmatching","Stranger","Stranger","Stranger","Friend","Friend","Close","None",NA,NA,0
"P30B",1,11,"Friend","Nonmatching","Friend","Friend","Close","Self","Self","Self","m",925.724700005958,0.925724700005958,1
"P30B",1,12,"You","Matching",NA,NA,NA,"Self","Self","Self","c",709.733700001379,0.709733700001379,1
"P30B",1,13,"Friend","Nonmatching","Friend","Friend","Close","Stranger","Stranger","Stranger","m",724.719399993774,0.724719399993774,1
"P30B",1,14,"Stranger","Matching","Stranger","Stranger","Stranger","Stranger","Stranger","Stranger","m",611.690299992915,0.611690299992915,0
"P30B",1,15,"Friend","Nonmatching","Friend","Friend","Close","Self","Self","Self","c",663.808799989056,0.663808799989056,0
"P30B",1,16,"Stranger","Matching","Stranger","Stranger","Stranger","Stranger","Stranger","Stranger","c",1113.93880000105,1.11393880000105,1
"P30B",1,17,"Friend","Matching","Friend","Friend","Close","Friend","Friend","Close","c",553.220200003125,0.553220200003125,1
"P30B",1,18,"You","Nonmatching",NA,NA,NA,"Stranger","Stranger","Stranger","m",814.996499975678,0.814996499975678,1
"P30B",1,19,"Friend","Matching","Friend","Friend","Close","Friend","Friend","Close","c",570.914299983997,0.570914299983997,1
"P30B",1,20,"You","Matching",NA,NA,NA,"Self","Self","Self","c",655.188099975931,0.655188099975931,1
"P30B",1,21,"You","Matching",NA,NA,NA,"Self","Self","Self","c",657.845400011865,0.657845400011865,1
"P30B",1,22,"Stranger","Nonmatching","Stranger","Stranger","Stranger","Self","Self","Self","c",388.696800015168,0.388696800015168,0
"P30B",1,23,"Stranger","Nonmatching","Stranger","Stranger","Stranger","Friend","Friend","Close","m",784.754399996018,0.784754399996018,1
"P30B",1,24,"You","Nonmatching",NA,NA,NA,"Friend","Friend","Close","m",1198.73530001496,1.19873530001496,1
"P30B",1,25,"You","Matching",NA,NA,NA,"Self","Self","Self","c",556.341100018471,0.556341100018471,1
"P30B",1,26,"Stranger","Nonmatching","Stranger","Stranger","Stranger","Self","Self","Self","m",1152.79949997785,1.15279949997785,1
"P30B",1,27,"You","Nonmatching",NA,NA,NA,"Friend","Friend","Close","m",686.433099996066,0.686433099996066,1
"P30B",1,28,"Stranger","Matching","Stranger","Stranger","Stranger","Stranger","Stranger","Stranger","m",703.238699992653,0.703238699992653,0
"P30B",1,29,"Stranger","Nonmatching","Stranger","Stranger","Stranger","Friend","Friend","Close","m",654.900599998655,0.654900599998655,1
"P30B",1,30,"Friend","Matching","Friend","Friend","Close","Friend","Friend","Close","c",1232.13919997215,1.23213919997215,1
"P30B",1,31,"Friend","Nonmatching","Friend","Friend","Close","Stranger","Stranger","Stranger","m",698.91400000779,0.69891400000779,1
"P30B",1,32,"Stranger","Matching","Stranger","Stranger","Stranger","Stranger","Stranger","Stranger","None",NA,NA,0
"P30B",1,33,"You","Matching",NA,NA,NA,"Self","Self","Self","None",NA,NA,0
"P30B",1,34,"Friend","Nonmatching","Friend","Friend","Close","Self","Self","Self","m",852.956899994751,0.852956899994751,1
"P30B",1,35,"You","Nonmatching",NA,NA,NA,"Stranger","Stranger","Stranger","m",750.110599998152,0.750110599998152,1
"P30B",1,36,"Friend","Matching","Friend","Friend","Close","Friend","Friend","Close","c",492.156799999066,0.492156799999066,1
"P30B",1,37,"You","Matching",NA,NA,NA,"Self","Self","Self","c",564.950600004522,0.564950600004522,1
"P30B",1,38,"You","Nonmatching",NA,NA,NA,"Stranger","Stranger","Stranger","m",618.627399991965,0.618627399991965,1
"P30B",1,39,"Stranger","Matching","Stranger","Stranger","Stranger","Stranger","Stranger","Stranger","c",686.696999997366,0.686696999997366,1
"P30B",1,40,"Friend","Nonmatching","Friend","Friend","Close","Stranger","Stranger","Stranger","m",719.618500006618,0.719618500006618,1
"P30B",1,41,"Friend","Matching","Friend","Friend","Close","Friend","Friend","Close","c",734.424800000852,0.734424800000852,1
"P30B",1,42,"Stranger","Nonmatching","Stranger","Stranger","Stranger","Self","Self","Self","m",942.696000012802,0.942696000012802,1
"P30B",1,43,"Friend","Matching","Friend","Friend","Close","Friend","Friend","Close","c",532.822099979967,0.532822099979967,1
"P30B",1,44,"You","Nonmatching",NA,NA,NA,"Friend","Friend","Close","m",684.17719998979,0.68417719998979,1
"P30B",1,45,"Stranger","Nonmatching","Stranger","Stranger","Stranger","Friend","Friend","Close","m",812.505599984434,0.812505599984434,1
"P30B",1,46,"Friend","Nonmatching","Friend","Friend","Close","Self","Self","Self","m",631.124000006821,0.631124000006821,1
"P30B",1,47,"You","Matching",NA,NA,NA,"Self","Self","Self","c",443.315199983772,0.443315199983772,1
"P30B",1,48,"Stranger","Matching","Stranger","Stranger","Stranger","Stranger","Stranger","Stranger","m",469.925199984573,0.469925199984573,0
"P30B",1,49,"Stranger","Matching","Stranger","Stranger","Stranger","Stranger","Stranger","Stranger","c",575.671400001738,0.575671400001738,1
"P30B",1,50,"You","Nonmatching",NA,NA,NA,"Friend","Friend","Close","m",629.769499995746,0.629769499995746,1
"P30B",1,51,"You","Matching",NA,NA,NA,"Self","Self","Self","c",664.889100007713,0.664889100007713,1
"P30B",1,52,"Stranger","Matching","Stranger","Stranger","Stranger","Stranger","Stranger","Stranger","c",634.028399974341,0.634028399974341,1
"P30B",1,53,"Friend","Matching","Friend","Friend","Close","Friend","Friend","Close","c",894.513100007316,0.894513100007316,1
"P30B",1,54,"Friend","Matching","Friend","Friend","Close","Friend","Friend","Close","c",582.37960000406,0.58237960000406,1
"P30B",1,55,"Stranger","Nonmatching","Stranger","Stranger","Stranger","Friend","Friend","Close","m",571.319500013487,0.571319500013487,1
"P30B",1,56,"You","Nonmatching",NA,NA,NA,"Stranger","Stranger","Stranger","c",417.412699986016,0.417412699986016,0
"P30B",1,57,"Friend","Nonmatching","Friend","Friend","Close","Stranger","Stranger","Stranger","c",924.59839998628,0.92459839998628,0
"P30B",1,58,"Friend","Nonmatching","Friend","Friend","Close","Self","Self","Self","m",883.57229999383,0.88357229999383,1
"P30B",1,59,"You","Matching",NA,NA,NA,"Self","Self","Self","c",541.504599998007,0.541504599998007,1
"P30B",1,60,"Stranger","Nonmatching","Stranger","Stranger","Stranger","Self","Self","Self","m",626.670400000876,0.626670400000876,1
"P30B",1,61,"Friend","Matching","Friend","Friend","Close","Friend","Friend","Close","c",566.273100004764,0.566273100004764,1
"P30B",1,62,"You","Nonmatching",NA,NA,NA,"Friend","Friend","Close","m",556.846099992981,0.556846099992981,1
"P30B",1,63,"Stranger","Matching","Stranger","Stranger","Stranger","Stranger","Stranger","Stranger","c",514.775699994061,0.514775699994061,1
"P30B",1,64,"Friend","Matching","Friend","Friend","Close","Friend","Friend","Close","c",778.496999992058,0.778496999992058,1
"P30B",1,65,"You","Matching",NA,NA,NA,"Self","Self","Self","c",600.332399975741,0.600332399975741,1
"P30B",1,66,"You","Nonmatching",NA,NA,NA,"Stranger","Stranger","Stranger","m",1501.45680000423,1.50145680000423,1
"P30B",1,67,"Friend","Nonmatching","Friend","Friend","Close","Stranger","Stranger","Stranger","m",892.487000004621,0.892487000004621,1
"P30B",1,68,"You","Matching",NA,NA,NA,"Self","Self","Self","c",612.404399988009,0.612404399988009,1
"P30B",1,69,"Stranger","Nonmatching","Stranger","Stranger","Stranger","Friend","Friend","Close","m",951.766099984525,0.951766099984525,1
"P30B",1,70,"Stranger","Matching","Stranger","Stranger","Stranger","Stranger","Stranger","Stranger","m",1389.66670000809,1.38966670000809,0
"P30B",1,71,"Stranger","Nonmatching","Stranger","Stranger","Stranger","Self","Self","Self","m",898.820900009014,0.898820900009014,1
"P30B",1,72,"Friend","Nonmatching","Friend","Friend","Close","Self","Self","Self","m",811.696399992798,0.811696399992798,1
"P30B",1,73,"Friend","Matching","Friend","Friend","Close","Friend","Friend","Close","c",470.641099993372,0.470641099993372,1
"P30B",1,74,"You","Matching",NA,NA,NA,"Self","Self","Self","c",560.627900005784,0.560627900005784,1
"P30B",1,75,"You","Nonmatching",NA,NA,NA,"Friend","Friend","Close","m",583.123199990951,0.583123199990951,1
"P30B",1,76,"Friend","Matching","Friend","Friend","Close","Friend","Friend","Close","c",556.524699990405,0.556524699990405,1
"P30B",1,77,"Stranger","Nonmatching","Stranger","Stranger","Stranger","Self","Self","Self","c",626.149499992607,0.626149499992607,0
"P30B",1,78,"Friend","Nonmatching","Friend","Friend","Close","Stranger","Stranger","Stranger","m",837.551599979633,0.837551599979633,1
"P30B",1,79,"You","Matching",NA,NA,NA,"Self","Self","Self","c",465.115400002105,0.465115400002105,1
"P30B",1,80,"You","Nonmatching",NA,NA,NA,"Stranger","Stranger","Stranger","m",809.9116999947,0.8099116999947,1
"P30B",1,81,"Stranger","Matching","Stranger","Stranger","Stranger","Stranger","Stranger","Stranger","c",806.131899997126,0.806131899997126,1
"P30B",1,82,"Stranger","Nonmatching","Stranger","Stranger","Stranger","Friend","Friend","Close","m",625.675499992212,0.625675499992212,1
"P30B",1,83,"Friend","Nonmatching","Friend","Friend","Close","Self","Self","Self","c",565.758199983975,0.565758199983975,0
"P30B",1,84,"Stranger","Matching","Stranger","Stranger","Stranger","Stranger","Stranger","Stranger","m",939.686500001699,0.939686500001699,0
"P30B",1,85,"Stranger","Matching","Stranger","Stranger","Stranger","Stranger","Stranger","Stranger","c",528.590300003998,0.528590300003998,1
"P30B",1,86,"You","Nonmatching",NA,NA,NA,"Friend","Friend","Close","m",632.402999995975,0.632402999995975,1
"P30B",1,87,"Friend","Matching","Friend","Friend","Close","Friend","Friend","Close","c",634.983999974793,0.634983999974793,1
"P30B",1,88,"Stranger","Nonmatching","Stranger","Stranger","Stranger","Friend","Friend","Close","m",558.163899986539,0.558163899986539,1
"P30B",1,89,"You","Matching",NA,NA,NA,"Self","Self","Self","c",435.170999990078,0.435170999990078,1
"P30B",1,90,"You","Matching",NA,NA,NA,"Self","Self","Self","c",686.88920000568,0.68688920000568,1
"P30B",1,91,"Friend","Nonmatching","Friend","Friend","Close","Stranger","Stranger","Stranger","m",607.587200007401,0.607587200007401,1
"P30B",1,92,"Stranger","Nonmatching","Stranger","Stranger","Stranger","Self","Self","Self","c",466.915500001051,0.466915500001051,0
"P30B",1,93,"Friend","Nonmatching","Friend","Friend","Close","Self","Self","Self","m",941.342800011626,0.941342800011626,1
"P30B",1,94,"Friend","Matching","Friend","Friend","Close","Friend","Friend","Close","c",723.036100011086,0.723036100011086,1
"P30B",1,95,"Stranger","Matching","Stranger","Stranger","Stranger","Stranger","Stranger","Stranger","m",499.306999990949,0.499306999990949,0
"P30B",1,96,"You","Nonmatching",NA,NA,NA,"Stranger","Stranger","Stranger","c",588.601499999641,0.588601499999641,0
"P30B",1,97,"You","Nonmatching",NA,NA,NA,"Friend","Friend","Close","m",800.750499998685,0.800750499998685,1
"P30B",1,98,"Friend","Nonmatching","Friend","Friend","Close","Stranger","Stranger","Stranger","m",1244.63390000165,1.24463390000165,1
"P30B",1,99,"Stranger","Nonmatching","Stranger","Stranger","Stranger","Friend","Friend","Close","m",679.364400013583,0.679364400013583,1
"P30B",1,100,"Friend","Nonmatching","Friend","Friend","Close","Self","Self","Self","c",504.807299992535,0.504807299992535,0
"P30B",1,101,"Stranger","Nonmatching","Stranger","Stranger","Stranger","Self","Self","Self","m",1088.14579999307,1.08814579999307,1
"P30B",1,102,"Friend","Matching","Friend","Friend","Close","Friend","Friend","Close","c",784.986100014066,0.784986100014066,1
"P30B",1,103,"Stranger","Matching","Stranger","Stranger","Stranger","Stranger","Stranger","Stranger","c",653.778300009435,0.653778300009435,1
"P30B",1,104,"You","Matching",NA,NA,NA,"Self","Self","Self","c",383.263700001407,0.383263700001407,1
"P30B",1,105,"You","Nonmatching",NA,NA,NA,"Stranger","Stranger","Stranger","m",604.637200012803,0.604637200012803,1
"P30B",1,106,"Stranger","Matching","Stranger","Stranger","Stranger","Stranger","Stranger","Stranger","c",688.755199982552,0.688755199982552,1
"P30B",1,107,"You","Matching",NA,NA,NA,"Self","Self","Self","c",530.789199983701,0.530789199983701,1
"P30B",1,108,"Friend","Matching","Friend","Friend","Close","Friend","Friend","Close","c",552.482899976894,0.552482899976894,1
"P30B",1,109,"Friend","Nonmatching","Friend","Friend","Close","Self","Self","Self","c",542.603000008967,0.542603000008967,0
"P30B",1,110,"You","Matching",NA,NA,NA,"Self","Self","Self","c",709.262999997009,0.709262999997009,1
"P30B",1,111,"Stranger","Matching","Stranger","Stranger","Stranger","Stranger","Stranger","Stranger","c",582.15519998339,0.58215519998339,1
"P30B",1,112,"Friend","Matching","Friend","Friend","Close","Friend","Friend","Close","c",636.403300013626,0.636403300013626,1
"P30B",1,113,"Stranger","Nonmatching","Stranger","Stranger","Stranger","Self","Self","Self","m",734.141199995065,0.734141199995065,1
"P30B",1,114,"Stranger","Matching","Stranger","Stranger","Stranger","Stranger","Stranger","Stranger","c",493.07769999723,0.49307769999723,1
"P30B",1,115,"You","Matching",NA,NA,NA,"Self","Self","Self","c",359.089299978223,0.359089299978223,1
"P30B",1,116,"Friend","Nonmatching","Friend","Friend","Close","Stranger","Stranger","Stranger","m",676.361099991482,0.676361099991482,1
"P30B",1,117,"You","Nonmatching",NA,NA,NA,"Friend","Friend","Close","c",533.329099998809,0.533329099998809,0
"P30B",1,118,"Stranger","Nonmatching","Stranger","Stranger","Stranger","Friend","Friend","Close","m",828.753899986623,0.828753899986623,1
"P30B",1,119,"You","Nonmatching",NA,NA,NA,"Stranger","Stranger","Stranger","c",1064.3737000064,1.0643737000064,0
"P30B",1,120,"Friend","Matching","Friend","Friend","Close","Friend","Friend","Close","c",777.369300019927,0.777369300019927,1
"P30B",2,1,"Friend","Matching","Friend","Friend","Close","Friend","Friend","Close","c",659.004099987214,0.659004099987214,1
"P30B",2,2,"Stranger","Matching","Stranger","Stranger","Stranger","Stranger","Stranger","Stranger","m",452.18439999735,0.45218439999735,0
"P30B",2,3,"Friend","Nonmatching","Friend","Friend","Close","Self","Self","Self","m",717.142400011653,0.717142400011653,1
"P30B",2,4,"Friend","Matching","Friend","Friend","Close","Friend","Friend","Close","c",574.653300020145,0.574653300020145,1
"P30B",2,5,"Stranger","Nonmatching","Stranger","Stranger","Stranger","Friend","Friend","Close","m",723.665299999993,0.723665299999993,1
"P30B",2,6,"You","Matching",NA,NA,NA,"Self","Self","Self","c",515.031700022519,0.515031700022519,1
"P30B",2,7,"You","Nonmatching",NA,NA,NA,"Stranger","Stranger","Stranger","m",635.657199978596,0.635657199978596,1
"P30B",2,8,"You","Matching",NA,NA,NA,"Self","Self","Self","c",446.424599998863,0.446424599998863,1
"P30B",2,9,"Stranger","Matching","Stranger","Stranger","Stranger","Stranger","Stranger","Stranger","m",600.681399984751,0.600681399984751,0
"P30B",2,10,"Stranger","Nonmatching","Stranger","Stranger","Stranger","Self","Self","Self","m",733.544299990172,0.733544299990172,1
"P30B",2,11,"You","Nonmatching",NA,NA,NA,"Friend","Friend","Close","m",876.584899990121,0.876584899990121,1
"P30B",2,12,"Friend","Nonmatching","Friend","Friend","Close","Stranger","Stranger","Stranger","m",1365.36950001027,1.36536950001027,1
"P30B",2,13,"Stranger","Matching","Stranger","Stranger","Stranger","Stranger","Stranger","Stranger","c",779.46510000038,0.77946510000038,1
"P30B",2,14,"Friend","Nonmatching","Friend","Friend","Close","Stranger","Stranger","Stranger","m",696.526199986693,0.696526199986693,1
"P30B",2,15,"You","Nonmatching",NA,NA,NA,"Friend","Friend","Close","m",728.997900005197,0.728997900005197,1
"P30B",2,16,"Stranger","Nonmatching","Stranger","Stranger","Stranger","Self","Self","Self","m",760.823799995705,0.760823799995705,1
"P30B",2,17,"Stranger","Nonmatching","Stranger","Stranger","Stranger","Friend","Friend","Close","m",598.109600017779,0.598109600017779,1
"P30B",2,18,"You","Matching",NA,NA,NA,"Self","Self","Self","c",491.116500023054,0.491116500023054,1
"P30B",2,19,"Friend","Matching","Friend","Friend","Close","Friend","Friend","Close","m",484.244199993555,0.484244199993555,0
"P30B",2,20,"Friend","Nonmatching","Friend","Friend","Close","Self","Self","Self","m",685.43499999214,0.68543499999214,1
"P30B",2,21,"You","Matching",NA,NA,NA,"Self","Self","Self","c",494.092000008095,0.494092000008095,1
"P30B",2,22,"Stranger","Matching","Stranger","Stranger","Stranger","Stranger","Stranger","Stranger","m",726.206699997419,0.726206699997419,0
"P30B",2,23,"You","Nonmatching",NA,NA,NA,"Stranger","Stranger","Stranger","None",NA,NA,0
"P30B",2,24,"Friend","Matching","Friend","Friend","Close","Friend","Friend","Close","m",543.834099982632,0.543834099982632,0
"P30B",2,25,"Friend","Nonmatching","Friend","Friend","Close","Stranger","Stranger","Stranger","m",982.263799989596,0.982263799989596,1
"P30B",2,26,"You","Nonmatching",NA,NA,NA,"Stranger","Stranger","Stranger","m",745.310599973891,0.745310599973891,1
"P30B",2,27,"You","Matching",NA,NA,NA,"Self","Self","Self","c",554.227499989793,0.554227499989793,1
"P30B",2,28,"Friend","Matching","Friend","Friend","Close","Friend","Friend","Close","c",865.220799983945,0.865220799983945,1
"P30B",2,29,"Stranger","Matching","Stranger","Stranger","Stranger","Stranger","Stranger","Stranger","c",634.239100007107,0.634239100007107,1
"P30B",2,30,"Stranger","Matching","Stranger","Stranger","Stranger","Stranger","Stranger","Stranger","c",350.074999994831,0.350074999994831,1
"P30B",2,31,"Friend","Matching","Friend","Friend","Close","Friend","Friend","Close","m",428.459300019313,0.428459300019313,0
"P30B",2,32,"Stranger","Nonmatching","Stranger","Stranger","Stranger","Self","Self","Self","m",631.870399985928,0.631870399985928,1
"P30B",2,33,"You","Matching",NA,NA,NA,"Self","Self","Self","c",522.531499998877,0.522531499998877,1
"P30B",2,34,"Stranger","Nonmatching","Stranger","Stranger","Stranger","Friend","Friend","Close","m",609.356500004651,0.609356500004651,1
"P30B",2,35,"Friend","Nonmatching","Friend","Friend","Close","Self","Self","Self","c",709.932700003264,0.709932700003264,0
"P30B",2,36,"You","Nonmatching",NA,NA,NA,"Friend","Friend","Close","m",821.848199993838,0.821848199993838,1
"P30B",2,37,"Stranger","Nonmatching","Stranger","Stranger","Stranger","Friend","Friend","Close","m",737.018799991347,0.737018799991347,1
"P30B",2,38,"Friend","Matching","Friend","Friend","Close","Friend","Friend","Close","c",975.434099993436,0.975434099993436,1
"P30B",2,39,"Stranger","Matching","Stranger","Stranger","Stranger","Stranger","Stranger","Stranger","c",516.583999997238,0.516583999997238,1
"P30B",2,40,"You","Nonmatching",NA,NA,NA,"Friend","Friend","Close","m",782.450400001835,0.782450400001835,1
"P30B",2,41,"You","Matching",NA,NA,NA,"Self","Self","Self","c",554.243899998255,0.554243899998255,1
"P30B",2,42,"You","Matching",NA,NA,NA,"Self","Self","Self","c",431.732800003374,0.431732800003374,1
"P30B",2,43,"Friend","Matching","Friend","Friend","Close","Friend","Friend","Close","c",684.281299996655,0.684281299996655,1
"P30B",2,44,"Friend","Nonmatching","Friend","Friend","Close","Stranger","Stranger","Stranger","m",749.192599992966,0.749192599992966,1
"P30B",2,45,"Stranger","Nonmatching","Stranger","Stranger","Stranger","Self","Self","Self","c",556.2871999864,0.5562871999864,0
"P30B",2,46,"You","Nonmatching",NA,NA,NA,"Stranger","Stranger","Stranger","m",1378.10830000672,1.37810830000672,1
"P30B",2,47,"Friend","Nonmatching","Friend","Friend","Close","Self","Self","Self","m",726.506300008623,0.726506300008623,1
"P30B",2,48,"Stranger","Matching","Stranger","Stranger","Stranger","Stranger","Stranger","Stranger","c",788.62669999944,0.78862669999944,1
"P30B",2,49,"You","Matching",NA,NA,NA,"Self","Self","Self","c",481.480899994494,0.481480899994494,1
"P30B",2,50,"You","Nonmatching",NA,NA,NA,"Friend","Friend","Close","m",491.136199998436,0.491136199998436,1
"P30B",2,51,"You","Nonmatching",NA,NA,NA,"Stranger","Stranger","Stranger","m",788.851899997098,0.788851899997098,1
"P30B",2,52,"Stranger","Nonmatching","Stranger","Stranger","Stranger","Self","Self","Self","c",464.80290000909,0.46480290000909,0
"P30B",2,53,"Stranger","Matching","Stranger","Stranger","Stranger","Stranger","Stranger","Stranger","c",508.283899980597,0.508283899980597,1
"P30B",2,54,"Stranger","Matching","Stranger","Stranger","Stranger","Stranger","Stranger","Stranger","c",548.142499988899,0.548142499988899,1
"P30B",2,55,"Stranger","Nonmatching","Stranger","Stranger","Stranger","Friend","Friend","Close","c",298.858199996175,0.298858199996175,0
"P30B",2,56,"Friend","Nonmatching","Friend","Friend","Close","Stranger","Stranger","Stranger","c",267.753199994331,0.267753199994331,0
"P30B",2,57,"Friend","Matching","Friend","Friend","Close","Friend","Friend","Close","m",540.878100000555,0.540878100000555,0
"P30B",2,58,"Friend","Matching","Friend","Friend","Close","Friend","Friend","Close","c",612.754100002348,0.612754100002348,1
"P30B",2,59,"You","Matching",NA,NA,NA,"Self","Self","Self","c",471.48219999508,0.47148219999508,1
"P30B",2,60,"Friend","Nonmatching","Friend","Friend","Close","Self","Self","Self","m",673.974500008626,0.673974500008626,1
"P30B",2,61,"Stranger","Matching","Stranger","Stranger","Stranger","Stranger","Stranger","Stranger","c",594.142799993278,0.594142799993278,1
"P30B",2,62,"Stranger","Nonmatching","Stranger","Stranger","Stranger","Friend","Friend","Close","m",631.329199997708,0.631329199997708,1
"P30B",2,63,"Friend","Nonmatching","Friend","Friend","Close","Stranger","Stranger","Stranger","c",426.69679998653,0.42669679998653,0
"P30B",2,64,"You","Nonmatching",NA,NA,NA,"Friend","Friend","Close","m",676.857999991626,0.676857999991626,1
"P30B",2,65,"You","Matching",NA,NA,NA,"Self","Self","Self","c",470.009399985429,0.470009399985429,1
"P30B",2,66,"Friend","Matching","Friend","Friend","Close","Friend","Friend","Close","c",576.555799983907,0.576555799983907,1
"P30B",2,67,"You","Matching",NA,NA,NA,"Self","Self","Self","c",805.50110002514,0.80550110002514,1
"P30B",2,68,"Stranger","Matching","Stranger","Stranger","Stranger","Stranger","Stranger","Stranger","c",626.250700006494,0.626250700006494,1
"P30B",2,69,"Friend","Matching","Friend","Friend","Close","Friend","Friend","Close","m",614.797800022643,0.614797800022643,0
"P30B",2,70,"Stranger","Nonmatching","Stranger","Stranger","Stranger","Self","Self","Self","c",488.582299993141,0.488582299993141,0
"P30B",2,71,"You","Nonmatching",NA,NA,NA,"Stranger","Stranger","Stranger","c",481.326199980685,0.481326199980685,0
"P30B",2,72,"Friend","Nonmatching","Friend","Friend","Close","Self","Self","Self","m",779.627799987793,0.779627799987793,1
"P30B",2,73,"Friend","Nonmatching","Friend","Friend","Close","Stranger","Stranger","Stranger","m",648.936399986269,0.648936399986269,1
"P30B",2,74,"You","Nonmatching",NA,NA,NA,"Stranger","Stranger","Stranger","c",572.512199985795,0.572512199985795,0
"P30B",2,75,"Friend","Matching","Friend","Friend","Close","Friend","Friend","Close","c",785.366099997191,0.785366099997191,1
"P30B",2,76,"Friend","Nonmatching","Friend","Friend","Close","Self","Self","Self","m",766.254999994999,0.766254999994999,1
"P30B",2,77,"Stranger","Matching","Stranger","Stranger","Stranger","Stranger","Stranger","Stranger","c",619.311999995261,0.619311999995261,1
"P30B",2,78,"Stranger","Matching","Stranger","Stranger","Stranger","Stranger","Stranger","Stranger","c",271.03740000166,0.27103740000166,1
"P30B",2,79,"Stranger","Nonmatching","Stranger","Stranger","Stranger","Self","Self","Self","m",465.525499981595,0.465525499981595,1
"P30B",2,80,"Friend","Matching","Friend","Friend","Close","Friend","Friend","Close","m",490.283500024816,0.490283500024816,0
"P30B",2,81,"You","Matching",NA,NA,NA,"Self","Self","Self","c",452.213100012159,0.452213100012159,1
"P30B",2,82,"You","Matching",NA,NA,NA,"Self","Self","Self","c",654.505899990909,0.654505899990909,1
"P30B",2,83,"Stranger","Nonmatching","Stranger","Stranger","Stranger","Friend","Friend","Close","m",1216.38569998322,1.21638569998322,1
"P30B",2,84,"You","Nonmatching",NA,NA,NA,"Friend","Friend","Close","m",667.97690000385,0.66797690000385,1
"P30B",2,85,"Friend","Nonmatching","Friend","Friend","Close","Stranger","Stranger","Stranger","c",462.028100009775,0.462028100009775,0
"P30B",2,86,"You","Nonmatching",NA,NA,NA,"Friend","Friend","Close","m",728.113599994686,0.728113599994686,1
"P30B",2,87,"Stranger","Nonmatching","Stranger","Stranger","Stranger","Self","Self","Self","m",727.086300001247,0.727086300001247,1
"P30B",2,88,"Stranger","Matching","Stranger","Stranger","Stranger","Stranger","Stranger","Stranger","c",502.376199990977,0.502376199990977,1
"P30B",2,89,"You","Matching",NA,NA,NA,"Self","Self","Self","c",527.811700012535,0.527811700012535,1
"P30B",2,90,"Friend","Matching","Friend","Friend","Close","Friend","Friend","Close","m",501.952799997525,0.501952799997525,0
"P30B",2,91,"You","Nonmatching",NA,NA,NA,"Stranger","Stranger","Stranger","c",590.887300000759,0.590887300000759,0
"P30B",2,92,"Friend","Nonmatching","Friend","Friend","Close","Self","Self","Self","None",NA,NA,0
"P30B",2,93,"Stranger","Matching","Stranger","Stranger","Stranger","Stranger","Stranger","Stranger","c",1222.72559997509,1.22272559997509,1
"P30B",2,94,"You","Matching",NA,NA,NA,"Self","Self","Self","c",593.15429997514,0.59315429997514,1
"P30B",2,95,"Friend","Matching","Friend","Friend","Close","Friend","Friend","Close","c",501.627999998163,0.501627999998163,1
"P30B",2,96,"Stranger","Nonmatching","Stranger","Stranger","Stranger","Friend","Friend","Close","m",734.101999987615,0.734101999987615,1
"P30B",2,97,"You","Matching",NA,NA,NA,"Self","Self","Self","c",381.472200009739,0.381472200009739,1
"P30B",2,98,"Stranger","Nonmatching","Stranger","Stranger","Stranger","Friend","Friend","Close","m",489.524299977347,0.489524299977347,1
"P30B",2,99,"You","Matching",NA,NA,NA,"Self","Self","Self","c",386.098299990408,0.386098299990408,1
"P30B",2,100,"Friend","Nonmatching","Friend","Friend","Close","Stranger","Stranger","Stranger","m",638.478799985023,0.638478799985023,1
"P30B",2,101,"Stranger","Matching","Stranger","Stranger","Stranger","Stranger","Stranger","Stranger","c",626.131700002588,0.626131700002588,1
"P30B",2,102,"Stranger","Matching","Stranger","Stranger","Stranger","Stranger","Stranger","Stranger","c",452.286700019613,0.452286700019613,1
"P30B",2,103,"You","Nonmatching",NA,NA,NA,"Stranger","Stranger","Stranger","c",239.248699974269,0.239248699974269,0
"P30B",2,104,"Friend","Matching","Friend","Friend","Close","Friend","Friend","Close","c",674.561499996344,0.674561499996344,1
"P30B",2,105,"Friend","Nonmatching","Friend","Friend","Close","Self","Self","Self","m",676.656099996762,0.676656099996762,1
"P30B",2,106,"Friend","Matching","Friend","Friend","Close","Friend","Friend","Close","c",1157.55989999161,1.15755989999161,1
"P30B",2,107,"Stranger","Nonmatching","Stranger","Stranger","Stranger","Self","Self","Self","m",660.461699997541,0.660461699997541,1
"P30B",2,108,"You","Nonmatching",NA,NA,NA,"Friend","Friend","Close","c",661.220299982233,0.661220299982233,0
"P30B",2,109,"Friend","Matching","Friend","Friend","Close","Friend","Friend","Close","m",775.280699977884,0.775280699977884,0
"P30B",2,110,"Friend","Nonmatching","Friend","Friend","Close","Self","Self","Self","m",804.493400006322,0.804493400006322,1
"P30B",2,111,"You","Nonmatching",NA,NA,NA,"Friend","Friend","Close","m",703.928599978099,0.703928599978099,1
"P30B",2,112,"Friend","Matching","Friend","Friend","Close","Friend","Friend","Close","c",704.111400002148,0.704111400002148,1
"P30B",2,113,"Stranger","Matching","Stranger","Stranger","Stranger","Stranger","Stranger","Stranger","c",496.200199995656,0.496200199995656,1
"P30B",2,114,"Stranger","Matching","Stranger","Stranger","Stranger","Stranger","Stranger","Stranger","c",425.56470001,0.42556470001,1
"P30B",2,115,"You","Matching",NA,NA,NA,"Self","Self","Self","c",499.808900000062,0.499808900000062,1
"P30B",2,116,"Stranger","Nonmatching","Stranger","Stranger","Stranger","Friend","Friend","Close","m",668.662900017807,0.668662900017807,1
"P30B",2,117,"Friend","Nonmatching","Friend","Friend","Close","Stranger","Stranger","Stranger","c",878.280100005213,0.878280100005213,0
"P30B",2,118,"You","Nonmatching",NA,NA,NA,"Stranger","Stranger","Stranger","m",807.114099996397,0.807114099996397,1
"P30B",2,119,"Stranger","Nonmatching","Stranger","Stranger","Stranger","Self","Self","Self","None",NA,NA,0
"P30B",2,120,"You","Matching",NA,NA,NA,"Self","Self","Self","c",534.804299997631,0.534804299997631,1
"P30B",3,1,"Stranger","Matching","Stranger","Stranger","Stranger","Stranger","Stranger","Stranger","c",634.037599986186,0.634037599986186,1
"P30B",3,2,"You","Matching",NA,NA,NA,"Self","Self","Self","c",813.504599995213,0.813504599995213,1
"P30B",3,3,"Stranger","Nonmatching","Stranger","Stranger","Stranger","Friend","Friend","Close","m",553.013900003862,0.553013900003862,1
"P30B",3,4,"Friend","Matching","Friend","Friend","Close","Friend","Friend","Close","c",670.093799970346,0.670093799970346,1
"P30B",3,5,"You","Nonmatching",NA,NA,NA,"Stranger","Stranger","Stranger","m",656.101100001251,0.656101100001251,1
"P30B",3,6,"Stranger","Nonmatching","Stranger","Stranger","Stranger","Self","Self","Self","c",433.497799996985,0.433497799996985,0
"P30B",3,7,"Friend","Nonmatching","Friend","Friend","Close","Stranger","Stranger","Stranger","m",621.587499976158,0.621587499976158,1
"P30B",3,8,"Friend","Nonmatching","Friend","Friend","Close","Self","Self","Self","m",801.245799986646,0.801245799986646,1
"P30B",3,9,"Friend","Matching","Friend","Friend","Close","Friend","Friend","Close","c",477.799500018591,0.477799500018591,1
"P30B",3,10,"You","Matching",NA,NA,NA,"Self","Self","Self","c",632.405300013488,0.632405300013488,1
"P30B",3,11,"You","Nonmatching",NA,NA,NA,"Friend","Friend","Close","m",523.397400014801,0.523397400014801,1
"P30B",3,12,"Stranger","Matching","Stranger","Stranger","Stranger","Stranger","Stranger","Stranger","c",688.989499991294,0.688989499991294,1
"P30B",3,13,"Friend","Matching","Friend","Friend","Close","Friend","Friend","Close","c",786.286099988502,0.786286099988502,1
"P30B",3,14,"Stranger","Nonmatching","Stranger","Stranger","Stranger","Self","Self","Self","m",975.030799978413,0.975030799978413,1
"P30B",3,15,"Stranger","Matching","Stranger","Stranger","Stranger","Stranger","Stranger","Stranger","c",660.099500004435,0.660099500004435,1
"P30B",3,16,"Friend","Nonmatching","Friend","Friend","Close","Stranger","Stranger","Stranger","m",805.942800012417,0.805942800012417,1
"P30B",3,17,"You","Nonmatching",NA,NA,NA,"Stranger","Stranger","Stranger","c",465.565300022718,0.465565300022718,0
"P30B",3,18,"Stranger","Matching","Stranger","Stranger","Stranger","Stranger","Stranger","Stranger","c",507.777299993904,0.507777299993904,1
"P30B",3,19,"You","Matching",NA,NA,NA,"Self","Self","Self","c",483.953299990389,0.483953299990389,1
"P30B",3,20,"You","Matching",NA,NA,NA,"Self","Self","Self","c",557.680099998834,0.557680099998834,1
"P30B",3,21,"Stranger","Nonmatching","Stranger","Stranger","Stranger","Friend","Friend","Close","m",674.529399984749,0.674529399984749,1
"P30B",3,22,"You","Nonmatching",NA,NA,NA,"Friend","Friend","Close","m",756.103599997004,0.756103599997004,1
"P30B",3,23,"Friend","Matching","Friend","Friend","Close","Friend","Friend","Close","c",768.822599988198,0.768822599988198,1
"P30B",3,24,"Friend","Nonmatching","Friend","Friend","Close","Self","Self","Self","m",703.419400000712,0.703419400000712,1
"P30B",3,25,"Stranger","Nonmatching","Stranger","Stranger","Stranger","Friend","Friend","Close","m",638.461199996527,0.638461199996527,1
"P30B",3,26,"Friend","Matching","Friend","Friend","Close","Friend","Friend","Close","c",1282.40830000141,1.28240830000141,1
"P30B",3,27,"Stranger","Matching","Stranger","Stranger","Stranger","Stranger","Stranger","Stranger","c",859.087999997428,0.859087999997428,1
"P30B",3,28,"You","Matching",NA,NA,NA,"Self","Self","Self","c",468.430599983549,0.468430599983549,1
"P30B",3,29,"You","Nonmatching",NA,NA,NA,"Friend","Friend","Close","m",589.213299972471,0.589213299972471,1
"P30B",3,30,"Stranger","Nonmatching","Stranger","Stranger","Stranger","Self","Self","Self","c",450.043600023491,0.450043600023491,0
"P30B",3,31,"Friend","Matching","Friend","Friend","Close","Friend","Friend","Close","c",909.044499974698,0.909044499974698,1
"P30B",3,32,"You","Matching",NA,NA,NA,"Self","Self","Self","c",485.085699998308,0.485085699998308,1
"P30B",3,33,"You","Nonmatching",NA,NA,NA,"Stranger","Stranger","Stranger","m",653.637399984291,0.653637399984291,1
"P30B",3,34,"Friend","Nonmatching","Friend","Friend","Close","Self","Self","Self","m",655.159899994032,0.655159899994032,1
"P30B",3,35,"Stranger","Matching","Stranger","Stranger","Stranger","Stranger","Stranger","Stranger","c",465.60959998169,0.46560959998169,1
"P30B",3,36,"Friend","Nonmatching","Friend","Friend","Close","Stranger","Stranger","Stranger","m",571.572899993043,0.571572899993043,1
"P30B",3,37,"You","Nonmatching",NA,NA,NA,"Friend","Friend","Close","m",1233.04969997844,1.23304969997844,1
"P30B",3,38,"Stranger","Matching","Stranger","Stranger","Stranger","Stranger","Stranger","Stranger","c",619.881599996006,0.619881599996006,1
"P30B",3,39,"You","Matching",NA,NA,NA,"Self","Self","Self","c",591.430700005731,0.591430700005731,1
"P30B",3,40,"Stranger","Nonmatching","Stranger","Stranger","Stranger","Self","Self","Self","m",818.99660002091,0.81899660002091,1
"P30B",3,41,"Friend","Nonmatching","Friend","Friend","Close","Self","Self","Self","c",1022.95009998488,1.02295009998488,0
"P30B",3,42,"Friend","Matching","Friend","Friend","Close","Friend","Friend","Close","c",817.590699996799,0.817590699996799,1
"P30B",3,43,"Friend","Nonmatching","Friend","Friend","Close","Stranger","Stranger","Stranger","m",589.440800016746,0.589440800016746,1
"P30B",3,44,"Friend","Matching","Friend","Friend","Close","Friend","Friend","Close","c",673.564899974735,0.673564899974735,1
"P30B",3,45,"Stranger","Matching","Stranger","Stranger","Stranger","Stranger","Stranger","Stranger","None",NA,NA,0
"P30B",3,46,"Stranger","Nonmatching","Stranger","Stranger","Stranger","Friend","Friend","Close","m",658.565999998245,0.658565999998245,1
"P30B",3,47,"You","Matching",NA,NA,NA,"Self","Self","Self","c",452.25470000878,0.45225470000878,1
"P30B",3,48,"You","Nonmatching",NA,NA,NA,"Stranger","Stranger","Stranger","m",591.001599997981,0.591001599997981,1
"P30B",3,49,"Friend","Nonmatching","Friend","Friend","Close","Stranger","Stranger","Stranger","m",675.728000001982,0.675728000001982,1
"P30B",3,50,"You","Nonmatching",NA,NA,NA,"Stranger","Stranger","Stranger","c",581.20109999436,0.58120109999436,0
"P30B",3,51,"Friend","Nonmatching","Friend","Friend","Close","Self","Self","Self","m",522.717499989085,0.522717499989085,1
"P30B",3,52,"Stranger","Nonmatching","Stranger","Stranger","Stranger","Friend","Friend","Close","m",641.075599996839,0.641075599996839,1
"P30B",3,53,"Stranger","Matching","Stranger","Stranger","Stranger","Stranger","Stranger","Stranger","m",611.614900000859,0.611614900000859,0
"P30B",3,54,"You","Matching",NA,NA,NA,"Self","Self","Self","c",600.385300000198,0.600385300000198,1
"P30B",3,55,"Friend","Matching","Friend","Friend","Close","Friend","Friend","Close","m",460.50329998252,0.46050329998252,0
"P30B",3,56,"You","Nonmatching",NA,NA,NA,"Friend","Friend","Close","m",711.501299985684,0.711501299985684,1
"P30B",3,57,"Friend","Matching","Friend","Friend","Close","Friend","Friend","Close","c",773.632399999769,0.773632399999769,1
"P30B",3,58,"Stranger","Nonmatching","Stranger","Stranger","Stranger","Self","Self","Self","m",722.330299991881,0.722330299991881,1
"P30B",3,59,"You","Matching",NA,NA,NA,"Self","Self","Self","c",498.728100006701,0.498728100006701,1
"P30B",3,60,"Stranger","Matching","Stranger","Stranger","Stranger","Stranger","Stranger","Stranger","c",570.657900010701,0.570657900010701,1
"P30B",3,61,"Friend","Nonmatching","Friend","Friend","Close","Stranger","Stranger","Stranger","c",449.010399985127,0.449010399985127,0
"P30B",3,62,"Friend","Nonmatching","Friend","Friend","Close","Self","Self","Self","c",619.386100006523,0.619386100006523,0
"P30B",3,63,"You","Nonmatching",NA,NA,NA,"Friend","Friend","Close","m",829.81799999834,0.82981799999834,1
"P30B",3,64,"Stranger","Matching","Stranger","Stranger","Stranger","Stranger","Stranger","Stranger","c",745.177399978274,0.745177399978274,1
"P30B",3,65,"Stranger","Nonmatching","Stranger","Stranger","Stranger","Friend","Friend","Close","m",615.535799995996,0.615535799995996,1
"P30B",3,66,"Friend","Matching","Friend","Friend","Close","Friend","Friend","Close","c",588.030999992043,0.588030999992043,1
"P30B",3,67,"You","Nonmatching",NA,NA,NA,"Stranger","Stranger","Stranger","m",704.595999995945,0.704595999995945,1
"P30B",3,68,"Stranger","Nonmatching","Stranger","Stranger","Stranger","Self","Self","Self","c",480.681899993215,0.480681899993215,0
"P30B",3,69,"You","Matching",NA,NA,NA,"Self","Self","Self","c",569.934400002239,0.569934400002239,1
"P30B",3,70,"Friend","Matching","Friend","Friend","Close","Friend","Friend","Close","c",560.203900007764,0.560203900007764,1
"P30B",3,71,"You","Matching",NA,NA,NA,"Self","Self","Self","c",581.59539999906,0.58159539999906,1
"P30B",3,72,"Stranger","Matching","Stranger","Stranger","Stranger","Stranger","Stranger","Stranger","c",540.704499988351,0.540704499988351,1
"P30B",3,73,"Stranger","Matching","Stranger","Stranger","Stranger","Stranger","Stranger","Stranger","c",611.270699999295,0.611270699999295,1
"P30B",3,74,"You","Matching",NA,NA,NA,"Self","Self","Self","c",532.818799983943,0.532818799983943,1
"P30B",3,75,"Stranger","Matching","Stranger","Stranger","Stranger","Stranger","Stranger","Stranger","c",557.636699988507,0.557636699988507,1
"P30B",3,76,"Friend","Nonmatching","Friend","Friend","Close","Self","Self","Self","c",417.928900016705,0.417928900016705,0
"P30B",3,77,"You","Nonmatching",NA,NA,NA,"Stranger","Stranger","Stranger","m",781.229299987899,0.781229299987899,1
"P30B",3,78,"Stranger","Nonmatching","Stranger","Stranger","Stranger","Friend","Friend","Close","m",843.363899999531,0.843363899999531,1
"P30B",3,79,"Friend","Matching","Friend","Friend","Close","Friend","Friend","Close","c",596.816500008572,0.596816500008572,1
"P30B",3,80,"You","Nonmatching",NA,NA,NA,"Friend","Friend","Close","m",538.956299977144,0.538956299977144,1
"P30B",3,81,"You","Matching",NA,NA,NA,"Self","Self","Self","c",736.907099984819,0.736907099984819,1
"P30B",3,82,"Stranger","Nonmatching","Stranger","Stranger","Stranger","Self","Self","Self","c",575.75160000124,0.57575160000124,0
"P30B",3,83,"Friend","Nonmatching","Friend","Friend","Close","Stranger","Stranger","Stranger","m",693.42759999563,0.69342759999563,1
"P30B",3,84,"Friend","Matching","Friend","Friend","Close","Friend","Friend","Close","c",484.92850002367,0.48492850002367,1
"P30B",3,85,"Friend","Matching","Friend","Friend","Close","Friend","Friend","Close","c",510.582199989585,0.510582199989585,1
"P30B",3,86,"You","Nonmatching",NA,NA,NA,"Stranger","Stranger","Stranger","m",598.159299988765,0.598159299988765,1
"P30B",3,87,"You","Matching",NA,NA,NA,"Self","Self","Self","c",507.610299973749,0.507610299973749,1
"P30B",3,88,"Stranger","Nonmatching","Stranger","Stranger","Stranger","Friend","Friend","Close","m",867.519899999024,0.867519899999024,1
"P30B",3,89,"Stranger","Matching","Stranger","Stranger","Stranger","Stranger","Stranger","Stranger","c",1261.44220001879,1.26144220001879,1
"P30B",3,90,"You","Matching",NA,NA,NA,"Self","Self","Self","c",726.376699982211,0.726376699982211,1
"P30B",3,91,"Friend","Nonmatching","Friend","Friend","Close","Stranger","Stranger","Stranger","m",581.658900016919,0.581658900016919,1
"P30B",3,92,"Stranger","Matching","Stranger","Stranger","Stranger","Stranger","Stranger","Stranger","c",682.586799986893,0.682586799986893,1
"P30B",3,93,"Stranger","Nonmatching","Stranger","Stranger","Stranger","Self","Self","Self","m",587.512500002049,0.587512500002049,1
"P30B",3,94,"Friend","Matching","Friend","Friend","Close","Friend","Friend","Close","c",543.663899996318,0.543663899996318,1
"P30B",3,95,"Friend","Nonmatching","Friend","Friend","Close","Self","Self","Self","m",631.590900011361,0.631590900011361,1
"P30B",3,96,"You","Nonmatching",NA,NA,NA,"Friend","Friend","Close","c",618.252499989467,0.618252499989467,0
"P30B",3,97,"You","Nonmatching",NA,NA,NA,"Friend","Friend","Close","m",847.106000001077,0.847106000001077,1
"P30B",3,98,"Stranger","Nonmatching","Stranger","Stranger","Stranger","Self","Self","Self","m",601.121499988949,0.601121499988949,1
"P30B",3,99,"Friend","Nonmatching","Friend","Friend","Close","Stranger","Stranger","Stranger","m",541.075700020883,0.541075700020883,1
"P30B",3,100,"Friend","Nonmatching","Friend","Friend","Close","Self","Self","Self","m",851.09020001255,0.85109020001255,1
"P30B",3,101,"Stranger","Matching","Stranger","Stranger","Stranger","Stranger","Stranger","Stranger","c",654.125000000931,0.654125000000931,1
"P30B",3,102,"Friend","Matching","Friend","Friend","Close","Friend","Friend","Close","c",639.773599978071,0.639773599978071,1
"P30B",3,103,"Stranger","Nonmatching","Stranger","Stranger","Stranger","Friend","Friend","Close","m",659.30150001077,0.65930150001077,1
"P30B",3,104,"You","Nonmatching",NA,NA,NA,"Stranger","Stranger","Stranger","m",581.917699979385,0.581917699979385,1
"P30B",3,105,"You","Matching",NA,NA,NA,"Self","Self","Self","c",859.024000004865,0.859024000004865,1
"P30B",3,106,"Stranger","Matching","Stranger","Stranger","Stranger","Stranger","Stranger","Stranger","c",563.995200005593,0.563995200005593,1
"P30B",3,107,"Friend","Matching","Friend","Friend","Close","Friend","Friend","Close","c",666.085899982136,0.666085899982136,1
"P30B",3,108,"You","Matching",NA,NA,NA,"Self","Self","Self","c",1051.96650000289,1.05196650000289,1
"P30B",3,109,"You","Matching",NA,NA,NA,"Self","Self","Self","c",542.155200004345,0.542155200004345,1
"P30B",3,110,"You","Nonmatching",NA,NA,NA,"Friend","Friend","Close","m",629.307199997129,0.629307199997129,1
"P30B",3,111,"Friend","Nonmatching","Friend","Friend","Close","Stranger","Stranger","Stranger","m",727.393700013636,0.727393700013636,1
"P30B",3,112,"Friend","Matching","Friend","Friend","Close","Friend","Friend","Close","c",566.929499997059,0.566929499997059,1
"P30B",3,113,"Friend","Matching","Friend","Friend","Close","Friend","Friend","Close","c",510.789099993417,0.510789099993417,1
"P30B",3,114,"Stranger","Matching","Stranger","Stranger","Stranger","Stranger","Stranger","Stranger","c",629.747399972985,0.629747399972985,1
"P30B",3,115,"Stranger","Matching","Stranger","Stranger","Stranger","Stranger","Stranger","Stranger","c",457.408999995096,0.457408999995096,1
"P30B",3,116,"Stranger","Nonmatching","Stranger","Stranger","Stranger","Self","Self","Self","m",676.058500015642,0.676058500015642,1
"P30B",3,117,"You","Matching",NA,NA,NA,"Self","Self","Self","c",932.552599988412,0.932552599988412,1
"P30B",3,118,"Stranger","Nonmatching","Stranger","Stranger","Stranger","Friend","Friend","Close","m",571.324699994875,0.571324699994875,1
"P30B",3,119,"Friend","Nonmatching","Friend","Friend","Close","Self","Self","Self","c",560.749500000384,0.560749500000384,0
"P30B",3,120,"You","Nonmatching",NA,NA,NA,"Stranger","Stranger","Stranger","m",726.165100000799,0.726165100000799,1
"p1",1,1,"You","Nonmatching",NA,NA,NA,"Stranger","Stranger","Stranger","m",620.017200242728,0.620017200242728,1
"p1",1,2,"Friend","Matching","Friend","Friend","Close","Friend","Friend","Close","c",623.639400117099,0.623639400117099,1
"p1",1,3,"You","Matching",NA,NA,NA,"Self","Self","Self","m",466.877800412476,0.466877800412476,0
"p1",1,4,"Stranger","Nonmatching","Stranger","Stranger","Stranger","Self","Self","Self","m",684.879600070417,0.684879600070417,1
"p1",1,5,"Friend","Nonmatching","Friend","Friend","Close","Stranger","Stranger","Stranger","c",574.197100009769,0.574197100009769,0
"p1",1,6,"Friend","Nonmatching","Friend","Friend","Close","Self","Self","Self","m",579.42369999364,0.57942369999364,1
"p1",1,7,"Stranger","Nonmatching","Stranger","Stranger","Stranger","Friend","Friend","Close","c",648.786200210452,0.648786200210452,0
"p1",1,8,"Stranger","Matching","Stranger","Stranger","Stranger","Stranger","Stranger","Stranger","c",746.965299826115,0.746965299826115,1
"p1",1,9,"You","Nonmatching",NA,NA,NA,"Friend","Friend","Close","m",776.994599960744,0.776994599960744,1
"p1",1,10,"Friend","Matching","Friend","Friend","Close","Friend","Friend","Close","m",726.445399690419,0.726445399690419,0
"p1",1,11,"You","Matching",NA,NA,NA,"Self","Self","Self","c",917.627000249922,0.917627000249922,1
"p1",1,12,"Stranger","Matching","Stranger","Stranger","Stranger","Stranger","Stranger","Stranger","c",829.522999934852,0.829522999934852,1
"p1",1,13,"Stranger","Nonmatching","Stranger","Stranger","Stranger","Self","Self","Self","m",536.644000094384,0.536644000094384,1
"p1",1,14,"Stranger","Nonmatching","Stranger","Stranger","Stranger","Friend","Friend","Close","m",670.600700192153,0.670600700192153,1
"p1",1,15,"Friend","Nonmatching","Friend","Friend","Close","Stranger","Stranger","Stranger","c",527.288099750876,0.527288099750876,0
"p1",1,16,"You","Matching",NA,NA,NA,"Self","Self","Self","c",534.556400030851,0.534556400030851,1
"p1",1,17,"Friend","Matching","Friend","Friend","Close","Friend","Friend","Close","m",525.976200122386,0.525976200122386,0
"p1",1,18,"You","Nonmatching",NA,NA,NA,"Friend","Friend","Close","c",245.471999980509,0.245471999980509,0
"p1",1,19,"Stranger","Matching","Stranger","Stranger","Stranger","Stranger","Stranger","Stranger","m",824.103600345552,0.824103600345552,0
"p1",1,20,"Stranger","Matching","Stranger","Stranger","Stranger","Stranger","Stranger","Stranger","c",243.262900039554,0.243262900039554,1
"p1",1,21,"Friend","Nonmatching","Friend","Friend","Close","Self","Self","Self","m",660.675999708474,0.660675999708474,1
"p1",1,22,"You","Matching",NA,NA,NA,"Self","Self","Self","c",694.883800111711,0.694883800111711,1
"p1",1,23,"Friend","Matching","Friend","Friend","Close","Friend","Friend","Close","m",647.800100035965,0.647800100035965,0
"p1",1,24,"You","Nonmatching",NA,NA,NA,"Stranger","Stranger","Stranger","c",618.09610016644,0.61809610016644,0
"p1",1,25,"Friend","Nonmatching","Friend","Friend","Close","Self","Self","Self","m",558.210900053382,0.558210900053382,1
"p1",1,26,"Stranger","Matching","Stranger","Stranger","Stranger","Stranger","Stranger","Stranger","c",643.528200220317,0.643528200220317,1
"p1",1,27,"Friend","Matching","Friend","Friend","Close","Friend","Friend","Close","m",693.944900296628,0.693944900296628,0
"p1",1,28,"You","Nonmatching",NA,NA,NA,"Stranger","Stranger","Stranger","c",469.919700175524,0.469919700175524,0
"p1",1,29,"Friend","Nonmatching","Friend","Friend","Close","Stranger","Stranger","Stranger","c",703.348400071263,0.703348400071263,0
"p1",1,30,"You","Nonmatching",NA,NA,NA,"Friend","Friend","Close","m",943.206800147891,0.943206800147891,1
"p1",1,31,"Stranger","Nonmatching","Stranger","Stranger","Stranger","Self","Self","Self","m",725.212700199336,0.725212700199336,1
"p1",1,32,"Stranger","Nonmatching","Stranger","Stranger","Stranger","Friend","Friend","Close","m",548.129700124264,0.548129700124264,1
"p1",1,33,"You","Matching",NA,NA,NA,"Self","Self","Self","c",506.92250020802,0.50692250020802,1
"p1",1,34,"You","Matching",NA,NA,NA,"Self","Self","Self","c",642.968600150198,0.642968600150198,1
"p1",1,35,"Friend","Matching","Friend","Friend","Close","Friend","Friend","Close","m",661.578000057489,0.661578000057489,0
"p1",1,36,"Stranger","Matching","Stranger","Stranger","Stranger","Stranger","Stranger","Stranger","c",519.541000016034,0.519541000016034,1
"p1",1,37,"Stranger","Matching","Stranger","Stranger","Stranger","Stranger","Stranger","Stranger","m",734.978300053626,0.734978300053626,0
"p1",1,38,"You","Nonmatching",NA,NA,NA,"Stranger","Stranger","Stranger","m",718.165699858218,0.718165699858218,1
"p1",1,39,"Stranger","Nonmatching","Stranger","Stranger","Stranger","Friend","Friend","Close","c",478.033400140703,0.478033400140703,0
"p1",1,40,"You","Nonmatching",NA,NA,NA,"Friend","Friend","Close","c",663.446899969131,0.663446899969131,0
"p1",1,41,"You","Matching",NA,NA,NA,"Self","Self","Self","c",921.377299819142,0.921377299819142,1
"p1",1,42,"Friend","Matching","Friend","Friend","Close","Friend","Friend","Close","c",912.492999807,0.912492999807,1
"p1",1,43,"You","Matching",NA,NA,NA,"Self","Self","Self","m",488.166099879891,0.488166099879891,0
"p1",1,44,"Stranger","Nonmatching","Stranger","Stranger","Stranger","Self","Self","Self","c",705.054600257427,0.705054600257427,0
"p1",1,45,"Friend","Nonmatching","Friend","Friend","Close","Self","Self","Self","m",673.179400153458,0.673179400153458,1
"p1",1,46,"Friend","Matching","Friend","Friend","Close","Friend","Friend","Close","c",833.504499867558,0.833504499867558,1
"p1",1,47,"Friend","Nonmatching","Friend","Friend","Close","Stranger","Stranger","Stranger","m",572.616099845618,0.572616099845618,1
"p1",1,48,"Stranger","Matching","Stranger","Stranger","Stranger","Stranger","Stranger","Stranger","c",498.033299576491,0.498033299576491,1
"p1",1,49,"Friend","Nonmatching","Friend","Friend","Close","Self","Self","Self","m",570.696999784559,0.570696999784559,1
"p1",1,50,"You","Nonmatching",NA,NA,NA,"Friend","Friend","Close","c",543.438400141895,0.543438400141895,0
"p1",1,51,"Stranger","Matching","Stranger","Stranger","Stranger","Stranger","Stranger","Stranger","c",614.075500052422,0.614075500052422,1
"p1",1,52,"You","Matching",NA,NA,NA,"Self","Self","Self","m",442.054999992251,0.442054999992251,0
"p1",1,53,"Stranger","Nonmatching","Stranger","Stranger","Stranger","Friend","Friend","Close","c",500.832800287753,0.500832800287753,0
"p1",1,54,"Stranger","Matching","Stranger","Stranger","Stranger","Stranger","Stranger","Stranger","m",301.497000269592,0.301497000269592,0
"p1",1,55,"Friend","Matching","Friend","Friend","Close","Friend","Friend","Close","m",797.811700031161,0.797811700031161,0
"p1",1,56,"You","Nonmatching",NA,NA,NA,"Stranger","Stranger","Stranger","c",650.272199884057,0.650272199884057,0
"p1",1,57,"You","Matching",NA,NA,NA,"Self","Self","Self","m",620.863300282508,0.620863300282508,0
"p1",1,58,"Friend","Matching","Friend","Friend","Close","Friend","Friend","Close","m",814.629099797457,0.814629099797457,0
"p1",1,59,"Friend","Nonmatching","Friend","Friend","Close","Stranger","Stranger","Stranger","c",554.718900006264,0.554718900006264,0
"p1",1,60,"Stranger","Nonmatching","Stranger","Stranger","Stranger","Self","Self","Self","c",816.549200098962,0.816549200098962,0
"p1",1,61,"Stranger","Matching","Stranger","Stranger","Stranger","Stranger","Stranger","Stranger","c",636.603500228375,0.636603500228375,1
"p1",1,62,"Stranger","Nonmatching","Stranger","Stranger","Stranger","Self","Self","Self","m",639.102599583566,0.639102599583566,1
"p1",1,63,"Friend","Nonmatching","Friend","Friend","Close","Stranger","Stranger","Stranger","c",641.850000247359,0.641850000247359,0
"p1",1,64,"Stranger","Matching","Stranger","Stranger","Stranger","Stranger","Stranger","Stranger","m",580.369299743325,0.580369299743325,0
"p1",1,65,"You","Nonmatching",NA,NA,NA,"Stranger","Stranger","Stranger","c",393.008499871939,0.393008499871939,0
"p1",1,66,"You","Matching",NA,NA,NA,"Self","Self","Self","m",469.770399853587,0.469770399853587,0
"p1",1,67,"Friend","Nonmatching","Friend","Friend","Close","Self","Self","Self","c",575.114900246263,0.575114900246263,0
"p1",1,68,"You","Matching",NA,NA,NA,"Self","Self","Self","m",323.719500098377,0.323719500098377,0
"p1",1,69,"Stranger","Nonmatching","Stranger","Stranger","Stranger","Friend","Friend","Close","c",291.340199764818,0.291340199764818,0
"p1",1,70,"Friend","Matching","Friend","Friend","Close","Friend","Friend","Close","c",708.131599705666,0.708131599705666,1
"p1",1,71,"You","Nonmatching",NA,NA,NA,"Friend","Friend","Close","m",643.567600287497,0.643567600287497,1
"p1",1,72,"Friend","Matching","Friend","Friend","Close","Friend","Friend","Close","c",502.199599985033,0.502199599985033,1
"p1",1,73,"Stranger","Matching","Stranger","Stranger","Stranger","Stranger","Stranger","Stranger","m",575.165600050241,0.575165600050241,0
"p1",1,74,"You","Matching",NA,NA,NA,"Self","Self","Self","c",564.031299669296,0.564031299669296,1
"p1",1,75,"Stranger","Nonmatching","Stranger","Stranger","Stranger","Self","Self","Self","m",569.894399959594,0.569894399959594,1
"p1",1,76,"You","Nonmatching",NA,NA,NA,"Friend","Friend","Close","m",911.56560042873,0.91156560042873,1
"p1",1,77,"You","Nonmatching",NA,NA,NA,"Stranger","Stranger","Stranger","m",727.25690016523,0.72725690016523,1
"p1",1,78,"Friend","Matching","Friend","Friend","Close","Friend","Friend","Close","c",918.634300120175,0.918634300120175,1
"p1",1,79,"Stranger","Nonmatching","Stranger","Stranger","Stranger","Friend","Friend","Close","m",878.401699941605,0.878401699941605,1
"p1",1,80,"Friend","Matching","Friend","Friend","Close","Friend","Friend","Close","m",791.417299769819,0.791417299769819,0
"p1",1,81,"Friend","Nonmatching","Friend","Friend","Close","Self","Self","Self","m",803.997100330889,0.803997100330889,1
"p1",1,82,"Stranger","Matching","Stranger","Stranger","Stranger","Stranger","Stranger","Stranger","c",623.788400087506,0.623788400087506,1
"p1",1,83,"Friend","Nonmatching","Friend","Friend","Close","Stranger","Stranger","Stranger","m",706.947700120509,0.706947700120509,1
"p1",1,84,"You","Matching",NA,NA,NA,"Self","Self","Self","c",691.023400053382,0.691023400053382,1
"p1",1,85,"Friend","Nonmatching","Friend","Friend","Close","Stranger","Stranger","Stranger","m",979.706699959934,0.979706699959934,1
"p1",1,86,"You","Nonmatching",NA,NA,NA,"Friend","Friend","Close","c",759.911099914461,0.759911099914461,0
"p1",1,87,"Stranger","Matching","Stranger","Stranger","Stranger","Stranger","Stranger","Stranger","m",245.818800292909,0.245818800292909,0
"p1",1,88,"You","Matching",NA,NA,NA,"Self","Self","Self","c",296.681799925864,0.296681799925864,1
"p1",1,89,"Stranger","Nonmatching","Stranger","Stranger","Stranger","Friend","Friend","Close","m",568.063700105995,0.568063700105995,1
"p1",1,90,"Stranger","Matching","Stranger","Stranger","Stranger","Stranger","Stranger","Stranger","m",686.289899982512,0.686289899982512,0
"p1",1,91,"Friend","Matching","Friend","Friend","Close","Friend","Friend","Close","m",750.843500252813,0.750843500252813,0
"p1",1,92,"Stranger","Nonmatching","Stranger","Stranger","Stranger","Self","Self","Self","c",621.354899834841,0.621354899834841,0
"p1",1,93,"You","Matching",NA,NA,NA,"Self","Self","Self","m",639.9050001055,0.6399050001055,0
"p1",1,94,"Friend","Nonmatching","Friend","Friend","Close","Self","Self","Self","c",754.858999978751,0.754858999978751,0
"p1",1,95,"You","Nonmatching",NA,NA,NA,"Stranger","Stranger","Stranger","m",352.467400021851,0.352467400021851,1
"p1",1,96,"Friend","Matching","Friend","Friend","Close","Friend","Friend","Close","c",158.679499756545,0.158679499756545,1
"p1",1,97,"You","Nonmatching",NA,NA,NA,"Friend","Friend","Close","m",548.356600105762,0.548356600105762,1
