"Subject","Trial","Shape_Origin_Identity","Shape_English_Identity","Shape_Standardized_Identity","Matching","RT_ms","RT_sec","ACC"
995543569,5,"self","Self","Self","Nonmatching",968,0.968,1
995543569,7,"friend","Friend","Close","Matching",1116,1.116,0
995543569,9,"friend","Friend","Close","Nonmatching",1024,1.024,0
995543569,11,"friend","Friend","Close","Matching",954,0.954,1
995543569,13,"friend","Friend","Close","Nonmatching",865,0.865,1
995543569,15,"friend","Friend","Close","Matching",1046,1.046,1
995543569,17,"self","Self","Self","Nonmatching",582,0.582,1
995543569,19,"friend","Friend","Close","Nonmatching",545,0.545,0
995543569,21,"self","Self","Self","Nonmatching",802,0.802,1
995543569,23,"self","Self","Self","Nonmatching",966,0.966,1
995543569,27,"friend","Friend","Close","Matching",663,0.663,1
995543569,29,"self","Self","Self","Nonmatching",781,0.781,1
995543569,31,"self","Self","Self","Matching",742,0.742,1
995543569,33,"self","Self","Self","Matching",736,0.736,1
995543569,35,"self","Self","Self","Matching",415,0.415,1
995543569,37,"friend","Friend","Close","Nonmatching",545,0.545,0
995543569,39,"self","Self","Self","Matching",513,0.513,1
995543569,41,"friend","Friend","Close","Matching",761,0.761,0
995543569,43,"friend","Friend","Close","Matching",1146,1.146,1
995543569,45,"friend","Friend","Close","Matching",822,0.822,1
995543569,47,"self","Self","Self","Matching",538,0.538,1
995543569,49,"self","Self","Self","Matching",599,0.599,1
995543569,51,"friend","Friend","Close","Matching",826,0.826,1
995543569,53,"friend","Friend","Close","Nonmatching",657,0.657,1
995543569,55,"self","Self","Self","Nonmatching",1105,1.105,1
995543569,59,"friend","Friend","Close","Nonmatching",844,0.844,1
995543569,61,"self","Self","Self","Nonmatching",1111,1.111,1
995543569,63,"friend","Friend","Close","Nonmatching",602,0.602,1
995543569,65,"friend","Friend","Close","Nonmatching",790,0.79,1
995543569,67,"friend","Friend","Close","Nonmatching",502,0.502,1
995543569,69,"friend","Friend","Close","Matching",494,0.494,1
995543569,71,"self","Self","Self","Matching",624,0.624,1
995543569,73,"self","Self","Self","Matching",477,0.477,1
995543569,75,"friend","Friend","Close","Nonmatching",784,0.784,1
995543569,77,"self","Self","Self","Nonmatching",729,0.729,1
995543569,79,"self","Self","Self","Nonmatching",824,0.824,1
995543569,81,"friend","Friend","Close","Matching",1019,1.019,1
995543569,83,"self","Self","Self","Nonmatching",513,0.513,1
995543569,85,"friend","Friend","Close","Nonmatching",391,0.391,0
995543569,87,"friend","Friend","Close","Matching",1080,1.08,1
995543569,89,"self","Self","Self","Nonmatching",843,0.843,1
995543569,91,"self","Self","Self","Matching",495,0.495,1
995543569,93,"self","Self","Self","Nonmatching",541,0.541,1
995543569,95,"self","Self","Self","Nonmatching",718,0.718,1
995543569,97,"self","Self","Self","Matching",543,0.543,1
995543569,99,"friend","Friend","Close","Matching",972,0.972,1
995543569,101,"friend","Friend","Close","Matching",366,0.366,1
995543569,103,"self","Self","Self","Nonmatching",510,0.51,1
995543569,105,"friend","Friend","Close","Nonmatching",474,0.474,0
995543569,107,"self","Self","Self","Matching",1153,1.153,1
995543569,111,"self","Self","Self","Matching",1168,1.168,1
995543569,113,"friend","Friend","Close","Matching",488,0.488,1
995543569,115,"friend","Friend","Close","Nonmatching",765,0.765,1
995543569,117,"friend","Friend","Close","Matching",670,0.67,0
995543569,119,"self","Self","Self","Nonmatching",944,0.944,1
995543569,121,"self","Self","Self","Nonmatching",744,0.744,1
995543569,123,"self","Self","Self","Matching",611,0.611,1
995543569,125,"self","Self","Self","Matching",385,0.385,1
995543569,127,"self","Self","Self","Matching",394,0.394,1
995543569,129,"self","Self","Self","Matching",413,0.413,1
995543569,131,"friend","Friend","Close","Matching",461,0.461,0
995543569,133,"self","Self","Self","Nonmatching",674,0.674,0
995543569,135,"self","Self","Self","Matching",566,0.566,1
995543569,137,"friend","Friend","Close","Nonmatching",816,0.816,1
995543569,139,"friend","Friend","Close","Nonmatching",768,0.768,1
995543569,141,"self","Self","Self","Matching",534,0.534,1
995543569,143,"friend","Friend","Close","Nonmatching",701,0.701,1
995543569,145,"friend","Friend","Close","Matching",686,0.686,1
995543569,147,"self","Self","Self","Nonmatching",913,0.913,1
995543569,151,"friend","Friend","Close","Nonmatching",686,0.686,1
995543569,153,"self","Self","Self","Matching",413,0.413,1
995543569,155,"friend","Friend","Close","Matching",942,0.942,1
995543569,157,"self","Self","Self","Matching",594,0.594,1
995543569,159,"friend","Friend","Close","Matching",410,0.41,1
995543569,161,"friend","Friend","Close","Matching",539,0.539,1
995543569,163,"self","Self","Self","Nonmatching",561,0.561,1
995543569,165,"friend","Friend","Close","Matching",559,0.559,1
995543569,167,"friend","Friend","Close","Matching",507,0.507,1
995543569,169,"self","Self","Self","Nonmatching",497,0.497,0
995543569,171,"friend","Friend","Close","Nonmatching",861,0.861,1
995543569,173,"friend","Friend","Close","Matching",1031,1.031,1
995543569,175,"friend","Friend","Close","Matching",408,0.408,1
995543569,177,"friend","Friend","Close","Nonmatching",639,0.639,1
995543569,179,"self","Self","Self","Matching",387,0.387,1
995543569,181,"self","Self","Self","Nonmatching",621,0.621,1
995543569,183,"self","Self","Self","Nonmatching",1114,1.114,1
995543569,185,"friend","Friend","Close","Nonmatching",471,0.471,0
995543569,189,"self","Self","Self","Matching",985,0.985,1
995543569,191,"self","Self","Self","Nonmatching",608,0.608,1
995543569,193,"self","Self","Self","Nonmatching",449,0.449,1
995543569,195,"self","Self","Self","Matching",419,0.419,1
995543569,199,"self","Self","Self","Nonmatching",685,0.685,1
995543569,201,"friend","Friend","Close","Nonmatching",916,0.916,1
995543569,203,"friend","Friend","Close","Nonmatching",1182,1.182,1
995543569,205,"friend","Friend","Close","Nonmatching",493,0.493,1
995543569,207,"self","Self","Self","Matching",443,0.443,1
995543569,209,"self","Self","Self","Matching",369,0.369,1
995543569,211,"friend","Friend","Close","Nonmatching",263,0.263,0
995543569,213,"self","Self","Self","Matching",999,0.999,1
995543569,215,"self","Self","Self","Nonmatching",1051,1.051,1
995543569,217,"self","Self","Self","Matching",1007,1.007,1
995543569,219,"friend","Friend","Close","Nonmatching",735,0.735,1
995543569,221,"self","Self","Self","Nonmatching",611,0.611,1
995543569,223,"friend","Friend","Close","Nonmatching",834,0.834,1
995543569,225,"self","Self","Self","Matching",909,0.909,1
995543569,227,"friend","Friend","Close","Nonmatching",732,0.732,1
995543569,233,"self","Self","Self","Nonmatching",871,0.871,1
995543569,235,"friend","Friend","Close","Matching",807,0.807,0
995543569,237,"friend","Friend","Close","Nonmatching",713,0.713,1
995543569,239,"self","Self","Self","Matching",883,0.883,1
995543570,1,"friend","Friend","Close","Nonmatching",926,0.926,1
995543570,3,"friend","Friend","Close","Matching",776,0.776,1
995543570,5,"self","Self","Self","Nonmatching",918,0.918,1
995543570,7,"friend","Friend","Close","Nonmatching",733,0.733,1
995543570,9,"self","Self","Self","Nonmatching",837,0.837,1
995543570,11,"self","Self","Self","Nonmatching",650,0.65,1
995543570,13,"friend","Friend","Close","Matching",583,0.583,0
995543570,15,"friend","Friend","Close","Nonmatching",695,0.695,1
995543570,17,"friend","Friend","Close","Matching",808,0.808,1
995543570,19,"friend","Friend","Close","Matching",656,0.656,0
995543570,21,"friend","Friend","Close","Nonmatching",709,0.709,1
995543570,23,"friend","Friend","Close","Matching",1019,1.019,1
995543570,25,"friend","Friend","Close","Matching",731,0.731,1
995543570,27,"friend","Friend","Close","Matching",535,0.535,1
995543570,29,"self","Self","Self","Nonmatching",643,0.643,1
995543570,31,"self","Self","Self","Nonmatching",633,0.633,1
995543570,33,"self","Self","Self","Matching",534,0.534,1
995543570,35,"friend","Friend","Close","Nonmatching",764,0.764,1
995543570,37,"self","Self","Self","Nonmatching",816,0.816,1
995543570,39,"self","Self","Self","Matching",552,0.552,1
995543570,41,"self","Self","Self","Matching",463,0.463,1
995543570,43,"self","Self","Self","Matching",306,0.306,1
995543570,45,"self","Self","Self","Matching",297,0.297,1
995543570,47,"friend","Friend","Close","Nonmatching",548,0.548,1
995543570,49,"self","Self","Self","Nonmatching",703,0.703,1
995543570,51,"friend","Friend","Close","Nonmatching",827,0.827,1
995543570,53,"self","Self","Self","Matching",373,0.373,1
995543570,55,"self","Self","Self","Matching",462,0.462,1
995543570,57,"self","Self","Self","Matching",428,0.428,1
995543570,59,"self","Self","Self","Nonmatching",498,0.498,1
995543570,61,"self","Self","Self","Nonmatching",417,0.417,1
995543570,63,"self","Self","Self","Matching",582,0.582,1
995543570,65,"self","Self","Self","Nonmatching",500,0.5,1
995543570,67,"self","Self","Self","Matching",504,0.504,1
995543570,69,"friend","Friend","Close","Nonmatching",505,0.505,1
995543570,71,"self","Self","Self","Nonmatching",573,0.573,1
995543570,73,"self","Self","Self","Nonmatching",575,0.575,1
995543570,75,"friend","Friend","Close","Nonmatching",672,0.672,1
995543570,77,"friend","Friend","Close","Matching",584,0.584,1
995543570,79,"self","Self","Self","Matching",605,0.605,1
995543570,81,"self","Self","Self","Matching",517,0.517,1
995543570,83,"friend","Friend","Close","Matching",368,0.368,1
995543570,85,"self","Self","Self","Nonmatching",528,0.528,1
995543570,87,"self","Self","Self","Matching",401,0.401,1
995543570,89,"self","Self","Self","Matching",530,0.53,1
995543570,91,"self","Self","Self","Nonmatching",511,0.511,1
995543570,93,"friend","Friend","Close","Nonmatching",619,0.619,1
995543570,95,"friend","Friend","Close","Nonmatching",610,0.61,1
995543570,97,"friend","Friend","Close","Matching",415,0.415,1
995543570,99,"self","Self","Self","Nonmatching",385,0.385,1
995543570,101,"friend","Friend","Close","Nonmatching",576,0.576,1
995543570,103,"self","Self","Self","Matching",628,0.628,1
995543570,105,"self","Self","Self","Nonmatching",478,0.478,1
995543570,107,"friend","Friend","Close","Nonmatching",430,0.43,1
995543570,109,"self","Self","Self","Matching",669,0.669,1
995543570,111,"friend","Friend","Close","Nonmatching",405,0.405,1
995543570,113,"friend","Friend","Close","Matching",438,0.438,1
995543570,115,"self","Self","Self","Nonmatching",436,0.436,1
995543570,117,"self","Self","Self","Matching",442,0.442,1
995543570,119,"self","Self","Self","Nonmatching",503,0.503,1
995543570,121,"friend","Friend","Close","Matching",481,0.481,0
995543570,123,"friend","Friend","Close","Nonmatching",664,0.664,1
995543570,125,"friend","Friend","Close","Matching",710,0.71,1
995543570,127,"self","Self","Self","Nonmatching",542,0.542,1
995543570,129,"self","Self","Self","Matching",437,0.437,1
995543570,131,"friend","Friend","Close","Nonmatching",605,0.605,1
995543570,133,"friend","Friend","Close","Matching",513,0.513,1
995543570,135,"self","Self","Self","Matching",527,0.527,1
995543570,137,"self","Self","Self","Matching",661,0.661,0
995543570,139,"friend","Friend","Close","Matching",715,0.715,1
995543570,141,"friend","Friend","Close","Nonmatching",521,0.521,1
995543570,143,"friend","Friend","Close","Nonmatching",574,0.574,0
995543570,145,"self","Self","Self","Matching",482,0.482,1
995543570,147,"friend","Friend","Close","Nonmatching",612,0.612,1
995543570,149,"friend","Friend","Close","Matching",412,0.412,1
995543570,151,"self","Self","Self","Nonmatching",455,0.455,1
995543570,153,"self","Self","Self","Nonmatching",688,0.688,1
995543570,155,"self","Self","Self","Nonmatching",423,0.423,1
995543570,157,"friend","Friend","Close","Nonmatching",607,0.607,1
995543570,159,"self","Self","Self","Nonmatching",679,0.679,1
995543570,161,"self","Self","Self","Matching",802,0.802,1
995543570,163,"self","Self","Self","Matching",486,0.486,1
995543570,165,"self","Self","Self","Matching",414,0.414,1
995543570,167,"friend","Friend","Close","Matching",403,0.403,0
995543570,169,"friend","Friend","Close","Matching",310,0.31,1
995543570,171,"friend","Friend","Close","Matching",336,0.336,1
995543570,173,"friend","Friend","Close","Matching",212,0.212,1
995543570,175,"self","Self","Self","Matching",452,0.452,1
995543570,177,"friend","Friend","Close","Nonmatching",586,0.586,0
995543570,179,"friend","Friend","Close","Matching",586,0.586,1
995543570,181,"self","Self","Self","Matching",950,0.95,1
995543570,183,"friend","Friend","Close","Nonmatching",667,0.667,1
995543570,185,"friend","Friend","Close","Nonmatching",527,0.527,1
995543570,187,"friend","Friend","Close","Nonmatching",709,0.709,1
995543570,189,"friend","Friend","Close","Matching",430,0.43,1
995543570,191,"friend","Friend","Close","Matching",285,0.285,1
995543570,193,"friend","Friend","Close","Nonmatching",542,0.542,1
995543570,195,"friend","Friend","Close","Matching",479,0.479,1
995543570,197,"self","Self","Self","Matching",530,0.53,1
995543570,199,"friend","Friend","Close","Matching",519,0.519,1
995543570,201,"friend","Friend","Close","Matching",380,0.38,1
995543570,203,"self","Self","Self","Nonmatching",623,0.623,1
995543570,205,"friend","Friend","Close","Nonmatching",681,0.681,1
995543570,207,"friend","Friend","Close","Nonmatching",424,0.424,1
995543570,209,"friend","Friend","Close","Nonmatching",335,0.335,1
995543570,211,"friend","Friend","Close","Nonmatching",264,0.264,1
995543570,213,"friend","Friend","Close","Matching",615,0.615,1
995543570,215,"self","Self","Self","Nonmatching",596,0.596,1
995543570,217,"self","Self","Self","Matching",489,0.489,1
995543570,219,"friend","Friend","Close","Matching",635,0.635,1
995543570,221,"friend","Friend","Close","Nonmatching",489,0.489,1
995543570,223,"self","Self","Self","Matching",503,0.503,1
995543570,225,"self","Self","Self","Nonmatching",314,0.314,1
995543570,227,"friend","Friend","Close","Matching",526,0.526,1
995543570,229,"self","Self","Self","Nonmatching",457,0.457,1
995543570,231,"self","Self","Self","Matching",514,0.514,1
995543570,233,"self","Self","Self","Nonmatching",534,0.534,1
995543570,235,"friend","Friend","Close","Matching",426,0.426,1
995543570,237,"self","Self","Self","Nonmatching",450,0.45,1
995543570,239,"self","Self","Self","Nonmatching",564,0.564,1
995543571,1,"self","Self","Self","Matching",1058,1.058,1
995543571,3,"friend","Friend","Close","Nonmatching",879,0.879,0
995543571,5,"self","Self","Self","Matching",715,0.715,1
995543571,7,"friend","Friend","Close","Nonmatching",944,0.944,1
995543571,9,"self","Self","Self","Matching",913,0.913,1
995543571,11,"self","Self","Self","Nonmatching",1115,1.115,1
995543571,13,"friend","Friend","Close","Matching",1112,1.112,1
995543571,15,"self","Self","Self","Nonmatching",1142,1.142,1
995543571,17,"self","Self","Self","Nonmatching",1086,1.086,1
995543571,21,"friend","Friend","Close","Nonmatching",1194,1.194,1
995543571,23,"self","Self","Self","Nonmatching",815,0.815,1
995543571,25,"self","Self","Self","Matching",748,0.748,1
995543571,27,"friend","Friend","Close","Matching",1155,1.155,1
995543571,29,"self","Self","Self","Nonmatching",993,0.993,1
995543571,31,"friend","Friend","Close","Matching",1098,1.098,1
995543571,35,"self","Self","Self","Matching",988,0.988,1
995543571,37,"friend","Friend","Close","Matching",1007,1.007,1
995543571,39,"friend","Friend","Close","Nonmatching",852,0.852,1
995543571,41,"self","Self","Self","Nonmatching",858,0.858,1
995543571,43,"friend","Friend","Close","Nonmatching",1001,1.001,1
995543571,49,"friend","Friend","Close","Nonmatching",828,0.828,1
995543571,51,"friend","Friend","Close","Matching",870,0.87,1
995543571,53,"friend","Friend","Close","Nonmatching",985,0.985,1
995543571,55,"self","Self","Self","Matching",758,0.758,1
995543571,57,"self","Self","Self","Matching",704,0.704,1
995543571,59,"self","Self","Self","Matching",546,0.546,1
995543571,61,"friend","Friend","Close","Nonmatching",744,0.744,1
995543571,63,"self","Self","Self","Matching",837,0.837,1
995543571,65,"self","Self","Self","Nonmatching",830,0.83,1
995543571,67,"self","Self","Self","Nonmatching",975,0.975,1
995543571,69,"friend","Friend","Close","Nonmatching",869,0.869,1
995543571,71,"friend","Friend","Close","Matching",1026,1.026,1
995543571,75,"self","Self","Self","Matching",737,0.737,1
995543571,77,"friend","Friend","Close","Matching",1097,1.097,1
995543571,81,"friend","Friend","Close","Matching",924,0.924,1
995543571,83,"friend","Friend","Close","Matching",850,0.85,1
995543571,85,"friend","Friend","Close","Matching",606,0.606,1
995543571,87,"self","Self","Self","Nonmatching",813,0.813,1
995543571,89,"self","Self","Self","Matching",972,0.972,1
995543571,95,"friend","Friend","Close","Nonmatching",1022,1.022,1
995543571,97,"self","Self","Self","Matching",609,0.609,1
995543571,99,"friend","Friend","Close","Matching",789,0.789,1
995543571,101,"self","Self","Self","Nonmatching",783,0.783,1
995543571,103,"self","Self","Self","Matching",570,0.57,1
995543571,105,"friend","Friend","Close","Nonmatching",858,0.858,1
995543571,107,"friend","Friend","Close","Matching",852,0.852,1
995543571,109,"self","Self","Self","Nonmatching",844,0.844,1
995543571,111,"self","Self","Self","Matching",717,0.717,1
995543571,113,"friend","Friend","Close","Nonmatching",825,0.825,1
995543571,115,"self","Self","Self","Matching",767,0.767,1
995543571,117,"self","Self","Self","Nonmatching",741,0.741,1
995543571,119,"friend","Friend","Close","Matching",770,0.77,1
995543571,121,"self","Self","Self","Nonmatching",809,0.809,1
995543571,123,"friend","Friend","Close","Nonmatching",870,0.87,1
995543571,125,"self","Self","Self","Nonmatching",1185,1.185,1
995543571,127,"self","Self","Self","Nonmatching",780,0.78,1
995543571,129,"friend","Friend","Close","Nonmatching",710,0.71,1
995543571,131,"friend","Friend","Close","Nonmatching",808,0.808,0
995543571,133,"self","Self","Self","Nonmatching",909,0.909,1
995543571,135,"friend","Friend","Close","Matching",1044,1.044,1
995543571,137,"friend","Friend","Close","Nonmatching",723,0.723,1
995543571,139,"friend","Friend","Close","Nonmatching",908,0.908,1
995543571,141,"friend","Friend","Close","Matching",655,0.655,0
995543571,143,"self","Self","Self","Nonmatching",978,0.978,1
995543571,145,"friend","Friend","Close","Matching",899,0.899,1
995543571,147,"friend","Friend","Close","Nonmatching",781,0.781,1
995543571,151,"self","Self","Self","Matching",768,0.768,1
995543571,153,"friend","Friend","Close","Nonmatching",596,0.596,1
995543571,157,"friend","Friend","Close","Matching",877,0.877,1
995543571,159,"friend","Friend","Close","Matching",1171,1.171,1
995543571,161,"friend","Friend","Close","Matching",553,0.553,1
995543571,163,"friend","Friend","Close","Nonmatching",648,0.648,1
995543571,165,"friend","Friend","Close","Nonmatching",797,0.797,1
995543571,167,"self","Self","Self","Nonmatching",1076,1.076,1
995543571,169,"self","Self","Self","Matching",606,0.606,1
995543571,171,"friend","Friend","Close","Nonmatching",540,0.54,1
995543571,173,"friend","Friend","Close","Matching",1047,1.047,1
995543571,175,"friend","Friend","Close","Matching",659,0.659,1
995543571,177,"friend","Friend","Close","Nonmatching",616,0.616,1
995543571,179,"self","Self","Self","Nonmatching",1132,1.132,1
995543571,181,"self","Self","Self","Matching",758,0.758,1
995543571,183,"self","Self","Self","Nonmatching",722,0.722,1
995543571,185,"friend","Friend","Close","Nonmatching",788,0.788,1
995543571,187,"friend","Friend","Close","Nonmatching",737,0.737,1
995543571,189,"friend","Friend","Close","Matching",783,0.783,0
995543571,191,"self","Self","Self","Matching",635,0.635,1
995543571,193,"friend","Friend","Close","Nonmatching",766,0.766,1
995543571,195,"self","Self","Self","Matching",715,0.715,1
995543571,197,"friend","Friend","Close","Nonmatching",1200,1.2,1
995543571,199,"self","Self","Self","Matching",896,0.896,1
995543571,201,"friend","Friend","Close","Matching",568,0.568,0
995543571,203,"friend","Friend","Close","Nonmatching",777,0.777,1
995543571,205,"friend","Friend","Close","Nonmatching",812,0.812,1
995543571,207,"friend","Friend","Close","Matching",1140,1.14,0
995543571,209,"self","Self","Self","Matching",775,0.775,1
995543571,211,"self","Self","Self","Matching",430,0.43,1
995543571,213,"self","Self","Self","Nonmatching",635,0.635,1
995543571,215,"self","Self","Self","Matching",756,0.756,1
995543571,217,"self","Self","Self","Matching",720,0.72,1
995543571,219,"self","Self","Self","Nonmatching",485,0.485,0
995543571,221,"self","Self","Self","Matching",1033,1.033,1
995543571,223,"friend","Friend","Close","Matching",495,0.495,0
995543571,225,"self","Self","Self","Matching",1197,1.197,1
995543571,227,"self","Self","Self","Nonmatching",787,0.787,1
995543571,229,"self","Self","Self","Nonmatching",783,0.783,1
995543571,231,"self","Self","Self","Matching",665,0.665,1
995543571,235,"friend","Friend","Close","Nonmatching",742,0.742,1
995543571,237,"self","Self","Self","Matching",694,0.694,1
995543574,3,"self","Self","Self","Matching",1089,1.089,1
995543574,5,"friend","Friend","Close","Nonmatching",850,0.85,1
995543574,7,"friend","Friend","Close","Matching",1097,1.097,0
995543574,11,"self","Self","Self","Nonmatching",961,0.961,1
995543574,13,"self","Self","Self","Nonmatching",465,0.465,1
995543574,15,"friend","Friend","Close","Nonmatching",621,0.621,0
995543574,17,"self","Self","Self","Nonmatching",1040,1.04,1
995543574,19,"self","Self","Self","Matching",640,0.64,1
995543574,23,"friend","Friend","Close","Nonmatching",1123,1.123,1
995543574,25,"self","Self","Self","Matching",888,0.888,1
995543574,27,"friend","Friend","Close","Matching",651,0.651,0
995543574,29,"self","Self","Self","Matching",907,0.907,1
995543574,31,"self","Self","Self","Matching",788,0.788,1
995543574,33,"self","Self","Self","Matching",572,0.572,1
995543574,35,"friend","Friend","Close","Nonmatching",807,0.807,1
995543574,37,"friend","Friend","Close","Nonmatching",616,0.616,1
995543574,41,"self","Self","Self","Matching",860,0.86,1
995543574,43,"friend","Friend","Close","Nonmatching",838,0.838,1
995543574,45,"self","Self","Self","Matching",771,0.771,1
995543574,47,"friend","Friend","Close","Nonmatching",644,0.644,1
995543574,49,"self","Self","Self","Nonmatching",916,0.916,1
995543574,51,"friend","Friend","Close","Matching",703,0.703,1
995543574,53,"friend","Friend","Close","Matching",704,0.704,1
995543574,55,"friend","Friend","Close","Nonmatching",643,0.643,1
995543574,57,"self","Self","Self","Nonmatching",730,0.73,1
995543574,59,"friend","Friend","Close","Matching",714,0.714,1
995543574,61,"self","Self","Self","Matching",934,0.934,1
995543574,63,"friend","Friend","Close","Nonmatching",613,0.613,1
995543574,65,"self","Self","Self","Matching",613,0.613,1
995543574,67,"self","Self","Self","Matching",824,0.824,1
995543574,69,"self","Self","Self","Nonmatching",784,0.784,1
995543574,71,"self","Self","Self","Nonmatching",780,0.78,1
995543574,73,"friend","Friend","Close","Matching",778,0.778,1
995543574,75,"self","Self","Self","Nonmatching",716,0.716,1
995543574,77,"friend","Friend","Close","Matching",852,0.852,1
995543574,79,"friend","Friend","Close","Matching",743,0.743,1
995543574,81,"self","Self","Self","Nonmatching",606,0.606,1
995543574,83,"friend","Friend","Close","Nonmatching",1004,1.004,0
995543574,85,"friend","Friend","Close","Nonmatching",766,0.766,1
995543574,87,"friend","Friend","Close","Matching",776,0.776,1
995543574,89,"friend","Friend","Close","Matching",747,0.747,1
995543574,91,"friend","Friend","Close","Matching",601,0.601,1
995543574,93,"self","Self","Self","Matching",675,0.675,1
995543574,95,"self","Self","Self","Matching",549,0.549,1
995543574,97,"friend","Friend","Close","Nonmatching",594,0.594,1
995543574,99,"self","Self","Self","Matching",542,0.542,1
995543574,101,"friend","Friend","Close","Nonmatching",710,0.71,1
995543574,103,"self","Self","Self","Matching",405,0.405,1
995543574,105,"friend","Friend","Close","Nonmatching",610,0.61,1
995543574,107,"self","Self","Self","Nonmatching",788,0.788,1
995543574,109,"friend","Friend","Close","Nonmatching",649,0.649,1
995543574,111,"self","Self","Self","Nonmatching",446,0.446,0
995543574,113,"friend","Friend","Close","Nonmatching",649,0.649,1
995543574,115,"friend","Friend","Close","Matching",827,0.827,1
995543574,117,"friend","Friend","Close","Nonmatching",633,0.633,1
995543574,119,"friend","Friend","Close","Nonmatching",581,0.581,1
995543574,121,"friend","Friend","Close","Nonmatching",342,0.342,1
995543574,123,"friend","Friend","Close","Nonmatching",281,0.281,1
995543574,125,"self","Self","Self","Nonmatching",813,0.813,1
995543574,127,"self","Self","Self","Matching",706,0.706,1
995543574,129,"friend","Friend","Close","Matching",623,0.623,1
995543574,131,"friend","Friend","Close","Matching",1046,1.046,0
995543574,133,"friend","Friend","Close","Nonmatching",698,0.698,1
995543574,135,"self","Self","Self","Matching",601,0.601,1
995543574,137,"friend","Friend","Close","Nonmatching",672,0.672,1
995543574,139,"friend","Friend","Close","Matching",712,0.712,1
995543574,141,"self","Self","Self","Matching",820,0.82,1
995543574,143,"self","Self","Self","Matching",614,0.614,1
995543574,145,"self","Self","Self","Nonmatching",798,0.798,1
995543574,147,"self","Self","Self","Nonmatching",651,0.651,1
995543574,149,"friend","Friend","Close","Nonmatching",805,0.805,1
995543574,151,"self","Self","Self","Matching",747,0.747,1
995543574,153,"friend","Friend","Close","Matching",651,0.651,1
995543574,155,"self","Self","Self","Matching",768,0.768,1
995543574,157,"friend","Friend","Close","Matching",707,0.707,1
995543574,159,"friend","Friend","Close","Matching",684,0.684,1
995543574,161,"self","Self","Self","Nonmatching",718,0.718,1
995543574,163,"friend","Friend","Close","Matching",646,0.646,1
995543574,165,"self","Self","Self","Matching",767,0.767,1
995543574,167,"self","Self","Self","Nonmatching",655,0.655,1
995543574,169,"self","Self","Self","Matching",683,0.683,1
995543574,171,"self","Self","Self","Nonmatching",708,0.708,1
995543574,173,"friend","Friend","Close","Nonmatching",1015,1.015,1
995543574,175,"self","Self","Self","Matching",580,0.58,1
995543574,177,"friend","Friend","Close","Nonmatching",631,0.631,1
995543574,179,"self","Self","Self","Nonmatching",661,0.661,1
995543574,181,"friend","Friend","Close","Matching",650,0.65,1
995543574,183,"self","Self","Self","Nonmatching",792,0.792,1
995543574,185,"self","Self","Self","Nonmatching",519,0.519,1
995543574,187,"self","Self","Self","Nonmatching",681,0.681,1
995543574,189,"friend","Friend","Close","Nonmatching",871,0.871,1
995543574,191,"self","Self","Self","Nonmatching",686,0.686,1
995543574,193,"self","Self","Self","Nonmatching",647,0.647,1
995543574,195,"self","Self","Self","Matching",781,0.781,1
995543574,197,"friend","Friend","Close","Matching",699,0.699,1
995543574,199,"self","Self","Self","Matching",898,0.898,1
995543574,201,"friend","Friend","Close","Nonmatching",641,0.641,1
995543574,203,"self","Self","Self","Matching",905,0.905,1
995543574,205,"friend","Friend","Close","Nonmatching",597,0.597,1
995543574,207,"friend","Friend","Close","Matching",652,0.652,1
995543574,209,"self","Self","Self","Nonmatching",621,0.621,1
995543574,211,"self","Self","Self","Nonmatching",780,0.78,1
995543574,213,"friend","Friend","Close","Matching",653,0.653,1
995543574,215,"friend","Friend","Close","Matching",633,0.633,1
995543574,217,"friend","Friend","Close","Matching",517,0.517,1
995543574,219,"self","Self","Self","Nonmatching",592,0.592,1
995543574,221,"self","Self","Self","Nonmatching",476,0.476,1
995543574,223,"friend","Friend","Close","Matching",762,0.762,1
995543574,225,"self","Self","Self","Matching",637,0.637,1
995543574,227,"self","Self","Self","Matching",657,0.657,1
995543574,229,"self","Self","Self","Matching",446,0.446,1
995543574,231,"friend","Friend","Close","Nonmatching",492,0.492,1
995543574,233,"self","Self","Self","Nonmatching",814,0.814,1
995543574,235,"friend","Friend","Close","Nonmatching",555,0.555,1
995543574,237,"self","Self","Self","Nonmatching",781,0.781,1
995543574,239,"friend","Friend","Close","Matching",636,0.636,1
995543580,5,"friend","Friend","Close","Nonmatching",533,0.533,0
995543580,23,"friend","Friend","Close","Nonmatching",1058,1.058,0
995543580,25,"friend","Friend","Close","Nonmatching",725,0.725,1
995543580,27,"friend","Friend","Close","Nonmatching",852,0.852,1
995543580,29,"self","Self","Self","Nonmatching",863,0.863,1
995543580,31,"self","Self","Self","Matching",686,0.686,1
995543580,33,"self","Self","Self","Matching",251,0.251,0
995543580,35,"friend","Friend","Close","Nonmatching",874,0.874,1
995543580,37,"friend","Friend","Close","Matching",759,0.759,1
995543580,39,"friend","Friend","Close","Matching",672,0.672,0
995543580,41,"friend","Friend","Close","Matching",726,0.726,1
995543580,43,"self","Self","Self","Nonmatching",625,0.625,0
995543580,45,"self","Self","Self","Matching",924,0.924,1
995543580,47,"friend","Friend","Close","Matching",827,0.827,1
995543580,49,"friend","Friend","Close","Matching",513,0.513,1
995543580,51,"self","Self","Self","Nonmatching",856,0.856,1
995543580,53,"self","Self","Self","Nonmatching",578,0.578,1
995543580,55,"self","Self","Self","Matching",458,0.458,1
995543580,57,"self","Self","Self","Matching",312,0.312,1
995543580,59,"self","Self","Self","Matching",288,0.288,1
995543580,61,"friend","Friend","Close","Nonmatching",724,0.724,1
995543580,63,"friend","Friend","Close","Nonmatching",320,0.32,1
995543580,65,"friend","Friend","Close","Matching",624,0.624,1
995543580,67,"friend","Friend","Close","Nonmatching",444,0.444,1
995543580,69,"friend","Friend","Close","Matching",672,0.672,1
995543580,71,"friend","Friend","Close","Nonmatching",483,0.483,1
995543580,73,"friend","Friend","Close","Matching",411,0.411,1
995543580,75,"self","Self","Self","Nonmatching",990,0.99,1
995543580,77,"self","Self","Self","Nonmatching",511,0.511,1
995543580,79,"friend","Friend","Close","Matching",582,0.582,1
995543580,81,"self","Self","Self","Nonmatching",811,0.811,1
995543580,83,"friend","Friend","Close","Nonmatching",797,0.797,1
995543580,85,"self","Self","Self","Matching",717,0.717,1
995543580,87,"self","Self","Self","Nonmatching",930,0.93,0
995543580,89,"friend","Friend","Close","Nonmatching",861,0.861,0
995543580,91,"friend","Friend","Close","Matching",795,0.795,1
995543580,93,"friend","Friend","Close","Matching",860,0.86,1
995543580,95,"friend","Friend","Close","Matching",461,0.461,1
995543580,97,"self","Self","Self","Matching",592,0.592,1
995543580,99,"friend","Friend","Close","Matching",567,0.567,1
995543580,101,"self","Self","Self","Nonmatching",415,0.415,1
995543580,103,"friend","Friend","Close","Matching",580,0.58,1
995543580,105,"self","Self","Self","Matching",515,0.515,1
995543580,107,"self","Self","Self","Matching",395,0.395,1
995543580,109,"self","Self","Self","Nonmatching",572,0.572,0
995543580,111,"friend","Friend","Close","Matching",748,0.748,1
995543580,113,"self","Self","Self","Matching",601,0.601,1
995543580,115,"friend","Friend","Close","Nonmatching",335,0.335,1
995543580,117,"self","Self","Self","Nonmatching",613,0.613,0
995543580,119,"self","Self","Self","Matching",564,0.564,1
995543580,121,"self","Self","Self","Matching",430,0.43,1
995543580,123,"self","Self","Self","Nonmatching",681,0.681,1
995543580,125,"friend","Friend","Close","Matching",710,0.71,1
995543580,127,"friend","Friend","Close","Matching",795,0.795,1
995543580,129,"friend","Friend","Close","Matching",519,0.519,1
995543580,131,"friend","Friend","Close","Matching",378,0.378,1
995543580,133,"self","Self","Self","Nonmatching",724,0.724,1
995543580,135,"friend","Friend","Close","Nonmatching",711,0.711,1
995543580,137,"friend","Friend","Close","Nonmatching",314,0.314,1
995543580,139,"self","Self","Self","Matching",450,0.45,1
995543580,141,"friend","Friend","Close","Matching",686,0.686,1
995543580,143,"friend","Friend","Close","Nonmatching",542,0.542,1
995543580,145,"self","Self","Self","Matching",725,0.725,0
995543580,147,"friend","Friend","Close","Nonmatching",635,0.635,1
995543580,149,"self","Self","Self","Nonmatching",406,0.406,1
995543580,151,"self","Self","Self","Nonmatching",329,0.329,1
995543580,153,"self","Self","Self","Nonmatching",484,0.484,1
995543580,155,"friend","Friend","Close","Matching",643,0.643,1
995543580,157,"friend","Friend","Close","Matching",525,0.525,1
995543580,159,"friend","Friend","Close","Matching",409,0.409,1
995543580,161,"self","Self","Self","Matching",744,0.744,1
995543580,163,"friend","Friend","Close","Matching",659,0.659,1
995543580,165,"friend","Friend","Close","Nonmatching",487,0.487,1
995543580,167,"friend","Friend","Close","Matching",469,0.469,0
995543580,169,"self","Self","Self","Matching",596,0.596,1
995543580,171,"friend","Friend","Close","Nonmatching",554,0.554,1
995543580,173,"self","Self","Self","Matching",551,0.551,1
995543580,175,"self","Self","Self","Matching",745,0.745,1
995543580,177,"friend","Friend","Close","Nonmatching",536,0.536,1
995543580,179,"self","Self","Self","Nonmatching",801,0.801,1
995543580,181,"self","Self","Self","Matching",516,0.516,1
995543580,183,"friend","Friend","Close","Nonmatching",694,0.694,1
995543580,185,"self","Self","Self","Matching",603,0.603,1
995543580,187,"self","Self","Self","Matching",325,0.325,1
995543580,189,"friend","Friend","Close","Matching",750,0.75,1
995543580,191,"self","Self","Self","Nonmatching",648,0.648,1
995543580,193,"friend","Friend","Close","Matching",695,0.695,1
995543580,195,"self","Self","Self","Nonmatching",790,0.79,0
995543580,197,"self","Self","Self","Matching",745,0.745,1
995543580,199,"self","Self","Self","Nonmatching",647,0.647,1
995543580,201,"friend","Friend","Close","Nonmatching",592,0.592,1
995543580,203,"friend","Friend","Close","Nonmatching",305,0.305,1
995543580,205,"self","Self","Self","Matching",565,0.565,1
995543580,207,"self","Self","Self","Nonmatching",466,0.466,1
995543580,209,"friend","Friend","Close","Nonmatching",446,0.446,1
995543580,211,"self","Self","Self","Matching",731,0.731,1
995543580,213,"self","Self","Self","Nonmatching",463,0.463,1
995543580,215,"friend","Friend","Close","Nonmatching",629,0.629,1
995543580,217,"self","Self","Self","Nonmatching",615,0.615,1
995543580,219,"friend","Friend","Close","Matching",498,0.498,1
995543580,221,"friend","Friend","Close","Nonmatching",507,0.507,1
995543580,223,"friend","Friend","Close","Nonmatching",413,0.413,1
995543580,225,"self","Self","Self","Nonmatching",413,0.413,1
995543580,227,"friend","Friend","Close","Matching",514,0.514,1
995543580,229,"friend","Friend","Close","Nonmatching",496,0.496,1
995543580,231,"self","Self","Self","Matching",581,0.581,1
995543580,233,"self","Self","Self","Nonmatching",504,0.504,1
995543580,235,"self","Self","Self","Nonmatching",495,0.495,1
995543580,237,"friend","Friend","Close","Nonmatching",633,0.633,1
995543580,239,"self","Self","Self","Matching",597,0.597,1
995543581,1,"friend","Friend","Close","Nonmatching",754,0.754,1
995543581,3,"self","Self","Self","Nonmatching",592,0.592,1
995543581,5,"self","Self","Self","Nonmatching",859,0.859,1
995543581,7,"friend","Friend","Close","Nonmatching",696,0.696,1
995543581,9,"self","Self","Self","Nonmatching",956,0.956,1
995543581,11,"self","Self","Self","Matching",634,0.634,1
995543581,13,"self","Self","Self","Matching",635,0.635,1
995543581,15,"self","Self","Self","Matching",463,0.463,1
995543581,17,"friend","Friend","Close","Nonmatching",850,0.85,1
995543581,19,"self","Self","Self","Nonmatching",958,0.958,1
995543581,23,"friend","Friend","Close","Nonmatching",898,0.898,1
995543581,25,"friend","Friend","Close","Nonmatching",751,0.751,1
995543581,27,"friend","Friend","Close","Nonmatching",516,0.516,1
995543581,29,"self","Self","Self","Nonmatching",991,0.991,1
995543581,31,"self","Self","Self","Nonmatching",704,0.704,1
995543581,33,"self","Self","Self","Matching",799,0.799,1
995543581,35,"friend","Friend","Close","Nonmatching",1130,1.13,0
995543581,39,"friend","Friend","Close","Nonmatching",1025,1.025,1
995543581,41,"self","Self","Self","Nonmatching",895,0.895,1
995543581,43,"self","Self","Self","Nonmatching",650,0.65,1
995543581,45,"friend","Friend","Close","Matching",823,0.823,1
995543581,47,"friend","Friend","Close","Matching",582,0.582,1
995543581,49,"self","Self","Self","Matching",1066,1.066,1
995543581,51,"self","Self","Self","Matching",583,0.583,1
995543581,53,"self","Self","Self","Matching",627,0.627,1
995543581,55,"self","Self","Self","Matching",653,0.653,1
995543581,59,"self","Self","Self","Matching",545,0.545,1
995543581,65,"self","Self","Self","Nonmatching",1009,1.009,1
995543581,67,"friend","Friend","Close","Matching",860,0.86,1
995543581,69,"friend","Friend","Close","Matching",673,0.673,1
995543581,71,"friend","Friend","Close","Matching",691,0.691,1
995543581,73,"self","Self","Self","Matching",918,0.918,1
995543581,77,"friend","Friend","Close","Matching",534,0.534,1
995543581,79,"friend","Friend","Close","Nonmatching",715,0.715,1
995543581,81,"self","Self","Self","Matching",914,0.914,1
995543581,83,"self","Self","Self","Matching",519,0.519,1
995543581,87,"self","Self","Self","Matching",748,0.748,1
995543581,89,"friend","Friend","Close","Matching",1032,1.032,1
995543581,91,"friend","Friend","Close","Matching",529,0.529,1
995543581,93,"friend","Friend","Close","Nonmatching",788,0.788,1
995543581,95,"self","Self","Self","Nonmatching",934,0.934,1
995543581,97,"friend","Friend","Close","Nonmatching",991,0.991,1
995543581,99,"self","Self","Self","Nonmatching",824,0.824,1
995543581,101,"self","Self","Self","Nonmatching",520,0.52,1
995543581,103,"self","Self","Self","Matching",843,0.843,1
995543581,105,"friend","Friend","Close","Matching",772,0.772,1
995543581,107,"friend","Friend","Close","Matching",500,0.5,1
995543581,109,"self","Self","Self","Nonmatching",841,0.841,1
995543581,111,"self","Self","Self","Matching",718,0.718,1
995543581,113,"friend","Friend","Close","Nonmatching",1062,1.062,1
995543581,115,"self","Self","Self","Matching",697,0.697,1
995543581,117,"friend","Friend","Close","Nonmatching",758,0.758,1
995543581,119,"friend","Friend","Close","Nonmatching",755,0.755,1
995543581,121,"friend","Friend","Close","Matching",649,0.649,1
995543581,123,"self","Self","Self","Nonmatching",1102,1.102,1
995543581,125,"friend","Friend","Close","Nonmatching",1016,1.016,1
995543581,127,"friend","Friend","Close","Nonmatching",724,0.724,1
995543581,129,"friend","Friend","Close","Matching",870,0.87,1
995543581,131,"friend","Friend","Close","Matching",622,0.622,1
995543581,133,"friend","Friend","Close","Matching",689,0.689,1
995543581,135,"friend","Friend","Close","Matching",692,0.692,1
995543581,137,"self","Self","Self","Nonmatching",856,0.856,1
995543581,139,"self","Self","Self","Matching",708,0.708,1
995543581,141,"friend","Friend","Close","Matching",1139,1.139,1
995543581,143,"friend","Friend","Close","Matching",542,0.542,1
995543581,145,"friend","Friend","Close","Matching",538,0.538,1
995543581,147,"self","Self","Self","Matching",616,0.616,1
995543581,149,"self","Self","Self","Nonmatching",871,0.871,1
995543581,151,"self","Self","Self","Matching",782,0.782,1
995543581,153,"friend","Friend","Close","Matching",681,0.681,1
995543581,155,"self","Self","Self","Matching",1196,1.196,1
995543581,157,"friend","Friend","Close","Nonmatching",843,0.843,1
995543581,159,"friend","Friend","Close","Nonmatching",792,0.792,1
995543581,161,"friend","Friend","Close","Matching",627,0.627,1
995543581,163,"friend","Friend","Close","Nonmatching",933,0.933,1
995543581,165,"self","Self","Self","Nonmatching",942,0.942,1
995543581,167,"friend","Friend","Close","Matching",886,0.886,1
995543581,169,"friend","Friend","Close","Matching",730,0.73,1
995543581,171,"self","Self","Self","Matching",708,0.708,1
995543581,173,"self","Self","Self","Nonmatching",835,0.835,1
995543581,177,"self","Self","Self","Matching",656,0.656,1
995543581,179,"friend","Friend","Close","Matching",704,0.704,1
995543581,181,"self","Self","Self","Nonmatching",743,0.743,1
995543581,183,"self","Self","Self","Matching",627,0.627,1
995543581,185,"friend","Friend","Close","Nonmatching",958,0.958,1
995543581,187,"friend","Friend","Close","Nonmatching",923,0.923,1
995543581,189,"friend","Friend","Close","Matching",658,0.658,1
995543581,191,"friend","Friend","Close","Nonmatching",1137,1.137,1
995543581,193,"self","Self","Self","Nonmatching",969,0.969,0
995543581,195,"self","Self","Self","Matching",966,0.966,1
995543581,197,"self","Self","Self","Nonmatching",634,0.634,1
995543581,199,"friend","Friend","Close","Nonmatching",823,0.823,1
995543581,203,"friend","Friend","Close","Nonmatching",772,0.772,1
995543581,205,"self","Self","Self","Matching",861,0.861,1
995543581,207,"self","Self","Self","Nonmatching",651,0.651,1
995543581,209,"self","Self","Self","Matching",729,0.729,1
995543581,211,"self","Self","Self","Matching",683,0.683,1
995543581,213,"friend","Friend","Close","Matching",797,0.797,1
995543581,215,"friend","Friend","Close","Matching",592,0.592,1
995543581,217,"self","Self","Self","Nonmatching",605,0.605,1
995543581,219,"self","Self","Self","Matching",789,0.789,1
995543581,221,"self","Self","Self","Matching",623,0.623,1
995543581,223,"self","Self","Self","Nonmatching",545,0.545,1
995543581,225,"friend","Friend","Close","Nonmatching",966,0.966,1
995543581,227,"self","Self","Self","Matching",547,0.547,1
995543581,229,"friend","Friend","Close","Nonmatching",753,0.753,1
995543581,231,"self","Self","Self","Nonmatching",1014,1.014,1
995543581,233,"self","Self","Self","Nonmatching",811,0.811,1
995543581,235,"friend","Friend","Close","Nonmatching",929,0.929,1
995543581,237,"friend","Friend","Close","Nonmatching",640,0.64,1
995543581,239,"friend","Friend","Close","Matching",900,0.9,1
995543583,1,"friend","Friend","Close","Matching",1121,1.121,0
995543583,3,"friend","Friend","Close","Matching",1065,1.065,1
995543583,5,"friend","Friend","Close","Nonmatching",1170,1.17,1
995543583,7,"friend","Friend","Close","Matching",916,0.916,1
995543583,11,"friend","Friend","Close","Nonmatching",996,0.996,0
995543583,13,"self","Self","Self","Matching",754,0.754,1
995543583,29,"self","Self","Self","Nonmatching",1036,1.036,0
995543583,33,"self","Self","Self","Matching",1154,1.154,1
995543583,35,"self","Self","Self","Matching",509,0.509,1
995543583,37,"self","Self","Self","Nonmatching",760,0.76,1
995543583,41,"self","Self","Self","Matching",680,0.68,1
995543583,43,"self","Self","Self","Nonmatching",953,0.953,1
995543583,47,"self","Self","Self","Matching",1107,1.107,1
995543583,49,"friend","Friend","Close","Nonmatching",892,0.892,1
995543583,51,"self","Self","Self","Matching",499,0.499,1
995543583,53,"self","Self","Self","Nonmatching",821,0.821,1
995543583,55,"self","Self","Self","Matching",882,0.882,1
995543583,57,"friend","Friend","Close","Nonmatching",1091,1.091,1
995543583,59,"friend","Friend","Close","Nonmatching",1115,1.115,1
995543583,61,"self","Self","Self","Nonmatching",1097,1.097,1
995543583,63,"self","Self","Self","Matching",783,0.783,1
995543583,65,"self","Self","Self","Matching",774,0.774,1
995543583,67,"friend","Friend","Close","Matching",806,0.806,0
995543583,69,"self","Self","Self","Matching",801,0.801,1
995543583,71,"self","Self","Self","Matching",483,0.483,1
995543583,73,"self","Self","Self","Nonmatching",715,0.715,1
995543583,77,"friend","Friend","Close","Matching",985,0.985,1
995543583,79,"self","Self","Self","Nonmatching",557,0.557,0
995543583,81,"self","Self","Self","Matching",602,0.602,1
995543583,83,"friend","Friend","Close","Nonmatching",775,0.775,1
995543583,85,"self","Self","Self","Matching",452,0.452,1
995543583,89,"self","Self","Self","Matching",581,0.581,1
995543583,91,"friend","Friend","Close","Matching",667,0.667,0
995543583,93,"friend","Friend","Close","Matching",733,0.733,1
995543583,95,"self","Self","Self","Matching",649,0.649,1
995543583,97,"friend","Friend","Close","Nonmatching",1178,1.178,1
995543583,99,"self","Self","Self","Nonmatching",807,0.807,0
995543583,101,"friend","Friend","Close","Matching",1185,1.185,1
995543583,103,"friend","Friend","Close","Nonmatching",1076,1.076,1
995543583,107,"self","Self","Self","Matching",824,0.824,1
995543583,109,"self","Self","Self","Matching",480,0.48,1
995543583,111,"self","Self","Self","Matching",524,0.524,1
995543583,115,"friend","Friend","Close","Matching",834,0.834,1
995543583,117,"self","Self","Self","Nonmatching",748,0.748,0
995543583,121,"self","Self","Self","Nonmatching",987,0.987,1
995543583,123,"self","Self","Self","Nonmatching",925,0.925,1
995543583,125,"self","Self","Self","Nonmatching",696,0.696,1
995543583,127,"self","Self","Self","Matching",683,0.683,1
995543583,129,"self","Self","Self","Nonmatching",984,0.984,1
995543583,131,"self","Self","Self","Nonmatching",993,0.993,1
995543583,133,"friend","Friend","Close","Nonmatching",750,0.75,0
995543583,135,"friend","Friend","Close","Matching",1063,1.063,1
995543583,137,"friend","Friend","Close","Nonmatching",914,0.914,1
995543583,139,"friend","Friend","Close","Nonmatching",839,0.839,1
995543583,141,"friend","Friend","Close","Matching",808,0.808,0
995543583,143,"self","Self","Self","Nonmatching",1127,1.127,1
995543583,145,"self","Self","Self","Matching",663,0.663,1
995543583,147,"friend","Friend","Close","Nonmatching",745,0.745,1
995543583,149,"friend","Friend","Close","Nonmatching",783,0.783,1
995543583,151,"self","Self","Self","Matching",683,0.683,1
995543583,153,"friend","Friend","Close","Matching",709,0.709,0
995543583,155,"friend","Friend","Close","Nonmatching",1097,1.097,1
995543583,159,"self","Self","Self","Nonmatching",718,0.718,0
995543583,161,"self","Self","Self","Matching",768,0.768,1
995543583,163,"friend","Friend","Close","Matching",1126,1.126,1
995543583,167,"self","Self","Self","Nonmatching",557,0.557,0
995543583,169,"self","Self","Self","Nonmatching",756,0.756,1
995543583,171,"self","Self","Self","Matching",690,0.69,1
995543583,181,"self","Self","Self","Nonmatching",843,0.843,1
995543583,183,"self","Self","Self","Nonmatching",815,0.815,1
995543583,185,"self","Self","Self","Matching",678,0.678,1
995543583,187,"self","Self","Self","Nonmatching",896,0.896,1
995543583,189,"self","Self","Self","Matching",896,0.896,1
995543583,193,"self","Self","Self","Matching",491,0.491,1
995543583,197,"friend","Friend","Close","Nonmatching",730,0.73,1
995543583,199,"friend","Friend","Close","Matching",994,0.994,1
995543583,201,"self","Self","Self","Matching",919,0.919,1
995543583,203,"self","Self","Self","Matching",889,0.889,0
995543583,209,"self","Self","Self","Matching",824,0.824,1
995543583,213,"friend","Friend","Close","Nonmatching",792,0.792,1
995543583,215,"friend","Friend","Close","Matching",993,0.993,1
995543583,217,"friend","Friend","Close","Matching",620,0.62,1
995543583,219,"friend","Friend","Close","Nonmatching",1006,1.006,1
995543583,225,"friend","Friend","Close","Nonmatching",911,0.911,1
995543583,227,"friend","Friend","Close","Matching",1127,1.127,1
995543583,229,"friend","Friend","Close","Nonmatching",853,0.853,1
995543583,231,"self","Self","Self","Nonmatching",1157,1.157,1
995543583,237,"friend","Friend","Close","Matching",973,0.973,1
995543583,239,"self","Self","Self","Matching",882,0.882,1
995543587,1,"self","Self","Self","Nonmatching",926,0.926,1
995543587,3,"friend","Friend","Close","Matching",946,0.946,1
995543587,5,"self","Self","Self","Nonmatching",637,0.637,1
995543587,7,"self","Self","Self","Matching",538,0.538,1
995543587,9,"friend","Friend","Close","Matching",607,0.607,0
995543587,11,"friend","Friend","Close","Nonmatching",671,0.671,1
995543587,13,"friend","Friend","Close","Nonmatching",748,0.748,1
995543587,15,"self","Self","Self","Nonmatching",1035,1.035,1
995543587,17,"self","Self","Self","Nonmatching",864,0.864,1
995543587,19,"self","Self","Self","Nonmatching",611,0.611,1
995543587,21,"friend","Friend","Close","Nonmatching",637,0.637,1
995543587,23,"friend","Friend","Close","Nonmatching",535,0.535,1
995543587,25,"friend","Friend","Close","Nonmatching",495,0.495,1
995543587,27,"friend","Friend","Close","Nonmatching",592,0.592,1
995543587,29,"self","Self","Self","Nonmatching",712,0.712,1
995543587,31,"friend","Friend","Close","Matching",530,0.53,1
995543587,33,"friend","Friend","Close","Nonmatching",728,0.728,1
995543587,35,"friend","Friend","Close","Nonmatching",403,0.403,1
995543587,37,"self","Self","Self","Matching",324,0.324,1
995543587,39,"self","Self","Self","Nonmatching",638,0.638,1
995543587,41,"friend","Friend","Close","Nonmatching",656,0.656,1
995543587,43,"friend","Friend","Close","Matching",403,0.403,1
995543587,45,"self","Self","Self","Matching",555,0.555,0
995543587,47,"self","Self","Self","Matching",396,0.396,1
995543587,49,"self","Self","Self","Matching",430,0.43,1
995543587,51,"self","Self","Self","Matching",351,0.351,1
995543587,53,"self","Self","Self","Nonmatching",489,0.489,1
995543587,55,"self","Self","Self","Nonmatching",493,0.493,1
995543587,57,"friend","Friend","Close","Nonmatching",799,0.799,1
995543587,59,"self","Self","Self","Matching",598,0.598,1
995543587,61,"friend","Friend","Close","Matching",619,0.619,0
995543587,63,"friend","Friend","Close","Matching",339,0.339,1
995543587,65,"friend","Friend","Close","Nonmatching",557,0.557,1
995543587,67,"friend","Friend","Close","Matching",567,0.567,1
995543587,69,"friend","Friend","Close","Nonmatching",605,0.605,1
995543587,71,"friend","Friend","Close","Matching",690,0.69,1
995543587,73,"self","Self","Self","Nonmatching",664,0.664,1
995543587,75,"friend","Friend","Close","Nonmatching",594,0.594,1
995543587,77,"friend","Friend","Close","Nonmatching",887,0.887,1
995543587,79,"friend","Friend","Close","Nonmatching",510,0.51,1
995543587,81,"self","Self","Self","Matching",428,0.428,1
995543587,83,"self","Self","Self","Matching",633,0.633,1
995543587,85,"self","Self","Self","Nonmatching",510,0.51,1
995543587,87,"friend","Friend","Close","Matching",1044,1.044,1
995543587,89,"friend","Friend","Close","Matching",515,0.515,1
995543587,91,"friend","Friend","Close","Nonmatching",556,0.556,1
995543587,93,"self","Self","Self","Matching",518,0.518,1
995543587,95,"friend","Friend","Close","Matching",931,0.931,1
995543587,97,"self","Self","Self","Matching",630,0.63,1
995543587,99,"self","Self","Self","Matching",378,0.378,1
995543587,101,"self","Self","Self","Matching",419,0.419,1
995543587,103,"self","Self","Self","Nonmatching",536,0.536,1
995543587,105,"friend","Friend","Close","Matching",889,0.889,1
995543587,107,"friend","Friend","Close","Matching",530,0.53,1
995543587,109,"friend","Friend","Close","Nonmatching",528,0.528,1
995543587,111,"self","Self","Self","Matching",547,0.547,1
995543587,113,"self","Self","Self","Matching",431,0.431,1
995543587,115,"self","Self","Self","Nonmatching",513,0.513,1
995543587,117,"friend","Friend","Close","Nonmatching",616,0.616,1
995543587,119,"friend","Friend","Close","Nonmatching",526,0.526,1
995543587,121,"friend","Friend","Close","Matching",551,0.551,1
995543587,123,"friend","Friend","Close","Matching",425,0.425,1
995543587,125,"self","Self","Self","Matching",692,0.692,1
995543587,127,"self","Self","Self","Nonmatching",513,0.513,1
995543587,129,"friend","Friend","Close","Matching",608,0.608,0
995543587,131,"self","Self","Self","Nonmatching",649,0.649,1
995543587,133,"self","Self","Self","Nonmatching",705,0.705,1
995543587,135,"self","Self","Self","Matching",367,0.367,1
995543587,137,"friend","Friend","Close","Nonmatching",803,0.803,1
995543587,139,"friend","Friend","Close","Nonmatching",681,0.681,1
995543587,141,"friend","Friend","Close","Nonmatching",605,0.605,1
995543587,143,"self","Self","Self","Nonmatching",701,0.701,1
995543587,145,"friend","Friend","Close","Nonmatching",588,0.588,1
995543587,147,"friend","Friend","Close","Nonmatching",410,0.41,1
995543587,149,"friend","Friend","Close","Matching",636,0.636,0
995543587,151,"self","Self","Self","Nonmatching",639,0.639,1
995543587,153,"self","Self","Self","Matching",534,0.534,1
995543587,155,"friend","Friend","Close","Matching",664,0.664,1
995543587,157,"friend","Friend","Close","Nonmatching",585,0.585,1
995543587,159,"self","Self","Self","Matching",431,0.431,1
995543587,161,"self","Self","Self","Nonmatching",950,0.95,1
995543587,163,"friend","Friend","Close","Nonmatching",1002,1.002,1
995543587,165,"friend","Friend","Close","Matching",421,0.421,1
995543587,167,"self","Self","Self","Matching",646,0.646,1
995543587,169,"self","Self","Self","Nonmatching",1078,1.078,1
995543587,171,"self","Self","Self","Nonmatching",687,0.687,1
995543587,173,"self","Self","Self","Nonmatching",524,0.524,1
995543587,175,"friend","Friend","Close","Matching",648,0.648,1
995543587,177,"self","Self","Self","Nonmatching",775,0.775,1
995543587,179,"self","Self","Self","Matching",647,0.647,1
995543587,181,"friend","Friend","Close","Matching",1028,1.028,1
995543587,183,"friend","Friend","Close","Matching",420,0.42,1
995543587,185,"friend","Friend","Close","Matching",385,0.385,1
995543587,187,"friend","Friend","Close","Matching",529,0.529,1
995543587,189,"self","Self","Self","Nonmatching",808,0.808,1
995543587,191,"friend","Friend","Close","Nonmatching",1034,1.034,1
995543587,193,"friend","Friend","Close","Matching",504,0.504,0
995543587,195,"self","Self","Self","Nonmatching",612,0.612,1
995543587,197,"self","Self","Self","Matching",596,0.596,1
995543587,199,"self","Self","Self","Matching",576,0.576,1
995543587,201,"friend","Friend","Close","Matching",809,0.809,1
995543587,203,"self","Self","Self","Matching",632,0.632,1
995543587,205,"self","Self","Self","Matching",517,0.517,1
995543587,207,"friend","Friend","Close","Matching",465,0.465,1
995543587,209,"self","Self","Self","Nonmatching",568,0.568,1
995543587,211,"self","Self","Self","Nonmatching",633,0.633,1
995543587,213,"friend","Friend","Close","Matching",691,0.691,1
995543587,215,"self","Self","Self","Matching",467,0.467,1
995543587,217,"friend","Friend","Close","Matching",566,0.566,1
995543587,219,"friend","Friend","Close","Matching",497,0.497,1
995543587,221,"self","Self","Self","Nonmatching",412,0.412,1
995543587,223,"friend","Friend","Close","Nonmatching",660,0.66,1
995543587,225,"friend","Friend","Close","Nonmatching",559,0.559,1
995543587,227,"friend","Friend","Close","Nonmatching",615,0.615,1
995543587,229,"self","Self","Self","Nonmatching",893,0.893,1
995543587,231,"self","Self","Self","Matching",565,0.565,1
995543587,233,"self","Self","Self","Nonmatching",680,0.68,1
995543587,235,"self","Self","Self","Matching",539,0.539,1
995543587,237,"self","Self","Self","Matching",518,0.518,1
995543587,239,"self","Self","Self","Matching",487,0.487,1
995543590,1,"friend","Friend","Close","Nonmatching",612,0.612,1
995543590,3,"friend","Friend","Close","Matching",299,0.299,0
995543590,5,"self","Self","Self","Matching",363,0.363,0
995543590,7,"self","Self","Self","Matching",592,0.592,1
995543590,9,"friend","Friend","Close","Matching",815,0.815,0
995543590,11,"self","Self","Self","Matching",595,0.595,1
995543590,13,"self","Self","Self","Nonmatching",634,0.634,0
995543590,15,"self","Self","Self","Matching",566,0.566,1
995543590,17,"friend","Friend","Close","Matching",509,0.509,0
995543590,19,"self","Self","Self","Matching",464,0.464,1
995543590,25,"self","Self","Self","Matching",562,0.562,1
995543590,29,"self","Self","Self","Matching",466,0.466,1
995543590,31,"friend","Friend","Close","Matching",602,0.602,0
995543590,33,"self","Self","Self","Matching",640,0.64,1
995543590,35,"self","Self","Self","Nonmatching",585,0.585,1
995543590,37,"friend","Friend","Close","Nonmatching",1074,1.074,1
995543590,41,"self","Self","Self","Nonmatching",1011,1.011,0
995543590,43,"self","Self","Self","Nonmatching",811,0.811,1
995543590,45,"self","Self","Self","Matching",699,0.699,1
995543590,47,"self","Self","Self","Matching",710,0.71,1
995543590,49,"self","Self","Self","Matching",520,0.52,1
995543590,51,"self","Self","Self","Nonmatching",553,0.553,1
995543590,53,"self","Self","Self","Nonmatching",446,0.446,1
995543590,55,"friend","Friend","Close","Nonmatching",605,0.605,1
995543590,57,"friend","Friend","Close","Nonmatching",822,0.822,1
995543590,59,"self","Self","Self","Matching",1018,1.018,1
995543590,61,"self","Self","Self","Matching",877,0.877,1
995543590,63,"friend","Friend","Close","Matching",818,0.818,1
995543590,65,"friend","Friend","Close","Nonmatching",666,0.666,1
995543590,67,"self","Self","Self","Nonmatching",838,0.838,1
995543590,69,"self","Self","Self","Nonmatching",505,0.505,1
995543590,71,"self","Self","Self","Matching",488,0.488,1
995543590,73,"self","Self","Self","Nonmatching",572,0.572,1
995543590,75,"friend","Friend","Close","Nonmatching",983,0.983,1
995543590,77,"self","Self","Self","Matching",789,0.789,1
995543590,79,"self","Self","Self","Matching",776,0.776,1
995543590,81,"friend","Friend","Close","Nonmatching",676,0.676,1
995543590,83,"self","Self","Self","Matching",539,0.539,1
995543590,85,"friend","Friend","Close","Nonmatching",556,0.556,1
995543590,89,"friend","Friend","Close","Nonmatching",569,0.569,1
995543590,91,"friend","Friend","Close","Nonmatching",763,0.763,1
995543590,93,"friend","Friend","Close","Nonmatching",507,0.507,1
995543590,95,"friend","Friend","Close","Nonmatching",348,0.348,1
995543590,97,"self","Self","Self","Matching",469,0.469,1
995543590,99,"friend","Friend","Close","Nonmatching",442,0.442,1
995543590,101,"self","Self","Self","Matching",487,0.487,1
995543590,103,"friend","Friend","Close","Matching",637,0.637,0
995543590,105,"friend","Friend","Close","Matching",1001,1.001,1
995543590,107,"friend","Friend","Close","Matching",503,0.503,1
995543590,109,"friend","Friend","Close","Nonmatching",534,0.534,1
995543590,111,"self","Self","Self","Matching",527,0.527,1
995543590,113,"self","Self","Self","Matching",520,0.52,1
995543590,115,"friend","Friend","Close","Matching",894,0.894,1
995543590,117,"friend","Friend","Close","Nonmatching",789,0.789,1
995543590,119,"friend","Friend","Close","Matching",992,0.992,1
995543590,121,"self","Self","Self","Nonmatching",761,0.761,1
995543590,123,"friend","Friend","Close","Nonmatching",767,0.767,1
995543590,125,"self","Self","Self","Nonmatching",765,0.765,1
995543590,127,"self","Self","Self","Matching",388,0.388,1
995543590,129,"friend","Friend","Close","Matching",401,0.401,0
995543590,131,"friend","Friend","Close","Nonmatching",612,0.612,1
995543590,133,"friend","Friend","Close","Matching",987,0.987,1
995543590,135,"friend","Friend","Close","Matching",905,0.905,1
995543590,137,"friend","Friend","Close","Matching",945,0.945,1
995543590,139,"self","Self","Self","Nonmatching",677,0.677,1
995543590,141,"friend","Friend","Close","Matching",1068,1.068,1
995543590,143,"friend","Friend","Close","Matching",466,0.466,1
995543590,145,"friend","Friend","Close","Nonmatching",525,0.525,1
995543590,147,"friend","Friend","Close","Matching",717,0.717,1
995543590,149,"friend","Friend","Close","Nonmatching",532,0.532,1
995543590,151,"self","Self","Self","Nonmatching",1162,1.162,1
995543590,153,"self","Self","Self","Nonmatching",523,0.523,1
995543590,155,"friend","Friend","Close","Matching",1173,1.173,1
995543590,157,"self","Self","Self","Matching",631,0.631,1
995543590,159,"self","Self","Self","Nonmatching",496,0.496,1
995543590,161,"self","Self","Self","Nonmatching",1000,1,1
995543590,163,"friend","Friend","Close","Nonmatching",698,0.698,1
995543590,165,"friend","Friend","Close","Nonmatching",509,0.509,1
995543590,167,"self","Self","Self","Nonmatching",593,0.593,1
995543590,169,"self","Self","Self","Nonmatching",654,0.654,1
995543590,171,"self","Self","Self","Nonmatching",593,0.593,1
995543590,173,"self","Self","Self","Nonmatching",584,0.584,1
995543590,175,"friend","Friend","Close","Matching",671,0.671,1
995543590,177,"friend","Friend","Close","Matching",877,0.877,1
995543590,179,"friend","Friend","Close","Matching",592,0.592,1
995543590,181,"friend","Friend","Close","Matching",615,0.615,1
995543590,183,"friend","Friend","Close","Nonmatching",852,0.852,1
995543590,185,"self","Self","Self","Nonmatching",714,0.714,1
995543590,187,"self","Self","Self","Nonmatching",548,0.548,1
995543590,189,"friend","Friend","Close","Nonmatching",700,0.7,1
995543590,191,"self","Self","Self","Matching",641,0.641,1
995543590,193,"friend","Friend","Close","Matching",748,0.748,0
995543590,195,"friend","Friend","Close","Matching",721,0.721,1
995543590,197,"self","Self","Self","Nonmatching",602,0.602,1
995543590,199,"self","Self","Self","Nonmatching",1055,1.055,1
995543590,201,"self","Self","Self","Nonmatching",388,0.388,1
995543590,203,"self","Self","Self","Matching",474,0.474,1
995543590,205,"self","Self","Self","Nonmatching",407,0.407,1
995543590,207,"friend","Friend","Close","Nonmatching",558,0.558,1
995543590,209,"friend","Friend","Close","Nonmatching",832,0.832,1
995543590,211,"self","Self","Self","Nonmatching",881,0.881,1
995543590,213,"self","Self","Self","Nonmatching",864,0.864,1
995543590,215,"self","Self","Self","Matching",376,0.376,1
995543590,217,"friend","Friend","Close","Nonmatching",456,0.456,1
995543590,219,"self","Self","Self","Nonmatching",834,0.834,1
995543590,221,"friend","Friend","Close","Nonmatching",634,0.634,1
995543590,223,"friend","Friend","Close","Matching",805,0.805,0
995543590,225,"friend","Friend","Close","Matching",524,0.524,1
995543590,227,"friend","Friend","Close","Matching",645,0.645,1
995543590,229,"self","Self","Self","Matching",655,0.655,1
995543590,231,"self","Self","Self","Matching",408,0.408,1
995543590,233,"friend","Friend","Close","Matching",376,0.376,0
995543590,235,"friend","Friend","Close","Nonmatching",662,0.662,1
995543590,237,"friend","Friend","Close","Nonmatching",674,0.674,1
995543590,239,"friend","Friend","Close","Matching",809,0.809,1
995543592,1,"friend","Friend","Close","Matching",255,0.255,1
995543592,5,"friend","Friend","Close","Matching",565,0.565,1
995543592,7,"friend","Friend","Close","Matching",563,0.563,1
995543592,9,"self","Self","Self","Matching",276,0.276,1
995543592,11,"friend","Friend","Close","Matching",425,0.425,1
995543592,13,"self","Self","Self","Matching",275,0.275,1
995543592,15,"self","Self","Self","Nonmatching",352,0.352,0
995543592,17,"self","Self","Self","Matching",338,0.338,1
995543592,19,"self","Self","Self","Nonmatching",779,0.779,1
995543592,21,"friend","Friend","Close","Nonmatching",521,0.521,0
995543592,23,"friend","Friend","Close","Nonmatching",400,0.4,0
995543592,25,"self","Self","Self","Nonmatching",513,0.513,0
995543592,27,"self","Self","Self","Matching",738,0.738,1
995543592,29,"friend","Friend","Close","Matching",335,0.335,1
995543592,31,"self","Self","Self","Matching",319,0.319,1
995543592,33,"friend","Friend","Close","Nonmatching",680,0.68,1
995543592,35,"self","Self","Self","Nonmatching",872,0.872,1
995543592,37,"self","Self","Self","Nonmatching",727,0.727,1
995543592,39,"self","Self","Self","Matching",540,0.54,1
995543592,41,"friend","Friend","Close","Nonmatching",712,0.712,0
995543592,45,"friend","Friend","Close","Matching",805,0.805,1
995543592,47,"friend","Friend","Close","Nonmatching",1072,1.072,1
995543592,49,"friend","Friend","Close","Nonmatching",719,0.719,1
995543592,51,"friend","Friend","Close","Matching",755,0.755,1
995543592,53,"friend","Friend","Close","Nonmatching",689,0.689,1
995543592,55,"friend","Friend","Close","Matching",929,0.929,1
995543592,57,"self","Self","Self","Matching",799,0.799,1
995543592,59,"self","Self","Self","Nonmatching",751,0.751,1
995543592,61,"self","Self","Self","Matching",696,0.696,1
995543592,63,"friend","Friend","Close","Matching",653,0.653,1
995543592,65,"friend","Friend","Close","Matching",697,0.697,1
995543592,67,"friend","Friend","Close","Matching",396,0.396,1
995543592,69,"friend","Friend","Close","Matching",591,0.591,1
995543592,71,"friend","Friend","Close","Matching",714,0.714,1
995543592,73,"self","Self","Self","Matching",1166,1.166,1
995543592,75,"friend","Friend","Close","Matching",766,0.766,1
995543592,77,"friend","Friend","Close","Nonmatching",989,0.989,0
995543592,79,"self","Self","Self","Matching",571,0.571,1
995543592,81,"friend","Friend","Close","Matching",575,0.575,1
995543592,83,"friend","Friend","Close","Matching",624,0.624,1
995543592,85,"self","Self","Self","Nonmatching",1015,1.015,1
995543592,87,"self","Self","Self","Nonmatching",930,0.93,1
995543592,89,"self","Self","Self","Matching",638,0.638,1
995543592,91,"friend","Friend","Close","Nonmatching",991,0.991,1
995543592,93,"self","Self","Self","Matching",990,0.99,1
995543592,95,"self","Self","Self","Nonmatching",776,0.776,1
995543592,97,"self","Self","Self","Nonmatching",536,0.536,1
995543592,101,"friend","Friend","Close","Nonmatching",468,0.468,0
995543592,103,"friend","Friend","Close","Matching",981,0.981,1
995543592,105,"self","Self","Self","Nonmatching",492,0.492,1
995543592,107,"friend","Friend","Close","Matching",616,0.616,0
995543592,109,"self","Self","Self","Matching",909,0.909,1
995543592,111,"self","Self","Self","Nonmatching",898,0.898,1
995543592,113,"self","Self","Self","Nonmatching",467,0.467,1
995543592,115,"friend","Friend","Close","Nonmatching",308,0.308,0
995543592,119,"friend","Friend","Close","Nonmatching",1028,1.028,0
995543592,121,"friend","Friend","Close","Matching",563,0.563,1
995543592,123,"self","Self","Self","Matching",1004,1.004,1
995543592,125,"friend","Friend","Close","Matching",837,0.837,1
995543592,127,"self","Self","Self","Matching",978,0.978,1
995543592,129,"self","Self","Self","Matching",599,0.599,1
995543592,131,"self","Self","Self","Nonmatching",753,0.753,1
995543592,133,"self","Self","Self","Matching",842,0.842,1
995543592,135,"friend","Friend","Close","Nonmatching",708,0.708,1
995543592,137,"self","Self","Self","Matching",561,0.561,1
995543592,139,"self","Self","Self","Nonmatching",860,0.86,1
995543592,141,"friend","Friend","Close","Matching",687,0.687,1
995543592,143,"friend","Friend","Close","Matching",475,0.475,1
995543592,145,"friend","Friend","Close","Nonmatching",888,0.888,1
995543592,147,"friend","Friend","Close","Nonmatching",475,0.475,0
995543592,151,"self","Self","Self","Matching",628,0.628,1
995543592,153,"self","Self","Self","Matching",938,0.938,1
995543592,155,"self","Self","Self","Matching",694,0.694,1
995543592,157,"self","Self","Self","Matching",693,0.693,1
995543592,161,"friend","Friend","Close","Matching",910,0.91,1
995543592,163,"friend","Friend","Close","Nonmatching",644,0.644,1
995543592,165,"self","Self","Self","Nonmatching",965,0.965,0
995543592,167,"friend","Friend","Close","Nonmatching",519,0.519,0
995543592,171,"self","Self","Self","Nonmatching",1113,1.113,1
995543592,173,"self","Self","Self","Nonmatching",753,0.753,1
995543592,175,"friend","Friend","Close","Nonmatching",1129,1.129,1
995543592,177,"friend","Friend","Close","Nonmatching",812,0.812,1
995543592,179,"self","Self","Self","Nonmatching",722,0.722,1
995543592,181,"friend","Friend","Close","Nonmatching",773,0.773,1
995543592,183,"self","Self","Self","Nonmatching",890,0.89,1
995543592,185,"friend","Friend","Close","Matching",724,0.724,1
995543592,187,"self","Self","Self","Matching",755,0.755,1
995543592,189,"self","Self","Self","Nonmatching",1065,1.065,0
995543592,191,"self","Self","Self","Matching",657,0.657,1
995543592,193,"friend","Friend","Close","Matching",376,0.376,1
995543592,197,"friend","Friend","Close","Matching",853,0.853,1
995543592,199,"self","Self","Self","Nonmatching",926,0.926,1
995543592,201,"self","Self","Self","Nonmatching",813,0.813,1
995543592,203,"friend","Friend","Close","Nonmatching",1147,1.147,1
995543592,205,"self","Self","Self","Nonmatching",1003,1.003,1
995543592,207,"friend","Friend","Close","Matching",658,0.658,0
995543592,209,"self","Self","Self","Matching",890,0.89,1
995543592,211,"self","Self","Self","Matching",996,0.996,1
995543592,213,"friend","Friend","Close","Nonmatching",954,0.954,1
995543592,215,"friend","Friend","Close","Matching",579,0.579,1
995543592,217,"friend","Friend","Close","Nonmatching",596,0.596,1
995543592,219,"friend","Friend","Close","Nonmatching",764,0.764,1
995543592,221,"self","Self","Self","Nonmatching",855,0.855,1
995543592,223,"self","Self","Self","Matching",888,0.888,1
995543592,225,"self","Self","Self","Matching",1031,1.031,1
995543592,229,"self","Self","Self","Nonmatching",972,0.972,1
995543592,231,"friend","Friend","Close","Nonmatching",948,0.948,0
995543592,235,"self","Self","Self","Matching",870,0.87,1
995543592,237,"friend","Friend","Close","Nonmatching",877,0.877,0
995543592,239,"friend","Friend","Close","Nonmatching",784,0.784,1
995543595,3,"self","Self","Self","Matching",474,0.474,1
995543595,5,"friend","Friend","Close","Matching",338,0.338,0
995543595,7,"self","Self","Self","Matching",465,0.465,1
995543595,9,"self","Self","Self","Matching",433,0.433,1
995543595,11,"friend","Friend","Close","Nonmatching",938,0.938,1
995543595,13,"self","Self","Self","Nonmatching",887,0.887,1
995543595,15,"friend","Friend","Close","Matching",777,0.777,1
995543595,17,"friend","Friend","Close","Nonmatching",567,0.567,1
995543595,19,"friend","Friend","Close","Matching",644,0.644,1
995543595,21,"friend","Friend","Close","Matching",508,0.508,1
995543595,23,"self","Self","Self","Matching",405,0.405,1
995543595,25,"friend","Friend","Close","Matching",775,0.775,0
995543595,27,"self","Self","Self","Nonmatching",704,0.704,1
995543595,29,"self","Self","Self","Nonmatching",608,0.608,0
995543595,31,"friend","Friend","Close","Nonmatching",1038,1.038,1
995543595,33,"friend","Friend","Close","Nonmatching",698,0.698,1
995543595,35,"self","Self","Self","Matching",496,0.496,1
995543595,37,"self","Self","Self","Matching",496,0.496,1
995543595,39,"self","Self","Self","Matching",332,0.332,1
995543595,41,"self","Self","Self","Nonmatching",763,0.763,1
995543595,43,"friend","Friend","Close","Matching",444,0.444,1
995543595,45,"friend","Friend","Close","Matching",608,0.608,1
995543595,47,"friend","Friend","Close","Matching",563,0.563,1
995543595,49,"friend","Friend","Close","Matching",456,0.456,1
995543595,51,"self","Self","Self","Nonmatching",303,0.303,0
995543595,53,"friend","Friend","Close","Matching",428,0.428,1
995543595,55,"friend","Friend","Close","Matching",414,0.414,1
995543595,57,"self","Self","Self","Nonmatching",425,0.425,1
995543595,59,"friend","Friend","Close","Nonmatching",900,0.9,1
995543595,61,"self","Self","Self","Matching",378,0.378,1
995543595,63,"self","Self","Self","Matching",290,0.29,1
995543595,65,"friend","Friend","Close","Matching",480,0.48,0
995543595,67,"self","Self","Self","Matching",418,0.418,1
995543595,69,"friend","Friend","Close","Matching",575,0.575,1
995543595,71,"self","Self","Self","Matching",482,0.482,1
995543595,73,"friend","Friend","Close","Nonmatching",505,0.505,1
995543595,75,"self","Self","Self","Matching",444,0.444,1
995543595,77,"self","Self","Self","Matching",467,0.467,1
995543595,79,"self","Self","Self","Matching",376,0.376,1
995543595,81,"self","Self","Self","Matching",337,0.337,1
995543595,83,"friend","Friend","Close","Nonmatching",408,0.408,1
995543595,85,"friend","Friend","Close","Nonmatching",542,0.542,1
995543595,87,"friend","Friend","Close","Matching",569,0.569,1
995543595,89,"self","Self","Self","Nonmatching",868,0.868,1
995543595,91,"self","Self","Self","Matching",340,0.34,1
995543595,93,"self","Self","Self","Nonmatching",813,0.813,0
995543595,95,"self","Self","Self","Matching",312,0.312,1
995543595,97,"friend","Friend","Close","Matching",466,0.466,1
995543595,99,"self","Self","Self","Nonmatching",506,0.506,1
995543595,101,"friend","Friend","Close","Matching",642,0.642,1
995543595,103,"friend","Friend","Close","Matching",528,0.528,1
995543595,105,"self","Self","Self","Matching",461,0.461,1
995543595,107,"self","Self","Self","Nonmatching",629,0.629,1
995543595,109,"self","Self","Self","Nonmatching",572,0.572,0
995543595,111,"friend","Friend","Close","Nonmatching",843,0.843,1
995543595,113,"self","Self","Self","Nonmatching",482,0.482,1
995543595,115,"friend","Friend","Close","Matching",676,0.676,1
995543595,117,"self","Self","Self","Nonmatching",765,0.765,1
995543595,119,"friend","Friend","Close","Nonmatching",707,0.707,1
995543595,121,"friend","Friend","Close","Nonmatching",787,0.787,1
995543595,123,"self","Self","Self","Matching",389,0.389,1
995543595,125,"self","Self","Self","Matching",382,0.382,1
995543595,127,"self","Self","Self","Nonmatching",508,0.508,1
995543595,129,"friend","Friend","Close","Matching",462,0.462,1
995543595,131,"self","Self","Self","Nonmatching",724,0.724,1
995543595,133,"self","Self","Self","Nonmatching",491,0.491,1
995543595,135,"friend","Friend","Close","Nonmatching",676,0.676,1
995543595,137,"friend","Friend","Close","Nonmatching",673,0.673,1
995543595,139,"friend","Friend","Close","Nonmatching",401,0.401,1
995543595,141,"friend","Friend","Close","Matching",507,0.507,0
995543595,143,"friend","Friend","Close","Matching",380,0.38,0
995543595,145,"self","Self","Self","Matching",503,0.503,1
995543595,147,"friend","Friend","Close","Nonmatching",595,0.595,1
995543595,149,"self","Self","Self","Matching",737,0.737,1
995543595,151,"self","Self","Self","Nonmatching",575,0.575,1
995543595,153,"friend","Friend","Close","Nonmatching",1035,1.035,1
995543595,155,"self","Self","Self","Matching",550,0.55,1
995543595,157,"friend","Friend","Close","Matching",985,0.985,1
995543595,159,"friend","Friend","Close","Nonmatching",510,0.51,1
995543595,161,"self","Self","Self","Nonmatching",914,0.914,0
995543595,163,"friend","Friend","Close","Matching",767,0.767,1
995543595,165,"friend","Friend","Close","Nonmatching",543,0.543,1
995543595,167,"self","Self","Self","Matching",588,0.588,1
995543595,169,"friend","Friend","Close","Matching",652,0.652,1
995543595,171,"self","Self","Self","Nonmatching",631,0.631,1
995543595,173,"friend","Friend","Close","Nonmatching",703,0.703,1
995543595,175,"self","Self","Self","Matching",485,0.485,1
995543595,177,"self","Self","Self","Matching",465,0.465,1
995543595,179,"self","Self","Self","Nonmatching",815,0.815,1
995543595,181,"friend","Friend","Close","Nonmatching",758,0.758,1
995543595,183,"self","Self","Self","Nonmatching",1133,1.133,1
995543595,185,"friend","Friend","Close","Nonmatching",543,0.543,1
995543595,187,"self","Self","Self","Nonmatching",579,0.579,1
995543595,189,"self","Self","Self","Nonmatching",425,0.425,1
995543595,191,"self","Self","Self","Matching",378,0.378,1
995543595,193,"self","Self","Self","Nonmatching",460,0.46,1
995543595,195,"friend","Friend","Close","Nonmatching",660,0.66,1
995543595,197,"friend","Friend","Close","Nonmatching",705,0.705,1
995543595,199,"friend","Friend","Close","Nonmatching",405,0.405,1
995543595,201,"friend","Friend","Close","Nonmatching",384,0.384,1
995543595,203,"friend","Friend","Close","Matching",548,0.548,1
995543595,205,"self","Self","Self","Matching",542,0.542,1
995543595,207,"self","Self","Self","Matching",352,0.352,1
995543595,209,"self","Self","Self","Nonmatching",460,0.46,1
995543595,211,"friend","Friend","Close","Nonmatching",550,0.55,1
995543595,213,"self","Self","Self","Nonmatching",795,0.795,1
995543595,215,"friend","Friend","Close","Nonmatching",580,0.58,1
995543595,217,"friend","Friend","Close","Matching",639,0.639,1
995543595,219,"friend","Friend","Close","Matching",674,0.674,0
995543595,221,"self","Self","Self","Nonmatching",741,0.741,1
995543595,223,"self","Self","Self","Nonmatching",562,0.562,1
995543595,225,"self","Self","Self","Nonmatching",252,0.252,1
995543595,227,"friend","Friend","Close","Matching",389,0.389,1
995543595,229,"self","Self","Self","Nonmatching",469,0.469,1
995543595,231,"friend","Friend","Close","Matching",431,0.431,0
995543595,235,"friend","Friend","Close","Nonmatching",475,0.475,1
995543595,237,"self","Self","Self","Matching",264,0.264,0
995543595,239,"friend","Friend","Close","Nonmatching",546,0.546,1
995543596,1,"friend","Friend","Close","Nonmatching",1108,1.108,1
995543596,3,"self","Self","Self","Matching",610,0.61,1
995543596,5,"friend","Friend","Close","Matching",708,0.708,0
995543596,7,"friend","Friend","Close","Matching",890,0.89,1
995543596,9,"self","Self","Self","Matching",504,0.504,1
995543596,11,"friend","Friend","Close","Nonmatching",439,0.439,1
995543596,13,"self","Self","Self","Matching",671,0.671,1
995543596,15,"self","Self","Self","Nonmatching",558,0.558,1
995543596,17,"self","Self","Self","Nonmatching",650,0.65,1
995543596,19,"self","Self","Self","Matching",466,0.466,1
995543596,21,"self","Self","Self","Matching",489,0.489,1
995543596,23,"self","Self","Self","Matching",456,0.456,1
995543596,25,"friend","Friend","Close","Matching",600,0.6,1
995543596,27,"self","Self","Self","Matching",457,0.457,1
995543596,29,"friend","Friend","Close","Nonmatching",601,0.601,1
995543596,31,"friend","Friend","Close","Nonmatching",675,0.675,1
995543596,33,"self","Self","Self","Matching",570,0.57,1
995543596,35,"self","Self","Self","Matching",430,0.43,1
995543596,37,"friend","Friend","Close","Nonmatching",743,0.743,1
995543596,39,"friend","Friend","Close","Nonmatching",564,0.564,1
995543596,41,"friend","Friend","Close","Matching",464,0.464,1
995543596,43,"friend","Friend","Close","Matching",528,0.528,0
995543596,45,"friend","Friend","Close","Nonmatching",645,0.645,1
995543596,47,"self","Self","Self","Matching",606,0.606,1
995543596,49,"self","Self","Self","Nonmatching",544,0.544,1
995543596,51,"friend","Friend","Close","Matching",652,0.652,1
995543596,53,"self","Self","Self","Nonmatching",516,0.516,1
995543596,55,"self","Self","Self","Nonmatching",473,0.473,1
995543596,57,"self","Self","Self","Nonmatching",544,0.544,1
995543596,59,"self","Self","Self","Nonmatching",429,0.429,1
995543596,61,"self","Self","Self","Matching",487,0.487,1
995543596,63,"friend","Friend","Close","Nonmatching",501,0.501,1
995543596,65,"self","Self","Self","Nonmatching",499,0.499,0
995543596,67,"friend","Friend","Close","Nonmatching",529,0.529,0
995543596,69,"self","Self","Self","Nonmatching",582,0.582,1
995543596,71,"self","Self","Self","Matching",752,0.752,1
995543596,73,"self","Self","Self","Nonmatching",485,0.485,1
995543596,75,"self","Self","Self","Nonmatching",603,0.603,1
995543596,77,"friend","Friend","Close","Matching",597,0.597,0
995543596,79,"friend","Friend","Close","Matching",607,0.607,1
995543596,81,"self","Self","Self","Matching",569,0.569,1
995543596,83,"self","Self","Self","Nonmatching",507,0.507,1
995543596,85,"self","Self","Self","Nonmatching",425,0.425,0
995543596,87,"friend","Friend","Close","Matching",650,0.65,1
995543596,89,"self","Self","Self","Nonmatching",498,0.498,1
995543596,91,"friend","Friend","Close","Nonmatching",689,0.689,1
995543596,93,"friend","Friend","Close","Matching",616,0.616,1
995543596,95,"self","Self","Self","Nonmatching",465,0.465,1
995543596,97,"friend","Friend","Close","Matching",513,0.513,1
995543596,99,"self","Self","Self","Nonmatching",479,0.479,1
995543596,101,"friend","Friend","Close","Matching",894,0.894,1
995543596,103,"friend","Friend","Close","Nonmatching",492,0.492,1
995543596,105,"self","Self","Self","Nonmatching",891,0.891,1
995543596,107,"self","Self","Self","Matching",513,0.513,1
995543596,109,"self","Self","Self","Matching",559,0.559,1
995543596,111,"friend","Friend","Close","Nonmatching",531,0.531,0
995543596,113,"self","Self","Self","Matching",400,0.4,1
995543596,115,"self","Self","Self","Matching",401,0.401,1
995543596,117,"friend","Friend","Close","Nonmatching",619,0.619,1
995543596,119,"self","Self","Self","Matching",604,0.604,1
995543596,121,"self","Self","Self","Nonmatching",582,0.582,1
995543596,123,"friend","Friend","Close","Nonmatching",497,0.497,0
995543596,125,"self","Self","Self","Nonmatching",776,0.776,1
995543596,127,"self","Self","Self","Matching",411,0.411,1
995543596,129,"friend","Friend","Close","Matching",908,0.908,1
995543596,131,"friend","Friend","Close","Matching",410,0.41,1
995543596,133,"friend","Friend","Close","Nonmatching",548,0.548,1
995543596,135,"self","Self","Self","Matching",506,0.506,1
995543596,137,"friend","Friend","Close","Matching",447,0.447,1
995543596,139,"self","Self","Self","Nonmatching",560,0.56,1
995543596,141,"self","Self","Self","Matching",491,0.491,1
995543596,143,"self","Self","Self","Matching",449,0.449,1
995543596,145,"friend","Friend","Close","Matching",553,0.553,1
995543596,147,"friend","Friend","Close","Matching",557,0.557,1
995543596,149,"friend","Friend","Close","Matching",737,0.737,1
995543596,151,"friend","Friend","Close","Nonmatching",502,0.502,1
995543596,153,"friend","Friend","Close","Nonmatching",420,0.42,1
995543596,155,"friend","Friend","Close","Nonmatching",493,0.493,1
995543596,157,"friend","Friend","Close","Matching",644,0.644,1
995543596,159,"friend","Friend","Close","Nonmatching",612,0.612,1
995543596,161,"self","Self","Self","Matching",389,0.389,1
995543596,163,"friend","Friend","Close","Matching",441,0.441,1
995543596,165,"friend","Friend","Close","Nonmatching",577,0.577,1
995543596,167,"self","Self","Self","Nonmatching",508,0.508,0
995543596,169,"friend","Friend","Close","Matching",466,0.466,1
995543596,171,"self","Self","Self","Nonmatching",832,0.832,1
995543596,173,"self","Self","Self","Matching",530,0.53,1
995543596,175,"friend","Friend","Close","Nonmatching",631,0.631,1
995543596,177,"friend","Friend","Close","Nonmatching",593,0.593,1
995543596,179,"self","Self","Self","Nonmatching",498,0.498,1
995543596,181,"friend","Friend","Close","Matching",569,0.569,1
995543596,183,"friend","Friend","Close","Matching",732,0.732,1
995543596,185,"friend","Friend","Close","Matching",537,0.537,1
995543596,187,"friend","Friend","Close","Matching",350,0.35,1
995543596,189,"friend","Friend","Close","Nonmatching",241,0.241,0
995543596,191,"friend","Friend","Close","Matching",378,0.378,0
995543596,193,"self","Self","Self","Nonmatching",597,0.597,1
995543596,195,"self","Self","Self","Matching",343,0.343,1
995543596,197,"self","Self","Self","Matching",404,0.404,1
995543596,199,"self","Self","Self","Nonmatching",453,0.453,1
995543596,201,"self","Self","Self","Matching",469,0.469,1
995543596,203,"friend","Friend","Close","Nonmatching",517,0.517,1
995543596,205,"self","Self","Self","Nonmatching",530,0.53,1
995543596,207,"self","Self","Self","Matching",374,0.374,1
995543596,209,"friend","Friend","Close","Matching",585,0.585,1
995543596,211,"friend","Friend","Close","Nonmatching",460,0.46,1
995543596,213,"friend","Friend","Close","Nonmatching",596,0.596,1
995543596,215,"self","Self","Self","Nonmatching",741,0.741,1
995543596,217,"self","Self","Self","Nonmatching",507,0.507,1
995543596,219,"friend","Friend","Close","Matching",449,0.449,0
995543596,221,"self","Self","Self","Matching",409,0.409,1
995543596,223,"self","Self","Self","Matching",555,0.555,1
995543596,225,"friend","Friend","Close","Matching",783,0.783,1
995543596,227,"friend","Friend","Close","Nonmatching",521,0.521,1
995543596,229,"self","Self","Self","Nonmatching",558,0.558,1
995543596,231,"friend","Friend","Close","Nonmatching",563,0.563,1
995543596,233,"friend","Friend","Close","Nonmatching",414,0.414,1
995543596,235,"self","Self","Self","Nonmatching",560,0.56,1
995543596,237,"friend","Friend","Close","Matching",643,0.643,1
995543596,239,"friend","Friend","Close","Nonmatching",525,0.525,1
995543597,7,"self","Self","Self","Nonmatching",869,0.869,1
995543597,13,"self","Self","Self","Nonmatching",1198,1.198,1
995543597,15,"friend","Friend","Close","Matching",1191,1.191,1
995543597,19,"self","Self","Self","Matching",1055,1.055,1
995543597,21,"self","Self","Self","Matching",535,0.535,1
995543597,23,"friend","Friend","Close","Matching",873,0.873,1
995543597,25,"self","Self","Self","Nonmatching",684,0.684,1
995543597,27,"friend","Friend","Close","Nonmatching",1191,1.191,1
995543597,29,"self","Self","Self","Matching",585,0.585,1
995543597,31,"self","Self","Self","Matching",455,0.455,1
995543597,33,"self","Self","Self","Nonmatching",715,0.715,1
995543597,35,"self","Self","Self","Matching",795,0.795,1
995543597,37,"self","Self","Self","Matching",364,0.364,1
995543597,39,"friend","Friend","Close","Matching",844,0.844,0
995543597,41,"self","Self","Self","Nonmatching",809,0.809,1
995543597,43,"friend","Friend","Close","Nonmatching",649,0.649,0
995543597,45,"friend","Friend","Close","Nonmatching",717,0.717,1
995543597,47,"friend","Friend","Close","Matching",972,0.972,1
995543597,49,"self","Self","Self","Nonmatching",725,0.725,1
995543597,51,"friend","Friend","Close","Matching",601,0.601,0
995543597,53,"friend","Friend","Close","Nonmatching",776,0.776,1
995543597,55,"self","Self","Self","Nonmatching",590,0.59,1
995543597,57,"self","Self","Self","Nonmatching",774,0.774,1
995543597,59,"self","Self","Self","Matching",752,0.752,1
995543597,61,"self","Self","Self","Nonmatching",735,0.735,1
995543597,63,"self","Self","Self","Nonmatching",664,0.664,1
995543597,65,"friend","Friend","Close","Matching",938,0.938,1
995543597,67,"self","Self","Self","Matching",621,0.621,1
995543597,69,"friend","Friend","Close","Matching",876,0.876,0
995543597,71,"friend","Friend","Close","Matching",730,0.73,1
995543597,73,"friend","Friend","Close","Nonmatching",939,0.939,1
995543597,75,"self","Self","Self","Nonmatching",852,0.852,1
995543597,77,"friend","Friend","Close","Nonmatching",532,0.532,1
995543597,79,"self","Self","Self","Nonmatching",882,0.882,0
995543597,81,"friend","Friend","Close","Matching",744,0.744,1
995543597,83,"self","Self","Self","Nonmatching",748,0.748,0
995543597,85,"friend","Friend","Close","Matching",872,0.872,1
995543597,87,"self","Self","Self","Nonmatching",477,0.477,1
995543597,89,"friend","Friend","Close","Matching",1166,1.166,1
995543597,91,"friend","Friend","Close","Matching",465,0.465,1
995543597,93,"friend","Friend","Close","Nonmatching",641,0.641,1
995543597,95,"self","Self","Self","Nonmatching",991,0.991,1
995543597,97,"friend","Friend","Close","Matching",674,0.674,1
995543597,99,"self","Self","Self","Matching",726,0.726,1
995543597,101,"self","Self","Self","Matching",556,0.556,1
995543597,103,"self","Self","Self","Matching",483,0.483,1
995543597,105,"friend","Friend","Close","Nonmatching",859,0.859,1
995543597,107,"self","Self","Self","Matching",804,0.804,1
995543597,109,"friend","Friend","Close","Matching",659,0.659,1
995543597,111,"self","Self","Self","Matching",648,0.648,1
995543597,113,"friend","Friend","Close","Matching",619,0.619,1
995543597,115,"self","Self","Self","Nonmatching",773,0.773,1
995543597,117,"friend","Friend","Close","Nonmatching",1167,1.167,1
995543597,119,"friend","Friend","Close","Matching",720,0.72,1
995543597,121,"friend","Friend","Close","Nonmatching",886,0.886,1
995543597,123,"friend","Friend","Close","Nonmatching",497,0.497,1
995543597,125,"friend","Friend","Close","Matching",713,0.713,1
995543597,127,"self","Self","Self","Matching",669,0.669,1
995543597,129,"self","Self","Self","Matching",625,0.625,1
995543597,133,"self","Self","Self","Nonmatching",604,0.604,1
995543597,135,"self","Self","Self","Nonmatching",620,0.62,1
995543597,137,"friend","Friend","Close","Nonmatching",561,0.561,0
995543597,139,"self","Self","Self","Nonmatching",966,0.966,1
995543597,141,"friend","Friend","Close","Nonmatching",616,0.616,0
995543597,143,"friend","Friend","Close","Matching",686,0.686,1
995543597,145,"self","Self","Self","Matching",335,0.335,1
995543597,147,"friend","Friend","Close","Nonmatching",503,0.503,1
995543597,149,"self","Self","Self","Nonmatching",813,0.813,1
995543597,151,"friend","Friend","Close","Nonmatching",716,0.716,1
995543597,153,"self","Self","Self","Matching",458,0.458,1
995543597,155,"friend","Friend","Close","Nonmatching",997,0.997,1
995543597,157,"self","Self","Self","Matching",837,0.837,1
995543597,159,"friend","Friend","Close","Nonmatching",787,0.787,1
995543597,161,"friend","Friend","Close","Nonmatching",617,0.617,1
995543597,163,"friend","Friend","Close","Matching",884,0.884,1
995543597,165,"self","Self","Self","Nonmatching",741,0.741,1
995543597,167,"self","Self","Self","Matching",929,0.929,1
995543597,169,"self","Self","Self","Matching",650,0.65,1
995543597,171,"self","Self","Self","Nonmatching",565,0.565,1
995543597,173,"friend","Friend","Close","Matching",725,0.725,1
995543597,175,"self","Self","Self","Matching",869,0.869,1
995543597,177,"friend","Friend","Close","Nonmatching",913,0.913,1
995543597,179,"self","Self","Self","Matching",457,0.457,1
995543597,181,"self","Self","Self","Matching",584,0.584,1
995543597,183,"self","Self","Self","Nonmatching",628,0.628,1
995543597,185,"friend","Friend","Close","Nonmatching",893,0.893,1
995543597,187,"friend","Friend","Close","Nonmatching",976,0.976,1
995543597,189,"self","Self","Self","Matching",542,0.542,1
995543597,191,"friend","Friend","Close","Nonmatching",713,0.713,1
995543597,193,"friend","Friend","Close","Matching",767,0.767,1
995543597,195,"self","Self","Self","Nonmatching",728,0.728,1
995543597,197,"friend","Friend","Close","Matching",856,0.856,1
995543597,199,"friend","Friend","Close","Matching",624,0.624,1
995543597,201,"friend","Friend","Close","Matching",656,0.656,1
995543597,203,"friend","Friend","Close","Nonmatching",757,0.757,1
995543597,205,"self","Self","Self","Matching",891,0.891,1
995543597,207,"friend","Friend","Close","Matching",1021,1.021,1
995543597,209,"self","Self","Self","Nonmatching",697,0.697,1
995543597,211,"friend","Friend","Close","Matching",885,0.885,1
995543597,213,"friend","Friend","Close","Nonmatching",843,0.843,1
995543597,215,"friend","Friend","Close","Matching",1054,1.054,1
995543597,217,"self","Self","Self","Matching",846,0.846,1
995543597,221,"friend","Friend","Close","Nonmatching",885,0.885,1
995543597,223,"friend","Friend","Close","Nonmatching",523,0.523,1
995543597,225,"friend","Friend","Close","Nonmatching",430,0.43,1
995543597,227,"self","Self","Self","Nonmatching",840,0.84,1
995543597,229,"self","Self","Self","Nonmatching",646,0.646,1
995543597,231,"friend","Friend","Close","Nonmatching",531,0.531,1
995543597,233,"self","Self","Self","Matching",567,0.567,1
995543597,235,"self","Self","Self","Matching",720,0.72,1
995543597,237,"self","Self","Self","Nonmatching",615,0.615,1
995543597,239,"self","Self","Self","Matching",696,0.696,1
995543600,1,"friend","Friend","Close","Nonmatching",822,0.822,1
995543600,3,"friend","Friend","Close","Nonmatching",663,0.663,1
995543600,5,"self","Self","Self","Matching",673,0.673,1
995543600,7,"friend","Friend","Close","Matching",680,0.68,0
995543600,9,"self","Self","Self","Nonmatching",873,0.873,1
995543600,11,"friend","Friend","Close","Matching",396,0.396,1
995543600,13,"self","Self","Self","Nonmatching",645,0.645,0
995543600,15,"self","Self","Self","Matching",558,0.558,1
995543600,17,"friend","Friend","Close","Nonmatching",631,0.631,1
995543600,19,"friend","Friend","Close","Matching",625,0.625,1
995543600,21,"self","Self","Self","Matching",593,0.593,0
995543600,23,"friend","Friend","Close","Matching",865,0.865,1
995543600,25,"self","Self","Self","Matching",773,0.773,1
995543600,27,"self","Self","Self","Nonmatching",571,0.571,1
995543600,29,"friend","Friend","Close","Nonmatching",1025,1.025,1
995543600,31,"friend","Friend","Close","Nonmatching",701,0.701,1
995543600,33,"self","Self","Self","Matching",590,0.59,1
995543600,35,"friend","Friend","Close","Matching",789,0.789,1
995543600,37,"self","Self","Self","Nonmatching",886,0.886,1
995543600,39,"friend","Friend","Close","Matching",641,0.641,1
995543600,41,"friend","Friend","Close","Matching",561,0.561,1
995543600,43,"self","Self","Self","Matching",735,0.735,1
995543600,45,"self","Self","Self","Matching",584,0.584,1
995543600,47,"self","Self","Self","Matching",377,0.377,1
995543600,49,"self","Self","Self","Nonmatching",496,0.496,1
995543600,51,"friend","Friend","Close","Matching",635,0.635,1
995543600,53,"friend","Friend","Close","Matching",482,0.482,1
995543600,55,"self","Self","Self","Nonmatching",499,0.499,1
995543600,57,"friend","Friend","Close","Nonmatching",668,0.668,1
995543600,59,"self","Self","Self","Nonmatching",853,0.853,1
995543600,61,"self","Self","Self","Nonmatching",488,0.488,1
995543600,63,"self","Self","Self","Nonmatching",369,0.369,1
995543600,65,"friend","Friend","Close","Matching",626,0.626,1
995543600,67,"self","Self","Self","Nonmatching",578,0.578,1
995543600,69,"self","Self","Self","Matching",662,0.662,1
995543600,71,"self","Self","Self","Nonmatching",471,0.471,1
995543600,73,"friend","Friend","Close","Nonmatching",704,0.704,0
995543600,75,"friend","Friend","Close","Nonmatching",326,0.326,1
995543600,77,"self","Self","Self","Matching",593,0.593,1
995543600,79,"self","Self","Self","Matching",389,0.389,1
995543600,81,"friend","Friend","Close","Nonmatching",540,0.54,1
995543600,83,"self","Self","Self","Nonmatching",808,0.808,1
995543600,85,"friend","Friend","Close","Nonmatching",625,0.625,0
995543600,87,"self","Self","Self","Matching",613,0.613,1
995543600,89,"self","Self","Self","Nonmatching",585,0.585,1
995543600,91,"friend","Friend","Close","Nonmatching",807,0.807,1
995543600,93,"self","Self","Self","Matching",861,0.861,1
995543600,95,"friend","Friend","Close","Matching",730,0.73,1
995543600,97,"self","Self","Self","Nonmatching",768,0.768,1
995543600,99,"self","Self","Self","Matching",898,0.898,1
995543600,101,"friend","Friend","Close","Matching",840,0.84,1
995543600,103,"friend","Friend","Close","Matching",398,0.398,1
995543600,105,"friend","Friend","Close","Nonmatching",488,0.488,1
995543600,107,"self","Self","Self","Matching",695,0.695,1
995543600,109,"friend","Friend","Close","Nonmatching",580,0.58,1
995543600,111,"friend","Friend","Close","Nonmatching",393,0.393,1
995543600,113,"self","Self","Self","Nonmatching",619,0.619,1
995543600,115,"friend","Friend","Close","Matching",536,0.536,0
995543600,117,"self","Self","Self","Matching",740,0.74,1
995543600,119,"friend","Friend","Close","Matching",306,0.306,1
995543600,121,"self","Self","Self","Nonmatching",489,0.489,1
995543600,123,"self","Self","Self","Matching",645,0.645,1
995543600,125,"self","Self","Self","Nonmatching",617,0.617,1
995543600,127,"self","Self","Self","Matching",717,0.717,1
995543600,129,"friend","Friend","Close","Matching",599,0.599,1
995543600,131,"self","Self","Self","Nonmatching",712,0.712,0
995543600,133,"self","Self","Self","Matching",766,0.766,1
995543600,135,"friend","Friend","Close","Nonmatching",331,0.331,1
995543600,137,"self","Self","Self","Matching",767,0.767,1
995543600,139,"friend","Friend","Close","Matching",828,0.828,1
995543600,141,"self","Self","Self","Matching",616,0.616,1
995543600,143,"friend","Friend","Close","Nonmatching",611,0.611,1
995543600,145,"self","Self","Self","Nonmatching",1116,1.116,1
995543600,147,"self","Self","Self","Nonmatching",1198,1.198,1
995543600,149,"self","Self","Self","Matching",635,0.635,1
995543600,151,"friend","Friend","Close","Nonmatching",1020,1.02,0
995543600,153,"self","Self","Self","Nonmatching",785,0.785,1
995543600,155,"friend","Friend","Close","Nonmatching",826,0.826,1
995543600,157,"self","Self","Self","Matching",622,0.622,1
995543600,159,"self","Self","Self","Nonmatching",450,0.45,1
995543600,161,"friend","Friend","Close","Matching",667,0.667,1
995543600,163,"friend","Friend","Close","Matching",481,0.481,1
995543600,165,"friend","Friend","Close","Nonmatching",537,0.537,1
995543600,167,"self","Self","Self","Nonmatching",788,0.788,1
995543600,169,"friend","Friend","Close","Nonmatching",628,0.628,1
995543600,171,"self","Self","Self","Nonmatching",683,0.683,1
995543600,173,"friend","Friend","Close","Matching",626,0.626,1
995543600,175,"friend","Friend","Close","Matching",503,0.503,0
995543600,177,"friend","Friend","Close","Matching",563,0.563,1
995543600,179,"self","Self","Self","Matching",869,0.869,1
995543600,181,"friend","Friend","Close","Matching",467,0.467,0
995543600,183,"friend","Friend","Close","Nonmatching",416,0.416,0
995543600,185,"self","Self","Self","Nonmatching",892,0.892,1
995543600,187,"friend","Friend","Close","Matching",761,0.761,1
995543600,189,"friend","Friend","Close","Nonmatching",470,0.47,1
995543600,191,"self","Self","Self","Matching",775,0.775,1
995543600,193,"friend","Friend","Close","Matching",935,0.935,1
995543600,195,"friend","Friend","Close","Nonmatching",499,0.499,1
995543600,197,"self","Self","Self","Matching",646,0.646,1
995543600,199,"friend","Friend","Close","Matching",833,0.833,1
995543600,201,"friend","Friend","Close","Matching",471,0.471,1
995543600,203,"friend","Friend","Close","Nonmatching",561,0.561,1
995543600,205,"self","Self","Self","Nonmatching",1110,1.11,1
995543600,207,"friend","Friend","Close","Nonmatching",463,0.463,0
995543600,209,"self","Self","Self","Matching",668,0.668,1
995543600,211,"friend","Friend","Close","Nonmatching",1043,1.043,0
995543600,215,"friend","Friend","Close","Matching",683,0.683,1
995543600,217,"self","Self","Self","Nonmatching",1109,1.109,1
995543600,219,"friend","Friend","Close","Matching",508,0.508,0
995543600,221,"self","Self","Self","Nonmatching",1101,1.101,1
995543600,223,"friend","Friend","Close","Nonmatching",800,0.8,1
995543600,225,"friend","Friend","Close","Nonmatching",555,0.555,1
995543600,227,"self","Self","Self","Nonmatching",740,0.74,1
995543600,229,"friend","Friend","Close","Matching",988,0.988,1
995543600,231,"self","Self","Self","Matching",651,0.651,1
995543600,233,"self","Self","Self","Matching",262,0.262,1
995543600,235,"self","Self","Self","Matching",254,0.254,1
995543600,237,"friend","Friend","Close","Nonmatching",677,0.677,1
995543600,239,"self","Self","Self","Nonmatching",882,0.882,1
995543601,1,"friend","Friend","Close","Matching",1106,1.106,1
995543601,3,"friend","Friend","Close","Nonmatching",839,0.839,1
995543601,5,"self","Self","Self","Matching",1080,1.08,1
995543601,7,"friend","Friend","Close","Nonmatching",937,0.937,1
995543601,9,"self","Self","Self","Matching",861,0.861,1
995543601,11,"self","Self","Self","Nonmatching",559,0.559,1
995543601,13,"friend","Friend","Close","Nonmatching",572,0.572,0
995543601,15,"self","Self","Self","Matching",577,0.577,1
995543601,17,"friend","Friend","Close","Matching",920,0.92,1
995543601,19,"self","Self","Self","Nonmatching",886,0.886,1
995543601,21,"friend","Friend","Close","Matching",1103,1.103,1
995543601,23,"self","Self","Self","Matching",566,0.566,1
995543601,25,"self","Self","Self","Matching",578,0.578,1
995543601,27,"friend","Friend","Close","Nonmatching",859,0.859,1
995543601,29,"self","Self","Self","Matching",550,0.55,1
995543601,31,"friend","Friend","Close","Matching",635,0.635,1
995543601,33,"self","Self","Self","Matching",610,0.61,1
995543601,35,"self","Self","Self","Nonmatching",572,0.572,1
995543601,37,"self","Self","Self","Nonmatching",738,0.738,1
995543601,39,"friend","Friend","Close","Nonmatching",759,0.759,1
995543601,41,"friend","Friend","Close","Matching",652,0.652,1
995543601,43,"friend","Friend","Close","Matching",705,0.705,1
995543601,45,"self","Self","Self","Nonmatching",501,0.501,1
995543601,47,"self","Self","Self","Nonmatching",1140,1.14,1
995543601,49,"self","Self","Self","Matching",609,0.609,1
995543601,51,"friend","Friend","Close","Matching",972,0.972,1
995543601,53,"friend","Friend","Close","Matching",473,0.473,1
995543601,55,"self","Self","Self","Nonmatching",715,0.715,1
995543601,57,"friend","Friend","Close","Matching",606,0.606,1
995543601,59,"self","Self","Self","Nonmatching",966,0.966,0
995543601,61,"friend","Friend","Close","Matching",511,0.511,1
995543601,63,"friend","Friend","Close","Matching",553,0.553,1
995543601,65,"friend","Friend","Close","Nonmatching",622,0.622,0
995543601,67,"self","Self","Self","Nonmatching",944,0.944,1
995543601,69,"self","Self","Self","Matching",795,0.795,1
995543601,71,"self","Self","Self","Nonmatching",791,0.791,1
995543601,73,"friend","Friend","Close","Nonmatching",865,0.865,0
995543601,75,"friend","Friend","Close","Matching",623,0.623,1
995543601,77,"self","Self","Self","Matching",732,0.732,1
995543601,79,"self","Self","Self","Nonmatching",785,0.785,1
995543601,81,"friend","Friend","Close","Matching",619,0.619,1
995543601,83,"self","Self","Self","Matching",580,0.58,1
995543601,85,"friend","Friend","Close","Nonmatching",549,0.549,0
995543601,87,"friend","Friend","Close","Nonmatching",1180,1.18,0
995543601,89,"friend","Friend","Close","Matching",1050,1.05,1
995543601,91,"friend","Friend","Close","Nonmatching",690,0.69,1
