subject,trialnum,shapeassociation,matchingcondition,response,correct,latency
995543569,5,self,mismatching,48,1,968
995543569,7,friend,matching,48,0,1116
995543569,9,friend,mismatching,47,0,1024
995543569,11,friend,matching,47,1,954
995543569,13,friend,mismatching,48,1,865
995543569,15,friend,matching,47,1,1046
995543569,17,self,mismatching,48,1,582
995543569,19,friend,mismatching,47,0,545
995543569,21,self,mismatching,48,1,802
995543569,23,self,mismatching,48,1,966
995543569,27,friend,matching,47,1,663
995543569,29,self,mismatching,48,1,781
995543569,31,self,matching,47,1,742
995543569,33,self,matching,47,1,736
995543569,35,self,matching,47,1,415
995543569,37,friend,mismatching,47,0,545
995543569,39,self,matching,47,1,513
995543569,41,friend,matching,48,0,761
995543569,43,friend,matching,47,1,1146
995543569,45,friend,matching,47,1,822
995543569,47,self,matching,47,1,538
995543569,49,self,matching,47,1,599
995543569,51,friend,matching,47,1,826
995543569,53,friend,mismatching,48,1,657
995543569,55,self,mismatching,48,1,1105
995543569,59,friend,mismatching,48,1,844
995543569,61,self,mismatching,48,1,1111
995543569,63,friend,mismatching,48,1,602
995543569,65,friend,mismatching,48,1,790
995543569,67,friend,mismatching,48,1,502
995543569,69,friend,matching,47,1,494
995543569,71,self,matching,47,1,624
995543569,73,self,matching,47,1,477
995543569,75,friend,mismatching,48,1,784
995543569,77,self,mismatching,48,1,729
995543569,79,self,mismatching,48,1,824
995543569,81,friend,matching,47,1,1019
995543569,83,self,mismatching,48,1,513
995543569,85,friend,mismatching,47,0,391
995543569,87,friend,matching,47,1,1080
995543569,89,self,mismatching,48,1,843
995543569,91,self,matching,47,1,495
995543569,93,self,mismatching,48,1,541
995543569,95,self,mismatching,48,1,718
995543569,97,self,matching,47,1,543
995543569,99,friend,matching,47,1,972
995543569,101,friend,matching,47,1,366
995543569,103,self,mismatching,48,1,510
995543569,105,friend,mismatching,47,0,474
995543569,107,self,matching,47,1,1153
995543569,111,self,matching,47,1,1168
995543569,113,friend,matching,47,1,488
995543569,115,friend,mismatching,48,1,765
995543569,117,friend,matching,48,0,670
995543569,119,self,mismatching,48,1,944
995543569,121,self,mismatching,48,1,744
995543569,123,self,matching,47,1,611
995543569,125,self,matching,47,1,385
995543569,127,self,matching,47,1,394
995543569,129,self,matching,47,1,413
995543569,131,friend,matching,48,0,461
995543569,133,self,mismatching,47,0,674
995543569,135,self,matching,47,1,566
995543569,137,friend,mismatching,48,1,816
995543569,139,friend,mismatching,48,1,768
995543569,141,self,matching,47,1,534
995543569,143,friend,mismatching,48,1,701
995543569,145,friend,matching,47,1,686
995543569,147,self,mismatching,48,1,913
995543569,151,friend,mismatching,48,1,686
995543569,153,self,matching,47,1,413
995543569,155,friend,matching,47,1,942
995543569,157,self,matching,47,1,594
995543569,159,friend,matching,47,1,410
995543569,161,friend,matching,47,1,539
995543569,163,self,mismatching,48,1,561
995543569,165,friend,matching,47,1,559
995543569,167,friend,matching,47,1,507
995543569,169,self,mismatching,47,0,497
995543569,171,friend,mismatching,48,1,861
995543569,173,friend,matching,47,1,1031
995543569,175,friend,matching,47,1,408
995543569,177,friend,mismatching,48,1,639
995543569,179,self,matching,47,1,387
995543569,181,self,mismatching,48,1,621
995543569,183,self,mismatching,48,1,1114
995543569,185,friend,mismatching,47,0,471
995543569,189,self,matching,47,1,985
995543569,191,self,mismatching,48,1,608
995543569,193,self,mismatching,48,1,449
995543569,195,self,matching,47,1,419
995543569,199,self,mismatching,48,1,685
995543569,201,friend,mismatching,48,1,916
995543569,203,friend,mismatching,48,1,1182
995543569,205,friend,mismatching,48,1,493
995543569,207,self,matching,47,1,443
995543569,209,self,matching,47,1,369
995543569,211,friend,mismatching,47,0,263
995543569,213,self,matching,47,1,999
995543569,215,self,mismatching,48,1,1051
995543569,217,self,matching,47,1,1007
995543569,219,friend,mismatching,48,1,735
995543569,221,self,mismatching,48,1,611
995543569,223,friend,mismatching,48,1,834
995543569,225,self,matching,47,1,909
995543569,227,friend,mismatching,48,1,732
995543569,233,self,mismatching,48,1,871
995543569,235,friend,matching,48,0,807
995543569,237,friend,mismatching,48,1,713
995543569,239,self,matching,47,1,883
995543570,1,friend,mismatching,47,1,926
995543570,3,friend,matching,48,1,776
995543570,5,self,mismatching,47,1,918
995543570,7,friend,mismatching,47,1,733
995543570,9,self,mismatching,47,1,837
995543570,11,self,mismatching,47,1,650
995543570,13,friend,matching,47,0,583
995543570,15,friend,mismatching,47,1,695
995543570,17,friend,matching,48,1,808
995543570,19,friend,matching,47,0,656
995543570,21,friend,mismatching,47,1,709
995543570,23,friend,matching,48,1,1019
995543570,25,friend,matching,48,1,731
995543570,27,friend,matching,48,1,535
995543570,29,self,mismatching,47,1,643
995543570,31,self,mismatching,47,1,633
995543570,33,self,matching,48,1,534
995543570,35,friend,mismatching,47,1,764
995543570,37,self,mismatching,47,1,816
995543570,39,self,matching,48,1,552
995543570,41,self,matching,48,1,463
995543570,43,self,matching,48,1,306
995543570,45,self,matching,48,1,297
995543570,47,friend,mismatching,47,1,548
995543570,49,self,mismatching,47,1,703
995543570,51,friend,mismatching,47,1,827
995543570,53,self,matching,48,1,373
995543570,55,self,matching,48,1,462
995543570,57,self,matching,48,1,428
995543570,59,self,mismatching,47,1,498
995543570,61,self,mismatching,47,1,417
995543570,63,self,matching,48,1,582
995543570,65,self,mismatching,47,1,500
995543570,67,self,matching,48,1,504
995543570,69,friend,mismatching,47,1,505
995543570,71,self,mismatching,47,1,573
995543570,73,self,mismatching,47,1,575
995543570,75,friend,mismatching,47,1,672
995543570,77,friend,matching,48,1,584
995543570,79,self,matching,48,1,605
995543570,81,self,matching,48,1,517
995543570,83,friend,matching,48,1,368
995543570,85,self,mismatching,47,1,528
995543570,87,self,matching,48,1,401
995543570,89,self,matching,48,1,530
995543570,91,self,mismatching,47,1,511
995543570,93,friend,mismatching,47,1,619
995543570,95,friend,mismatching,47,1,610
995543570,97,friend,matching,48,1,415
995543570,99,self,mismatching,47,1,385
995543570,101,friend,mismatching,47,1,576
995543570,103,self,matching,48,1,628
995543570,105,self,mismatching,47,1,478
995543570,107,friend,mismatching,47,1,430
995543570,109,self,matching,48,1,669
995543570,111,friend,mismatching,47,1,405
995543570,113,friend,matching,48,1,438
995543570,115,self,mismatching,47,1,436
995543570,117,self,matching,48,1,442
995543570,119,self,mismatching,47,1,503
995543570,121,friend,matching,47,0,481
995543570,123,friend,mismatching,47,1,664
995543570,125,friend,matching,48,1,710
995543570,127,self,mismatching,47,1,542
995543570,129,self,matching,48,1,437
995543570,131,friend,mismatching,47,1,605
995543570,133,friend,matching,48,1,513
995543570,135,self,matching,48,1,527
995543570,137,self,matching,47,0,661
995543570,139,friend,matching,48,1,715
995543570,141,friend,mismatching,47,1,521
995543570,143,friend,mismatching,48,0,574
995543570,145,self,matching,48,1,482
995543570,147,friend,mismatching,47,1,612
995543570,149,friend,matching,48,1,412
995543570,151,self,mismatching,47,1,455
995543570,153,self,mismatching,47,1,688
995543570,155,self,mismatching,47,1,423
995543570,157,friend,mismatching,47,1,607
995543570,159,self,mismatching,47,1,679
995543570,161,self,matching,48,1,802
995543570,163,self,matching,48,1,486
995543570,165,self,matching,48,1,414
995543570,167,friend,matching,47,0,403
995543570,169,friend,matching,48,1,310
995543570,171,friend,matching,48,1,336
995543570,173,friend,matching,48,1,212
995543570,175,self,matching,48,1,452
995543570,177,friend,mismatching,48,0,586
995543570,179,friend,matching,48,1,586
995543570,181,self,matching,48,1,950
995543570,183,friend,mismatching,47,1,667
995543570,185,friend,mismatching,47,1,527
995543570,187,friend,mismatching,47,1,709
995543570,189,friend,matching,48,1,430
995543570,191,friend,matching,48,1,285
995543570,193,friend,mismatching,47,1,542
995543570,195,friend,matching,48,1,479
995543570,197,self,matching,48,1,530
995543570,199,friend,matching,48,1,519
995543570,201,friend,matching,48,1,380
995543570,203,self,mismatching,47,1,623
995543570,205,friend,mismatching,47,1,681
995543570,207,friend,mismatching,47,1,424
995543570,209,friend,mismatching,47,1,335
995543570,211,friend,mismatching,47,1,264
995543570,213,friend,matching,48,1,615
995543570,215,self,mismatching,47,1,596
995543570,217,self,matching,48,1,489
995543570,219,friend,matching,48,1,635
995543570,221,friend,mismatching,47,1,489
995543570,223,self,matching,48,1,503
995543570,225,self,mismatching,47,1,314
995543570,227,friend,matching,48,1,526
995543570,229,self,mismatching,47,1,457
995543570,231,self,matching,48,1,514
995543570,233,self,mismatching,47,1,534
995543570,235,friend,matching,48,1,426
995543570,237,self,mismatching,47,1,450
995543570,239,self,mismatching,47,1,564
995543571,1,self,matching,47,1,1058
995543571,3,friend,mismatching,47,0,879
995543571,5,self,matching,47,1,715
995543571,7,friend,mismatching,48,1,944
995543571,9,self,matching,47,1,913
995543571,11,self,mismatching,48,1,1115
995543571,13,friend,matching,47,1,1112
995543571,15,self,mismatching,48,1,1142
995543571,17,self,mismatching,48,1,1086
995543571,21,friend,mismatching,48,1,1194
995543571,23,self,mismatching,48,1,815
995543571,25,self,matching,47,1,748
995543571,27,friend,matching,47,1,1155
995543571,29,self,mismatching,48,1,993
995543571,31,friend,matching,47,1,1098
995543571,35,self,matching,47,1,988
995543571,37,friend,matching,47,1,1007
995543571,39,friend,mismatching,48,1,852
995543571,41,self,mismatching,48,1,858
995543571,43,friend,mismatching,48,1,1001
995543571,49,friend,mismatching,48,1,828
995543571,51,friend,matching,47,1,870
995543571,53,friend,mismatching,48,1,985
995543571,55,self,matching,47,1,758
995543571,57,self,matching,47,1,704
995543571,59,self,matching,47,1,546
995543571,61,friend,mismatching,48,1,744
995543571,63,self,matching,47,1,837
995543571,65,self,mismatching,48,1,830
995543571,67,self,mismatching,48,1,975
995543571,69,friend,mismatching,48,1,869
995543571,71,friend,matching,47,1,1026
995543571,75,self,matching,47,1,737
995543571,77,friend,matching,47,1,1097
995543571,81,friend,matching,47,1,924
995543571,83,friend,matching,47,1,850
995543571,85,friend,matching,47,1,606
995543571,87,self,mismatching,48,1,813
995543571,89,self,matching,47,1,972
995543571,95,friend,mismatching,48,1,1022
995543571,97,self,matching,47,1,609
995543571,99,friend,matching,47,1,789
995543571,101,self,mismatching,48,1,783
995543571,103,self,matching,47,1,570
995543571,105,friend,mismatching,48,1,858
995543571,107,friend,matching,47,1,852
995543571,109,self,mismatching,48,1,844
995543571,111,self,matching,47,1,717
995543571,113,friend,mismatching,48,1,825
995543571,115,self,matching,47,1,767
995543571,117,self,mismatching,48,1,741
995543571,119,friend,matching,47,1,770
995543571,121,self,mismatching,48,1,809
995543571,123,friend,mismatching,48,1,870
995543571,125,self,mismatching,48,1,1185
995543571,127,self,mismatching,48,1,780
995543571,129,friend,mismatching,48,1,710
995543571,131,friend,mismatching,47,0,808
995543571,133,self,mismatching,48,1,909
995543571,135,friend,matching,47,1,1044
995543571,137,friend,mismatching,48,1,723
995543571,139,friend,mismatching,48,1,908
995543571,141,friend,matching,48,0,655
995543571,143,self,mismatching,48,1,978
995543571,145,friend,matching,47,1,899
995543571,147,friend,mismatching,48,1,781
995543571,151,self,matching,47,1,768
995543571,153,friend,mismatching,48,1,596
995543571,157,friend,matching,47,1,877
995543571,159,friend,matching,47,1,1171
995543571,161,friend,matching,47,1,553
995543571,163,friend,mismatching,48,1,648
995543571,165,friend,mismatching,48,1,797
995543571,167,self,mismatching,48,1,1076
995543571,169,self,matching,47,1,606
995543571,171,friend,mismatching,48,1,540
995543571,173,friend,matching,47,1,1047
995543571,175,friend,matching,47,1,659
995543571,177,friend,mismatching,48,1,616
995543571,179,self,mismatching,48,1,1132
995543571,181,self,matching,47,1,758
995543571,183,self,mismatching,48,1,722
995543571,185,friend,mismatching,48,1,788
995543571,187,friend,mismatching,48,1,737
995543571,189,friend,matching,48,0,783
995543571,191,self,matching,47,1,635
995543571,193,friend,mismatching,48,1,766
995543571,195,self,matching,47,1,715
995543571,197,friend,mismatching,48,1,1200
995543571,199,self,matching,47,1,896
995543571,201,friend,matching,48,0,568
995543571,203,friend,mismatching,48,1,777
995543571,205,friend,mismatching,48,1,812
995543571,207,friend,matching,48,0,1140
995543571,209,self,matching,47,1,775
995543571,211,self,matching,47,1,430
995543571,213,self,mismatching,48,1,635
995543571,215,self,matching,47,1,756
995543571,217,self,matching,47,1,720
995543571,219,self,mismatching,47,0,485
995543571,221,self,matching,47,1,1033
995543571,223,friend,matching,48,0,495
995543571,225,self,matching,47,1,1197
995543571,227,self,mismatching,48,1,787
995543571,229,self,mismatching,48,1,783
995543571,231,self,matching,47,1,665
995543571,235,friend,mismatching,48,1,742
995543571,237,self,matching,47,1,694
995543574,3,self,matching,48,1,1089
995543574,5,friend,mismatching,47,1,850
995543574,7,friend,matching,47,0,1097
995543574,11,self,mismatching,47,1,961
995543574,13,self,mismatching,47,1,465
995543574,15,friend,mismatching,48,0,621
995543574,17,self,mismatching,47,1,1040
995543574,19,self,matching,48,1,640
995543574,23,friend,mismatching,47,1,1123
995543574,25,self,matching,48,1,888
995543574,27,friend,matching,47,0,651
995543574,29,self,matching,48,1,907
995543574,31,self,matching,48,1,788
995543574,33,self,matching,48,1,572
995543574,35,friend,mismatching,47,1,807
995543574,37,friend,mismatching,47,1,616
995543574,41,self,matching,48,1,860
995543574,43,friend,mismatching,47,1,838
995543574,45,self,matching,48,1,771
995543574,47,friend,mismatching,47,1,644
995543574,49,self,mismatching,47,1,916
995543574,51,friend,matching,48,1,703
995543574,53,friend,matching,48,1,704
995543574,55,friend,mismatching,47,1,643
995543574,57,self,mismatching,47,1,730
995543574,59,friend,matching,48,1,714
995543574,61,self,matching,48,1,934
995543574,63,friend,mismatching,47,1,613
995543574,65,self,matching,48,1,613
995543574,67,self,matching,48,1,824
995543574,69,self,mismatching,47,1,784
995543574,71,self,mismatching,47,1,780
995543574,73,friend,matching,48,1,778
995543574,75,self,mismatching,47,1,716
995543574,77,friend,matching,48,1,852
995543574,79,friend,matching,48,1,743
995543574,81,self,mismatching,47,1,606
995543574,83,friend,mismatching,48,0,1004
995543574,85,friend,mismatching,47,1,766
995543574,87,friend,matching,48,1,776
995543574,89,friend,matching,48,1,747
995543574,91,friend,matching,48,1,601
995543574,93,self,matching,48,1,675
995543574,95,self,matching,48,1,549
995543574,97,friend,mismatching,47,1,594
995543574,99,self,matching,48,1,542
995543574,101,friend,mismatching,47,1,710
995543574,103,self,matching,48,1,405
995543574,105,friend,mismatching,47,1,610
995543574,107,self,mismatching,47,1,788
995543574,109,friend,mismatching,47,1,649
995543574,111,self,mismatching,48,0,446
995543574,113,friend,mismatching,47,1,649
995543574,115,friend,matching,48,1,827
995543574,117,friend,mismatching,47,1,633
995543574,119,friend,mismatching,47,1,581
995543574,121,friend,mismatching,47,1,342
995543574,123,friend,mismatching,47,1,281
995543574,125,self,mismatching,47,1,813
995543574,127,self,matching,48,1,706
995543574,129,friend,matching,48,1,623
995543574,131,friend,matching,47,0,1046
995543574,133,friend,mismatching,47,1,698
995543574,135,self,matching,48,1,601
995543574,137,friend,mismatching,47,1,672
995543574,139,friend,matching,48,1,712
995543574,141,self,matching,48,1,820
995543574,143,self,matching,48,1,614
995543574,145,self,mismatching,47,1,798
995543574,147,self,mismatching,47,1,651
995543574,149,friend,mismatching,47,1,805
995543574,151,self,matching,48,1,747
995543574,153,friend,matching,48,1,651
995543574,155,self,matching,48,1,768
995543574,157,friend,matching,48,1,707
995543574,159,friend,matching,48,1,684
995543574,161,self,mismatching,47,1,718
995543574,163,friend,matching,48,1,646
995543574,165,self,matching,48,1,767
995543574,167,self,mismatching,47,1,655
995543574,169,self,matching,48,1,683
995543574,171,self,mismatching,47,1,708
995543574,173,friend,mismatching,47,1,1015
995543574,175,self,matching,48,1,580
995543574,177,friend,mismatching,47,1,631
995543574,179,self,mismatching,47,1,661
995543574,181,friend,matching,48,1,650
995543574,183,self,mismatching,47,1,792
995543574,185,self,mismatching,47,1,519
995543574,187,self,mismatching,47,1,681
995543574,189,friend,mismatching,47,1,871
995543574,191,self,mismatching,47,1,686
995543574,193,self,mismatching,47,1,647
995543574,195,self,matching,48,1,781
995543574,197,friend,matching,48,1,699
995543574,199,self,matching,48,1,898
995543574,201,friend,mismatching,47,1,641
995543574,203,self,matching,48,1,905
995543574,205,friend,mismatching,47,1,597
995543574,207,friend,matching,48,1,652
995543574,209,self,mismatching,47,1,621
995543574,211,self,mismatching,47,1,780
995543574,213,friend,matching,48,1,653
995543574,215,friend,matching,48,1,633
995543574,217,friend,matching,48,1,517
995543574,219,self,mismatching,47,1,592
995543574,221,self,mismatching,47,1,476
995543574,223,friend,matching,48,1,762
995543574,225,self,matching,48,1,637
995543574,227,self,matching,48,1,657
995543574,229,self,matching,48,1,446
995543574,231,friend,mismatching,47,1,492
995543574,233,self,mismatching,47,1,814
995543574,235,friend,mismatching,47,1,555
995543574,237,self,mismatching,47,1,781
995543574,239,friend,matching,48,1,636
995543580,5,friend,mismatching,48,0,533
995543580,23,friend,mismatching,48,0,1058
995543580,25,friend,mismatching,47,1,725
995543580,27,friend,mismatching,47,1,852
995543580,29,self,mismatching,47,1,863
995543580,31,self,matching,48,1,686
995543580,33,self,matching,47,0,251
995543580,35,friend,mismatching,47,1,874
995543580,37,friend,matching,48,1,759
995543580,39,friend,matching,47,0,672
995543580,41,friend,matching,48,1,726
995543580,43,self,mismatching,48,0,625
995543580,45,self,matching,48,1,924
995543580,47,friend,matching,48,1,827
995543580,49,friend,matching,48,1,513
995543580,51,self,mismatching,47,1,856
995543580,53,self,mismatching,47,1,578
995543580,55,self,matching,48,1,458
995543580,57,self,matching,48,1,312
995543580,59,self,matching,48,1,288
995543580,61,friend,mismatching,47,1,724
995543580,63,friend,mismatching,47,1,320
995543580,65,friend,matching,48,1,624
995543580,67,friend,mismatching,47,1,444
995543580,69,friend,matching,48,1,672
995543580,71,friend,mismatching,47,1,483
995543580,73,friend,matching,48,1,411
995543580,75,self,mismatching,47,1,990
995543580,77,self,mismatching,47,1,511
995543580,79,friend,matching,48,1,582
995543580,81,self,mismatching,47,1,811
995543580,83,friend,mismatching,47,1,797
995543580,85,self,matching,48,1,717
995543580,87,self,mismatching,48,0,930
995543580,89,friend,mismatching,48,0,861
995543580,91,friend,matching,48,1,795
995543580,93,friend,matching,48,1,860
995543580,95,friend,matching,48,1,461
995543580,97,self,matching,48,1,592
995543580,99,friend,matching,48,1,567
995543580,101,self,mismatching,47,1,415
995543580,103,friend,matching,48,1,580
995543580,105,self,matching,48,1,515
995543580,107,self,matching,48,1,395
995543580,109,self,mismatching,48,0,572
995543580,111,friend,matching,48,1,748
995543580,113,self,matching,48,1,601
995543580,115,friend,mismatching,47,1,335
995543580,117,self,mismatching,48,0,613
995543580,119,self,matching,48,1,564
995543580,121,self,matching,48,1,430
995543580,123,self,mismatching,47,1,681
995543580,125,friend,matching,48,1,710
995543580,127,friend,matching,48,1,795
995543580,129,friend,matching,48,1,519
995543580,131,friend,matching,48,1,378
995543580,133,self,mismatching,47,1,724
995543580,135,friend,mismatching,47,1,711
995543580,137,friend,mismatching,47,1,314
995543580,139,self,matching,48,1,450
995543580,141,friend,matching,48,1,686
995543580,143,friend,mismatching,47,1,542
995543580,145,self,matching,47,0,725
995543580,147,friend,mismatching,47,1,635
995543580,149,self,mismatching,47,1,406
995543580,151,self,mismatching,47,1,329
995543580,153,self,mismatching,47,1,484
995543580,155,friend,matching,48,1,643
995543580,157,friend,matching,48,1,525
995543580,159,friend,matching,48,1,409
995543580,161,self,matching,48,1,744
995543580,163,friend,matching,48,1,659
995543580,165,friend,mismatching,47,1,487
995543580,167,friend,matching,47,0,469
995543580,169,self,matching,48,1,596
995543580,171,friend,mismatching,47,1,554
995543580,173,self,matching,48,1,551
995543580,175,self,matching,48,1,745
995543580,177,friend,mismatching,47,1,536
995543580,179,self,mismatching,47,1,801
995543580,181,self,matching,48,1,516
995543580,183,friend,mismatching,47,1,694
995543580,185,self,matching,48,1,603
995543580,187,self,matching,48,1,325
995543580,189,friend,matching,48,1,750
995543580,191,self,mismatching,47,1,648
995543580,193,friend,matching,48,1,695
995543580,195,self,mismatching,48,0,790
995543580,197,self,matching,48,1,745
995543580,199,self,mismatching,47,1,647
995543580,201,friend,mismatching,47,1,592
995543580,203,friend,mismatching,47,1,305
995543580,205,self,matching,48,1,565
995543580,207,self,mismatching,47,1,466
995543580,209,friend,mismatching,47,1,446
995543580,211,self,matching,48,1,731
995543580,213,self,mismatching,47,1,463
995543580,215,friend,mismatching,47,1,629
995543580,217,self,mismatching,47,1,615
995543580,219,friend,matching,48,1,498
995543580,221,friend,mismatching,47,1,507
995543580,223,friend,mismatching,47,1,413
995543580,225,self,mismatching,47,1,413
995543580,227,friend,matching,48,1,514
995543580,229,friend,mismatching,47,1,496
995543580,231,self,matching,48,1,581
995543580,233,self,mismatching,47,1,504
995543580,235,self,mismatching,47,1,495
995543580,237,friend,mismatching,47,1,633
995543580,239,self,matching,48,1,597
995543581,1,friend,mismatching,48,1,754
995543581,3,self,mismatching,48,1,592
995543581,5,self,mismatching,48,1,859
995543581,7,friend,mismatching,48,1,696
995543581,9,self,mismatching,48,1,956
995543581,11,self,matching,47,1,634
995543581,13,self,matching,47,1,635
995543581,15,self,matching,47,1,463
995543581,17,friend,mismatching,48,1,850
995543581,19,self,mismatching,48,1,958
995543581,23,friend,mismatching,48,1,898
995543581,25,friend,mismatching,48,1,751
995543581,27,friend,mismatching,48,1,516
995543581,29,self,mismatching,48,1,991
995543581,31,self,mismatching,48,1,704
995543581,33,self,matching,47,1,799
995543581,35,friend,mismatching,47,0,1130
995543581,39,friend,mismatching,48,1,1025
995543581,41,self,mismatching,48,1,895
995543581,43,self,mismatching,48,1,650
995543581,45,friend,matching,47,1,823
995543581,47,friend,matching,47,1,582
995543581,49,self,matching,47,1,1066
995543581,51,self,matching,47,1,583
995543581,53,self,matching,47,1,627
995543581,55,self,matching,47,1,653
995543581,59,self,matching,47,1,545
995543581,65,self,mismatching,48,1,1009
995543581,67,friend,matching,47,1,860
995543581,69,friend,matching,47,1,673
995543581,71,friend,matching,47,1,691
995543581,73,self,matching,47,1,918
995543581,77,friend,matching,47,1,534
995543581,79,friend,mismatching,48,1,715
995543581,81,self,matching,47,1,914
995543581,83,self,matching,47,1,519
995543581,87,self,matching,47,1,748
995543581,89,friend,matching,47,1,1032
995543581,91,friend,matching,47,1,529
995543581,93,friend,mismatching,48,1,788
995543581,95,self,mismatching,48,1,934
995543581,97,friend,mismatching,48,1,991
995543581,99,self,mismatching,48,1,824
995543581,101,self,mismatching,48,1,520
995543581,103,self,matching,47,1,843
995543581,105,friend,matching,47,1,772
995543581,107,friend,matching,47,1,500
995543581,109,self,mismatching,48,1,841
995543581,111,self,matching,47,1,718
995543581,113,friend,mismatching,48,1,1062
995543581,115,self,matching,47,1,697
995543581,117,friend,mismatching,48,1,758
995543581,119,friend,mismatching,48,1,755
995543581,121,friend,matching,47,1,649
995543581,123,self,mismatching,48,1,1102
995543581,125,friend,mismatching,48,1,1016
995543581,127,friend,mismatching,48,1,724
995543581,129,friend,matching,47,1,870
995543581,131,friend,matching,47,1,622
995543581,133,friend,matching,47,1,689
995543581,135,friend,matching,47,1,692
995543581,137,self,mismatching,48,1,856
995543581,139,self,matching,47,1,708
995543581,141,friend,matching,47,1,1139
995543581,143,friend,matching,47,1,542
995543581,145,friend,matching,47,1,538
995543581,147,self,matching,47,1,616
995543581,149,self,mismatching,48,1,871
995543581,151,self,matching,47,1,782
995543581,153,friend,matching,47,1,681
995543581,155,self,matching,47,1,1196
995543581,157,friend,mismatching,48,1,843
995543581,159,friend,mismatching,48,1,792
995543581,161,friend,matching,47,1,627
995543581,163,friend,mismatching,48,1,933
995543581,165,self,mismatching,48,1,942
995543581,167,friend,matching,47,1,886
995543581,169,friend,matching,47,1,730
995543581,171,self,matching,47,1,708
995543581,173,self,mismatching,48,1,835
995543581,177,self,matching,47,1,656
995543581,179,friend,matching,47,1,704
995543581,181,self,mismatching,48,1,743
995543581,183,self,matching,47,1,627
995543581,185,friend,mismatching,48,1,958
995543581,187,friend,mismatching,48,1,923
995543581,189,friend,matching,47,1,658
995543581,191,friend,mismatching,48,1,1137
995543581,193,self,mismatching,47,0,969
995543581,195,self,matching,47,1,966
995543581,197,self,mismatching,48,1,634
995543581,199,friend,mismatching,48,1,823
995543581,203,friend,mismatching,48,1,772
995543581,205,self,matching,47,1,861
995543581,207,self,mismatching,48,1,651
995543581,209,self,matching,47,1,729
995543581,211,self,matching,47,1,683
995543581,213,friend,matching,47,1,797
995543581,215,friend,matching,47,1,592
995543581,217,self,mismatching,48,1,605
995543581,219,self,matching,47,1,789
995543581,221,self,matching,47,1,623
995543581,223,self,mismatching,48,1,545
995543581,225,friend,mismatching,48,1,966
995543581,227,self,matching,47,1,547
995543581,229,friend,mismatching,48,1,753
995543581,231,self,mismatching,48,1,1014
995543581,233,self,mismatching,48,1,811
995543581,235,friend,mismatching,48,1,929
995543581,237,friend,mismatching,48,1,640
995543581,239,friend,matching,47,1,900
995543583,1,friend,matching,48,0,1121
995543583,3,friend,matching,47,1,1065
995543583,5,friend,mismatching,48,1,1170
995543583,7,friend,matching,47,1,916
995543583,11,friend,mismatching,47,0,996
995543583,13,self,matching,47,1,754
995543583,29,self,mismatching,47,0,1036
995543583,33,self,matching,47,1,1154
995543583,35,self,matching,47,1,509
995543583,37,self,mismatching,48,1,760
995543583,41,self,matching,47,1,680
995543583,43,self,mismatching,48,1,953
995543583,47,self,matching,47,1,1107
995543583,49,friend,mismatching,48,1,892
995543583,51,self,matching,47,1,499
995543583,53,self,mismatching,48,1,821
995543583,55,self,matching,47,1,882
995543583,57,friend,mismatching,48,1,1091
995543583,59,friend,mismatching,48,1,1115
995543583,61,self,mismatching,48,1,1097
995543583,63,self,matching,47,1,783
995543583,65,self,matching,47,1,774
995543583,67,friend,matching,48,0,806
995543583,69,self,matching,47,1,801
995543583,71,self,matching,47,1,483
995543583,73,self,mismatching,48,1,715
995543583,77,friend,matching,47,1,985
995543583,79,self,mismatching,47,0,557
995543583,81,self,matching,47,1,602
995543583,83,friend,mismatching,48,1,775
995543583,85,self,matching,47,1,452
995543583,89,self,matching,47,1,581
995543583,91,friend,matching,48,0,667
995543583,93,friend,matching,47,1,733
995543583,95,self,matching,47,1,649
995543583,97,friend,mismatching,48,1,1178
995543583,99,self,mismatching,47,0,807
995543583,101,friend,matching,47,1,1185
995543583,103,friend,mismatching,48,1,1076
995543583,107,self,matching,47,1,824
995543583,109,self,matching,47,1,480
995543583,111,self,matching,47,1,524
995543583,115,friend,matching,47,1,834
995543583,117,self,mismatching,47,0,748
995543583,121,self,mismatching,48,1,987
995543583,123,self,mismatching,48,1,925
995543583,125,self,mismatching,48,1,696
995543583,127,self,matching,47,1,683
995543583,129,self,mismatching,48,1,984
995543583,131,self,mismatching,48,1,993
995543583,133,friend,mismatching,47,0,750
995543583,135,friend,matching,47,1,1063
995543583,137,friend,mismatching,48,1,914
995543583,139,friend,mismatching,48,1,839
995543583,141,friend,matching,48,0,808
995543583,143,self,mismatching,48,1,1127
995543583,145,self,matching,47,1,663
995543583,147,friend,mismatching,48,1,745
995543583,149,friend,mismatching,48,1,783
995543583,151,self,matching,47,1,683
995543583,153,friend,matching,48,0,709
995543583,155,friend,mismatching,48,1,1097
995543583,159,self,mismatching,47,0,718
995543583,161,self,matching,47,1,768
995543583,163,friend,matching,47,1,1126
995543583,167,self,mismatching,47,0,557
995543583,169,self,mismatching,48,1,756
995543583,171,self,matching,47,1,690
995543583,181,self,mismatching,48,1,843
995543583,183,self,mismatching,48,1,815
995543583,185,self,matching,47,1,678
995543583,187,self,mismatching,48,1,896
995543583,189,self,matching,47,1,896
995543583,193,self,matching,47,1,491
995543583,197,friend,mismatching,48,1,730
995543583,199,friend,matching,47,1,994
995543583,201,self,matching,47,1,919
995543583,203,self,matching,48,0,889
995543583,209,self,matching,47,1,824
995543583,213,friend,mismatching,48,1,792
995543583,215,friend,matching,47,1,993
995543583,217,friend,matching,47,1,620
995543583,219,friend,mismatching,48,1,1006
995543583,225,friend,mismatching,48,1,911
995543583,227,friend,matching,47,1,1127
995543583,229,friend,mismatching,48,1,853
995543583,231,self,mismatching,48,1,1157
995543583,237,friend,matching,47,1,973
995543583,239,self,matching,47,1,882
995543587,1,self,mismatching,48,1,926
995543587,3,friend,matching,47,1,946
995543587,5,self,mismatching,48,1,637
995543587,7,self,matching,47,1,538
995543587,9,friend,matching,48,0,607
995543587,11,friend,mismatching,48,1,671
995543587,13,friend,mismatching,48,1,748
995543587,15,self,mismatching,48,1,1035
995543587,17,self,mismatching,48,1,864
995543587,19,self,mismatching,48,1,611
995543587,21,friend,mismatching,48,1,637
995543587,23,friend,mismatching,48,1,535
995543587,25,friend,mismatching,48,1,495
995543587,27,friend,mismatching,48,1,592
995543587,29,self,mismatching,48,1,712
995543587,31,friend,matching,47,1,530
995543587,33,friend,mismatching,48,1,728
995543587,35,friend,mismatching,48,1,403
995543587,37,self,matching,47,1,324
995543587,39,self,mismatching,48,1,638
995543587,41,friend,mismatching,48,1,656
995543587,43,friend,matching,47,1,403
995543587,45,self,matching,48,0,555
995543587,47,self,matching,47,1,396
995543587,49,self,matching,47,1,430
995543587,51,self,matching,47,1,351
995543587,53,self,mismatching,48,1,489
995543587,55,self,mismatching,48,1,493
995543587,57,friend,mismatching,48,1,799
995543587,59,self,matching,47,1,598
995543587,61,friend,matching,48,0,619
995543587,63,friend,matching,47,1,339
995543587,65,friend,mismatching,48,1,557
995543587,67,friend,matching,47,1,567
995543587,69,friend,mismatching,48,1,605
995543587,71,friend,matching,47,1,690
995543587,73,self,mismatching,48,1,664
995543587,75,friend,mismatching,48,1,594
995543587,77,friend,mismatching,48,1,887
995543587,79,friend,mismatching,48,1,510
995543587,81,self,matching,47,1,428
995543587,83,self,matching,47,1,633
995543587,85,self,mismatching,48,1,510
995543587,87,friend,matching,47,1,1044
995543587,89,friend,matching,47,1,515
995543587,91,friend,mismatching,48,1,556
995543587,93,self,matching,47,1,518
995543587,95,friend,matching,47,1,931
995543587,97,self,matching,47,1,630
995543587,99,self,matching,47,1,378
995543587,101,self,matching,47,1,419
995543587,103,self,mismatching,48,1,536
995543587,105,friend,matching,47,1,889
995543587,107,friend,matching,47,1,530
995543587,109,friend,mismatching,48,1,528
995543587,111,self,matching,47,1,547
995543587,113,self,matching,47,1,431
995543587,115,self,mismatching,48,1,513
995543587,117,friend,mismatching,48,1,616
995543587,119,friend,mismatching,48,1,526
995543587,121,friend,matching,47,1,551
995543587,123,friend,matching,47,1,425
995543587,125,self,matching,47,1,692
995543587,127,self,mismatching,48,1,513
995543587,129,friend,matching,48,0,608
995543587,131,self,mismatching,48,1,649
995543587,133,self,mismatching,48,1,705
995543587,135,self,matching,47,1,367
995543587,137,friend,mismatching,48,1,803
995543587,139,friend,mismatching,48,1,681
995543587,141,friend,mismatching,48,1,605
995543587,143,self,mismatching,48,1,701
995543587,145,friend,mismatching,48,1,588
995543587,147,friend,mismatching,48,1,410
995543587,149,friend,matching,48,0,636
995543587,151,self,mismatching,48,1,639
995543587,153,self,matching,47,1,534
995543587,155,friend,matching,47,1,664
995543587,157,friend,mismatching,48,1,585
995543587,159,self,matching,47,1,431
995543587,161,self,mismatching,48,1,950
995543587,163,friend,mismatching,48,1,1002
995543587,165,friend,matching,47,1,421
995543587,167,self,matching,47,1,646
995543587,169,self,mismatching,48,1,1078
995543587,171,self,mismatching,48,1,687
995543587,173,self,mismatching,48,1,524
995543587,175,friend,matching,47,1,648
995543587,177,self,mismatching,48,1,775
995543587,179,self,matching,47,1,647
995543587,181,friend,matching,47,1,1028
995543587,183,friend,matching,47,1,420
995543587,185,friend,matching,47,1,385
995543587,187,friend,matching,47,1,529
995543587,189,self,mismatching,48,1,808
995543587,191,friend,mismatching,48,1,1034
995543587,193,friend,matching,48,0,504
995543587,195,self,mismatching,48,1,612
995543587,197,self,matching,47,1,596
995543587,199,self,matching,47,1,576
995543587,201,friend,matching,47,1,809
995543587,203,self,matching,47,1,632
995543587,205,self,matching,47,1,517
995543587,207,friend,matching,47,1,465
995543587,209,self,mismatching,48,1,568
995543587,211,self,mismatching,48,1,633
995543587,213,friend,matching,47,1,691
995543587,215,self,matching,47,1,467
995543587,217,friend,matching,47,1,566
995543587,219,friend,matching,47,1,497
995543587,221,self,mismatching,48,1,412
995543587,223,friend,mismatching,48,1,660
995543587,225,friend,mismatching,48,1,559
995543587,227,friend,mismatching,48,1,615
995543587,229,self,mismatching,48,1,893
995543587,231,self,matching,47,1,565
995543587,233,self,mismatching,48,1,680
995543587,235,self,matching,47,1,539
995543587,237,self,matching,47,1,518
995543587,239,self,matching,47,1,487
995543590,1,friend,mismatching,47,1,612
995543590,3,friend,matching,47,0,299
995543590,5,self,matching,47,0,363
995543590,7,self,matching,48,1,592
995543590,9,friend,matching,47,0,815
995543590,11,self,matching,48,1,595
995543590,13,self,mismatching,48,0,634
995543590,15,self,matching,48,1,566
995543590,17,friend,matching,47,0,509
995543590,19,self,matching,48,1,464
995543590,25,self,matching,48,1,562
995543590,29,self,matching,48,1,466
995543590,31,friend,matching,47,0,602
995543590,33,self,matching,48,1,640
995543590,35,self,mismatching,47,1,585
995543590,37,friend,mismatching,47,1,1074
995543590,41,self,mismatching,48,0,1011
995543590,43,self,mismatching,47,1,811
995543590,45,self,matching,48,1,699
995543590,47,self,matching,48,1,710
995543590,49,self,matching,48,1,520
995543590,51,self,mismatching,47,1,553
995543590,53,self,mismatching,47,1,446
995543590,55,friend,mismatching,47,1,605
995543590,57,friend,mismatching,47,1,822
995543590,59,self,matching,48,1,1018
995543590,61,self,matching,48,1,877
995543590,63,friend,matching,48,1,818
995543590,65,friend,mismatching,47,1,666
995543590,67,self,mismatching,47,1,838
995543590,69,self,mismatching,47,1,505
995543590,71,self,matching,48,1,488
995543590,73,self,mismatching,47,1,572
995543590,75,friend,mismatching,47,1,983
995543590,77,self,matching,48,1,789
995543590,79,self,matching,48,1,776
995543590,81,friend,mismatching,47,1,676
995543590,83,self,matching,48,1,539
995543590,85,friend,mismatching,47,1,556
995543590,89,friend,mismatching,47,1,569
995543590,91,friend,mismatching,47,1,763
995543590,93,friend,mismatching,47,1,507
995543590,95,friend,mismatching,47,1,348
995543590,97,self,matching,48,1,469
995543590,99,friend,mismatching,47,1,442
995543590,101,self,matching,48,1,487
995543590,103,friend,matching,47,0,637
995543590,105,friend,matching,48,1,1001
995543590,107,friend,matching,48,1,503
995543590,109,friend,mismatching,47,1,534
995543590,111,self,matching,48,1,527
995543590,113,self,matching,48,1,520
995543590,115,friend,matching,48,1,894
995543590,117,friend,mismatching,47,1,789
995543590,119,friend,matching,48,1,992
995543590,121,self,mismatching,47,1,761
995543590,123,friend,mismatching,47,1,767
995543590,125,self,mismatching,47,1,765
995543590,127,self,matching,48,1,388
995543590,129,friend,matching,47,0,401
995543590,131,friend,mismatching,47,1,612
995543590,133,friend,matching,48,1,987
995543590,135,friend,matching,48,1,905
995543590,137,friend,matching,48,1,945
995543590,139,self,mismatching,47,1,677
995543590,141,friend,matching,48,1,1068
995543590,143,friend,matching,48,1,466
995543590,145,friend,mismatching,47,1,525
995543590,147,friend,matching,48,1,717
995543590,149,friend,mismatching,47,1,532
995543590,151,self,mismatching,47,1,1162
995543590,153,self,mismatching,47,1,523
995543590,155,friend,matching,48,1,1173
995543590,157,self,matching,48,1,631
995543590,159,self,mismatching,47,1,496
995543590,161,self,mismatching,47,1,1000
995543590,163,friend,mismatching,47,1,698
995543590,165,friend,mismatching,47,1,509
995543590,167,self,mismatching,47,1,593
995543590,169,self,mismatching,47,1,654
995543590,171,self,mismatching,47,1,593
995543590,173,self,mismatching,47,1,584
995543590,175,friend,matching,48,1,671
995543590,177,friend,matching,48,1,877
995543590,179,friend,matching,48,1,592
995543590,181,friend,matching,48,1,615
995543590,183,friend,mismatching,47,1,852
995543590,185,self,mismatching,47,1,714
995543590,187,self,mismatching,47,1,548
995543590,189,friend,mismatching,47,1,700
995543590,191,self,matching,48,1,641
995543590,193,friend,matching,47,0,748
995543590,195,friend,matching,48,1,721
995543590,197,self,mismatching,47,1,602
995543590,199,self,mismatching,47,1,1055
995543590,201,self,mismatching,47,1,388
995543590,203,self,matching,48,1,474
995543590,205,self,mismatching,47,1,407
995543590,207,friend,mismatching,47,1,558
995543590,209,friend,mismatching,47,1,832
995543590,211,self,mismatching,47,1,881
995543590,213,self,mismatching,47,1,864
995543590,215,self,matching,48,1,376
995543590,217,friend,mismatching,47,1,456
995543590,219,self,mismatching,47,1,834
995543590,221,friend,mismatching,47,1,634
995543590,223,friend,matching,47,0,805
995543590,225,friend,matching,48,1,524
995543590,227,friend,matching,48,1,645
995543590,229,self,matching,48,1,655
995543590,231,self,matching,48,1,408
995543590,233,friend,matching,47,0,376
995543590,235,friend,mismatching,47,1,662
995543590,237,friend,mismatching,47,1,674
995543590,239,friend,matching,48,1,809
995543592,1,friend,matching,48,1,255
995543592,5,friend,matching,48,1,565
995543592,7,friend,matching,48,1,563
995543592,9,self,matching,48,1,276
995543592,11,friend,matching,48,1,425
995543592,13,self,matching,48,1,275
995543592,15,self,mismatching,48,0,352
995543592,17,self,matching,48,1,338
995543592,19,self,mismatching,47,1,779
995543592,21,friend,mismatching,48,0,521
995543592,23,friend,mismatching,48,0,400
995543592,25,self,mismatching,48,0,513
995543592,27,self,matching,48,1,738
995543592,29,friend,matching,48,1,335
995543592,31,self,matching,48,1,319
995543592,33,friend,mismatching,47,1,680
995543592,35,self,mismatching,47,1,872
995543592,37,self,mismatching,47,1,727
995543592,39,self,matching,48,1,540
995543592,41,friend,mismatching,48,0,712
995543592,45,friend,matching,48,1,805
995543592,47,friend,mismatching,47,1,1072
995543592,49,friend,mismatching,47,1,719
995543592,51,friend,matching,48,1,755
995543592,53,friend,mismatching,47,1,689
995543592,55,friend,matching,48,1,929
995543592,57,self,matching,48,1,799
995543592,59,self,mismatching,47,1,751
995543592,61,self,matching,48,1,696
995543592,63,friend,matching,48,1,653
995543592,65,friend,matching,48,1,697
995543592,67,friend,matching,48,1,396
995543592,69,friend,matching,48,1,591
995543592,71,friend,matching,48,1,714
995543592,73,self,matching,48,1,1166
995543592,75,friend,matching,48,1,766
995543592,77,friend,mismatching,48,0,989
995543592,79,self,matching,48,1,571
995543592,81,friend,matching,48,1,575
995543592,83,friend,matching,48,1,624
995543592,85,self,mismatching,47,1,1015
995543592,87,self,mismatching,47,1,930
995543592,89,self,matching,48,1,638
995543592,91,friend,mismatching,47,1,991
995543592,93,self,matching,48,1,990
995543592,95,self,mismatching,47,1,776
995543592,97,self,mismatching,47,1,536
995543592,101,friend,mismatching,48,0,468
995543592,103,friend,matching,48,1,981
995543592,105,self,mismatching,47,1,492
995543592,107,friend,matching,47,0,616
995543592,109,self,matching,48,1,909
995543592,111,self,mismatching,47,1,898
995543592,113,self,mismatching,47,1,467
995543592,115,friend,mismatching,48,0,308
995543592,119,friend,mismatching,48,0,1028
995543592,121,friend,matching,48,1,563
995543592,123,self,matching,48,1,1004
995543592,125,friend,matching,48,1,837
995543592,127,self,matching,48,1,978
995543592,129,self,matching,48,1,599
995543592,131,self,mismatching,47,1,753
995543592,133,self,matching,48,1,842
995543592,135,friend,mismatching,47,1,708
995543592,137,self,matching,48,1,561
995543592,139,self,mismatching,47,1,860
995543592,141,friend,matching,48,1,687
995543592,143,friend,matching,48,1,475
995543592,145,friend,mismatching,47,1,888
995543592,147,friend,mismatching,48,0,475
995543592,151,self,matching,48,1,628
995543592,153,self,matching,48,1,938
995543592,155,self,matching,48,1,694
995543592,157,self,matching,48,1,693
995543592,161,friend,matching,48,1,910
995543592,163,friend,mismatching,47,1,644
995543592,165,self,mismatching,48,0,965
995543592,167,friend,mismatching,48,0,519
995543592,171,self,mismatching,47,1,1113
995543592,173,self,mismatching,47,1,753
995543592,175,friend,mismatching,47,1,1129
995543592,177,friend,mismatching,47,1,812
995543592,179,self,mismatching,47,1,722
995543592,181,friend,mismatching,47,1,773
995543592,183,self,mismatching,47,1,890
995543592,185,friend,matching,48,1,724
995543592,187,self,matching,48,1,755
995543592,189,self,mismatching,48,0,1065
995543592,191,self,matching,48,1,657
995543592,193,friend,matching,48,1,376
995543592,197,friend,matching,48,1,853
995543592,199,self,mismatching,47,1,926
995543592,201,self,mismatching,47,1,813
995543592,203,friend,mismatching,47,1,1147
995543592,205,self,mismatching,47,1,1003
995543592,207,friend,matching,47,0,658
995543592,209,self,matching,48,1,890
995543592,211,self,matching,48,1,996
995543592,213,friend,mismatching,47,1,954
995543592,215,friend,matching,48,1,579
995543592,217,friend,mismatching,47,1,596
995543592,219,friend,mismatching,47,1,764
995543592,221,self,mismatching,47,1,855
995543592,223,self,matching,48,1,888
995543592,225,self,matching,48,1,1031
995543592,229,self,mismatching,47,1,972
995543592,231,friend,mismatching,48,0,948
995543592,235,self,matching,48,1,870
995543592,237,friend,mismatching,48,0,877
995543592,239,friend,mismatching,47,1,784
995543595,3,self,matching,47,1,474
995543595,5,friend,matching,48,0,338
995543595,7,self,matching,47,1,465
995543595,9,self,matching,47,1,433
995543595,11,friend,mismatching,48,1,938
995543595,13,self,mismatching,48,1,887
995543595,15,friend,matching,47,1,777
995543595,17,friend,mismatching,48,1,567
995543595,19,friend,matching,47,1,644
995543595,21,friend,matching,47,1,508
995543595,23,self,matching,47,1,405
995543595,25,friend,matching,48,0,775
995543595,27,self,mismatching,48,1,704
995543595,29,self,mismatching,47,0,608
995543595,31,friend,mismatching,48,1,1038
995543595,33,friend,mismatching,48,1,698
995543595,35,self,matching,47,1,496
995543595,37,self,matching,47,1,496
995543595,39,self,matching,47,1,332
995543595,41,self,mismatching,48,1,763
995543595,43,friend,matching,47,1,444
995543595,45,friend,matching,47,1,608
995543595,47,friend,matching,47,1,563
995543595,49,friend,matching,47,1,456
995543595,51,self,mismatching,47,0,303
995543595,53,friend,matching,47,1,428
995543595,55,friend,matching,47,1,414
995543595,57,self,mismatching,48,1,425
995543595,59,friend,mismatching,48,1,900
995543595,61,self,matching,47,1,378
995543595,63,self,matching,47,1,290
995543595,65,friend,matching,48,0,480
995543595,67,self,matching,47,1,418
995543595,69,friend,matching,47,1,575
995543595,71,self,matching,47,1,482
995543595,73,friend,mismatching,48,1,505
995543595,75,self,matching,47,1,444
995543595,77,self,matching,47,1,467
995543595,79,self,matching,47,1,376
995543595,81,self,matching,47,1,337
995543595,83,friend,mismatching,48,1,408
995543595,85,friend,mismatching,48,1,542
995543595,87,friend,matching,47,1,569
995543595,89,self,mismatching,48,1,868
995543595,91,self,matching,47,1,340
995543595,93,self,mismatching,47,0,813
995543595,95,self,matching,47,1,312
995543595,97,friend,matching,47,1,466
995543595,99,self,mismatching,48,1,506
995543595,101,friend,matching,47,1,642
995543595,103,friend,matching,47,1,528
995543595,105,self,matching,47,1,461
995543595,107,self,mismatching,48,1,629
995543595,109,self,mismatching,47,0,572
995543595,111,friend,mismatching,48,1,843
995543595,113,self,mismatching,48,1,482
995543595,115,friend,matching,47,1,676
995543595,117,self,mismatching,48,1,765
995543595,119,friend,mismatching,48,1,707
995543595,121,friend,mismatching,48,1,787
995543595,123,self,matching,47,1,389
995543595,125,self,matching,47,1,382
995543595,127,self,mismatching,48,1,508
995543595,129,friend,matching,47,1,462
995543595,131,self,mismatching,48,1,724
995543595,133,self,mismatching,48,1,491
995543595,135,friend,mismatching,48,1,676
995543595,137,friend,mismatching,48,1,673
995543595,139,friend,mismatching,48,1,401
995543595,141,friend,matching,48,0,507
995543595,143,friend,matching,48,0,380
995543595,145,self,matching,47,1,503
995543595,147,friend,mismatching,48,1,595
995543595,149,self,matching,47,1,737
995543595,151,self,mismatching,48,1,575
995543595,153,friend,mismatching,48,1,1035
995543595,155,self,matching,47,1,550
995543595,157,friend,matching,47,1,985
995543595,159,friend,mismatching,48,1,510
995543595,161,self,mismatching,47,0,914
995543595,163,friend,matching,47,1,767
995543595,165,friend,mismatching,48,1,543
995543595,167,self,matching,47,1,588
995543595,169,friend,matching,47,1,652
995543595,171,self,mismatching,48,1,631
995543595,173,friend,mismatching,48,1,703
995543595,175,self,matching,47,1,485
995543595,177,self,matching,47,1,465
995543595,179,self,mismatching,48,1,815
995543595,181,friend,mismatching,48,1,758
995543595,183,self,mismatching,48,1,1133
995543595,185,friend,mismatching,48,1,543
995543595,187,self,mismatching,48,1,579
995543595,189,self,mismatching,48,1,425
995543595,191,self,matching,47,1,378
995543595,193,self,mismatching,48,1,460
995543595,195,friend,mismatching,48,1,660
995543595,197,friend,mismatching,48,1,705
995543595,199,friend,mismatching,48,1,405
995543595,201,friend,mismatching,48,1,384
995543595,203,friend,matching,47,1,548
995543595,205,self,matching,47,1,542
995543595,207,self,matching,47,1,352
995543595,209,self,mismatching,48,1,460
995543595,211,friend,mismatching,48,1,550
995543595,213,self,mismatching,48,1,795
995543595,215,friend,mismatching,48,1,580
995543595,217,friend,matching,47,1,639
995543595,219,friend,matching,48,0,674
995543595,221,self,mismatching,48,1,741
995543595,223,self,mismatching,48,1,562
995543595,225,self,mismatching,48,1,252
995543595,227,friend,matching,47,1,389
995543595,229,self,mismatching,48,1,469
995543595,231,friend,matching,48,0,431
995543595,235,friend,mismatching,48,1,475
995543595,237,self,matching,48,0,264
995543595,239,friend,mismatching,48,1,546
995543596,1,friend,mismatching,47,1,1108
995543596,3,self,matching,48,1,610
995543596,5,friend,matching,47,0,708
995543596,7,friend,matching,48,1,890
995543596,9,self,matching,48,1,504
995543596,11,friend,mismatching,47,1,439
995543596,13,self,matching,48,1,671
995543596,15,self,mismatching,47,1,558
995543596,17,self,mismatching,47,1,650
995543596,19,self,matching,48,1,466
995543596,21,self,matching,48,1,489
995543596,23,self,matching,48,1,456
995543596,25,friend,matching,48,1,600
995543596,27,self,matching,48,1,457
995543596,29,friend,mismatching,47,1,601
995543596,31,friend,mismatching,47,1,675
995543596,33,self,matching,48,1,570
995543596,35,self,matching,48,1,430
995543596,37,friend,mismatching,47,1,743
995543596,39,friend,mismatching,47,1,564
995543596,41,friend,matching,48,1,464
995543596,43,friend,matching,47,0,528
995543596,45,friend,mismatching,47,1,645
995543596,47,self,matching,48,1,606
995543596,49,self,mismatching,47,1,544
995543596,51,friend,matching,48,1,652
995543596,53,self,mismatching,47,1,516
995543596,55,self,mismatching,47,1,473
995543596,57,self,mismatching,47,1,544
995543596,59,self,mismatching,47,1,429
995543596,61,self,matching,48,1,487
995543596,63,friend,mismatching,47,1,501
995543596,65,self,mismatching,48,0,499
995543596,67,friend,mismatching,48,0,529
995543596,69,self,mismatching,47,1,582
995543596,71,self,matching,48,1,752
995543596,73,self,mismatching,47,1,485
995543596,75,self,mismatching,47,1,603
995543596,77,friend,matching,47,0,597
995543596,79,friend,matching,48,1,607
995543596,81,self,matching,48,1,569
995543596,83,self,mismatching,47,1,507
995543596,85,self,mismatching,48,0,425
995543596,87,friend,matching,48,1,650
995543596,89,self,mismatching,47,1,498
995543596,91,friend,mismatching,47,1,689
995543596,93,friend,matching,48,1,616
995543596,95,self,mismatching,47,1,465
995543596,97,friend,matching,48,1,513
995543596,99,self,mismatching,47,1,479
995543596,101,friend,matching,48,1,894
995543596,103,friend,mismatching,47,1,492
995543596,105,self,mismatching,47,1,891
995543596,107,self,matching,48,1,513
995543596,109,self,matching,48,1,559
995543596,111,friend,mismatching,48,0,531
995543596,113,self,matching,48,1,400
995543596,115,self,matching,48,1,401
995543596,117,friend,mismatching,47,1,619
995543596,119,self,matching,48,1,604
995543596,121,self,mismatching,47,1,582
995543596,123,friend,mismatching,48,0,497
995543596,125,self,mismatching,47,1,776
995543596,127,self,matching,48,1,411
995543596,129,friend,matching,48,1,908
995543596,131,friend,matching,48,1,410
995543596,133,friend,mismatching,47,1,548
995543596,135,self,matching,48,1,506
995543596,137,friend,matching,48,1,447
995543596,139,self,mismatching,47,1,560
995543596,141,self,matching,48,1,491
995543596,143,self,matching,48,1,449
995543596,145,friend,matching,48,1,553
995543596,147,friend,matching,48,1,557
995543596,149,friend,matching,48,1,737
995543596,151,friend,mismatching,47,1,502
995543596,153,friend,mismatching,47,1,420
995543596,155,friend,mismatching,47,1,493
995543596,157,friend,matching,48,1,644
995543596,159,friend,mismatching,47,1,612
995543596,161,self,matching,48,1,389
995543596,163,friend,matching,48,1,441
995543596,165,friend,mismatching,47,1,577
995543596,167,self,mismatching,48,0,508
995543596,169,friend,matching,48,1,466
995543596,171,self,mismatching,47,1,832
995543596,173,self,matching,48,1,530
995543596,175,friend,mismatching,47,1,631
995543596,177,friend,mismatching,47,1,593
995543596,179,self,mismatching,47,1,498
995543596,181,friend,matching,48,1,569
995543596,183,friend,matching,48,1,732
995543596,185,friend,matching,48,1,537
995543596,187,friend,matching,48,1,350
995543596,189,friend,mismatching,48,0,241
995543596,191,friend,matching,47,0,378
995543596,193,self,mismatching,47,1,597
995543596,195,self,matching,48,1,343
995543596,197,self,matching,48,1,404
995543596,199,self,mismatching,47,1,453
995543596,201,self,matching,48,1,469
995543596,203,friend,mismatching,47,1,517
995543596,205,self,mismatching,47,1,530
995543596,207,self,matching,48,1,374
995543596,209,friend,matching,48,1,585
995543596,211,friend,mismatching,47,1,460
995543596,213,friend,mismatching,47,1,596
995543596,215,self,mismatching,47,1,741
995543596,217,self,mismatching,47,1,507
995543596,219,friend,matching,47,0,449
995543596,221,self,matching,48,1,409
995543596,223,self,matching,48,1,555
995543596,225,friend,matching,48,1,783
995543596,227,friend,mismatching,47,1,521
995543596,229,self,mismatching,47,1,558
995543596,231,friend,mismatching,47,1,563
995543596,233,friend,mismatching,47,1,414
995543596,235,self,mismatching,47,1,560
995543596,237,friend,matching,48,1,643
995543596,239,friend,mismatching,47,1,525
995543597,7,self,mismatching,48,1,869
995543597,13,self,mismatching,48,1,1198
995543597,15,friend,matching,47,1,1191
995543597,19,self,matching,47,1,1055
995543597,21,self,matching,47,1,535
995543597,23,friend,matching,47,1,873
995543597,25,self,mismatching,48,1,684
995543597,27,friend,mismatching,48,1,1191
995543597,29,self,matching,47,1,585
995543597,31,self,matching,47,1,455
995543597,33,self,mismatching,48,1,715
995543597,35,self,matching,47,1,795
995543597,37,self,matching,47,1,364
995543597,39,friend,matching,48,0,844
995543597,41,self,mismatching,48,1,809
995543597,43,friend,mismatching,47,0,649
995543597,45,friend,mismatching,48,1,717
995543597,47,friend,matching,47,1,972
995543597,49,self,mismatching,48,1,725
995543597,51,friend,matching,48,0,601
995543597,53,friend,mismatching,48,1,776
995543597,55,self,mismatching,48,1,590
995543597,57,self,mismatching,48,1,774
995543597,59,self,matching,47,1,752
995543597,61,self,mismatching,48,1,735
995543597,63,self,mismatching,48,1,664
995543597,65,friend,matching,47,1,938
995543597,67,self,matching,47,1,621
995543597,69,friend,matching,48,0,876
995543597,71,friend,matching,47,1,730
995543597,73,friend,mismatching,48,1,939
995543597,75,self,mismatching,48,1,852
995543597,77,friend,mismatching,48,1,532
995543597,79,self,mismatching,47,0,882
995543597,81,friend,matching,47,1,744
995543597,83,self,mismatching,47,0,748
995543597,85,friend,matching,47,1,872
995543597,87,self,mismatching,48,1,477
995543597,89,friend,matching,47,1,1166
995543597,91,friend,matching,47,1,465
995543597,93,friend,mismatching,48,1,641
995543597,95,self,mismatching,48,1,991
995543597,97,friend,matching,47,1,674
995543597,99,self,matching,47,1,726
995543597,101,self,matching,47,1,556
995543597,103,self,matching,47,1,483
995543597,105,friend,mismatching,48,1,859
995543597,107,self,matching,47,1,804
995543597,109,friend,matching,47,1,659
995543597,111,self,matching,47,1,648
995543597,113,friend,matching,47,1,619
995543597,115,self,mismatching,48,1,773
995543597,117,friend,mismatching,48,1,1167
995543597,119,friend,matching,47,1,720
995543597,121,friend,mismatching,48,1,886
995543597,123,friend,mismatching,48,1,497
995543597,125,friend,matching,47,1,713
995543597,127,self,matching,47,1,669
995543597,129,self,matching,47,1,625
995543597,133,self,mismatching,48,1,604
995543597,135,self,mismatching,48,1,620
995543597,137,friend,mismatching,47,0,561
995543597,139,self,mismatching,48,1,966
995543597,141,friend,mismatching,47,0,616
995543597,143,friend,matching,47,1,686
995543597,145,self,matching,47,1,335
995543597,147,friend,mismatching,48,1,503
995543597,149,self,mismatching,48,1,813
995543597,151,friend,mismatching,48,1,716
995543597,153,self,matching,47,1,458
995543597,155,friend,mismatching,48,1,997
995543597,157,self,matching,47,1,837
995543597,159,friend,mismatching,48,1,787
995543597,161,friend,mismatching,48,1,617
995543597,163,friend,matching,47,1,884
995543597,165,self,mismatching,48,1,741
995543597,167,self,matching,47,1,929
995543597,169,self,matching,47,1,650
995543597,171,self,mismatching,48,1,565
995543597,173,friend,matching,47,1,725
995543597,175,self,matching,47,1,869
995543597,177,friend,mismatching,48,1,913
995543597,179,self,matching,47,1,457
995543597,181,self,matching,47,1,584
995543597,183,self,mismatching,48,1,628
995543597,185,friend,mismatching,48,1,893
995543597,187,friend,mismatching,48,1,976
995543597,189,self,matching,47,1,542
995543597,191,friend,mismatching,48,1,713
995543597,193,friend,matching,47,1,767
995543597,195,self,mismatching,48,1,728
995543597,197,friend,matching,47,1,856
995543597,199,friend,matching,47,1,624
995543597,201,friend,matching,47,1,656
995543597,203,friend,mismatching,48,1,757
995543597,205,self,matching,47,1,891
995543597,207,friend,matching,47,1,1021
995543597,209,self,mismatching,48,1,697
995543597,211,friend,matching,47,1,885
995543597,213,friend,mismatching,48,1,843
995543597,215,friend,matching,47,1,1054
995543597,217,self,matching,47,1,846
995543597,221,friend,mismatching,48,1,885
995543597,223,friend,mismatching,48,1,523
995543597,225,friend,mismatching,48,1,430
995543597,227,self,mismatching,48,1,840
995543597,229,self,mismatching,48,1,646
995543597,231,friend,mismatching,48,1,531
995543597,233,self,matching,47,1,567
995543597,235,self,matching,47,1,720
995543597,237,self,mismatching,48,1,615
995543597,239,self,matching,47,1,696
995543600,1,friend,mismatching,47,1,822
995543600,3,friend,mismatching,47,1,663
995543600,5,self,matching,48,1,673
995543600,7,friend,matching,47,0,680
995543600,9,self,mismatching,47,1,873
995543600,11,friend,matching,48,1,396
995543600,13,self,mismatching,48,0,645
995543600,15,self,matching,48,1,558
995543600,17,friend,mismatching,47,1,631
995543600,19,friend,matching,48,1,625
995543600,21,self,matching,47,0,593
995543600,23,friend,matching,48,1,865
995543600,25,self,matching,48,1,773
995543600,27,self,mismatching,47,1,571
995543600,29,friend,mismatching,47,1,1025
995543600,31,friend,mismatching,47,1,701
995543600,33,self,matching,48,1,590
995543600,35,friend,matching,48,1,789
995543600,37,self,mismatching,47,1,886
995543600,39,friend,matching,48,1,641
995543600,41,friend,matching,48,1,561
995543600,43,self,matching,48,1,735
995543600,45,self,matching,48,1,584
995543600,47,self,matching,48,1,377
995543600,49,self,mismatching,47,1,496
995543600,51,friend,matching,48,1,635
995543600,53,friend,matching,48,1,482
995543600,55,self,mismatching,47,1,499
995543600,57,friend,mismatching,47,1,668
995543600,59,self,mismatching,47,1,853
995543600,61,self,mismatching,47,1,488
995543600,63,self,mismatching,47,1,369
995543600,65,friend,matching,48,1,626
995543600,67,self,mismatching,47,1,578
995543600,69,self,matching,48,1,662
995543600,71,self,mismatching,47,1,471
995543600,73,friend,mismatching,48,0,704
995543600,75,friend,mismatching,47,1,326
995543600,77,self,matching,48,1,593
995543600,79,self,matching,48,1,389
995543600,81,friend,mismatching,47,1,540
995543600,83,self,mismatching,47,1,808
995543600,85,friend,mismatching,48,0,625
995543600,87,self,matching,48,1,613
995543600,89,self,mismatching,47,1,585
995543600,91,friend,mismatching,47,1,807
995543600,93,self,matching,48,1,861
995543600,95,friend,matching,48,1,730
995543600,97,self,mismatching,47,1,768
995543600,99,self,matching,48,1,898
995543600,101,friend,matching,48,1,840
995543600,103,friend,matching,48,1,398
995543600,105,friend,mismatching,47,1,488
995543600,107,self,matching,48,1,695
995543600,109,friend,mismatching,47,1,580
995543600,111,friend,mismatching,47,1,393
995543600,113,self,mismatching,47,1,619
995543600,115,friend,matching,47,0,536
995543600,117,self,matching,48,1,740
995543600,119,friend,matching,48,1,306
995543600,121,self,mismatching,47,1,489
995543600,123,self,matching,48,1,645
995543600,125,self,mismatching,47,1,617
995543600,127,self,matching,48,1,717
995543600,129,friend,matching,48,1,599
995543600,131,self,mismatching,48,0,712
995543600,133,self,matching,48,1,766
995543600,135,friend,mismatching,47,1,331
995543600,137,self,matching,48,1,767
995543600,139,friend,matching,48,1,828
995543600,141,self,matching,48,1,616
995543600,143,friend,mismatching,47,1,611
995543600,145,self,mismatching,47,1,1116
995543600,147,self,mismatching,47,1,1198
995543600,149,self,matching,48,1,635
995543600,151,friend,mismatching,48,0,1020
995543600,153,self,mismatching,47,1,785
995543600,155,friend,mismatching,47,1,826
995543600,157,self,matching,48,1,622
995543600,159,self,mismatching,47,1,450
995543600,161,friend,matching,48,1,667
995543600,163,friend,matching,48,1,481
995543600,165,friend,mismatching,47,1,537
995543600,167,self,mismatching,47,1,788
995543600,169,friend,mismatching,47,1,628
995543600,171,self,mismatching,47,1,683
995543600,173,friend,matching,48,1,626
995543600,175,friend,matching,47,0,503
995543600,177,friend,matching,48,1,563
995543600,179,self,matching,48,1,869
995543600,181,friend,matching,47,0,467
995543600,183,friend,mismatching,48,0,416
995543600,185,self,mismatching,47,1,892
995543600,187,friend,matching,48,1,761
995543600,189,friend,mismatching,47,1,470
995543600,191,self,matching,48,1,775
995543600,193,friend,matching,48,1,935
995543600,195,friend,mismatching,47,1,499
995543600,197,self,matching,48,1,646
995543600,199,friend,matching,48,1,833
995543600,201,friend,matching,48,1,471
995543600,203,friend,mismatching,47,1,561
995543600,205,self,mismatching,47,1,1110
995543600,207,friend,mismatching,48,0,463
995543600,209,self,matching,48,1,668
995543600,211,friend,mismatching,48,0,1043
995543600,215,friend,matching,48,1,683
995543600,217,self,mismatching,47,1,1109
995543600,219,friend,matching,47,0,508
995543600,221,self,mismatching,47,1,1101
995543600,223,friend,mismatching,47,1,800
995543600,225,friend,mismatching,47,1,555
995543600,227,self,mismatching,47,1,740
995543600,229,friend,matching,48,1,988
995543600,231,self,matching,48,1,651
995543600,233,self,matching,48,1,262
995543600,235,self,matching,48,1,254
995543600,237,friend,mismatching,47,1,677
995543600,239,self,mismatching,47,1,882
995543602,1,self,matching,48,1,933
995543602,3,self,matching,48,1,1161
995543602,5,friend,matching,47,0,626
995543602,7,friend,matching,48,1,845
995543602,9,friend,matching,48,1,484
995543602,11,self,mismatching,47,1,662
995543602,15,friend,mismatching,48,0,790
995543602,21,friend,matching,47,0,891
995543602,25,self,mismatching,47,1,756
995543602,27,self,matching,48,1,1035
995543602,29,self,matching,48,1,832
995543602,31,self,mismatching,47,1,772
995543602,33,friend,mismatching,48,0,1043
995543602,37,friend,mismatching,47,1,481
995543602,39,friend,mismatching,47,1,516
995543602,41,self,matching,48,1,706
995543602,43,friend,matching,47,0,937
995543602,45,friend,matching,48,1,760
995543602,47,self,matching,48,1,557
995543602,49,self,matching,48,1,482
995543602,53,friend,matching,48,1,448
995543602,55,self,mismatching,47,1,1011
995543602,57,friend,mismatching,47,1,1098
995543602,61,friend,mismatching,47,1,727
995543602,63,friend,matching,48,1,919
995543602,65,self,matching,48,1,775
995543602,67,self,mismatching,47,1,940
995543602,69,self,mismatching,47,1,1159
995543602,71,self,mismatching,47,1,790
995543602,73,friend,mismatching,47,1,982
995543602,77,friend,mismatching,47,1,640
995543602,81,friend,mismatching,47,1,939
995543602,83,self,mismatching,47,1,982
995543602,91,friend,mismatching,47,1,832
995543602,93,self,mismatching,47,1,783
995543602,95,self,matching,48,1,420
995543602,97,friend,mismatching,47,1,702
995543602,99,self,mismatching,47,1,1020
995543602,101,self,mismatching,47,1,612
995543602,103,self,mismatching,47,1,526
995543602,105,self,matching,48,1,677
995543602,107,self,mismatching,47,1,583
995543602,109,self,matching,48,1,467
995543602,111,friend,mismatching,47,1,511
995543602,113,friend,matching,48,1,1052
995543602,115,friend,matching,48,1,753
995543602,117,friend,mismatching,47,1,660
995543602,119,friend,matching,48,1,866
995543602,121,self,mismatching,47,1,615
995543602,123,friend,matching,48,1,816
995543602,125,friend,matching,48,1,465
995543602,127,self,matching,48,1,692
995543602,129,friend,mismatching,47,1,1004
995543602,131,friend,mismatching,47,1,548
995543602,133,friend,mismatching,47,1,508
995543602,135,friend,mismatching,47,1,447
995543602,141,self,matching,48,1,884
995543602,143,friend,mismatching,47,1,626
995543602,145,self,matching,48,1,582
995543602,147,self,matching,48,1,631
995543602,149,self,matching,48,1,472
995543602,151,friend,mismatching,47,1,753
995543602,155,friend,matching,47,0,1116
995543602,157,self,mismatching,47,1,1031
995543602,159,self,matching,48,1,661
995543602,161,self,mismatching,47,1,567
995543602,165,self,matching,48,1,766
995543602,167,friend,mismatching,47,1,862
995543602,171,self,matching,48,1,831
995543602,173,friend,mismatching,47,1,648
995543602,175,self,matching,48,1,722
995543602,177,self,matching,48,1,374
995543602,179,friend,matching,48,1,668
995543602,181,self,matching,48,1,649
995543602,183,friend,mismatching,47,1,641
995543602,185,self,matching,48,1,732
995543602,187,self,mismatching,47,1,853
995543602,189,friend,matching,48,1,827
995543602,191,friend,matching,48,1,1129
995543602,193,friend,matching,48,1,455
995543602,195,friend,matching,48,1,381
995543602,197,friend,mismatching,47,1,812
995543602,199,friend,mismatching,47,1,914
995543602,201,friend,mismatching,47,1,527
995543602,203,friend,matching,48,1,880
995543602,205,friend,matching,48,1,760
995543602,207,self,matching,48,1,672
995543602,209,self,matching,48,1,383
995543602,211,friend,mismatching,47,1,608
995543602,215,self,mismatching,47,1,851
995543602,217,self,matching,48,1,1131
995543602,219,friend,matching,48,1,1051
995543602,221,self,mismatching,47,1,888
995543602,223,self,mismatching,47,1,639
995543602,225,self,matching,48,1,764
995543602,227,self,mismatching,47,1,910
995543602,229,self,matching,48,1,470
995543602,231,self,matching,48,1,642
995543602,233,friend,matching,48,1,852
995543602,235,self,mismatching,47,1,785
995543602,237,self,mismatching,47,1,939
995543602,239,friend,mismatching,47,1,919
995543604,1,self,mismatching,47,1,909
995543604,3,self,matching,48,1,444
995543604,5,friend,matching,47,0,473
995543604,7,friend,mismatching,47,1,1171
995543604,9,friend,mismatching,47,1,1197
995543604,11,self,mismatching,47,1,1191
995543604,15,friend,matching,48,1,814
995543604,17,self,matching,48,1,606
995543604,19,friend,matching,48,1,758
995543604,21,friend,mismatching,47,1,726
995543604,23,self,mismatching,47,1,680
995543604,25,friend,matching,48,1,1006
995543604,27,friend,matching,48,1,485
995543604,29,self,mismatching,47,1,1087
995543604,31,friend,matching,48,1,885
995543604,37,self,matching,48,1,751
995543604,39,self,matching,48,1,588
995543604,41,self,matching,48,1,314
995543604,43,friend,mismatching,47,1,864
995543604,45,friend,mismatching,47,1,661
995543604,47,friend,matching,48,1,599
995543604,49,self,mismatching,47,1,689
995543604,51,self,matching,48,1,289
995543604,53,self,mismatching,47,1,605
995543604,57,friend,mismatching,47,1,843
995543604,61,self,mismatching,47,1,659
995543604,63,friend,matching,47,0,554
995543604,65,friend,matching,48,1,271
995543604,67,self,mismatching,47,1,532
995543604,69,self,mismatching,47,1,609
995543604,71,friend,mismatching,47,1,499
995543604,73,friend,mismatching,47,1,519
995543604,75,friend,matching,47,0,526
995543604,77,friend,mismatching,47,1,971
995543604,79,friend,matching,48,1,569
995543604,81,friend,mismatching,47,1,855
995543604,83,self,matching,48,1,558
995543604,85,self,mismatching,47,1,552
995543604,87,self,matching,48,1,804
995543604,89,friend,mismatching,47,1,495
995543604,91,friend,matching,48,1,476
995543604,93,friend,mismatching,47,1,681
995543604,95,self,mismatching,47,1,575
995543604,97,self,matching,48,1,498
995543604,99,friend,matching,47,0,572
995543604,101,friend,matching,47,0,803
995543604,103,self,matching,48,1,652
995543604,105,self,matching,48,1,344
995543604,107,friend,mismatching,47,1,779
995543604,109,friend,mismatching,47,1,616
995543604,111,self,matching,47,0,598
995543604,113,friend,mismatching,47,1,792
995543604,115,self,mismatching,47,1,992
995543604,117,self,matching,48,1,704
995543604,119,friend,matching,48,1,678
995543604,121,friend,matching,48,1,722
995543604,123,friend,matching,48,1,278
995543604,125,friend,matching,48,1,266
995543604,127,self,mismatching,47,1,428
995543604,129,friend,matching,48,1,589
995543604,131,self,matching,48,1,338
995543604,133,friend,mismatching,47,1,926
995543604,135,self,matching,48,1,349
995543604,137,friend,mismatching,47,1,841
995543604,139,self,matching,48,1,482
995543604,141,self,matching,48,1,435
995543604,143,self,mismatching,47,1,443
995543604,145,self,mismatching,47,1,831
995543604,147,friend,matching,48,1,600
995543604,149,self,matching,48,1,497
995543604,151,friend,mismatching,47,1,646
995543604,153,self,mismatching,48,0,262
995543604,155,self,matching,48,1,442
995543604,157,self,matching,48,1,377
995543604,159,self,mismatching,47,1,438
995543604,161,self,mismatching,47,1,493
995543604,163,self,mismatching,47,1,338
995543604,165,friend,mismatching,48,0,257
995543604,167,self,mismatching,47,1,953
995543604,169,friend,matching,48,1,709
995543604,171,friend,mismatching,47,1,585
995543604,173,self,matching,48,1,253
995543604,175,friend,mismatching,47,1,726
995543604,177,self,mismatching,47,1,647
995543604,179,friend,matching,48,1,519
995543604,181,friend,mismatching,47,1,603
995543604,183,self,mismatching,47,1,476
995543604,185,friend,mismatching,47,1,463
995543604,187,self,mismatching,47,1,768
995543604,189,friend,matching,48,1,495
995543604,191,self,matching,48,1,546
995543604,193,friend,matching,47,0,477
995543604,195,friend,mismatching,47,1,831
995543604,197,self,mismatching,47,1,714
995543604,199,self,mismatching,47,1,475
995543604,201,self,mismatching,47,1,460
995543604,203,self,matching,47,0,663
995543604,205,friend,matching,48,1,824
995543604,207,friend,mismatching,47,1,839
995543604,209,self,matching,48,1,509
995543604,211,friend,mismatching,48,0,502
995543604,213,friend,matching,47,0,938
995543604,215,friend,mismatching,47,1,1067
995543604,217,friend,mismatching,47,1,979
995543604,219,self,mismatching,47,1,875
995543604,221,self,matching,48,1,473
995543604,223,self,matching,48,1,456
995543604,225,friend,matching,48,1,779
995543604,227,self,mismatching,47,1,719
995543604,229,friend,matching,48,1,553
995543604,231,self,matching,48,1,512
995543604,233,self,matching,48,1,472
995543604,235,self,matching,48,1,489
995543604,237,self,mismatching,48,0,370
995543608,1,friend,matching,47,0,462
995543608,3,friend,mismatching,47,1,357
995543608,5,self,mismatching,47,1,426
995543608,7,friend,mismatching,47,1,284
995543608,9,self,mismatching,47,1,534
995543608,11,friend,mismatching,47,1,469
995543608,13,friend,matching,48,1,484
995543608,15,self,mismatching,47,1,423
995543608,17,friend,matching,48,1,442
995543608,19,self,matching,48,1,577
995543608,21,self,mismatching,48,0,586
995543608,23,self,mismatching,47,1,512
995543608,25,friend,mismatching,47,1,357
995543608,27,self,mismatching,47,1,350
995543608,29,friend,matching,48,1,409
995543608,31,friend,mismatching,47,1,391
995543608,33,self,matching,47,0,363
995543608,35,friend,matching,47,0,473
995543608,37,self,mismatching,47,1,318
995543608,39,friend,matching,48,1,450
995543608,41,self,mismatching,48,0,627
995543608,43,self,matching,47,0,425
995543608,45,friend,mismatching,47,1,450
995543608,47,friend,matching,48,1,575
995543608,49,friend,matching,48,1,592
995543608,51,friend,mismatching,47,1,432
995543608,53,self,mismatching,47,1,623
995543608,55,friend,mismatching,47,1,475
995543608,57,self,mismatching,48,0,534
995543608,59,self,matching,47,0,504
995543608,61,self,matching,48,1,570
995543608,63,friend,matching,47,0,870
995543608,65,friend,matching,47,0,385
995543608,67,self,matching,47,0,526
995543608,69,self,matching,48,1,661
995543608,71,friend,mismatching,47,1,481
995543608,73,self,mismatching,47,1,598
995543608,75,friend,matching,48,1,667
995543608,77,self,matching,47,0,458
995543608,79,friend,mismatching,47,1,433
995543608,81,self,mismatching,47,1,523
995543608,83,friend,matching,48,1,698
995543608,85,self,mismatching,47,1,529
995543608,87,friend,matching,48,1,645
995543608,89,self,mismatching,47,1,699
995543608,91,friend,matching,48,1,694
995543608,93,friend,mismatching,47,1,366
995543608,95,friend,mismatching,48,0,721
995543608,97,self,mismatching,47,1,625
995543608,99,friend,mismatching,47,1,452
995543608,101,self,matching,48,1,585
995543608,103,friend,mismatching,47,1,450
995543608,105,self,matching,48,1,850
995543608,107,friend,matching,48,1,900
995543608,109,friend,matching,48,1,557
995543608,111,friend,mismatching,47,1,376
995543608,113,friend,matching,48,1,525
995543608,115,self,matching,48,1,673
995543608,117,self,matching,48,1,510
995543608,119,friend,matching,48,1,508
995543608,121,self,matching,47,0,522
995543608,123,friend,matching,48,1,770
995543608,125,friend,mismatching,47,1,506
995543608,127,friend,mismatching,47,1,550
995543608,129,friend,mismatching,47,1,392
995543608,131,self,matching,48,1,502
995543608,133,self,matching,48,1,623
995543608,135,self,matching,48,1,454
995543608,137,self,matching,48,1,366
995543608,139,self,matching,48,1,443
995543608,141,friend,matching,47,0,484
995543608,143,self,matching,48,1,631
995543608,145,friend,mismatching,47,1,389
995543608,147,self,matching,47,0,566
995543608,149,self,mismatching,47,1,617
995543608,151,friend,mismatching,47,1,670
995543608,153,self,mismatching,48,0,599
995543608,155,self,mismatching,47,1,442
995543608,157,self,matching,48,1,569
995543608,159,self,mismatching,47,1,619
995543608,161,self,mismatching,47,1,450
995543608,163,self,mismatching,47,1,384
995543608,165,self,mismatching,47,1,285
995543608,167,friend,matching,48,1,587
995543608,169,self,matching,48,1,681
995543608,171,friend,matching,48,1,630
995543608,173,friend,matching,48,1,487
995543608,175,friend,matching,48,1,459
995543608,177,friend,matching,48,1,372
995543608,179,friend,mismatching,47,1,285
995543608,181,self,mismatching,47,1,533
995543608,183,self,matching,48,1,534
995543608,185,friend,mismatching,47,1,518
995543608,187,friend,mismatching,47,1,296
995543608,189,self,mismatching,48,0,596
995543608,191,self,matching,48,1,576
995543608,193,friend,mismatching,48,0,534
995543608,195,friend,matching,48,1,596
995543608,197,self,mismatching,47,1,522
995543608,199,friend,mismatching,47,1,419
995543608,201,friend,mismatching,47,1,384
995543608,203,self,matching,47,0,260
995543608,205,self,mismatching,47,1,543
995543608,207,friend,matching,47,0,724
995543608,209,self,matching,47,0,343
995543608,211,friend,mismatching,47,1,350
995543608,213,friend,matching,48,1,500
995543608,215,friend,mismatching,47,1,549
995543608,217,self,mismatching,47,1,617
995543608,219,self,mismatching,47,1,570
995543608,221,self,matching,47,0,510
995543608,223,self,matching,48,1,944
995543608,225,friend,mismatching,47,1,470
995543608,227,self,mismatching,47,1,550
995543608,229,friend,matching,48,1,844
995543608,231,self,matching,48,1,933
995543608,233,friend,matching,48,1,695
995543608,235,friend,mismatching,47,1,560
995543608,237,self,matching,48,1,773
995543610,3,friend,mismatching,47,1,768
995543610,5,friend,mismatching,47,1,779
995543610,7,self,matching,48,1,453
995543610,9,friend,mismatching,48,0,755
995543610,11,self,matching,48,1,788
995543610,13,self,matching,48,1,646
995543610,15,friend,mismatching,47,1,728
995543610,17,self,mismatching,47,1,897
995543610,19,self,matching,48,1,550
995543610,21,friend,matching,47,0,603
995543610,23,self,mismatching,47,1,841
995543610,25,self,mismatching,47,1,585
995543610,27,friend,matching,47,0,1003
995543610,29,self,matching,48,1,651
995543610,31,friend,matching,47,0,857
995543610,33,friend,mismatching,47,1,953
995543610,35,friend,matching,48,1,691
995543610,37,friend,mismatching,47,1,538
995543610,43,self,matching,48,1,628
995543610,45,friend,mismatching,47,1,1162
995543610,47,self,mismatching,47,1,1119
995543610,49,self,mismatching,47,1,1073
995543610,51,friend,matching,48,1,743
995543610,53,self,matching,48,1,522
995543610,55,friend,mismatching,47,1,853
995543610,57,self,matching,48,1,446
995543610,59,friend,matching,48,1,709
995543610,61,self,matching,48,1,605
995543610,63,friend,mismatching,47,1,745
995543610,65,self,mismatching,47,1,702
995543610,67,friend,mismatching,47,1,418
995543610,69,friend,mismatching,47,1,436
995543610,71,friend,mismatching,47,1,466
995543610,73,self,mismatching,47,1,902
995543610,75,self,matching,48,1,493
995543610,77,friend,matching,48,1,771
995543610,79,self,matching,48,1,507
995543610,81,self,mismatching,47,1,727
995543610,83,friend,mismatching,47,1,740
995543610,85,friend,mismatching,47,1,558
995543610,87,self,mismatching,47,1,517
995543610,89,self,matching,48,1,358
995543610,91,friend,mismatching,47,1,949
995543610,93,friend,mismatching,47,1,429
995543610,95,friend,mismatching,47,1,630
995543610,97,friend,matching,48,1,740
995543610,99,friend,matching,48,1,918
995543610,101,self,mismatching,47,1,547
995543610,103,friend,matching,48,1,760
995543610,105,self,mismatching,47,1,631
995543610,107,self,matching,48,1,338
995543610,109,friend,mismatching,47,1,1076
995543610,111,friend,matching,48,1,639
995543610,113,friend,mismatching,47,1,546
995543610,115,friend,mismatching,47,1,742
995543610,117,self,matching,48,1,575
995543610,119,friend,matching,47,0,546
995543610,121,friend,mismatching,47,1,687
995543610,123,friend,mismatching,47,1,603
995543610,125,self,matching,48,1,477
995543610,127,self,mismatching,48,0,453
995543610,129,self,matching,48,1,545
995543610,131,self,mismatching,47,1,523
995543610,133,friend,matching,47,0,367
995543610,135,friend,matching,47,0,755
995543610,137,self,matching,48,1,564
995543610,139,self,mismatching,47,1,568
995543610,141,self,mismatching,47,1,640
995543610,143,friend,mismatching,47,1,773
995543610,145,self,mismatching,47,1,1044
995543610,147,self,mismatching,47,1,619
995543610,149,self,mismatching,47,1,579
995543610,151,friend,mismatching,47,1,726
995543610,153,friend,matching,48,1,764
995543610,155,self,mismatching,47,1,587
995543610,157,self,matching,48,1,622
995543610,159,friend,matching,47,0,635
995543610,161,friend,mismatching,48,0,586
995543610,163,self,mismatching,47,1,741
995543610,165,self,matching,48,1,503
995543610,167,self,matching,48,1,844
995543610,169,self,matching,48,1,661
995543610,171,self,matching,48,1,596
995543610,173,friend,matching,47,0,491
995543610,175,friend,mismatching,47,1,793
995543610,177,friend,matching,48,1,730
995543610,179,self,mismatching,47,1,1006
995543610,181,friend,mismatching,47,1,1110
995543610,183,self,mismatching,47,1,749
995543610,185,friend,matching,48,1,638
995543610,187,self,matching,48,1,565
995543610,189,self,matching,48,1,601
995543610,191,friend,matching,48,1,616
995543610,193,self,matching,48,1,471
995543610,195,friend,matching,47,0,567
995543610,197,self,mismatching,47,1,792
995543610,199,friend,matching,48,1,690
995543610,201,self,matching,48,1,437
995543610,203,friend,matching,48,1,719
995543610,205,friend,mismatching,47,1,461
995543610,207,friend,matching,48,1,743
995543610,209,self,mismatching,47,1,732
995543610,211,self,mismatching,47,1,621
995543610,213,self,mismatching,47,1,442
995543610,215,friend,matching,48,1,370
995543610,217,self,matching,48,1,347
995543610,219,friend,matching,48,1,289
995543610,221,self,mismatching,47,1,644
995543610,223,friend,matching,48,1,650
995543610,225,self,matching,48,1,348
995543610,229,self,mismatching,47,1,499
995543610,231,friend,matching,48,1,568
995543610,233,friend,matching,48,1,658
995543610,235,self,matching,48,1,301
995543610,237,friend,mismatching,47,1,540
995543610,239,self,matching,48,1,454
995543607,5,friend,mismatching,48,1,857
995543607,11,friend,matching,47,1,1066
995543607,13,self,matching,47,1,1182
995543607,15,self,mismatching,48,1,814
995543607,17,self,matching,47,1,841
995543607,19,friend,matching,48,0,605
995543607,21,friend,mismatching,48,1,1002
995543607,23,self,matching,47,1,882
995543607,25,self,mismatching,48,1,1043
995543607,35,friend,mismatching,48,1,713
995543607,37,friend,mismatching,48,1,616
995543607,39,self,matching,47,1,1079
995543607,43,friend,mismatching,48,1,718
995543607,45,friend,matching,47,1,1005
995543607,47,self,matching,47,1,934
995543607,49,self,matching,47,1,486
995543607,53,self,mismatching,48,1,842
995543607,61,friend,mismatching,48,1,1042
995543607,65,friend,matching,47,1,693
995543607,67,friend,mismatching,48,1,1091
995543607,71,self,matching,47,1,1017
995543607,73,friend,matching,48,0,1062
995543607,77,friend,mismatching,48,1,885
995543607,79,self,matching,47,1,970
995543607,81,self,mismatching,48,1,884
995543607,83,friend,matching,48,0,809
995543607,85,self,matching,47,1,974
995543607,87,friend,matching,48,0,855
995543607,89,friend,matching,48,0,990
995543607,93,self,matching,47,1,946
995543607,97,friend,mismatching,48,1,928
995543607,99,self,mismatching,48,1,855
995543607,101,friend,mismatching,48,1,898
995543607,103,self,mismatching,48,1,826
995543607,107,self,matching,47,1,837
995543607,109,self,matching,47,1,667
995543607,113,self,matching,47,1,639
995543607,115,friend,mismatching,48,1,776
995543607,117,self,mismatching,48,1,1099
995543607,119,friend,mismatching,48,1,736
995543607,121,friend,mismatching,48,1,634
995543607,123,friend,mismatching,48,1,624
995543607,125,self,mismatching,48,1,1037
995543607,129,self,mismatching,48,1,667
995543607,131,friend,matching,47,1,858
995543607,133,friend,mismatching,48,1,824
995543607,135,self,mismatching,48,1,995
995543607,137,friend,matching,47,1,978
995543607,139,self,mismatching,48,1,701
995543607,141,friend,mismatching,48,1,1052
995543607,143,friend,matching,47,1,855
995543607,145,self,mismatching,48,1,753
995543607,147,friend,mismatching,48,1,824
995543607,149,self,matching,47,1,840
995543607,151,self,matching,47,1,707
995543607,153,self,matching,47,1,531
995543607,155,friend,mismatching,48,1,547
995543607,157,self,mismatching,48,1,1008
995543607,159,self,matching,47,1,702
995543607,161,friend,mismatching,48,1,715
995543607,163,self,mismatching,48,1,711
995543607,165,self,matching,47,1,675
995543607,167,friend,matching,48,0,686
995543607,169,self,mismatching,48,1,814
995543607,171,friend,matching,48,0,795
995543607,173,self,mismatching,48,1,719
995543607,175,self,mismatching,48,1,641
995543607,177,self,mismatching,48,1,599
995543607,179,friend,mismatching,48,1,1007
995543607,181,friend,matching,47,1,800
995543607,183,friend,mismatching,48,1,950
995543607,185,friend,matching,47,1,937
995543607,187,self,matching,47,1,731
995543607,189,self,matching,47,1,615
995543607,191,friend,matching,47,1,962
995543607,193,friend,matching,47,1,683
995543607,195,friend,matching,47,1,684
995543607,197,self,matching,47,1,616
995543607,199,self,matching,47,1,603
995543607,201,friend,mismatching,47,0,820
995543607,205,self,mismatching,48,1,757
995543607,207,self,matching,47,1,616
995543607,209,self,matching,47,1,580
995543607,211,friend,matching,47,1,926
995543607,213,self,matching,47,1,462
995543607,215,self,matching,47,1,593
995543607,217,friend,mismatching,48,1,533
995543607,219,friend,matching,47,1,767
995543607,221,friend,matching,47,1,628
995543607,223,friend,matching,47,1,712
995543607,225,self,mismatching,48,1,662
995543607,227,friend,mismatching,48,1,981
995543607,229,self,matching,47,1,733
995543607,231,self,mismatching,48,1,591
995543607,233,self,matching,47,1,556
995543607,235,friend,matching,47,1,812
995543607,237,self,matching,47,1,560
995543607,239,self,mismatching,48,1,624
995543601,1,friend,matching,47,1,1106
995543601,3,friend,mismatching,48,1,839
995543601,5,self,matching,47,1,1080
995543601,7,friend,mismatching,48,1,937
995543601,9,self,matching,47,1,861
995543601,11,self,mismatching,48,1,559
995543601,13,friend,mismatching,47,0,572
995543601,15,self,matching,47,1,577
995543601,17,friend,matching,47,1,920
995543601,19,self,mismatching,48,1,886
995543601,21,friend,matching,47,1,1103
995543601,23,self,matching,47,1,566
995543601,25,self,matching,47,1,578
995543601,27,friend,mismatching,48,1,859
995543601,29,self,matching,47,1,550
995543601,31,friend,matching,47,1,635
995543601,33,self,matching,47,1,610
995543601,35,self,mismatching,48,1,572
995543601,37,self,mismatching,48,1,738
995543601,39,friend,mismatching,48,1,759
995543601,41,friend,matching,47,1,652
995543601,43,friend,matching,47,1,705
995543601,45,self,mismatching,48,1,501
995543601,47,self,mismatching,48,1,1140
995543601,49,self,matching,47,1,609
995543601,51,friend,matching,47,1,972
995543601,53,friend,matching,47,1,473
995543601,55,self,mismatching,48,1,715
995543601,57,friend,matching,47,1,606
995543601,59,self,mismatching,47,0,966
995543601,61,friend,matching,47,1,511
995543601,63,friend,matching,47,1,553
995543601,65,friend,mismatching,47,0,622
995543601,67,self,mismatching,48,1,944
995543601,69,self,matching,47,1,795
995543601,71,self,mismatching,48,1,791
995543601,73,friend,mismatching,47,0,865
995543601,75,friend,matching,47,1,623
995543601,77,self,matching,47,1,732
995543601,79,self,mismatching,48,1,785
995543601,81,friend,matching,47,1,619
995543601,83,self,matching,47,1,580
995543601,85,friend,mismatching,47,0,549
995543601,87,friend,mismatching,47,0,1180
995543601,89,friend,matching,47,1,1050
995543601,91,friend,mismatching,48,1,690
995543601,93,self,matching,47,1,761
995543601,95,self,mismatching,48,1,649
995543601,97,friend,matching,47,1,688
995543601,99,self,matching,47,1,592
995543601,103,self,matching,47,1,540
995543601,105,self,matching,47,1,726
995543601,107,self,mismatching,48,1,708
995543601,109,self,mismatching,48,1,711
995543601,111,friend,mismatching,48,1,867
995543601,113,friend,matching,47,1,508
995543601,115,self,matching,47,1,571
995543601,117,friend,mismatching,48,1,888
995543601,119,friend,matching,47,1,828
995543601,121,self,mismatching,48,1,666
995543601,123,self,matching,47,1,488
995543601,125,friend,mismatching,48,1,873
995543601,127,friend,mismatching,48,1,800
995543601,131,friend,mismatching,48,1,1053
995543601,135,friend,mismatching,48,1,838
995543601,137,self,matching,47,1,568
995543601,139,self,mismatching,48,1,604
995543601,141,friend,mismatching,48,1,712
995543601,143,friend,matching,47,1,671
995543601,145,self,mismatching,48,1,557
995543601,147,self,matching,47,1,916
995543601,149,friend,mismatching,48,1,813
995543601,151,friend,mismatching,48,1,791
995543601,153,self,matching,48,0,722
995543601,155,self,matching,47,1,498
995543601,157,self,matching,47,1,507
995543601,159,self,mismatching,48,1,544
995543601,161,friend,matching,47,1,629
995543601,163,friend,matching,47,1,649
995543601,165,friend,matching,47,1,572
995543601,167,self,matching,48,0,561
995543601,169,friend,mismatching,48,1,764
995543601,171,friend,mismatching,48,1,821
995543601,173,self,mismatching,48,1,979
995543601,175,self,matching,47,1,778
995543601,177,self,mismatching,48,1,600
995543601,179,friend,mismatching,48,1,794
995543601,181,self,matching,47,1,855
995543601,183,friend,mismatching,48,1,727
995543601,185,friend,matching,47,1,542
995543601,189,friend,mismatching,48,1,865
995543601,191,self,matching,47,1,762
995543601,193,friend,mismatching,48,1,559
995543601,195,self,matching,47,1,610
995543601,197,self,mismatching,48,1,783
995543601,199,self,matching,47,1,948
995543601,201,self,matching,47,1,661
995543601,203,self,mismatching,48,1,555
995543601,205,self,mismatching,48,1,928
995543601,207,self,mismatching,48,1,485
995543601,209,friend,mismatching,48,1,845
995543601,211,friend,matching,47,1,659
995543601,213,friend,matching,47,1,733
995543601,215,self,mismatching,48,1,851
995543601,217,friend,matching,47,1,777
995543601,219,friend,matching,47,1,674
995543601,221,friend,matching,47,1,415
995543601,223,self,mismatching,48,1,542
995543601,225,friend,mismatching,48,1,1067
995543601,227,self,mismatching,48,1,645
995543601,229,friend,matching,47,1,1198
995543601,231,friend,mismatching,48,1,994
995543601,233,self,matching,47,1,593
995543601,235,self,mismatching,48,1,759
995543601,237,friend,mismatching,48,1,838
995543601,239,friend,matching,47,1,884
995543618,1,self,matching,48,1,587
995543618,3,self,matching,48,1,732
995543618,5,self,mismatching,47,1,671
995543618,7,friend,matching,48,1,926
995543618,9,friend,matching,48,1,698
995543618,11,friend,matching,48,1,534
995543618,13,self,mismatching,47,1,632
995543618,15,self,mismatching,47,1,1056
995543618,17,self,mismatching,47,1,530
995543618,19,self,matching,48,1,611
995543618,21,friend,matching,47,0,581
995543618,23,self,matching,48,1,780
995543618,25,friend,matching,48,1,858
995543618,27,self,mismatching,47,1,768
995543618,29,friend,mismatching,47,1,814
995543618,31,self,matching,48,1,476
995543618,33,friend,mismatching,47,1,932
995543618,35,friend,matching,48,1,854
995543618,37,friend,matching,48,1,516
995543618,39,friend,mismatching,47,1,634
995543618,41,friend,matching,48,1,687
995543618,43,self,mismatching,47,1,733
995543618,45,self,matching,48,1,519
995543618,47,self,mismatching,47,1,440
995543618,49,friend,mismatching,47,1,814
995543618,51,self,matching,48,1,356
995543618,53,self,matching,48,1,622
995543618,55,self,mismatching,47,1,606
995543618,57,friend,matching,48,1,432
995543618,59,self,matching,48,1,419
995543618,61,friend,matching,47,0,466
995543618,63,self,mismatching,47,1,902
995543618,65,self,matching,48,1,489
995543618,67,friend,mismatching,47,1,839
995543618,69,self,mismatching,47,1,721
995543618,71,friend,mismatching,47,1,864
995543618,73,friend,matching,48,1,870
995543618,75,friend,matching,48,1,689
995543618,77,self,mismatching,47,1,629
995543618,79,self,mismatching,47,1,826
995543618,81,friend,mismatching,47,1,840
995543618,83,self,mismatching,47,1,758
995543618,85,friend,matching,47,0,839
995543618,87,self,matching,48,1,866
995543618,91,self,matching,48,1,576
995543618,93,friend,mismatching,47,1,771
995543618,95,self,mismatching,47,1,873
995543618,97,self,matching,48,1,511
995543618,99,self,mismatching,47,1,559
995543618,101,self,mismatching,47,1,629
995543618,103,self,mismatching,47,1,643
995543618,105,friend,mismatching,48,0,641
995543618,107,friend,mismatching,47,1,543
995543618,109,friend,mismatching,47,1,530
995543618,111,self,mismatching,47,1,633
995543618,113,self,mismatching,47,1,651
995543618,115,self,matching,48,1,393
995543618,117,self,matching,48,1,430
995543618,119,self,matching,48,1,466
995543618,121,self,mismatching,47,1,443
995543618,123,friend,matching,48,1,924
995543618,125,friend,mismatching,47,1,764
995543618,127,friend,mismatching,47,1,592
995543618,129,self,mismatching,47,1,708
995543618,131,friend,mismatching,47,1,951
995543618,133,self,mismatching,47,1,779
995543618,135,friend,mismatching,47,1,699
995543618,137,self,mismatching,47,1,640
995543618,139,friend,mismatching,47,1,630
995543618,141,self,matching,48,1,738
995543618,143,friend,mismatching,47,1,784
995543618,145,friend,mismatching,47,1,402
995543618,147,friend,mismatching,47,1,483
995543618,149,friend,mismatching,47,1,397
995543618,151,friend,matching,47,0,447
995543618,153,friend,matching,48,1,432
995543618,155,friend,matching,47,0,461
995543618,157,friend,mismatching,47,1,747
995543618,159,self,mismatching,47,1,883
995543618,161,self,mismatching,47,1,646
995543618,163,friend,matching,48,1,636
995543618,165,friend,mismatching,47,1,552
995543618,167,friend,matching,48,1,707
995543618,169,self,matching,48,1,576
995543618,171,friend,matching,48,1,620
995543618,173,friend,matching,48,1,755
995543618,175,self,matching,48,1,626
995543618,177,self,matching,48,1,432
995543618,179,friend,mismatching,47,1,384
995543618,181,friend,mismatching,47,1,586
995543618,183,self,matching,48,1,521
995543618,185,friend,matching,48,1,628
995543618,187,friend,matching,48,1,916
995543618,189,self,matching,48,1,656
995543618,191,self,matching,48,1,413
995543618,193,self,matching,48,1,495
995543618,195,self,mismatching,47,1,647
995543618,197,friend,matching,48,1,415
995543618,199,friend,matching,48,1,438
995543618,201,friend,matching,48,1,325
995543618,203,self,mismatching,47,1,536
995543618,205,self,mismatching,47,1,405
995543618,207,friend,mismatching,48,0,415
995543618,209,self,matching,48,1,244
995543618,211,self,mismatching,47,1,433
995543618,213,self,matching,48,1,711
995543618,215,friend,mismatching,47,1,619
995543618,217,friend,mismatching,47,1,952
995543618,219,friend,mismatching,47,1,602
995543618,221,friend,matching,48,1,780
995543618,223,friend,matching,48,1,395
995543618,225,self,matching,48,1,600
995543618,227,friend,mismatching,47,1,556
995543618,229,self,mismatching,48,0,664
995543618,231,friend,matching,47,0,585
995543618,233,self,matching,48,1,539
995543618,235,self,matching,48,1,503
995543618,237,self,matching,48,1,424
995543618,239,friend,mismatching,47,1,644
995543617,1,friend,mismatching,48,1,624
995543617,3,self,matching,47,1,442
995543617,5,friend,mismatching,48,1,393
995543617,7,self,mismatching,48,1,905
995543617,9,friend,mismatching,48,1,642
995543617,13,self,mismatching,48,1,599
995543617,15,self,matching,47,1,690
995543617,17,self,matching,48,0,450
995543617,19,self,matching,47,1,337
995543617,21,friend,matching,47,1,890
995543617,23,friend,mismatching,48,1,620
995543617,25,friend,matching,47,1,725
995543617,27,friend,mismatching,48,1,446
995543617,29,friend,mismatching,48,1,477
995543617,31,friend,mismatching,48,1,353
995543617,33,self,matching,47,1,450
995543617,35,friend,matching,48,0,352
995543617,37,friend,matching,47,1,515
995543617,39,friend,matching,47,1,298
995543617,41,self,mismatching,48,1,438
995543617,43,self,mismatching,48,1,451
995543617,45,friend,mismatching,48,1,618
995543617,47,friend,matching,47,1,634
995543617,49,friend,matching,47,1,586
995543617,51,friend,mismatching,48,1,586
995543617,53,friend,mismatching,48,1,559
995543617,55,friend,matching,48,0,331
995543617,57,self,mismatching,47,0,569
995543617,59,friend,mismatching,48,1,701
995543617,61,friend,matching,47,1,660
995543617,63,self,matching,47,1,568
995543617,65,self,mismatching,48,1,428
995543617,67,friend,matching,47,1,604
995543617,69,self,mismatching,48,1,925
995543617,71,self,mismatching,48,1,702
995543617,73,self,mismatching,48,1,622
995543617,75,self,mismatching,48,1,306
995543617,77,self,matching,47,1,455
995543617,79,self,mismatching,48,1,469
995543617,81,friend,matching,47,1,553
995543617,83,friend,mismatching,48,1,611
995543617,85,self,matching,47,1,916
995543617,87,self,matching,47,1,540
995543617,89,friend,mismatching,48,1,494
995543617,91,self,matching,47,1,489
995543617,93,friend,mismatching,48,1,454
995543617,95,self,matching,47,1,406
995543617,97,self,matching,47,1,328
995543617,99,friend,mismatching,48,1,302
995543617,101,self,matching,47,1,360
995543617,103,self,matching,47,1,327
995543617,105,friend,mismatching,48,1,330
995543617,107,self,mismatching,48,1,649
995543617,109,friend,mismatching,48,1,603
995543617,111,friend,mismatching,48,1,430
995543617,113,self,mismatching,48,1,542
995543617,115,self,matching,48,0,338
995543617,117,self,matching,47,1,456
995543617,119,friend,mismatching,48,1,332
995543617,121,self,matching,47,1,584
995543617,123,friend,mismatching,47,0,324
995543617,125,self,mismatching,48,1,858
995543617,127,friend,mismatching,48,1,511
995543617,129,self,mismatching,48,1,590
995543617,131,self,matching,47,1,514
995543617,133,self,matching,47,1,515
995543617,135,self,mismatching,48,1,540
995543617,137,self,matching,47,1,500
995543617,139,self,mismatching,48,1,643
995543617,141,friend,mismatching,47,0,609
995543617,143,self,matching,47,1,550
995543617,145,friend,matching,47,1,783
995543617,147,friend,matching,47,1,354
995543617,149,self,mismatching,48,1,410
995543617,151,self,mismatching,48,1,453
995543617,153,self,matching,48,0,279
995543617,155,friend,mismatching,48,1,488
995543617,157,self,mismatching,48,1,694
995543617,159,friend,matching,48,0,352
995543617,161,self,mismatching,48,1,618
995543617,163,friend,matching,47,1,361
995543617,165,friend,matching,47,1,451
995543617,167,friend,matching,47,1,323
995543617,169,friend,matching,47,1,408
995543617,171,self,mismatching,48,1,527
995543617,173,friend,mismatching,48,1,533
995543617,175,friend,matching,47,1,622
995543617,177,self,mismatching,48,1,496
995543617,179,self,matching,47,1,533
995543617,181,self,mismatching,48,1,582
995543617,183,friend,matching,47,1,460
995543617,185,friend,matching,47,1,539
995543617,187,friend,mismatching,48,1,458
995543617,189,friend,matching,47,1,607
995543617,191,friend,matching,47,1,311
995543617,193,friend,matching,47,1,481
995543617,195,friend,mismatching,48,1,351
995543617,197,friend,matching,47,1,422
995543617,199,self,matching,47,1,447
995543617,201,friend,mismatching,48,1,743
995543617,203,self,matching,47,1,387
995543617,205,self,mismatching,48,1,391
995543617,207,self,matching,47,1,417
995543617,209,friend,matching,48,0,382
995543617,211,friend,matching,47,1,439
995543617,213,friend,mismatching,47,0,330
995543617,215,friend,mismatching,48,1,688
995543617,217,self,mismatching,48,1,603
995543617,219,friend,matching,47,1,456
995543617,221,self,mismatching,48,1,412
995543617,223,self,mismatching,48,1,730
995543617,225,friend,mismatching,48,1,810
995543617,227,self,matching,47,1,548
995543617,229,friend,matching,48,0,375
995543617,231,self,matching,47,1,598
995543617,233,self,mismatching,48,1,440
995543617,235,self,matching,47,1,491
995543617,237,friend,matching,47,1,374
995543617,239,self,matching,47,1,425
995543616,1,self,matching,48,1,324
995543616,3,self,matching,48,1,305
995543616,5,self,mismatching,47,1,349
995543616,7,friend,matching,47,0,453
995543616,9,friend,matching,47,0,323
995543616,13,friend,mismatching,47,1,624
995543616,15,self,matching,48,1,640
995543616,17,friend,matching,47,0,324
995543616,19,friend,mismatching,48,0,505
995543616,21,friend,mismatching,47,1,667
995543616,23,friend,mismatching,47,1,573
995543616,25,friend,mismatching,47,1,631
995543616,27,friend,mismatching,47,1,469
995543616,29,friend,mismatching,47,1,422
995543616,31,self,matching,48,1,551
995543616,33,friend,matching,48,1,820
995543616,35,friend,matching,48,1,627
995543616,37,self,mismatching,47,1,524
995543616,39,friend,matching,48,1,736
995543616,41,self,matching,48,1,529
995543616,43,self,matching,48,1,539
995543616,45,friend,matching,48,1,719
995543616,47,friend,mismatching,47,1,837
995543616,49,self,matching,48,1,596
995543616,51,self,matching,48,1,744
995543616,53,friend,matching,47,0,519
995543616,55,self,matching,48,1,643
995543616,57,self,matching,48,1,423
995543616,59,friend,matching,48,1,552
995543616,61,self,mismatching,47,1,815
995543616,63,self,matching,48,1,537
995543616,65,friend,matching,48,1,1004
995543616,67,friend,mismatching,47,1,770
995543616,69,friend,mismatching,47,1,664
995543616,71,friend,matching,48,1,649
995543616,73,friend,mismatching,47,1,614
995543616,75,self,mismatching,47,1,864
995543616,77,self,mismatching,47,1,605
995543616,79,self,mismatching,47,1,437
995543616,81,friend,mismatching,48,0,697
995543616,83,self,mismatching,47,1,1196
995543616,85,friend,mismatching,47,1,712
995543616,87,friend,matching,48,1,719
995543616,89,friend,mismatching,47,1,564
995543616,93,self,mismatching,47,1,643
995543616,95,friend,matching,48,1,697
995543616,97,friend,mismatching,47,1,490
995543616,99,self,mismatching,47,1,616
995543616,101,self,matching,48,1,320
995543616,103,friend,matching,48,1,679
995543616,105,friend,mismatching,47,1,581
995543616,107,friend,matching,48,1,503
995543616,109,friend,mismatching,48,0,1149
995543616,111,friend,matching,48,1,740
995543616,113,self,matching,48,1,842
995543616,115,self,mismatching,47,1,720
995543616,117,self,matching,48,1,903
995543616,119,self,mismatching,47,1,555
995543616,121,self,mismatching,47,1,465
995543616,123,self,matching,48,1,459
995543616,125,self,mismatching,47,1,710
995543616,127,self,matching,48,1,614
995543616,129,friend,matching,47,0,455
995543616,131,self,mismatching,48,0,604
995543616,133,friend,matching,48,1,1053
995543616,135,self,mismatching,47,1,557
995543616,137,friend,mismatching,47,1,815
995543616,139,friend,mismatching,47,1,349
995543616,141,self,matching,48,1,443
995543616,143,friend,matching,48,1,576
995543616,145,friend,mismatching,47,1,452
995543616,147,self,matching,48,1,438
995543616,149,self,mismatching,47,1,446
995543616,151,self,mismatching,47,1,377
