"success","timeout","failed_images","failed_audio","failed_video","trial_type","trial_index","time_elapsed","internal_node_id","rt","stimulus","response","value","item_width_mm","item_height_mm","item_width_px","px2mm","view_dist_mm","item_width_deg","px2deg","scale_factor","win_width_deg","win_height_deg","view_history","response_type","key_press","avg_frame_time","center_x","center_y","image","word","target","valence","matchness","correct_response","correct","exp_condition","question_order"
"true","false","[]","[]","[]","preload","0","569","0.0-0.0","","","","","","","","","","","","","","","","","","","","","","","","","","","","",""
"","","","","","html-keyboard-response","1","6756","0.0-1.0","6186","
     <p>您好，欢迎参加本次实验。</p>
     <p>为充分保障您的权利，请确保您已经知晓并同意《参与实验同意书》以及《数据公开知情同意书》。</p>
     <p>如果您未见过上述内容，请咨询实验员。</p>
     <p>如果您选择继续实验，则表示您已经清楚两份知情同意书的内容并同意。</p>
     <p> <div style = ""color: green""><按任意键至下页></div> </p>
     "," ","","","","","","","","","","","","","","","","","","","","","","","","","",""
"","","","","","html-keyboard-response","2","8508","0.0-2.0-0.0","1751","
      <p>本实验首先需要您填写一些基本个人信息。</p>
      <p> <div style = ""color: green""><按任意键至下页></div></p>
      "," ","","","","","","","","","","","","","","","","","","","","","","","","","",""
"","","","","","call-function","3","8509","0.0-2.0-1.0","","","","","","","","","","","","","","","","","","","","","","","","","","","","",""
"","","","","","survey-html-form","4","18104","0.0-2.0-2.0","9588","","{""Q0"":""1023""}","","","","","","","","","","","","","","","","","","","","","","","","","",""
"","","","","","html-button-response","5","19320","0.0-2.0-3.0","1215","<p style = 'color : white'>您的性别</p>","1","","","","","","","","","","","","","","","","","","","","","","","","","",""
"","","","","","survey-html-form","6","26264","0.0-2.0-4.0","6944","","{""Q0"":""2003""}","","","","","","","","","","","","","","","","","","","","","","","","","",""
"","","","","","survey-html-form","7","30793","0.0-2.0-5.0","4528","","{""Q0"":""5""}","","","","","","","","","","","","","","","","","","","","","","","","","",""
"","","","","","virtual-chinrest","8","155960","0.0-3.0","125166","","","","85.6","53.98","439.0060257127666","5.12920305552161","557.5","8.780120514255332","50","0.8929262402800782","27.38","13.28","","","","","","","","","","","","","","",""
"true","","","","","fullscreen","9","163476","0.0-4.0","","","","","","","","","","","","","","","","","","","","","","","","","","","","",""
"","","","","","instructions","10","207119","0.0-5.0","43641","","","","","","","","","","","","","","[{""page_index"":0,""viewing_time"":4603},{""page_index"":1,""viewing_time"":22849},{""page_index"":2,""viewing_time"":12707},{""page_index"":3,""viewing_time"":3481}]","","","","","","","","","","","","","",""
"","","","","","html-keyboard-response","11","210771","0.0-6.0","null","<count-down title=""""></count-down>","null","","","","","","","","","","","","","","","","","","","","","","","","","",""
"","","","","","psychophysics","12","213486","0.0-7.0-0.0-0.0","null","","null","","","","","","","","","","","","","key","null","16.654037267080675","710.7407909492769","395.92595389514173","./1_3_Stimuli/T_ambi40.png","他人","Word","自我","Mismatch","f","false","Practice",""
"","","","","","html-keyboard-response","13","213789","0.0-7.0-0.0-1.0","null","<span class='add_' style='color:yellow; font-size: 70px;'> 太慢! </span>","null","","","","","","","","","","","","","","","","","","","","","","","","","feedback",""
"","","","","","psychophysics","14","216500","0.0-7.0-0.0-0.1","null","","null","","","","","","","","","","","","","key","null","16.653416149068395","710.7407909492769","395.92595389514173","./1_3_Stimuli/T_ambi40.png","自我","Word","自我","Match","j","false","Practice",""
"","","","","","html-keyboard-response","15","216803","0.0-7.0-0.0-1.1","null","<span class='add_' style='color:yellow; font-size: 70px;'> 太慢! </span>","null","","","","","","","","","","","","","","","","","","","","","","","","","feedback",""
"","","","","","psychophysics","16","219514","0.0-7.0-0.0-0.2","null","","null","","","","","","","","","","","","","key","null","16.653416149068395","710.7407909492769","395.92595389514173","./1_3_Stimuli/S_ambi40.png","他人","Image","他人","Match","j","false","Practice",""
"","","","","","html-keyboard-response","17","219817","0.0-7.0-0.0-1.2","null","<span class='add_' style='color:yellow; font-size: 70px;'> 太慢! </span>","null","","","","","","","","","","","","","","","","","","","","","","","","","feedback",""
"","","","","","psychophysics","18","222529","0.0-7.0-0.0-0.3","null","","null","","","","","","","","","","","","","key","null","16.654037267080675","710.7407909492769","395.92595389514173","./1_3_Stimuli/T_ambi40.png","朋友","Word","自我","Mismatch","f","false","Practice",""
"","","","","","html-keyboard-response","19","222844","0.0-7.0-0.0-1.3","null","<span class='add_' style='color:yellow; font-size: 70px;'> 太慢! </span>","null","","","","","","","","","","","","","","","","","","","","","","","","","feedback",""
"","","","","","psychophysics","20","224947","0.0-7.0-0.0-0.4","952","","j","","","","","","","","","","","","","key","j","16.65396825396821","710.7407909492769","395.92595389514173","./1_3_Stimuli/S_ambi40.png","他人","Word","他人","Match","j","true","Practice",""
"","","","","","html-keyboard-response","21","225249","0.0-7.0-0.0-1.4","null","<span style='color:GreenYellow; font-size: 70px;'>正确! </span>","null","","","","","","","","","","","","","","","","","","","","","","","","","feedback",""
"","","","","","psychophysics","22","226876","0.0-7.0-0.0-0.5","467","","j","","","","","","","","","","","","","key","j","16.654166666666544","710.7407909492769","395.92595389514173","./1_3_Stimuli/T_ambi40.png","自我","Word","自我","Match","j","true","Practice",""
"","","","","","html-keyboard-response","23","227178","0.0-7.0-0.0-1.5","null","<span style='color:GreenYellow; font-size: 70px;'>正确! </span>","null","","","","","","","","","","","","","","","","","","","","","","","","","feedback",""
"","","","","","psychophysics","24","228579","0.0-7.0-0.0-0.6","238","","j","","","","","","","","","","","","","key","j","16.65421686747009","710.7407909492769","395.92595389514173","./1_3_Stimuli/T_ambi40.png","自我","Image","自我","Match","j","true","Practice",""
"","","","","","html-keyboard-response","25","228893","0.0-7.0-0.0-1.6","null","<span style='color:GreenYellow; font-size: 70px;'>正确! </span>","null","","","","","","","","","","","","","","","","","","","","","","","","","feedback",""
"","","","","","psychophysics","26","231605","0.0-7.0-0.0-0.7","null","","null","","","","","","","","","","","","","key","null","16.653416149068214","710.7407909492769","395.92595389514173","./1_3_Stimuli/S_ambi40.png","朋友","Word","他人","Mismatch","f","false","Practice",""
"","","","","","html-keyboard-response","27","231907","0.0-7.0-0.0-1.7","null","<span class='add_' style='color:yellow; font-size: 70px;'> 太慢! </span>","null","","","","","","","","","","","","","","","","","","","","","","","","","feedback",""
"","","","","","psychophysics","28","234619","0.0-7.0-0.0-0.8","null","","null","","","","","","","","","","","","","key","null","16.652795031055938","710.7407909492769","395.92595389514173","./1_3_Stimuli/C_ambi40.png","他人","Word","朋友","Mismatch","f","false","Practice",""
"","","","","","html-keyboard-response","29","234924","0.0-7.0-0.0-1.8","null","<span class='add_' style='color:yellow; font-size: 70px;'> 太慢! </span>","null","","","","","","","","","","","","","","","","","","","","","","","","","feedback",""
"","","","","","psychophysics","30","237634","0.0-7.0-0.0-0.9","null","","null","","","","","","","","","","","","","key","null","16.653416149068214","710.7407909492769","395.92595389514173","./1_3_Stimuli/S_ambi40.png","他人","Word","他人","Match","j","false","Practice",""
"","","","","","html-keyboard-response","31","237937","0.0-7.0-0.0-1.9","null","<span class='add_' style='color:yellow; font-size: 70px;'> 太慢! </span>","null","","","","","","","","","","","","","","","","","","","","","","","","","feedback",""
"","","","","","psychophysics","32","239284","0.0-7.0-0.0-0.10","185","","j","","","","","","","","","","","","","key","j","16.65375000000022","710.7407909492769","395.92595389514173","./1_3_Stimuli/C_ambi40.png","朋友","Image","朋友","Match","j","true","Practice",""
"","","","","","html-keyboard-response","33","239585","0.0-7.0-0.0-1.10","null","<span style='color:yellow; font-size: 70px;'>过快! </span>","null","","","","","","","","","","","","","","","","","","","","","","","","","feedback",""
"","","","","","psychophysics","34","241153","0.0-7.0-0.0-0.11","406","","j","","","","","","","","","","","","","key","j","16.652688172042822","710.7407909492769","395.92595389514173","./1_3_Stimuli/T_ambi40.png","他人","Image","自我","Mismatch","f","false","Practice",""
"","","","","","html-keyboard-response","35","241469","0.0-7.0-0.0-1.11","null","<span style='color:red; font-size: 70px;'>错误! </span>","null","","","","","","","","","","","","","","","","","","","","","","","","","feedback",""
"","","","","","psychophysics","36","244178","0.0-7.0-0.0-0.12","null","","null","","","","","","","","","","","","","key","null","16.653416149068395","710.7407909492769","395.92595389514173","./1_3_Stimuli/C_ambi40.png","朋友","Word","朋友","Match","j","false","Practice",""
"","","","","","html-keyboard-response","37","244483","0.0-7.0-0.0-1.12","null","<span class='add_' style='color:yellow; font-size: 70px;'> 太慢! </span>","null","","","","","","","","","","","","","","","","","","","","","","","","","feedback",""
"","","","","","psychophysics","38","245989","0.0-7.0-0.0-0.13","346","","j","","","","","","","","","","","","","key","j","16.653932584269466","710.7407909492769","395.92595389514173","./1_3_Stimuli/S_ambi40.png","朋友","Image","他人","Mismatch","f","false","Practice",""
"","","","","","html-keyboard-response","39","246296","0.0-7.0-0.0-1.13","null","<span style='color:red; font-size: 70px;'>错误! </span>","null","","","","","","","","","","","","","","","","","","","","","","","","","feedback",""
"","","","","","psychophysics","40","249007","0.0-7.0-0.0-0.14","null","","null","","","","","","","","","","","","","key","null","16.654037267080852","710.7407909492769","395.92595389514173","./1_3_Stimuli/S_ambi40.png","自我","Image","他人","Mismatch","f","false","Practice",""
"","","","","","html-keyboard-response","41","249310","0.0-7.0-0.0-1.14","null","<span class='add_' style='color:yellow; font-size: 70px;'> 太慢! </span>","null","","","","","","","","","","","","","","","","","","","","","","","","","feedback",""
"","","","","","psychophysics","42","251490","0.0-7.0-0.0-0.15","1018","","j","","","","","","","","","","","","","key","j","16.653076923076878","710.7407909492769","395.92595389514173","./1_3_Stimuli/C_ambi40.png","朋友","Word","朋友","Match","j","true","Practice",""
"","","","","","html-keyboard-response","43","251793","0.0-7.0-0.0-1.15","null","<span style='color:GreenYellow; font-size: 70px;'>正确! </span>","null","","","","","","","","","","","","","","","","","","","","","","","","","feedback",""
"","","","","","psychophysics","44","253231","0.0-7.0-0.0-0.16","277","","j","","","","","","","","","","","","","key","j","16.652941176470588","710.7407909492769","395.92595389514173","./1_3_Stimuli/C_ambi40.png","朋友","Image","朋友","Match","j","true","Practice",""
"","","","","","html-keyboard-response","45","253542","0.0-7.0-0.0-1.16","null","<span style='color:GreenYellow; font-size: 70px;'>正确! </span>","null","","","","","","","","","","","","","","","","","","","","","","","","","feedback",""
"","","","","","psychophysics","46","255026","0.0-7.0-0.0-0.17","323","","f","","","","","","","","","","","","","key","f","16.65227272727266","710.7407909492769","395.92595389514173","./1_3_Stimuli/S_ambi40.png","他人","Image","他人","Match","j","false","Practice",""
"","","","","","html-keyboard-response","47","255340","0.0-7.0-0.0-1.17","null","<span style='color:red; font-size: 70px;'>错误! </span>","null","","","","","","","","","","","","","","","","","","","","","","","","","feedback",""
"","","","","","psychophysics","48","256700","0.0-7.0-0.0-0.18","199","","j","","","","","","","","","","","","","key","j","16.652499999999783","710.7407909492769","395.92595389514173","./1_3_Stimuli/T_ambi40.png","自我","Image","自我","Match","j","true","Practice",""
"","","","","","html-keyboard-response","49","257005","0.0-7.0-0.0-1.18","null","<span style='color:yellow; font-size: 70px;'>过快! </span>","null","","","","","","","","","","","","","","","","","","","","","","","","","feedback",""
"","","","","","psychophysics","50","258563","0.0-7.0-0.0-0.19","397","","j","","","","","","","","","","","","","key","j","16.65326086956528","710.7407909492769","395.92595389514173","./1_3_Stimuli/C_ambi40.png","他人","Image","朋友","Mismatch","f","false","Practice",""
"","","","","","html-keyboard-response","51","258865","0.0-7.0-0.0-1.19","null","<span style='color:red; font-size: 70px;'>错误! </span>","null","","","","","","","","","","","","","","","","","","","","","","","","","feedback",""
"","","","","","psychophysics","52","260463","0.0-7.0-0.0-0.20","447","","j","","","","","","","","","","","","","key","j","16.646808510638483","710.7407909492769","395.92595389514173","./1_3_Stimuli/T_ambi40.png","朋友","Image","自我","Mismatch","f","false","Practice",""
"","","","","","html-keyboard-response","53","260776","0.0-7.0-0.0-1.20","null","<span style='color:red; font-size: 70px;'>错误! </span>","null","","","","","","","","","","","","","","","","","","","","","","","","","feedback",""
"","","","","","psychophysics","54","263149","0.0-7.0-0.0-0.21","1219","","f","","","","","","","","","","","","","key","f","16.653521126760893","710.7407909492769","395.92595389514173","./1_3_Stimuli/S_ambi40.png","自我","Word","他人","Mismatch","f","true","Practice",""
"","","","","","html-keyboard-response","55","263452","0.0-7.0-0.0-1.21","null","<span style='color:GreenYellow; font-size: 70px;'>正确! </span>","null","","","","","","","","","","","","","","","","","","","","","","","","","feedback",""
"","","","","","psychophysics","56","265898","0.0-7.0-0.0-0.22","1286","","j","","","","","","","","","","","","","key","j","16.652739726027317","710.7407909492769","395.92595389514173","./1_3_Stimuli/C_ambi40.png","自我","Word","朋友","Mismatch","f","false","Practice",""
"","","","","","html-keyboard-response","57","266203","0.0-7.0-0.0-1.22","null","<span style='color:red; font-size: 70px;'>错误! </span>","null","","","","","","","","","","","","","","","","","","","","","","","","","feedback",""
"","","","","","psychophysics","58","268362","0.0-7.0-0.0-0.23","1003","","f","","","","","","","","","","","","","key","f","16.653488372093385","710.7407909492769","395.92595389514173","./1_3_Stimuli/C_ambi40.png","自我","Image","朋友","Mismatch","f","true","Practice",""
"","","","","","html-keyboard-response","59","268663","0.0-7.0-0.0-1.23","null","<span style='color:GreenYellow; font-size: 70px;'>正确! </span>","null","","","","","","","","","","","","","","","","","","","","","","","","","feedback",""
"","","","","","html-keyboard-response","60","271715","0.0-7.0-1.0-0.0","3050","<style>.context{color:white; font-size: 35px; line-height:40px}</style>                        <div><p class='context'>您正确回答了38% 的试次。</p><p class='context'>您的平均反应时为618毫秒。</p><p> <div style = 'color: green'><按空格键至下页></div></p>"," ","","","","","","","","","","","","","","","","","","","","","","","","","",""
"","","","","","instructions","61","308071","0.0-7.0-1.0-1.0","36355","","","","","","","","","","","","","","[{""page_index"":0,""viewing_time"":16553},{""page_index"":1,""viewing_time"":14406},{""page_index"":2,""viewing_time"":5396}]","","","","","","","","","","","","","",""
"","","","","","psychophysics","62","310774","0.0-7.1-0.1-0.24","null","","null","","","","","","","","","","","","","key","null","16.65465838509295","710.7407909492769","395.92595389514173","./1_3_Stimuli/C_ambi40.png","他人","Image","朋友","Mismatch","f","false","Practice",""
"","","","","","html-keyboard-response","63","311085","0.0-7.1-0.1-1.24","null","<span class='add_' style='color:yellow; font-size: 70px;'> 太慢! </span>","null","","","","","","","","","","","","","","","","","","","","","","","","","feedback",""
"","","","","","psychophysics","64","313789","0.0-7.1-0.1-0.25","null","","null","","","","","","","","","","","","","key","null","16.653416149068395","710.7407909492769","395.92595389514173","./1_3_Stimuli/S_ambi40.png","朋友","Word","他人","Mismatch","f","false","Practice",""
"","","","","","html-keyboard-response","65","314095","0.0-7.1-0.1-1.25","null","<span class='add_' style='color:yellow; font-size: 70px;'> 太慢! </span>","null","","","","","","","","","","","","","","","","","","","","","","","","","feedback",""
"","","","","","psychophysics","66","316372","0.0-7.1-0.1-0.26","1118","","f","","","","","","","","","","","","","key","f","16.65367647058798","710.7407909492769","395.92595389514173","./1_3_Stimuli/S_ambi40.png","他人","Image","他人","Match","j","false","Practice",""
"","","","","","html-keyboard-response","67","316676","0.0-7.1-0.1-1.26","null","<span style='color:red; font-size: 70px;'>错误! </span>","null","","","","","","","","","","","","","","","","","","","","","","","","","feedback",""
"","","","","","psychophysics","68","318788","0.0-7.1-0.1-0.27","952","","j","","","","","","","","","","","","","key","j","16.65317460317451","710.7407909492769","395.92595389514173","./1_3_Stimuli/T_ambi40.png","自我","Image","自我","Match","j","true","Practice",""
"","","","","","html-keyboard-response","69","319096","0.0-7.1-0.1-1.27","null","<span style='color:GreenYellow; font-size: 70px;'>正确! </span>","null","","","","","","","","","","","","","","","","","","","","","","","","","feedback",""
"","","","","","psychophysics","70","320917","0.0-7.1-0.1-0.28","666","","j","","","","","","","","","","","","","key","j","16.65370370370403","710.7407909492769","395.92595389514173","./1_3_Stimuli/T_ambi40.png","自我","Image","自我","Match","j","true","Practice",""
"","","","","","html-keyboard-response","71","321220","0.0-7.1-0.1-1.28","null","<span style='color:GreenYellow; font-size: 70px;'>正确! </span>","null","","","","","","","","","","","","","","","","","","","","","","","","","feedback",""
"","","","","","psychophysics","72","323124","0.0-7.1-0.1-0.29","741","","f","","","","","","","","","","","","","key","f","16.653982300884646","710.7407909492769","395.92595389514173","./1_3_Stimuli/S_ambi40.png","他人","Word","他人","Match","j","false","Practice",""
"","","","","","html-keyboard-response","73","323436","0.0-7.1-0.1-1.29","null","<span style='color:red; font-size: 70px;'>错误! </span>","null","","","","","","","","","","","","","","","","","","","","","","","","","feedback",""
"","","","","","psychophysics","74","326060","0.0-7.1-0.1-0.30","1462","","f","","","","","","","","","","","","","key","f","16.653846153846153","710.7407909492769","395.92595389514173","./1_3_Stimuli/C_ambi40.png","他人","Word","朋友","Mismatch","f","true","Practice",""
"","","","","","html-keyboard-response","75","326367","0.0-7.1-0.1-1.30","null","<span style='color:GreenYellow; font-size: 70px;'>正确! </span>","null","","","","","","","","","","","","","","","","","","","","","","","","","feedback",""
"","","","","","psychophysics","76","328481","0.0-7.1-0.1-0.31","953","","j","","","","","","","","","","","","","key","j","16.65396825396844","710.7407909492769","395.92595389514173","./1_3_Stimuli/C_ambi40.png","朋友","Word","朋友","Match","j","true","Practice",""
"","","","","","html-keyboard-response","77","328797","0.0-7.1-0.1-1.31","null","<span style='color:GreenYellow; font-size: 70px;'>正确! </span>","null","","","","","","","","","","","","","","","","","","","","","","","","","feedback",""
"","","","","","psychophysics","78","330801","0.0-7.1-0.1-0.32","841","","f","","","","","","","","","","","","","key","f","16.653781512604944","710.7407909492769","395.92595389514173","./1_3_Stimuli/T_ambi40.png","自我","Word","自我","Match","j","false","Practice",""
"","","","","","html-keyboard-response","79","331112","0.0-7.1-0.1-1.32","null","<span style='color:red; font-size: 70px;'>错误! </span>","null","","","","","","","","","","","","","","","","","","","","","","","","","feedback",""
"","","","","","psychophysics","80","333385","0.0-7.1-0.1-0.33","1111","","f","","","","","","","","","","","","","key","f","16.65407407407399","710.7407909492769","395.92595389514173","./1_3_Stimuli/T_ambi40.png","他人","Image","自我","Mismatch","f","true","Practice",""
"","","","","","html-keyboard-response","81","333693","0.0-7.1-0.1-1.33","null","<span style='color:GreenYellow; font-size: 70px;'>正确! </span>","null","","","","","","","","","","","","","","","","","","","","","","","","","feedback",""
"","","","","","psychophysics","82","335772","0.0-7.1-0.1-0.34","916","","j","","","","","","","","","","","","","key","j","16.653658536585557","710.7407909492769","395.92595389514173","./1_3_Stimuli/T_ambi40.png","自我","Word","自我","Match","j","true","Practice",""
"","","","","","html-keyboard-response","83","336074","0.0-7.1-0.1-1.34","null","<span style='color:GreenYellow; font-size: 70px;'>正确! </span>","null","","","","","","","","","","","","","","","","","","","","","","","","","feedback",""
"","","","","","psychophysics","84","338099","0.0-7.1-0.1-0.35","862","","j","","","","","","","","","","","","","key","j","16.65333333333304","710.7407909492769","395.92595389514173","./1_3_Stimuli/C_ambi40.png","朋友","Image","朋友","Match","j","true","Practice",""
"","","","","","html-keyboard-response","85","338407","0.0-7.1-0.1-1.35","null","<span style='color:GreenYellow; font-size: 70px;'>正确! </span>","null","","","","","","","","","","","","","","","","","","","","","","","","","feedback",""
"","","","","","psychophysics","86","341117","0.0-7.1-0.1-0.36","null","","null","","","","","","","","","","","","","key","null","16.653416149068395","710.7407909492769","395.92595389514173","./1_3_Stimuli/S_ambi40.png","他人","Image","他人","Match","j","false","Practice",""
"","","","","","html-keyboard-response","87","341422","0.0-7.1-0.1-1.36","null","<span class='add_' style='color:yellow; font-size: 70px;'> 太慢! </span>","null","","","","","","","","","","","","","","","","","","","","","","","","","feedback",""
"","","","","","psychophysics","88","343664","0.0-7.1-0.1-0.37","1081","","f","","","","","","","","","","","","","key","f","16.653383458646353","710.7407909492769","395.92595389514173","./1_3_Stimuli/T_ambi40.png","朋友","Word","自我","Mismatch","f","true","Practice",""
"","","","","","html-keyboard-response","89","343969","0.0-7.1-0.1-1.37","null","<span style='color:GreenYellow; font-size: 70px;'>正确! </span>","null","","","","","","","","","","","","","","","","","","","","","","","","","feedback",""
"","","","","","psychophysics","90","346127","0.0-7.1-0.1-0.38","997","","j","","","","","","","","","","","","","key","j","16.653124999999818","710.7407909492769","395.92595389514173","./1_3_Stimuli/S_ambi40.png","他人","Word","他人","Match","j","true","Practice",""
"","","","","","html-keyboard-response","91","346433","0.0-7.1-0.1-1.38","null","<span style='color:GreenYellow; font-size: 70px;'>正确! </span>","null","","","","","","","","","","","","","","","","","","","","","","","","","feedback",""
"","","","","","psychophysics","92","348784","0.0-7.1-0.1-0.39","1189","","f","","","","","","","","","","","","","key","f","16.65357142857143","710.7407909492769","395.92595389514173","./1_3_Stimuli/S_ambi40.png","自我","Word","他人","Mismatch","f","true","Practice",""
"","","","","","html-keyboard-response","93","349098","0.0-7.1-0.1-1.39","null","<span style='color:GreenYellow; font-size: 70px;'>正确! </span>","null","","","","","","","","","","","","","","","","","","","","","","","","","feedback",""
"","","","","","psychophysics","94","351314","0.0-7.1-0.1-0.40","1054","","f","","","","","","","","","","","","","key","f","16.65303030303039","710.7407909492769","395.92595389514173","./1_3_Stimuli/C_ambi40.png","自我","Word","朋友","Mismatch","f","true","Practice",""
"","","","","","html-keyboard-response","95","351629","0.0-7.1-0.1-1.40","null","<span style='color:GreenYellow; font-size: 70px;'>正确! </span>","null","","","","","","","","","","","","","","","","","","","","","","","","","feedback",""
"","","","","","psychophysics","96","353499","0.0-7.1-0.1-0.41","708","","f","","","","","","","","","","","","","key","f","16.652252252252463","710.7407909492769","395.92595389514173","./1_3_Stimuli/C_ambi40.png","朋友","Word","朋友","Match","j","false","Practice",""
"","","","","","html-keyboard-response","97","353811","0.0-7.1-0.1-1.41","null","<span style='color:red; font-size: 70px;'>错误! </span>","null","","","","","","","","","","","","","","","","","","","","","","","","","feedback",""
"","","","","","psychophysics","98","355771","0.0-7.1-0.1-0.42","798","","f","","","","","","","","","","","","","key","f","16.65431034482779","710.7407909492769","395.92595389514173","./1_3_Stimuli/T_ambi40.png","朋友","Image","自我","Mismatch","f","true","Practice",""
"","","","","","html-keyboard-response","99","356077","0.0-7.1-0.1-1.42","null","<span style='color:GreenYellow; font-size: 70px;'>正确! </span>","null","","","","","","","","","","","","","","","","","","","","","","","","","feedback",""
"","","","","","psychophysics","100","358090","0.0-7.1-0.1-0.43","852","","j","","","","","","","","","","","","","key","j","16.653333333333528","710.7407909492769","395.92595389514173","./1_3_Stimuli/C_ambi40.png","朋友","Image","朋友","Match","j","true","Practice",""
"","","","","","html-keyboard-response","101","358393","0.0-7.1-0.1-1.43","null","<span style='color:GreenYellow; font-size: 70px;'>正确! </span>","null","","","","","","","","","","","","","","","","","","","","","","","","","feedback",""
"","","","","","psychophysics","102","360427","0.0-7.1-0.1-0.44","874","","f","","","","","","","","","","","","","key","f","16.65537190082635","710.7407909492769","395.92595389514173","./1_3_Stimuli/S_ambi40.png","朋友","Image","他人","Mismatch","f","true","Practice",""
"","","","","","html-keyboard-response","103","360739","0.0-7.1-0.1-1.44","null","<span style='color:GreenYellow; font-size: 70px;'>正确! </span>","null","","","","","","","","","","","","","","","","","","","","","","","","","feedback",""
"","","","","","psychophysics","104","363331","0.0-7.1-0.1-0.45","1430","","f","","","","","","","","","","","","","key","f","16.65389610389618","710.7407909492769","395.92595389514173","./1_3_Stimuli/S_ambi40.png","自我","Image","他人","Mismatch","f","true","Practice",""
"","","","","","html-keyboard-response","105","363638","0.0-7.1-0.1-1.45","null","<span style='color:GreenYellow; font-size: 70px;'>正确! </span>","null","","","","","","","","","","","","","","","","","","","","","","","","","feedback",""
"","","","","","psychophysics","106","365413","0.0-7.1-0.1-0.46","614","","f","","","","","","","","","","","","","key","f","16.653333333333666","710.7407909492769","395.92595389514173","./1_3_Stimuli/C_ambi40.png","自我","Image","朋友","Mismatch","f","true","Practice",""
"","","","","","html-keyboard-response","107","365718","0.0-7.1-0.1-1.46","null","<span style='color:GreenYellow; font-size: 70px;'>正确! </span>","null","","","","","","","","","","","","","","","","","","","","","","","","","feedback",""
"","","","","","psychophysics","108","367775","0.0-7.1-0.1-0.47","895","","f","","","","","","","","","","","","","key","f","16.653278688524686","710.7407909492769","395.92595389514173","./1_3_Stimuli/T_ambi40.png","他人","Word","自我","Mismatch","f","true","Practice",""
"","","","","","html-keyboard-response","109","368083","0.0-7.1-0.1-1.47","null","<span style='color:GreenYellow; font-size: 70px;'>正确! </span>","null","","","","","","","","","","","","","","","","","","","","","","","","","feedback",""
"","","","","","html-keyboard-response","110","372232","0.0-7.1-1.1-0.1","4147","<style>.context{color:white; font-size: 35px; line-height:40px}</style>                        <div><p class='context'>您正确回答了71% 的试次。</p><p class='context'>您的平均反应时为983毫秒。</p><p> <div style = 'color: green'><按空格键至下页></div></p>"," ","","","","","","","","","","","","","","","","","","","","","","","","","",""
"","","","","","instructions","111","387141","0.0-7.1-1.1-1.1","14908","","","","","","","","","","","","","","[{""page_index"":0,""viewing_time"":2550},{""page_index"":1,""viewing_time"":4130},{""page_index"":2,""viewing_time"":3298},{""page_index"":1,""viewing_time"":2382},{""page_index"":2,""viewing_time"":2548}]","","","","","","","","","","","","","",""
"","","","","","psychophysics","112","389845","0.0-7.2-0.2-0.48","null","","null","","","","","","","","","","","","","key","null","16.654037267080675","710.7407909492769","395.92595389514173","./1_3_Stimuli/T_ambi40.png","朋友","Word","自我","Mismatch","f","false","Practice",""
"","","","","","html-keyboard-response","113","390154","0.0-7.2-0.2-1.48","null","<span class='add_' style='color:yellow; font-size: 70px;'> 太慢! </span>","null","","","","","","","","","","","","","","","","","","","","","","","","","feedback",""
"","","","","","psychophysics","114","391916","0.0-7.2-0.2-0.49","605","","j","","","","","","","","","","","","","key","j","16.652380952380952","710.7407909492769","395.92595389514173","./1_3_Stimuli/T_ambi40.png","自我","Image","自我","Match","j","true","Practice",""
"","","","","","html-keyboard-response","115","392230","0.0-7.2-0.2-1.49","null","<span style='color:GreenYellow; font-size: 70px;'>正确! </span>","null","","","","","","","","","","","","","","","","","","","","","","","","","feedback",""
"","","","","","psychophysics","116","394772","0.0-7.2-0.2-0.50","1380","","f","","","","","","","","","","","","","key","f","16.654304635761513","710.7407909492769","395.92595389514173","./1_3_Stimuli/S_ambi40.png","自我","Image","他人","Mismatch","f","true","Practice",""
"","","","","","html-keyboard-response","117","395076","0.0-7.2-0.2-1.50","null","<span style='color:GreenYellow; font-size: 70px;'>正确! </span>","null","","","","","","","","","","","","","","","","","","","","","","","","","feedback",""
"","","","","","psychophysics","118","396961","0.0-7.2-0.2-0.51","721","","f","","","","","","","","","","","","","key","f","16.65357142857153","710.7407909492769","395.92595389514173","./1_3_Stimuli/C_ambi40.png","自我","Image","朋友","Mismatch","f","true","Practice",""
"","","","","","html-keyboard-response","119","397275","0.0-7.2-0.2-1.51","null","<span style='color:GreenYellow; font-size: 70px;'>正确! </span>","null","","","","","","","","","","","","","","","","","","","","","","","","","feedback",""
"","","","","","psychophysics","120","399598","0.0-7.2-0.2-0.52","1160","","j","","","","","","","","","","","","","key","j","16.65289855072447","710.7407909492769","395.92595389514173","./1_3_Stimuli/C_ambi40.png","朋友","Word","朋友","Match","j","true","Practice",""
"","","","","","html-keyboard-response","121","399905","0.0-7.2-0.2-1.52","null","<span style='color:GreenYellow; font-size: 70px;'>正确! </span>","null","","","","","","","","","","","","","","","","","","","","","","","","","feedback",""
"","","","","","psychophysics","122","401749","0.0-7.2-0.2-0.53","680","","j","","","","","","","","","","","","","key","j","16.65321100917442","710.7407909492769","395.92595389514173","./1_3_Stimuli/T_ambi40.png","自我","Word","自我","Match","j","true","Practice",""
"","","","","","html-keyboard-response","123","402055","0.0-7.2-0.2-1.53","null","<span style='color:GreenYellow; font-size: 70px;'>正确! </span>","null","","","","","","","","","","","","","","","","","","","","","","","","","feedback",""
"","","","","","psychophysics","124","404700","0.0-7.2-0.2-0.54","1482","","j","","","","","","","","","","","","","key","j","16.65286624203822","710.7407909492769","395.92595389514173","./1_3_Stimuli/C_ambi40.png","朋友","Image","朋友","Match","j","true","Practice",""
"","","","","","html-keyboard-response","125","405003","0.0-7.2-0.2-1.54","null","<span style='color:GreenYellow; font-size: 70px;'>正确! </span>","null","","","","","","","","","","","","","","","","","","","","","","","","","feedback",""
"","","","","","psychophysics","126","407122","0.0-7.2-0.2-0.55","956","","f","","","","","","","","","","","","","key","f","16.657142857142766","710.7407909492769","395.92595389514173","./1_3_Stimuli/C_ambi40.png","自我","Word","朋友","Mismatch","f","true","Practice",""
"","","","","","html-keyboard-response","127","407435","0.0-7.2-0.2-1.55","null","<span style='color:GreenYellow; font-size: 70px;'>正确! </span>","null","","","","","","","","","","","","","","","","","","","","","","","","","feedback",""
"","","","","","psychophysics","128","409708","0.0-7.2-0.2-0.56","1112","","j","","","","","","","","","","","","","key","j","16.653333333332988","710.7407909492769","395.92595389514173","./1_3_Stimuli/S_ambi40.png","他人","Word","他人","Match","j","true","Practice",""
"","","","","","html-keyboard-response","129","410015","0.0-7.2-0.2-1.56","null","<span style='color:GreenYellow; font-size: 70px;'>正确! </span>","null","","","","","","","","","","","","","","","","","","","","","","","","","feedback",""
"","","","","","psychophysics","130","411994","0.0-7.2-0.2-0.57","817","","f","","","","","","","","","","","","","key","f","16.652991452991156","710.7407909492769","395.92595389514173","./1_3_Stimuli/S_ambi40.png","朋友","Image","他人","Mismatch","f","true","Practice",""
"","","","","","html-keyboard-response","131","412298","0.0-7.2-0.2-1.57","null","<span style='color:GreenYellow; font-size: 70px;'>正确! </span>","null","","","","","","","","","","","","","","","","","","","","","","","","","feedback",""
"","","","","","psychophysics","132","414085","0.0-7.2-0.2-0.58","626","","j","","","","","","","","","","","","","key","j","16.65377358490555","710.7407909492769","395.92595389514173","./1_3_Stimuli/T_ambi40.png","自我","Image","自我","Match","j","true","Practice",""
"","","","","","html-keyboard-response","133","414396","0.0-7.2-0.2-1.58","null","<span style='color:GreenYellow; font-size: 70px;'>正确! </span>","null","","","","","","","","","","","","","","","","","","","","","","","","","feedback",""
"","","","","","psychophysics","134","416456","0.0-7.2-0.2-0.59","898","","f","","","","","","","","","","","","","key","f","16.653278688524686","710.7407909492769","395.92595389514173","./1_3_Stimuli/T_ambi40.png","他人","Word","自我","Mismatch","f","true","Practice",""
"","","","","","html-keyboard-response","135","416761","0.0-7.2-0.2-1.59","null","<span style='color:GreenYellow; font-size: 70px;'>正确! </span>","null","","","","","","","","","","","","","","","","","","","","","","","","","feedback",""
"","","","","","psychophysics","136","418565","0.0-7.2-0.2-0.60","643","","f","","","","","","","","","","","","","key","f","16.6532710280376","710.7407909492769","395.92595389514173","./1_3_Stimuli/S_ambi40.png","他人","Image","他人","Match","j","false","Practice",""
"","","","","","html-keyboard-response","137","418874","0.0-7.2-0.2-1.60","null","<span style='color:red; font-size: 70px;'>错误! </span>","null","","","","","","","","","","","","","","","","","","","","","","","","","feedback",""
"","","","","","psychophysics","138","421177","0.0-7.2-0.2-0.61","1140","","f","","","","","","","","","","","","","key","f","16.653284671532848","710.7407909492769","395.92595389514173","./1_3_Stimuli/S_ambi40.png","朋友","Word","他人","Mismatch","f","true","Practice",""
"","","","","","html-keyboard-response","139","421489","0.0-7.2-0.2-1.61","null","<span style='color:GreenYellow; font-size: 70px;'>正确! </span>","null","","","","","","","","","","","","","","","","","","","","","","","","","feedback",""
"","","","","","psychophysics","140","423515","0.0-7.2-0.2-0.62","863","","f","","","","","","","","","","","","","key","f","16.65333333333304","710.7407909492769","395.92595389514173","./1_3_Stimuli/T_ambi40.png","他人","Image","自我","Mismatch","f","true","Practice",""
"","","","","","html-keyboard-response","141","423821","0.0-7.2-0.2-1.62","null","<span style='color:GreenYellow; font-size: 70px;'>正确! </span>","null","","","","","","","","","","","","","","","","","","","","","","","","","feedback",""
"","","","","","psychophysics","142","425919","0.0-7.2-0.2-0.63","936","","f","","","","","","","","","","","","","key","f","16.652799999999814","710.7407909492769","395.92595389514173","./1_3_Stimuli/T_ambi40.png","朋友","Image","自我","Mismatch","f","true","Practice",""
"","","","","","html-keyboard-response","143","426220","0.0-7.2-0.2-1.63","null","<span style='color:GreenYellow; font-size: 70px;'>正确! </span>","null","","","","","","","","","","","","","","","","","","","","","","","","","feedback",""
"","","","","","psychophysics","144","428892","0.0-7.2-0.2-0.64","1511","","j","","","","","","","","","","","","","key","j","16.65283018867917","710.7407909492769","395.92595389514173","./1_3_Stimuli/S_ambi40.png","他人","Word","他人","Match","j","true","Practice",""
"","","","","","html-keyboard-response","145","429199","0.0-7.2-0.2-1.64","null","<span class='add_' style='color:yellow; font-size: 70px;'> 太慢! </span>","null","","","","","","","","","","","","","","","","","","","","","","","","","feedback",""
"","","","","","psychophysics","146","431167","0.0-7.2-0.2-0.65","804","","j","","","","","","","","","","","","","key","j","16.652991452991156","710.7407909492769","395.92595389514173","./1_3_Stimuli/T_ambi40.png","自我","Word","自我","Match","j","true","Practice",""
"","","","","","html-keyboard-response","147","431481","0.0-7.2-0.2-1.65","null","<span style='color:GreenYellow; font-size: 70px;'>正确! </span>","null","","","","","","","","","","","","","","","","","","","","","","","","","feedback",""
"","","","","","psychophysics","148","433826","0.0-7.2-0.2-0.66","1183","","f","","","","","","","","","","","","","key","f","16.65323741007186","710.7407909492769","395.92595389514173","./1_3_Stimuli/C_ambi40.png","他人","Image","朋友","Mismatch","f","true","Practice",""
"","","","","","html-keyboard-response","149","434129","0.0-7.2-0.2-1.66","null","<span style='color:GreenYellow; font-size: 70px;'>正确! </span>","null","","","","","","","","","","","","","","","","","","","","","","","","","feedback",""
"","","","","","psychophysics","150","436151","0.0-7.2-0.2-0.67","860","","j","","","","","","","","","","","","","key","j","16.654166666666665","710.7407909492769","395.92595389514173","./1_3_Stimuli/C_ambi40.png","朋友","Word","朋友","Match","j","true","Practice",""
"","","","","","html-keyboard-response","151","436460","0.0-7.2-0.2-1.67","null","<span style='color:GreenYellow; font-size: 70px;'>正确! </span>","null","","","","","","","","","","","","","","","","","","","","","","","","","feedback",""
"","","","","","psychophysics","152","438788","0.0-7.2-0.2-0.68","1165","","f","","","","","","","","","","","","","key","f","16.65362318840588","710.7407909492769","395.92595389514173","./1_3_Stimuli/S_ambi40.png","自我","Word","他人","Mismatch","f","true","Practice",""
"","","","","","html-keyboard-response","153","439099","0.0-7.2-0.2-1.68","null","<span style='color:GreenYellow; font-size: 70px;'>正确! </span>","null","","","","","","","","","","","","","","","","","","","","","","","","","feedback",""
"","","","","","psychophysics","154","441136","0.0-7.2-0.2-0.69","882","","f","","","","","","","","","","","","","key","f","16.65289256198347","710.7407909492769","395.92595389514173","./1_3_Stimuli/C_ambi40.png","他人","Word","朋友","Mismatch","f","true","Practice",""
"","","","","","html-keyboard-response","155","441441","0.0-7.2-0.2-1.69","null","<span style='color:GreenYellow; font-size: 70px;'>正确! </span>","null","","","","","","","","","","","","","","","","","","","","","","","","","feedback",""
"","","","","","psychophysics","156","443537","0.0-7.2-0.2-0.70","935","","j","","","","","","","","","","","","","key","j","16.653600000000093","710.7407909492769","395.92595389514173","./1_3_Stimuli/S_ambi40.png","他人","Image","他人","Match","j","true","Practice",""
"","","","","","html-keyboard-response","157","443840","0.0-7.2-0.2-1.70","null","<span style='color:GreenYellow; font-size: 70px;'>正确! </span>","null","","","","","","","","","","","","","","","","","","","","","","","","","feedback",""
"","","","","","psychophysics","158","445987","0.0-7.2-0.2-0.71","986","","j","","","","","","","","","","","","","key","j","16.655468749999727","710.7407909492769","395.92595389514173","./1_3_Stimuli/C_ambi40.png","朋友","Image","朋友","Match","j","true","Practice",""
"","","","","","html-keyboard-response","159","446303","0.0-7.2-0.2-1.71","null","<span style='color:GreenYellow; font-size: 70px;'>正确! </span>","null","","","","","","","","","","","","","","","","","","","","","","","","","feedback",""
"","","","","","html-keyboard-response","160","455911","0.0-8.0","9607","<style>.context{color:white; font-size: 35px; line-height:40px}</style>                          <div><p class='context'>您正确回答了92% 的试次。</p><p class='context'>您的平均反应时为986毫秒。</p><p class='context'>恭喜您完成练习。现在请休息3~5分钟。</p><p class='context'>之后，按任意键进入正式实验。需要注意的是，正式实验将不再提供反应是否正确的反馈。</p><p class='footer' style='font-size: 35px; line-height:40px;'>请在进入正式实验实验之前将您的<span style='color: lightgreen;'>食指</span>放在电脑键盘的相应键位上进行按键。</p>"," ","","","","","","","","","","","","","","","","","","","","","","","","","",""
"","","","","","psychophysics","161","458623","0.0-9.0-0.0-0.0","null","","null","","","","","","","","","","","","","key","null","16.652795031055756","710.7407909492769","395.92595389514173","./1_3_Stimuli/C_ambi40.png","他人","Word","朋友","Mismatch","f","false","Formal",""
"","","","","","psychophysics","162","460673","0.0-9.0-0.0-0.1","900","","f","","","","","","","","","","","","","key","f","16.653278688524207","710.7407909492769","395.92595389514173","./1_3_Stimuli/C_ambi40.png","自我","Word","朋友","Mismatch","f","true","Formal",""
"","","","","","psychophysics","163","462560","0.0-9.0-0.0-0.2","722","","j","","","","","","","","","","","","","key","j","16.652678571428883","710.7407909492769","395.92595389514173","./1_3_Stimuli/T_ambi40.png","自我","Image","自我","Match","j","true","Formal",""
"","","","","","psychophysics","164","464690","0.0-9.0-0.0-0.3","972","","f","","","","","","","","","","","","","key","f","16.653543307086615","710.7407909492769","395.92595389514173","./1_3_Stimuli/T_ambi40.png","朋友","Image","自我","Mismatch","f","true","Formal",""
"","","","","","psychophysics","165","466693","0.0-9.0-0.0-0.4","842","","j","","","","","","","","","","","","","key","j","16.652941176470687","710.7407909492769","395.92595389514173","./1_3_Stimuli/C_ambi40.png","朋友","Image","朋友","Match","j","true","Formal",""
"","","","","","psychophysics","166","468541","0.0-9.0-0.0-0.5","691","","f","","","","","","","","","","","","","key","f","16.653636363636576","710.7407909492769","395.92595389514173","./1_3_Stimuli/C_ambi40.png","自我","Image","朋友","Mismatch","f","true","Formal",""
"","","","","","psychophysics","167","470500","0.0-9.0-0.0-0.6","802","","f","","","","","","","","","","","","","key","f","16.652991452991156","710.7407909492769","395.92595389514173","./1_3_Stimuli/S_ambi40.png","朋友","Word","他人","Mismatch","f","true","Formal",""
"","","","","","psychophysics","168","473211","0.0-9.0-0.0-0.7","null","","null","","","","","","","","","","","","","key","null","16.65279503105612","710.7407909492769","395.92595389514173","./1_3_Stimuli/C_ambi40.png","朋友","Image","朋友","Match","j","false","Formal",""
"","","","","","psychophysics","169","475100","0.0-9.0-0.0-0.8","723","","f","","","","","","","","","","","","","key","f","16.653097345133155","710.7407909492769","395.92595389514173","./1_3_Stimuli/S_ambi40.png","自我","Image","他人","Mismatch","f","true","Formal",""
"","","","","","psychophysics","170","477088","0.0-9.0-0.0-0.9","829","","f","","","","","","","","","","","","","key","f","16.654237288135693","710.7407909492769","395.92595389514173","./1_3_Stimuli/C_ambi40.png","他人","Image","朋友","Mismatch","f","true","Formal",""
"","","","","","psychophysics","171","479584","0.0-9.0-0.0-0.10","1344","","f","","","","","","","","","","","","","key","f","16.652348993288278","710.7407909492769","395.92595389514173","./1_3_Stimuli/S_ambi40.png","朋友","Image","他人","Mismatch","f","true","Formal",""
"","","","","","psychophysics","172","481270","0.0-9.0-0.0-0.11","531","","j","","","","","","","","","","","","","key","j","16.652999999999885","710.7407909492769","395.92595389514173","./1_3_Stimuli/T_ambi40.png","自我","Word","自我","Match","j","true","Formal",""
"","","","","","psychophysics","173","482909","0.0-9.0-0.0-0.12","488","","j","","","","","","","","","","","","","key","j","16.653061224489797","710.7407909492769","395.92595389514173","./1_3_Stimuli/T_ambi40.png","自我","Image","自我","Match","j","true","Formal",""
"","","","","","psychophysics","174","485132","0.0-9.0-0.0-0.13","1062","","j","","","","","","","","","","","","","key","j","16.653787878787792","710.7407909492769","395.92595389514173","./1_3_Stimuli/S_ambi40.png","他人","Image","他人","Match","j","true","Formal",""
"","","","","","psychophysics","175","486729","0.0-9.0-0.0-0.14","444","","j","","","","","","","","","","","","","key","j","16.65368421052607","710.7407909492769","395.92595389514173","./1_3_Stimuli/S_ambi40.png","自我","Word","他人","Mismatch","f","false","Formal",""
"","","","","","psychophysics","176","488857","0.0-9.0-0.0-0.15","974","","f","","","","","","","","","","","","","key","f","16.653543307086615","710.7407909492769","395.92595389514173","./1_3_Stimuli/T_ambi40.png","他人","Word","自我","Mismatch","f","true","Formal",""
"","","","","","psychophysics","177","490915","0.0-9.0-0.0-0.16","901","","j","","","","","","","","","","","","","key","j","16.65447154471545","710.7407909492769","395.92595389514173","./1_3_Stimuli/S_ambi40.png","他人","Word","他人","Match","j","true","Formal",""
"","","","","","psychophysics","178","493248","0.0-9.0-0.0-0.17","1168","","f","","","","","","","","","","","","","key","f","16.65323741007186","710.7407909492769","395.92595389514173","./1_3_Stimuli/T_ambi40.png","朋友","Word","自我","Mismatch","f","true","Formal",""
"","","","","","psychophysics","179","495310","0.0-9.0-0.0-0.18","899","","f","","","","","","","","","","","","","key","f","16.65409836065564","710.7407909492769","395.92595389514173","./1_3_Stimuli/T_ambi40.png","他人","Image","自我","Mismatch","f","true","Formal",""
"","","","","","psychophysics","180","498025","0.0-9.0-0.0-0.19","null","","null","","","","","","","","","","","","","key","null","16.653416149068395","710.7407909492769","395.92595389514173","./1_3_Stimuli/C_ambi40.png","朋友","Word","朋友","Match","j","false","Formal",""
"","","","","","psychophysics","181","499967","0.0-9.0-0.0-0.20","790","","j","","","","","","","","","","","","","key","j","16.653043478261175","710.7407909492769","395.92595389514173","./1_3_Stimuli/C_ambi40.png","朋友","Word","朋友","Match","j","true","Formal",""
"","","","","","psychophysics","182","502012","0.0-9.0-0.0-0.21","889","","j","","","","","","","","","","","","","key","j","16.653278688524686","710.7407909492769","395.92595389514173","./1_3_Stimuli/S_ambi40.png","他人","Word","他人","Match","j","true","Formal",""
"","","","","","psychophysics","183","503648","0.0-9.0-0.0-0.22","478","","j","","","","","","","","","","","","","key","j","16.65360824742232","710.7407909492769","395.92595389514173","./1_3_Stimuli/T_ambi40.png","自我","Word","自我","Match","j","true","Formal",""
"","","","","","psychophysics","184","506097","0.0-9.0-0.0-0.23","1294","","j","","","","","","","","","","","","","key","j","16.652739726027317","710.7407909492769","395.92595389514173","./1_3_Stimuli/S_ambi40.png","他人","Image","他人","Match","j","true","Formal",""
"","","","","","psychophysics","185","507945","0.0-9.0-0.0-0.24","694","","f","","","","","","","","","","","","","key","f","16.653636363636576","710.7407909492769","395.92595389514173","./1_3_Stimuli/C_ambi40.png","自我","Word","朋友","Mismatch","f","true","Formal",""
"","","","","","psychophysics","186","510312","0.0-9.0-0.0-0.25","1213","","f","","","","","","","","","","","","","key","f","16.65319148936195","710.7407909492769","395.92595389514173","./1_3_Stimuli/T_ambi40.png","他人","Word","自我","Mismatch","f","true","Formal",""
"","","","","","psychophysics","187","512725","0.0-9.0-0.0-0.26","1261","","j","","","","","","","","","","","","","key","j","16.65277777777778","710.7407909492769","395.92595389514173","./1_3_Stimuli/S_ambi40.png","他人","Image","他人","Match","j","true","Formal",""
"","","","","","psychophysics","188","514609","0.0-9.0-0.0-0.27","730","","f","","","","","","","","","","","","","key","f","16.65357142857153","710.7407909492769","395.92595389514173","./1_3_Stimuli/C_ambi40.png","他人","Word","朋友","Mismatch","f","true","Formal",""
"","","","","","psychophysics","189","516579","0.0-9.0-0.0-0.28","818","","j","","","","","","","","","","","","","key","j","16.653389830508278","710.7407909492769","395.92595389514173","./1_3_Stimuli/S_ambi40.png","他人","Word","他人","Match","j","true","Formal",""
"","","","","","psychophysics","190","518279","0.0-9.0-0.0-0.29","537","","j","","","","","","","","","","","","","key","j","16.653465346534652","710.7407909492769","395.92595389514173","./1_3_Stimuli/T_ambi40.png","自我","Word","自我","Match","j","true","Formal",""
"","","","","","psychophysics","191","520523","0.0-9.0-0.0-0.30","1082","","f","","","","","","","","","","","","","key","f","16.653383458646353","710.7407909492769","395.92595389514173","./1_3_Stimuli/S_ambi40.png","朋友","Image","他人","Mismatch","f","true","Formal",""
"","","","","","psychophysics","192","523191","0.0-9.0-0.0-0.31","1518","","j","","","","","","","","","","","","","key","j","16.652830188679538","710.7407909492769","395.92595389514173","./1_3_Stimuli/T_ambi40.png","自我","Image","自我","Match","j","true","Formal",""
"","","","","","psychophysics","193","525083","0.0-9.0-0.0-0.32","731","","f","","","","","","","","","","","","","key","f","16.652678571428364","710.7407909492769","395.92595389514173","./1_3_Stimuli/T_ambi40.png","自我","Word","自我","Match","j","false","Formal",""
"","","","","","psychophysics","194","527000","0.0-9.0-0.0-0.33","764","","f","","","","","","","","","","","","","key","f","16.653508771929825","710.7407909492769","395.92595389514173","./1_3_Stimuli/T_ambi40.png","朋友","Image","自我","Mismatch","f","true","Formal",""
"","","","","","psychophysics","195","529115","0.0-9.0-0.0-0.34","963","","f","","","","","","","","","","","","","key","f","16.65317460317497","710.7407909492769","395.92595389514173","./1_3_Stimuli/C_ambi40.png","自我","Image","朋友","Mismatch","f","true","Formal",""
"","","","","","psychophysics","196","530954","0.0-9.0-0.0-0.35","687","","j","","","","","","","","","","","","","key","j","16.652727272727695","710.7407909492769","395.92595389514173","./1_3_Stimuli/C_ambi40.png","朋友","Image","朋友","Match","j","true","Formal",""
"","","","","","psychophysics","197","533082","0.0-9.0-0.0-0.36","968","","f","","","","","","","","","","","","","key","f","16.653543307086615","710.7407909492769","395.92595389514173","./1_3_Stimuli/S_ambi40.png","自我","Image","他人","Mismatch","f","true","Formal",""
"","","","","","psychophysics","198","534839","0.0-9.0-0.0-0.37","593","","f","","","","","","","","","","","","","key","f","16.653846153846153","710.7407909492769","395.92595389514173","./1_3_Stimuli/S_ambi40.png","自我","Word","他人","Mismatch","f","true","Formal",""
"","","","","","psychophysics","199","536669","0.0-9.0-0.0-0.38","674","","f","","","","","","","","","","","","","key","f","16.6541284403674","710.7407909492769","395.92595389514173","./1_3_Stimuli/S_ambi40.png","朋友","Word","他人","Mismatch","f","true","Formal",""
"","","","","","psychophysics","200","538357","0.0-9.0-0.0-0.39","530","","j","","","","","","","","","","","","","key","j","16.654000000000234","710.7407909492769","395.92595389514173","./1_3_Stimuli/C_ambi40.png","朋友","Word","朋友","Match","j","true","Formal",""
"","","","","","psychophysics","201","540187","0.0-9.0-0.0-0.40","679","","j","","","","","","","","","","","","","key","j","16.653211009174953","710.7407909492769","395.92595389514173","./1_3_Stimuli/T_ambi40.png","自我","Image","自我","Match","j","true","Formal",""
"","","","","","psychophysics","202","542760","0.0-9.0-0.0-0.41","1420","","j","","","","","","","","","","","","","key","j","16.6538961038958","710.7407909492769","395.92595389514173","./1_3_Stimuli/C_ambi40.png","朋友","Word","朋友","Match","j","true","Formal",""
"","","","","","psychophysics","203","545038","0.0-9.0-0.0-0.42","1116","","f","","","","","","","","","","","","","key","f","16.65259259259242","710.7407909492769","395.92595389514173","./1_3_Stimuli/C_ambi40.png","他人","Image","朋友","Mismatch","f","true","Formal",""
"","","","","","psychophysics","204","547374","0.0-9.0-0.0-0.43","1170","","j","","","","","","","","","","","","","key","j","16.652517985611176","710.7407909492769","395.92595389514173","./1_3_Stimuli/C_ambi40.png","朋友","Image","朋友","Match","j","true","Formal",""
"","","","","","psychophysics","205","549494","0.0-9.0-0.0-0.44","959","","f","","","","","","","","","","","","","key","f","16.65396825396844","710.7407909492769","395.92595389514173","./1_3_Stimuli/T_ambi40.png","他人","Image","自我","Mismatch","f","true","Formal",""
"","","","","","psychophysics","206","552098","0.0-9.0-0.0-0.45","1448","","j","","","","","","","","","","","","","key","j","16.652903225806902","710.7407909492769","395.92595389514173","./1_3_Stimuli/S_ambi40.png","他人","Word","他人","Match","j","true","Formal",""
"","","","","","psychophysics","207","553903","0.0-9.0-0.0-0.46","653","","j","","","","","","","","","","","","","key","j","16.653271028036514","710.7407909492769","395.92595389514173","./1_3_Stimuli/T_ambi40.png","朋友","Word","自我","Mismatch","f","false","Formal",""
"","","","","","psychophysics","208","556054","0.0-9.0-0.0-0.47","991","","j","","","","","","","","","","","","","key","j","16.653124999999818","710.7407909492769","395.92595389514173","./1_3_Stimuli/S_ambi40.png","他人","Image","他人","Match","j","true","Formal",""
"","","","","","psychophysics","209","557957","0.0-9.0-0.0-0.48","746","","f","","","","","","","","","","","","","key","f","16.653097345133155","710.7407909492769","395.92595389514173","./1_3_Stimuli/S_ambi40.png","自我","Image","他人","Mismatch","f","true","Formal",""
"","","","","","psychophysics","210","560660","0.0-9.0-0.0-0.49","null","","null","","","","","","","","","","","","","key","null","16.653086419753375","710.7407909492769","395.92595389514173","./1_3_Stimuli/T_ambi40.png","他人","Word","自我","Mismatch","f","false","Formal",""
"","","","","","psychophysics","211","563373","0.0-9.0-0.0-0.50","null","","null","","","","","","","","","","","","","key","null","16.653416149068757","710.7407909492769","395.92595389514173","./1_3_Stimuli/C_ambi40.png","自我","Image","朋友","Mismatch","f","false","Formal",""
"","","","","","psychophysics","212","565183","0.0-9.0-0.0-0.51","645","","f","","","","","","","","","","","","","key","f","16.654205607476637","710.7407909492769","395.92595389514173","./1_3_Stimuli/S_ambi40.png","朋友","Word","他人","Mismatch","f","true","Formal",""
"","","","","","psychophysics","213","567354","0.0-9.0-0.0-0.52","1017","","f","","","","","","","","","","","","","key","f","16.6530769230771","710.7407909492769","395.92595389514173","./1_3_Stimuli/T_ambi40.png","他人","Image","自我","Mismatch","f","true","Formal",""
"","","","","","psychophysics","214","569087","0.0-9.0-0.0-0.53","568","","f","","","","","","","","","","","","","key","f","16.652427184465566","710.7407909492769","395.92595389514173","./1_3_Stimuli/C_ambi40.png","他人","Image","朋友","Mismatch","f","true","Formal",""
"","","","","","psychophysics","215","571104","0.0-9.0-0.0-0.54","853","","j","","","","","","","","","","","","","key","j","16.652499999999417","710.7407909492769","395.92595389514173","./1_3_Stimuli/S_ambi40.png","他人","Image","他人","Match","j","true","Formal",""
"","","","","","psychophysics","216","573202","0.0-9.0-0.0-0.55","936","","f","","","","","","","","","","","","","key","f","16.65360000000056","710.7407909492769","395.92595389514173","./1_3_Stimuli/C_ambi40.png","朋友","Word","朋友","Match","j","false","Formal",""
"","","","","","psychophysics","217","575208","0.0-9.0-0.0-0.56","844","","f","","","","","","","","","","","","","key","f","16.653781512605434","710.7407909492769","395.92595389514173","./1_3_Stimuli/S_ambi40.png","他人","Word","他人","Match","j","false","Formal",""
"","","","","","psychophysics","218","577010","0.0-9.0-0.0-0.57","647","","j","","","","","","","","","","","","","key","j","16.6532710280376","710.7407909492769","395.92595389514173","./1_3_Stimuli/T_ambi40.png","自我","Word","自我","Match","j","true","Formal",""
"","","","","","psychophysics","219","579458","0.0-9.0-0.0-0.58","1297","","f","","","","","","","","","","","","","key","f","16.653424657534405","710.7407909492769","395.92595389514173","./1_3_Stimuli/S_ambi40.png","朋友","Image","他人","Mismatch","f","true","Formal",""
"","","","","","psychophysics","220","582160","0.0-9.0-0.0-0.59","null","","null","","","","","","","","","","","","","key","null","16.653703703703847","710.7407909492769","395.92595389514173","./1_3_Stimuli/S_ambi40.png","他人","Image","他人","Match","j","false","Formal",""
"","","","","","psychophysics","221","584023","0.0-9.0-0.0-0.60","699","","j","","","","","","","","","","","","","key","j","16.653636363636576","710.7407909492769","395.92595389514173","./1_3_Stimuli/S_ambi40.png","他人","Word","他人","Match","j","true","Formal",""
"","","","","","psychophysics","222","585777","0.0-9.0-0.0-0.61","604","","j","","","","","","","","","","","","","key","j","16.653846153846153","710.7407909492769","395.92595389514173","./1_3_Stimuli/C_ambi40.png","自我","Word","朋友","Mismatch","f","false","Formal",""
"","","","","","psychophysics","223","588063","0.0-9.0-0.0-0.62","1126","","j","","","","","","","","","","","","","key","j","16.653676470588408","710.7407909492769","395.92595389514173","./1_3_Stimuli/C_ambi40.png","朋友","Word","朋友","Match","j","true","Formal",""
"","","","","","psychophysics","224","590076","0.0-9.0-0.0-0.63","857","","f","","","","","","","","","","","","","key","f","16.653333333333528","710.7407909492769","395.92595389514173","./1_3_Stimuli/S_ambi40.png","自我","Word","他人","Mismatch","f","true","Formal",""
"","","","","","psychophysics","225","592315","0.0-9.0-0.0-0.64","1081","","j","","","","","","","","","","","","","key","j","16.653383458646793","710.7407909492769","395.92595389514173","./1_3_Stimuli/C_ambi40.png","朋友","Image","朋友","Match","j","true","Formal",""
"","","","","","psychophysics","226","594433","0.0-9.0-0.0-0.65","967","","j","","","","","","","","","","","","","key","j","16.652755905511995","710.7407909492769","395.92595389514173","./1_3_Stimuli/T_ambi40.png","自我","Word","自我","Match","j","true","Formal",""
"","","","","","psychophysics","227","596193","0.0-9.0-0.0-0.66","596","","j","","","","","","","","","","","","","key","j","16.65288461538484","710.7407909492769","395.92595389514173","./1_3_Stimuli/C_ambi40.png","他人","Word","朋友","Mismatch","f","false","Formal",""
"","","","","","psychophysics","228","598316","0.0-9.0-0.0-0.67","970","","j","","","","","","","","","","","","","key","j","16.65275590551108","710.7407909492769","395.92595389514173","./1_3_Stimuli/T_ambi40.png","自我","Image","自我","Match","j","true","Formal",""
"","","","","","psychophysics","229","600656","0.0-9.0-0.0-0.68","1179","","j","","","","","","","","","","","","","key","j","16.65323741007144","710.7407909492769","395.92595389514173","./1_3_Stimuli/T_ambi40.png","朋友","Image","自我","Mismatch","f","false","Formal",""
"","","","","","psychophysics","230","602757","0.0-9.0-0.0-0.69","948","","j","","","","","","","","","","","","","key","j","16.653599999999628","710.7407909492769","395.92595389514173","./1_3_Stimuli/T_ambi40.png","自我","Image","自我","Match","j","true","Formal",""
"","","","","","psychophysics","231","604750","0.0-9.0-0.0-0.70","843","","f","","","","","","","","","","","","","key","f","16.653389830508278","710.7407909492769","395.92595389514173","./1_3_Stimuli/T_ambi40.png","朋友","Word","自我","Mismatch","f","true","Formal",""
"","","","","","psychophysics","232","606522","0.0-9.0-0.0-0.71","616","","j","","","","","","","","","","","","","key","j","16.652380952380952","710.7407909492769","395.92595389514173","./1_3_Stimuli/C_ambi40.png","朋友","Image","朋友","Match","j","true","Formal",""
"","","","","","psychophysics","233","609236","0.0-9.0-0.0-0.72","null","","null","","","","","","","","","","","","","key","null","16.653416149068033","710.7407909492769","395.92595389514173","./1_3_Stimuli/S_ambi40.png","自我","Word","他人","Mismatch","f","false","Formal",""
"","","","","","psychophysics","234","611044","0.0-9.0-0.0-0.73","642","","j","","","","","","","","","","","","","key","j","16.654205607476637","710.7407909492769","395.92595389514173","./1_3_Stimuli/T_ambi40.png","自我","Word","自我","Match","j","true","Formal",""
"","","","","","psychophysics","235","613016","0.0-9.0-0.0-0.74","815","","f","","","","","","","","","","","","","key","f","16.652991452991653","710.7407909492769","395.92595389514173","./1_3_Stimuli/C_ambi40.png","自我","Word","朋友","Mismatch","f","true","Formal",""
"","","","","","psychophysics","236","615134","0.0-9.0-0.0-0.75","968","","f","","","","","","","","","","","","","key","f","16.65590551181139","710.7407909492769","395.92595389514173","./1_3_Stimuli/T_ambi40.png","朋友","Word","自我","Mismatch","f","true","Formal",""
"","","","","","psychophysics","237","617499","0.0-9.0-0.0-0.76","1202","","f","","","","","","","","","","","","","key","f","16.653191489361536","710.7407909492769","395.92595389514173","./1_3_Stimuli/C_ambi40.png","他人","Image","朋友","Mismatch","f","true","Formal",""
"","","","","","psychophysics","238","619434","0.0-9.0-0.0-0.77","772","","j","","","","","","","","","","","","","key","j","16.653043478260667","710.7407909492769","395.92595389514173","./1_3_Stimuli/S_ambi40.png","他人","Image","他人","Match","j","true","Formal",""
"","","","","","psychophysics","239","622143","0.0-9.0-0.0-0.78","null","","null","","","","","","","","","","","","","key","null","16.652795031055756","710.7407909492769","395.92595389514173","./1_3_Stimuli/S_ambi40.png","他人","Word","他人","Match","j","false","Formal",""
"","","","","","psychophysics","240","624320","0.0-9.0-0.0-0.79","1027","","f","","","","","","","","","","","","","key","f","16.65426356589075","710.7407909492769","395.92595389514173","./1_3_Stimuli/C_ambi40.png","他人","Word","朋友","Mismatch","f","true","Formal",""
"","","","","","psychophysics","241","626414","0.0-9.0-0.0-0.80","941","","j","","","","","","","","","","","","","key","j","16.652799999999814","710.7407909492769","395.92595389514173","./1_3_Stimuli/C_ambi40.png","朋友","Image","朋友","Match","j","true","Formal",""
"","","","","","psychophysics","242","628197","0.0-9.0-0.0-0.81","625","","j","","","","","","","","","","","","","key","j","16.653773584906098","710.7407909492769","395.92595389514173","./1_3_Stimuli/T_ambi40.png","朋友","Image","自我","Mismatch","f","false","Formal",""
"","","","","","psychophysics","243","630878","0.0-9.0-0.0-0.82","1525","","f","","","","","","","","","","","","","key","f","16.653125","710.7407909492769","395.92595389514173","./1_3_Stimuli/T_ambi40.png","他人","Word","自我","Mismatch","f","true","Formal",""
"","","","","","psychophysics","244","633583","0.0-9.0-0.0-0.83","null","","null","","","","","","","","","","","","","key","null","16.653416149068757","710.7407909492769","395.92595389514173","./1_3_Stimuli/T_ambi40.png","自我","Image","自我","Match","j","false","Formal",""
"","","","","","psychophysics","245","635340","0.0-9.0-0.0-0.84","607","","j","","","","","","","","","","","","","key","j","16.653333333333112","710.7407909492769","395.92595389514173","./1_3_Stimuli/T_ambi40.png","自我","Word","自我","Match","j","true","Formal",""
"","","","","","psychophysics","246","637617","0.0-9.0-0.0-0.85","1119","","j","","","","","","","","","","","","","key","j","16.653676470587552","710.7407909492769","395.92595389514173","./1_3_Stimuli/C_ambi40.png","朋友","Word","朋友","Match","j","true","Formal",""
"","","","","","psychophysics","247","639622","0.0-9.0-0.0-0.86","843","","f","","","","","","","","","","","","","key","f","16.653781512604453","710.7407909492769","395.92595389514173","./1_3_Stimuli/C_ambi40.png","朋友","Image","朋友","Match","j","false","Formal",""
"","","","","","psychophysics","248","641591","0.0-9.0-0.0-0.87","812","","j","","","","","","","","","","","","","key","j","16.655555555555157","710.7407909492769","395.92595389514173","./1_3_Stimuli/S_ambi40.png","他人","Word","他人","Match","j","true","Formal",""
"","","","","","psychophysics","249","643528","0.0-9.0-0.0-0.88","785","","j","","","","","","","","","","","","","key","j","16.653448275861468","710.7407909492769","395.92595389514173","./1_3_Stimuli/C_ambi40.png","朋友","Word","朋友","Match","j","true","Formal",""
"","","","","","psychophysics","250","646240","0.0-9.0-0.0-0.89","null","","null","","","","","","","","","","","","","key","null","16.6515527950312","710.7407909492769","395.92595389514173","./1_3_Stimuli/S_ambi40.png","他人","Image","他人","Match","j","false","Formal",""
"","","","","","psychophysics","251","648955","0.0-9.0-0.0-0.90","null","","null","","","","","","","","","","","","","key","null","16.653416149068033","710.7407909492769","395.92595389514173","./1_3_Stimuli/S_ambi40.png","朋友","Image","他人","Mismatch","f","false","Formal",""
"","","","","","psychophysics","252","650674","0.0-9.0-0.0-0.91","554","","j","","","","","","","","","","","","","key","j","16.65294117647036","710.7407909492769","395.92595389514173","./1_3_Stimuli/T_ambi40.png","自我","Image","自我","Match","j","true","Formal",""
"","","","","","psychophysics","253","652865","0.0-9.0-0.0-0.92","1029","","f","","","","","","","","","","","","","key","f","16.653846153846153","710.7407909492769","395.92595389514173","./1_3_Stimuli/S_ambi40.png","自我","Image","他人","Mismatch","f","true","Formal",""
"","","","","","psychophysics","254","655122","0.0-9.0-0.0-0.93","1105","","f","","","","","","","","","","","","","key","f","16.65333333333385","710.7407909492769","395.92595389514173","./1_3_Stimuli/S_ambi40.png","朋友","Word","他人","Mismatch","f","true","Formal",""
"","","","","","psychophysics","255","657292","0.0-9.0-0.0-0.94","1010","","f","","","","","","","","","","","","","key","f","16.653488372093385","710.7407909492769","395.92595389514173","./1_3_Stimuli/T_ambi40.png","他人","Image","自我","Mismatch","f","true","Formal",""
"","","","","","psychophysics","256","659429","0.0-9.0-0.0-0.95","981","","f","","","","","","","","","","","","","key","f","16.653543307086615","710.7407909492769","395.92595389514173","./1_3_Stimuli/C_ambi40.png","自我","Image","朋友","Mismatch","f","true","Formal",""
"","","","","","psychophysics","257","661733","0.0-9.0-0.0-0.96","1138","","f","","","","","","","","","","","","","key","f","16.652554744524867","710.7407909492769","395.92595389514173","./1_3_Stimuli/C_ambi40.png","自我","Word","朋友","Mismatch","f","true","Formal",""
"","","","","","psychophysics","258","664153","0.0-9.0-0.0-0.97","1263","","j","","","","","","","","","","","","","key","j","16.65277777777778","710.7407909492769","395.92595389514173","./1_3_Stimuli/S_ambi40.png","他人","Word","他人","Match","j","true","Formal",""
"","","","","","psychophysics","259","666047","0.0-9.0-0.0-0.98","739","","j","","","","","","","","","","","","","key","j","16.65398230088516","710.7407909492769","395.92595389514173","./1_3_Stimuli/C_ambi40.png","朋友","Word","朋友","Match","j","true","Formal",""
"","","","","","psychophysics","260","668244","0.0-9.0-0.0-0.99","1038","","f","","","","","","","","","","","","","key","f","16.65343511450364","710.7407909492769","395.92595389514173","./1_3_Stimuli/C_ambi40.png","他人","Image","朋友","Mismatch","f","true","Formal",""
"","","","","","psychophysics","261","670117","0.0-9.0-0.0-0.100","713","","j","","","","","","","","","","","","","key","j","16.653153153153152","710.7407909492769","395.92595389514173","./1_3_Stimuli/T_ambi40.png","朋友","Image","自我","Mismatch","f","false","Formal",""
"","","","","","psychophysics","262","671902","0.0-9.0-0.0-0.101","633","","j","","","","","","","","","","","","","key","j","16.652830188679904","710.7407909492769","395.92595389514173","./1_3_Stimuli/T_ambi40.png","自我","Word","自我","Match","j","true","Formal",""
"","","","","","psychophysics","263","674173","0.0-9.0-0.0-0.102","1120","","f","","","","","","","","","","","","","key","f","16.652941176470932","710.7407909492769","395.92595389514173","./1_3_Stimuli/C_ambi40.png","朋友","Image","朋友","Match","j","false","Formal",""
"","","","","","psychophysics","264","675992","0.0-9.0-0.0-0.103","658","","f","","","","","","","","","","","","","key","f","16.65370370370349","710.7407909492769","395.92595389514173","./1_3_Stimuli/S_ambi40.png","朋友","Word","他人","Mismatch","f","true","Formal",""
"","","","","","psychophysics","265","678698","0.0-9.0-0.0-0.104","null","","null","","","","","","","","","","","","","key","null","16.652795031055756","710.7407909492769","395.92595389514173","./1_3_Stimuli/S_ambi40.png","自我","Word","他人","Mismatch","f","false","Formal",""
"","","","","","psychophysics","266","681412","0.0-9.0-0.0-0.105","null","","null","","","","","","","","","","","","","key","null","16.653416149068757","710.7407909492769","395.92595389514173","./1_3_Stimuli/S_ambi40.png","他人","Word","他人","Match","j","false","Formal",""
"","","","","","psychophysics","267","683823","0.0-9.0-0.0-0.106","1260","","j","","","","","","","","","","","","","key","j","16.653846153846153","710.7407909492769","395.92595389514173","./1_3_Stimuli/S_ambi40.png","他人","Image","他人","Match","j","true","Formal",""
"","","","","","psychophysics","268","685863","0.0-9.0-0.0-0.107","887","","f","","","","","","","","","","","","","key","f","16.653278688524207","710.7407909492769","395.92595389514173","./1_3_Stimuli/C_ambi40.png","自我","Image","朋友","Mismatch","f","true","Formal",""
"","","","","","psychophysics","269","688247","0.0-9.0-0.0-0.108","1223","","j","","","","","","","","","","","","","key","j","16.652816901408944","710.7407909492769","395.92595389514173","./1_3_Stimuli/S_ambi40.png","他人","Image","他人","Match","j","true","Formal",""
"","","","","","psychophysics","270","690149","0.0-9.0-0.0-0.109","743","","f","","","","","","","","","","","","","key","f","16.65398230088516","710.7407909492769","395.92595389514173","./1_3_Stimuli/S_ambi40.png","自我","Image","他人","Mismatch","f","true","Formal",""
"","","","","","psychophysics","271","691927","0.0-9.0-0.0-0.110","623","","j","","","","","","","","","","","","","key","j","16.652830188679904","710.7407909492769","395.92595389514173","./1_3_Stimuli/C_ambi40.png","朋友","Image","朋友","Match","j","true","Formal",""
"","","","","","psychophysics","272","693985","0.0-9.0-0.0-0.111","899","","f","","","","","","","","","","","","","key","f","16.653278688524207","710.7407909492769","395.92595389514173","./1_3_Stimuli/T_ambi40.png","他人","Word","自我","Mismatch","f","true","Formal",""
"","","","","","psychophysics","273","696700","0.0-9.0-0.0-0.112","null","","null","","","","","","","","","","","","","key","null","16.652795031055756","710.7407909492769","395.92595389514173","./1_3_Stimuli/T_ambi40.png","自我","Word","自我","Match","j","false","Formal",""
"","","","","","psychophysics","274","698440","0.0-9.0-0.0-0.113","590","","j","","","","","","","","","","","","","key","j","16.65339805825288","710.7407909492769","395.92595389514173","./1_3_Stimuli/C_ambi40.png","朋友","Word","朋友","Match","j","true","Formal",""
"","","","","","psychophysics","275","700528","0.0-9.0-0.0-0.114","931","","f","","","","","","","","","","","","","key","f","16.65403225806433","710.7407909492769","395.92595389514173","./1_3_Stimuli/C_ambi40.png","他人","Word","朋友","Mismatch","f","true","Formal",""
"","","","","","psychophysics","276","702347","0.0-9.0-0.0-0.115","668","","f","","","","","","","","","","","","","key","f","16.652293577982505","710.7407909492769","395.92595389514173","./1_3_Stimuli/T_ambi40.png","他人","Image","自我","Mismatch","f","true","Formal",""
"","","","","","psychophysics","277","705060","0.0-9.0-0.0-0.116","null","","null","","","","","","","","","","","","","key","null","16.653416149068033","710.7407909492769","395.92595389514173","./1_3_Stimuli/T_ambi40.png","自我","Image","自我","Match","j","false","Formal",""
"","","","","","psychophysics","278","707234","0.0-9.0-0.0-0.117","1009","","f","","","","","","","","","","","","","key","f","16.653488372093385","710.7407909492769","395.92595389514173","./1_3_Stimuli/T_ambi40.png","朋友","Word","自我","Mismatch","f","true","Formal",""
"","","","","","psychophysics","279","709575","0.0-9.0-0.0-0.118","1185","","f","","","","","","","","","","","","","key","f","16.65357142857143","710.7407909492769","395.92595389514173","./1_3_Stimuli/S_ambi40.png","朋友","Image","他人","Mismatch","f","true","Formal",""
"","","","","","psychophysics","280","711502","0.0-9.0-0.0-0.119","764","","j","","","","","","","","","","","","","key","j","16.653508771929825","710.7407909492769","395.92595389514173","./1_3_Stimuli/T_ambi40.png","自我","Image","自我","Match","j","true","Formal",""
"","","","","","html-keyboard-response","281","732655","0.0-9.0-1.0","21151","<style>.context{color:white; font-size: 35px; line-height:40px}</style>                        <div><p class='context'>您正确回答了78% 的试次。</p><p class='context'>您的平均反应时为905毫秒。</p><p> <div style = 'color: green'><按任意键进入休息></div></p>"," ","","","","","","","","","","","","","","","","","","","","","","","","","",""
"","","","","","html-button-response","282","753929","0.0-9.0-2.0","21271","
                  <p>您当前还剩余5组实验</p>
                  <p>现在是休息时间，当您结束休息后，您可以点击 结束休息 按钮 继续</p>
                  <p>建议休息时间还剩余<span id=""iii"">60</span>秒</p>","0","","","","","","","","","","","","","","","","","","","","","","","","","",""
"","","","","","psychophysics","283","756341","0.0-9.0-0.1-0.120","1254","","j","","","","","","","","","","","","","key","j","16.654861111111433","710.7407909492769","395.92595389514173","./1_3_Stimuli/T_ambi40.png","自我","Word","自我","Match","j","true","Formal",""
"","","","","","psychophysics","284","758220","0.0-9.0-0.1-0.121","718","","j","","","","","","","","","","","","","key","j","16.652678571428364","710.7407909492769","395.92595389514173","./1_3_Stimuli/T_ambi40.png","自我","Image","自我","Match","j","true","Formal",""
"","","","","","psychophysics","285","760178","0.0-9.0-0.1-0.122","794","","f","","","","","","","","","","","","","key","f","16.65344827586247","710.7407909492769","395.92595389514173","./1_3_Stimuli/C_ambi40.png","自我","Word","朋友","Mismatch","f","true","Formal",""
"","","","","","psychophysics","286","762383","0.0-9.0-0.1-0.123","1052","","f","","","","","","","","","","","","","key","f","16.653787878788233","710.7407909492769","395.92595389514173","./1_3_Stimuli/T_ambi40.png","他人","Image","自我","Mismatch","f","true","Formal",""
"","","","","","psychophysics","287","764399","0.0-9.0-0.1-0.124","852","","f","","","","","","","","","","","","","key","f","16.65083333333314","710.7407909492769","395.92595389514173","./1_3_Stimuli/S_ambi40.png","朋友","Word","他人","Mismatch","f","true","Formal",""
"","","","","","psychophysics","288","766706","0.0-9.0-0.1-0.125","1143","","j","","","","","","","","","","","","","key","j","16.653284671532848","710.7407909492769","395.92595389514173","./1_3_Stimuli/C_ambi40.png","朋友","Word","朋友","Match","j","true","Formal",""
"","","","","","psychophysics","289","768899","0.0-9.0-0.1-0.126","1039","","f","","","","","","","","","","","","","key","f","16.65267175572519","710.7407909492769","395.92595389514173","./1_3_Stimuli/T_ambi40.png","他人","Word","自我","Mismatch","f","true","Formal",""
"","","","","","psychophysics","290","770811","0.0-9.0-0.1-0.127","752","","j","","","","","","","","","","","","","key","j","16.653508771929825","710.7407909492769","395.92595389514173","./1_3_Stimuli/C_ambi40.png","朋友","Image","朋友","Match","j","true","Formal",""
"","","","","","psychophysics","291","773277","0.0-9.0-0.1-0.128","1304","","j","","","","","","","","","","","","","key","j","16.65238095238111","710.7407909492769","395.92595389514173","./1_3_Stimuli/S_ambi40.png","他人","Word","他人","Match","j","true","Formal",""
"","","","","","psychophysics","292","775719","0.0-9.0-0.1-0.129","1280","","j","","","","","","","","","","","","","key","j","16.65310344827554","710.7407909492769","395.92595389514173","./1_3_Stimuli/S_ambi40.png","他人","Image","他人","Match","j","true","Formal",""
"","","","","","psychophysics","293","777732","0.0-9.0-0.1-0.130","863","","f","","","","","","","","","","","","","key","f","16.652500000000387","710.7407909492769","395.92595389514173","./1_3_Stimuli/C_ambi40.png","他人","Image","朋友","Mismatch","f","true","Formal",""
"","","","","","psychophysics","294","779717","0.0-9.0-0.1-0.131","832","","f","","","","","","","","","","","","","key","f","16.653389830509266","710.7407909492769","395.92595389514173","./1_3_Stimuli/S_ambi40.png","自我","Image","他人","Mismatch","f","true","Formal",""
"","","","","","psychophysics","295","782235","0.0-9.0-0.1-0.132","1352","","j","","","","","","","","","","","","","key","j","16.653333333333332","710.7407909492769","395.92595389514173","./1_3_Stimuli/T_ambi40.png","朋友","Image","自我","Mismatch","f","false","Formal",""
"","","","","","psychophysics","296","784377","0.0-9.0-0.1-0.133","979","","j","","","","","","","","","","","","","key","j","16.653543307086615","710.7407909492769","395.92595389514173","./1_3_Stimuli/C_ambi40.png","他人","Word","朋友","Mismatch","f","false","Formal",""
"","","","","","psychophysics","297","786102","0.0-9.0-0.1-0.134","573","","j","","","","","","","","","","","","","key","j","16.65339805825175","710.7407909492769","395.92595389514173","./1_3_Stimuli/T_ambi40.png","自我","Image","自我","Match","j","true","Formal",""
"","","","","","psychophysics","298","788810","0.0-9.0-0.1-0.135","null","","null","","","","","","","","","","","","","key","null","16.653416149068033","710.7407909492769","395.92595389514173","./1_3_Stimuli/S_ambi40.png","他人","Word","他人","Match","j","false","Formal",""
"","","","","","psychophysics","299","791525","0.0-9.0-0.1-0.136","null","","null","","","","","","","","","","","","","key","null","16.650931677018924","710.7407909492769","395.92595389514173","./1_3_Stimuli/C_ambi40.png","自我","Image","朋友","Mismatch","f","false","Formal",""
"","","","","","psychophysics","300","793369","0.0-9.0-0.1-0.137","679","","j","","","","","","","","","","","","","key","j","16.648623853210584","710.7407909492769","395.92595389514173","./1_3_Stimuli/C_ambi40.png","朋友","Word","朋友","Match","j","true","Formal",""
"","","","","","psychophysics","301","795141","0.0-9.0-0.1-0.138","619","","j","","","","","","","","","","","","","key","j","16.653773584906098","710.7407909492769","395.92595389514173","./1_3_Stimuli/C_ambi40.png","朋友","Image","朋友","Match","j","true","Formal",""
"","","","","","psychophysics","302","797149","0.0-9.0-0.1-0.139","845","","j","","","","","","","","","","","","","key","j","16.652941176471174","710.7407909492769","395.92595389514173","./1_3_Stimuli/S_ambi40.png","他人","Image","他人","Match","j","true","Formal",""
"","","","","","psychophysics","303","798987","0.0-9.0-0.1-0.140","684","","f","","","","","","","","","","","","","key","f","16.653636363636576","710.7407909492769","395.92595389514173","./1_3_Stimuli/S_ambi40.png","朋友","Image","他人","Mismatch","f","true","Formal",""
"","","","","","psychophysics","304","800793","0.0-9.0-0.1-0.141","642","","j","","","","","","","","","","","","","key","j","16.652336448597477","710.7407909492769","395.92595389514173","./1_3_Stimuli/T_ambi40.png","朋友","Word","自我","Mismatch","f","false","Formal",""
"","","","","","psychophysics","305","803093","0.0-9.0-0.1-0.142","1144","","j","","","","","","","","","","","","","key","j","16.654014598539977","710.7407909492769","395.92595389514173","./1_3_Stimuli/S_ambi40.png","自我","Word","他人","Mismatch","f","false","Formal",""
"","","","","","psychophysics","306","804771","0.0-9.0-0.1-0.143","523","","j","","","","","","","","","","","","","key","j","16.654000000000234","710.7407909492769","395.92595389514173","./1_3_Stimuli/T_ambi40.png","自我","Word","自我","Match","j","true","Formal",""
"","","","","","psychophysics","307","806461","0.0-9.0-0.1-0.144","531","","j","","","","","","","","","","","","","key","j","16.654000000000234","710.7407909492769","395.92595389514173","./1_3_Stimuli/T_ambi40.png","自我","Word","自我","Match","j","true","Formal",""
"","","","","","psychophysics","308","809075","0.0-9.0-0.1-0.145","1463","","j","","","","","","","","","","","","","key","j","16.654487179487777","710.7407909492769","395.92595389514173","./1_3_Stimuli/C_ambi40.png","朋友","Word","朋友","Match","j","true","Formal",""
"","","","","","psychophysics","309","810865","0.0-9.0-0.1-0.146","638","","j","","","","","","","","","","","","","key","j","16.653271028036514","710.7407909492769","395.92595389514173","./1_3_Stimuli/S_ambi40.png","他人","Image","他人","Match","j","true","Formal",""
"","","","","","psychophysics","310","812509","0.0-9.0-0.1-0.147","484","","j","","","","","","","","","","","","","key","j","16.653061224489797","710.7407909492769","395.92595389514173","./1_3_Stimuli/S_ambi40.png","他人","Word","他人","Match","j","true","Formal",""
"","","","","","psychophysics","311","814475","0.0-9.0-0.1-0.148","802","","f","","","","","","","","","","","","","key","f","16.651282051281655","710.7407909492769","395.92595389514173","./1_3_Stimuli/S_ambi40.png","朋友","Image","他人","Mismatch","f","true","Formal",""
"","","","","","psychophysics","312","816603","0.0-9.0-0.1-0.149","965","","j","","","","","","","","","","","","","key","j","16.652380952380582","710.7407909492769","395.92595389514173","./1_3_Stimuli/T_ambi40.png","自我","Image","自我","Match","j","true","Formal",""
"","","","","","psychophysics","313","818223","0.0-9.0-0.1-0.150","469","","j","","","","","","","","","","","","","key","j","16.65360824742292","710.7407909492769","395.92595389514173","./1_3_Stimuli/T_ambi40.png","自我","Image","自我","Match","j","true","Formal",""
"","","","","","psychophysics","314","819799","0.0-9.0-0.1-0.151","414","","j","","","","","","","","","","","","","key","j","16.65698924731158","710.7407909492769","395.92595389514173","./1_3_Stimuli/S_ambi40.png","自我","Word","他人","Mismatch","f","false","Formal",""
"","","","","","psychophysics","315","822516","0.0-9.0-0.1-0.152","null","","null","","","","","","","","","","","","","key","null","16.653086419753375","710.7407909492769","395.92595389514173","./1_3_Stimuli/C_ambi40.png","他人","Word","朋友","Mismatch","f","false","Formal",""
"","","","","","psychophysics","316","824452","0.0-9.0-0.1-0.153","771","","f","","","","","","","","","","","","","key","f","16.6504347826091","710.7407909492769","395.92595389514173","./1_3_Stimuli/C_ambi40.png","他人","Image","朋友","Mismatch","f","true","Formal",""
"","","","","","psychophysics","317","826417","0.0-9.0-0.1-0.154","804","","f","","","","","","","","","","","","","key","f","16.652991452991653","710.7407909492769","395.92595389514173","./1_3_Stimuli/S_ambi40.png","自我","Image","他人","Mismatch","f","true","Formal",""
"","","","","","psychophysics","318","829064","0.0-9.0-0.1-0.155","1486","","f","","","","","","","","","","","","","key","f","16.653164556962466","710.7407909492769","395.92595389514173","./1_3_Stimuli/C_ambi40.png","自我","Word","朋友","Mismatch","f","true","Formal",""
"","","","","","psychophysics","319","831012","0.0-9.0-0.1-0.156","785","","f","","","","","","","","","","","","","key","f","16.652586206897155","710.7407909492769","395.92595389514173","./1_3_Stimuli/T_ambi40.png","他人","Word","自我","Mismatch","f","true","Formal",""
"","","","","","psychophysics","320","832893","0.0-9.0-0.1-0.157","718","","f","","","","","","","","","","","","","key","f","16.653571428571013","710.7407909492769","395.92595389514173","./1_3_Stimuli/C_ambi40.png","自我","Image","朋友","Mismatch","f","true","Formal",""
"","","","","","psychophysics","321","834711","0.0-9.0-0.1-0.158","654","","f","","","","","","","","","","","","","key","f","16.65370370370349","710.7407909492769","395.92595389514173","./1_3_Stimuli/T_ambi40.png","自我","Word","自我","Match","j","false","Formal",""
"","","","","","psychophysics","322","837421","0.0-9.0-0.1-0.159","null","","null","","","","","","","","","","","","","key","null","16.652173913043477","710.7407909492769","395.92595389514173","./1_3_Stimuli/C_ambi40.png","朋友","Image","朋友","Match","j","false","Formal",""
"","","","","","psychophysics","323","839223","0.0-9.0-0.1-0.160","651","","j","","","","","","","","","","","","","key","j","16.651401869158445","710.7407909492769","395.92595389514173","./1_3_Stimuli/C_ambi40.png","朋友","Word","朋友","Match","j","true","Formal",""
"","","","","","psychophysics","324","841193","0.0-9.0-0.1-0.161","808","","j","","","","","","","","","","","","","key","j","16.65213675213715","710.7407909492769","395.92595389514173","./1_3_Stimuli/S_ambi40.png","他人","Image","他人","Match","j","true","Formal",""
"","","","","","psychophysics","325","843272","0.0-9.0-0.1-0.162","922","","f","","","","","","","","","","","","","key","f","16.654032258065268","710.7407909492769","395.92595389514173","./1_3_Stimuli/T_ambi40.png","朋友","Word","自我","Mismatch","f","true","Formal",""
"","","","","","psychophysics","326","845652","0.0-9.0-0.1-0.163","1220","","f","","","","","","","","","","","","","key","f","16.653521126760072","710.7407909492769","395.92595389514173","./1_3_Stimuli/T_ambi40.png","他人","Image","自我","Mismatch","f","true","Formal",""
"","","","","","psychophysics","327","847842","0.0-9.0-0.1-0.164","1029","","f","","","","","","","","","","","","","key","f","16.653076923076206","710.7407909492769","395.92595389514173","./1_3_Stimuli/T_ambi40.png","朋友","Image","自我","Mismatch","f","true","Formal",""
"","","","","","psychophysics","328","850257","0.0-9.0-0.1-0.165","1262","","j","","","","","","","","","","","","","key","j","16.65347222222206","710.7407909492769","395.92595389514173","./1_3_Stimuli/S_ambi40.png","他人","Word","他人","Match","j","true","Formal",""
"","","","","","psychophysics","329","852959","0.0-9.0-0.1-0.166","null","","null","","","","","","","","","","","","","key","null","16.653416149068757","710.7407909492769","395.92595389514173","./1_3_Stimuli/C_ambi40.png","朋友","Image","朋友","Match","j","false","Formal",""
"","","","","","psychophysics","330","854843","0.0-9.0-0.1-0.167","719","","f","","","","","","","","","","","","","key","f","16.653571428572054","710.7407909492769","395.92595389514173","./1_3_Stimuli/S_ambi40.png","朋友","Word","他人","Mismatch","f","true","Formal",""
"","","","","","psychophysics","331","856550","0.0-9.0-0.1-0.168","544","","j","","","","","","","","","","","","","key","j","16.652475247524983","710.7407909492769","395.92595389514173","./1_3_Stimuli/T_ambi40.png","自我","Image","自我","Match","j","true","Formal",""
"","","","","","psychophysics","332","859253","0.0-9.0-0.1-0.169","null","","null","","","","","","","","","","","","","key","null","16.653416149068757","710.7407909492769","395.92595389514173","./1_3_Stimuli/S_ambi40.png","他人","Word","他人","Match","j","false","Formal",""
"","","","","","psychophysics","333","861968","0.0-9.0-0.1-0.170","null","","null","","","","","","","","","","","","","key","null","16.6509316770182","710.7407909492769","395.92595389514173","./1_3_Stimuli/T_ambi40.png","朋友","Image","自我","Mismatch","f","false","Formal",""
"","","","","","psychophysics","334","864669","0.0-9.0-0.1-0.171","1551","","j","","","","","","","","","","","","","key","j","16.6515527950312","710.7407909492769","395.92595389514173","./1_3_Stimuli/C_ambi40.png","朋友","Word","朋友","Match","j","true","Formal",""
"","","","","","psychophysics","335","866595","0.0-9.0-0.1-0.172","764","","f","","","","","","","","","","","","","key","f","16.653508771929825","710.7407909492769","395.92595389514173","./1_3_Stimuli/C_ambi40.png","自我","Image","朋友","Mismatch","f","true","Formal",""
"","","","","","psychophysics","336","868460","0.0-9.0-0.1-0.173","714","","j","","","","","","","","","","","","","key","j","16.653153153153152","710.7407909492769","395.92595389514173","./1_3_Stimuli/T_ambi40.png","自我","Word","自我","Match","j","true","Formal",""
"","","","","","psychophysics","337","870671","0.0-9.0-0.1-0.174","1059","","f","","","","","","","","","","","","","key","f","16.653787878788233","710.7407909492769","395.92595389514173","./1_3_Stimuli/C_ambi40.png","朋友","Image","朋友","Match","j","false","Formal",""
"","","","","","psychophysics","338","872407","0.0-9.0-0.1-0.175","580","","j","","","","","","","","","","","","","key","j","16.65339805825288","710.7407909492769","395.92595389514173","./1_3_Stimuli/T_ambi40.png","自我","Image","自我","Match","j","true","Formal",""
"","","","","","psychophysics","339","874550","0.0-9.0-0.1-0.176","991","","j","","","","","","","","","","","","","key","j","16.653124999999818","710.7407909492769","395.92595389514173","./1_3_Stimuli/S_ambi40.png","他人","Image","他人","Match","j","true","Formal",""
"","","","","","psychophysics","340","876665","0.0-9.0-0.1-0.177","958","","f","","","","","","","","","","","","","key","f","16.653968253967516","710.7407909492769","395.92595389514173","./1_3_Stimuli/C_ambi40.png","他人","Word","朋友","Mismatch","f","true","Formal",""
"","","","","","psychophysics","341","878501","0.0-9.0-0.1-0.178","679","","j","","","","","","","","","","","","","key","j","16.653211009173884","710.7407909492769","395.92595389514173","./1_3_Stimuli/C_ambi40.png","朋友","Word","朋友","Match","j","true","Formal",""
"","","","","","psychophysics","342","880760","0.0-9.0-0.1-0.179","1106","","j","","","","","","","","","","","","","key","j","16.653333333332988","710.7407909492769","395.92595389514173","./1_3_Stimuli/T_ambi40.png","自我","Word","自我","Match","j","true","Formal",""
"","","","","","psychophysics","343","882693","0.0-9.0-0.1-0.180","775","","j","","","","","","","","","","","","","key","j","16.653043478260667","710.7407909492769","395.92595389514173","./1_3_Stimuli/S_ambi40.png","他人","Word","他人","Match","j","true","Formal",""
"","","","","","psychophysics","344","885170","0.0-9.0-0.1-0.181","1319","","f","","","","","","","","","","","","","key","f","16.653378378378065","710.7407909492769","395.92595389514173","./1_3_Stimuli/T_ambi40.png","他人","Word","自我","Mismatch","f","true","Formal",""
"","","","","","psychophysics","345","887483","0.0-9.0-0.1-0.182","1151","","f","","","","","","","","","","","","","key","f","16.65289855072447","710.7407909492769","395.92595389514173","./1_3_Stimuli/C_ambi40.png","他人","Image","朋友","Mismatch","f","true","Formal",""
"","","","","","psychophysics","346","889443","0.0-9.0-0.1-0.183","796","","f","","","","","","","","","","","","","key","f","16.65344827586247","710.7407909492769","395.92595389514173","./1_3_Stimuli/S_ambi40.png","朋友","Word","他人","Mismatch","f","true","Formal",""
"","","","","","psychophysics","347","891680","0.0-9.0-0.1-0.184","1085","","f","","","","","","","","","","","","","key","f","16.653731343283408","710.7407909492769","395.92595389514173","./1_3_Stimuli/S_ambi40.png","自我","Image","他人","Mismatch","f","true","Formal",""
"","","","","","psychophysics","348","893824","0.0-9.0-0.1-0.185","981","","f","","","","","","","","","","","","","key","f","16.65590551181139","710.7407909492769","395.92595389514173","./1_3_Stimuli/S_ambi40.png","朋友","Image","他人","Mismatch","f","true","Formal",""
"","","","","","psychophysics","349","896264","0.0-9.0-0.1-0.186","1289","","f","","","","","","","","","","","","","key","f","16.654109589041095","710.7407909492769","395.92595389514173","./1_3_Stimuli/C_ambi40.png","自我","Word","朋友","Mismatch","f","true","Formal",""
"","","","","","psychophysics","350","898971","0.0-9.0-0.1-0.187","null","","null","","","","","","","","","","","","","key","null","16.652795031055756","710.7407909492769","395.92595389514173","./1_3_Stimuli/S_ambi40.png","自我","Word","他人","Mismatch","f","false","Formal",""
"","","","","","psychophysics","351","901386","0.0-9.0-0.1-0.188","1264","","j","","","","","","","","","","","","","key","j","16.653146853147017","710.7407909492769","395.92595389514173","./1_3_Stimuli/S_ambi40.png","他人","Image","他人","Match","j","true","Formal",""
"","","","","","psychophysics","352","903766","0.0-9.0-0.1-0.189","1230","","f","","","","","","","","","","","","","key","f","16.652816901408123","710.7407909492769","395.92595389514173","./1_3_Stimuli/T_ambi40.png","朋友","Word","自我","Mismatch","f","true","Formal",""
"","","","","","psychophysics","353","905846","0.0-9.0-0.1-0.190","928","","j","","","","","","","","","","","","","key","j","16.653225806451612","710.7407909492769","395.92595389514173","./1_3_Stimuli/C_ambi40.png","朋友","Image","朋友","Match","j","true","Formal",""
"","","","","","psychophysics","354","907585","0.0-9.0-0.1-0.191","587","","f","","","","","","","","","","","","","key","f","16.653846153846153","710.7407909492769","395.92595389514173","./1_3_Stimuli/T_ambi40.png","他人","Image","自我","Mismatch","f","true","Formal",""
"","","","","","psychophysics","355","909599","0.0-9.0-0.1-0.192","852","","f","","","","","","","","","","","","","key","f","16.653333333333528","710.7407909492769","395.92595389514173","./1_3_Stimuli/T_ambi40.png","朋友","Image","自我","Mismatch","f","true","Formal",""
"","","","","","psychophysics","356","911631","0.0-9.0-0.1-0.193","868","","j","","","","","","","","","","","","","key","j","16.65371900826523","710.7407909492769","395.92595389514173","./1_3_Stimuli/C_ambi40.png","自我","Image","朋友","Mismatch","f","false","Formal",""
"","","","","","psychophysics","357","914160","0.0-9.0-0.1-0.194","1366","","f","","","","","","","","","","","","","key","f","16.654666666666355","710.7407909492769","395.92595389514173","./1_3_Stimuli/C_ambi40.png","朋友","Word","朋友","Match","j","false","Formal",""
"","","","","","psychophysics","358","915935","0.0-9.0-0.1-0.195","610","","j","","","","","","","","","","","","","key","j","16.650476190476635","710.7407909492769","395.92595389514173","./1_3_Stimuli/T_ambi40.png","自我","Image","自我","Match","j","true","Formal",""
"","","","","","psychophysics","359","917957","0.0-9.0-0.1-0.196","867","","f","","","","","","","","","","","","","key","f","16.654166666666665","710.7407909492769","395.92595389514173","./1_3_Stimuli/S_ambi40.png","自我","Image","他人","Mismatch","f","true","Formal",""
"","","","","","psychophysics","360","920671","0.0-9.0-0.1-0.197","null","","null","","","","","","","","","","","","","key","null","16.653416149068757","710.7407909492769","395.92595389514173","./1_3_Stimuli/S_ambi40.png","朋友","Word","他人","Mismatch","f","false","Formal",""
"","","","","","psychophysics","361","923385","0.0-9.0-0.1-0.198","null","","null","","","","","","","","","","","","","key","null","16.6515527950312","710.7407909492769","395.92595389514173","./1_3_Stimuli/C_ambi40.png","他人","Image","朋友","Mismatch","f","false","Formal",""
"","","","","","psychophysics","362","924558","0.0-9.0-0.1-0.199","7","","f","","","","","","","","","","","","","key","f","16.653623188405458","710.7407909492769","395.92595389514173","./1_3_Stimuli/T_ambi40.png","自我","Image","自我","Match","j","false","Formal",""
"","","","","","psychophysics","363","927095","0.0-9.0-0.1-0.200","1377","","j","","","","","","","","","","","","","key","j","16.653642384105652","710.7407909492769","395.92595389514173","./1_3_Stimuli/S_ambi40.png","他人","Word","他人","Match","j","true","Formal",""
"","","","","","psychophysics","364","928873","0.0-9.0-0.1-0.201","625","","j","","","","","","","","","","","","","key","j","16.652830188678806","710.7407909492769","395.92595389514173","./1_3_Stimuli/C_ambi40.png","朋友","Word","朋友","Match","j","true","Formal",""
"","","","","","psychophysics","365","930808","0.0-9.0-0.1-0.202","778","","f","","","","","","","","","","","","","key","f","16.655652173913246","710.7407909492769","395.92595389514173","./1_3_Stimuli/T_ambi40.png","他人","Word","自我","Mismatch","f","true","Formal",""
"","","","","","psychophysics","366","933511","0.0-9.0-0.1-0.203","null","","null","","","","","","","","","","","","","key","null","16.653416149068033","710.7407909492769","395.92595389514173","./1_3_Stimuli/T_ambi40.png","自我","Word","自我","Match","j","false","Formal",""
"","","","","","psychophysics","367","935623","0.0-9.0-0.1-0.204","946","","f","","","","","","","","","","","","","key","f","16.65039999999944","710.7407909492769","395.92595389514173","./1_3_Stimuli/C_ambi40.png","自我","Word","朋友","Mismatch","f","true","Formal",""
"","","","","","psychophysics","368","937622","0.0-9.0-0.1-0.205","847","","f","","","","","","","","","","","","","key","f","16.653781512604453","710.7407909492769","395.92595389514173","./1_3_Stimuli/T_ambi40.png","自我","Word","自我","Match","j","false","Formal",""
"","","","","","psychophysics","369","939797","0.0-9.0-0.1-0.206","1024","","f","","","","","","","","","","","","","key","f","16.6530769230771","710.7407909492769","395.92595389514173","./1_3_Stimuli/C_ambi40.png","他人","Word","朋友","Mismatch","f","true","Formal",""
"","","","","","psychophysics","370","941979","0.0-9.0-0.1-0.207","1024","","j","","","","","","","","","","","","","key","j","16.653846153846153","710.7407909492769","395.92595389514173","./1_3_Stimuli/C_ambi40.png","朋友","Image","朋友","Match","j","true","Formal",""
"","","","","","psychophysics","371","943866","0.0-9.0-0.1-0.208","730","","f","","","","","","","","","","","","","key","f","16.65625","710.7407909492769","395.92595389514173","./1_3_Stimuli/T_ambi40.png","他人","Image","自我","Mismatch","f","true","Formal",""
"","","","","","psychophysics","372","945968","0.0-9.0-0.1-0.209","950","","j","","","","","","","","","","","","","key","j","16.65360000000056","710.7407909492769","395.92595389514173","./1_3_Stimuli/S_ambi40.png","他人","Word","他人","Match","j","true","Formal",""
"","","","","","psychophysics","373","947940","0.0-9.0-0.1-0.210","806","","f","","","","","","","","","","","","","key","f","16.651282051281655","710.7407909492769","395.92595389514173","./1_3_Stimuli/S_ambi40.png","朋友","Image","他人","Mismatch","f","true","Formal",""
"","","","","","psychophysics","374","950647","0.0-9.0-0.1-0.211","null","","null","","","","","","","","","","","","","key","null","16.65465838509259","710.7407909492769","395.92595389514173","./1_3_Stimuli/S_ambi40.png","自我","Word","他人","Mismatch","f","false","Formal",""
"","","","","","psychophysics","375","953362","0.0-9.0-0.1-0.212","null","","null","","","","","","","","","","","","","key","null","16.650310559005923","710.7407909492769","395.92595389514173","./1_3_Stimuli/S_ambi40.png","他人","Image","他人","Match","j","false","Formal",""
"","","","","","psychophysics","376","955638","0.0-9.0-0.1-0.213","1126","","j","","","","","","","","","","","","","key","j","16.651111111111284","710.7407909492769","395.92595389514173","./1_3_Stimuli/S_ambi40.png","他人","Image","他人","Match","j","true","Formal",""
"","","","","","psychophysics","377","958084","0.0-9.0-0.1-0.214","1292","","j","","","","","","","","","","","","","key","j","16.653424657534405","710.7407909492769","395.92595389514173","./1_3_Stimuli/C_ambi40.png","朋友","Image","朋友","Match","j","true","Formal",""
"","","","","","psychophysics","378","959855","0.0-9.0-0.1-0.215","616","","f","","","","","","","","","","","","","key","f","16.652380952380952","710.7407909492769","395.92595389514173","./1_3_Stimuli/T_ambi40.png","朋友","Word","自我","Mismatch","f","true","Formal",""
"","","","","","psychophysics","379","961424","0.0-9.0-0.1-0.216","417","","j","","","","","","","","","","","","","key","j","16.65319148936195","710.7407909492769","395.92595389514173","./1_3_Stimuli/T_ambi40.png","自我","Image","自我","Match","j","true","Formal",""
