"success","timeout","failed_images","failed_audio","failed_video","trial_type","trial_index","time_elapsed","internal_node_id","rt","stimulus","response","value","item_width_mm","item_height_mm","item_width_px","px2mm","view_dist_mm","item_width_deg","px2deg","scale_factor","win_width_deg","win_height_deg","view_history","response_type","key_press","avg_frame_time","center_x","center_y","image","word","target","valence","matchness","correct_response","correct","exp_condition","question_order"
"true","false","[]","[]","[]","preload","0","606","0.0-0.0","","","","","","","","","","","","","","","","","","","","","","","","","","","","",""
"","","","","","html-keyboard-response","1","85429","0.0-1.0","84825","
     <p>您好，欢迎参加本次实验。</p>
     <p>为充分保障您的权利，请确保您已经知晓并同意《参与实验同意书》以及《数据公开知情同意书》。</p>
     <p>如果您未见过上述内容，请咨询实验员。</p>
     <p>如果您选择继续实验，则表示您已经清楚两份知情同意书的内容并同意。</p>
     <p> <div style = ""color: green""><按任意键至下页></div> </p>
     ","arrowright","","","","","","","","","","","","","","","","","","","","","","","","","",""
"","","","","","html-keyboard-response","2","87467","0.0-2.0-0.0","2037","
      <p>本实验首先需要您填写一些基本个人信息。</p>
      <p> <div style = ""color: green""><按任意键至下页></div></p>
      ","arrowright","","","","","","","","","","","","","","","","","","","","","","","","","",""
"","","","","","call-function","3","87468","0.0-2.0-1.0","","","","","","","","","","","","","","","","","","","","","","","","","","","","",""
"","","","","","survey-html-form","4","99597","0.0-2.0-2.0","12126","","{""Q0"":""1032""}","","","","","","","","","","","","","","","","","","","","","","","","","",""
"","","","","","html-button-response","5","102628","0.0-2.0-3.0","3029","<p style = 'color : white'>您的性别</p>","1","","","","","","","","","","","","","","","","","","","","","","","","","",""
"","","","","","survey-html-form","6","110278","0.0-2.0-4.0","7649","","{""Q0"":""2003""}","","","","","","","","","","","","","","","","","","","","","","","","","",""
"","","","","","survey-html-form","7","113746","0.0-2.0-5.0","3467","","{""Q0"":""5""}","","","","","","","","","","","","","","","","","","","","","","","","","",""
"","","","","","virtual-chinrest","8","201736","0.0-3.0","88004","","","","85.6","53.98","470.1137096249606","5.495542207421414","520.46","9.402274192499211","50","0.9189266153174594","25.38","13.1","","","","","","","","","","","","","","",""
"true","","","","","fullscreen","9","206006","0.0-4.0","","","","","","","","","","","","","","","","","","","","","","","","","","","","",""
"","","","","","instructions","10","248805","0.0-5.0","42799","","","","","","","","","","","","","","[{""page_index"":0,""viewing_time"":14498},{""page_index"":1,""viewing_time"":15634},{""page_index"":2,""viewing_time"":10999},{""page_index"":3,""viewing_time"":1668}]","","","","","","","","","","","","","",""
"","","","","","html-keyboard-response","11","252457","0.0-6.0","null","<count-down title=""""></count-down>","null","","","","","","","","","","","","","","","","","","","","","","","","","",""
"","","","","","psychophysics","12","255199","0.0-7.0-0.0-0.0","null","","null","","","","","","","","","","","","","key","null","16.663975155279466","720","446","./1_3_Stimuli/C_ambi40.png","自我","Image","自我","Match","f","false","Practice",""
"","","","","","html-keyboard-response","13","255521","0.0-7.0-0.0-1.0","null","<span class='add_' style='color:yellow; font-size: 70px;'> 太慢! </span>","null","","","","","","","","","","","","","","","","","","","","","","","","","feedback",""
"","","","","","psychophysics","14","258229","0.0-7.0-0.0-0.1","null","","null","","","","","","","","","","","","","key","null","16.668695652173934","720","446","./1_3_Stimuli/S_ambi40.png","他人","Image","朋友","Mismatch","j","false","Practice",""
"","","","","","html-keyboard-response","15","258542","0.0-7.0-0.0-1.1","null","<span class='add_' style='color:yellow; font-size: 70px;'> 太慢! </span>","null","","","","","","","","","","","","","","","","","","","","","","","","","feedback",""
"","","","","","psychophysics","16","260593","0.0-7.0-0.0-0.2","895","","j","","","","","","","","","","","","","key","j","16.822975206611225","720","446","./1_3_Stimuli/C_ambi40.png","朋友","Image","自我","Mismatch","j","true","Practice",""
"","","","","","html-keyboard-response","17","260899","0.0-7.0-0.0-1.2","null","<span style='color:GreenYellow; font-size: 70px;'>正确! </span>","null","","","","","","","","","","","","","","","","","","","","","","","","","feedback",""
"","","","","","psychophysics","18","262765","0.0-7.0-0.0-0.3","710","","j","","","","","","","","","","","","","key","j","16.667454545454927","720","446","./1_3_Stimuli/T_ambi40.png","自我","Image","他人","Mismatch","j","true","Practice",""
"","","","","","html-keyboard-response","19","263066","0.0-7.0-0.0-1.3","null","<span style='color:GreenYellow; font-size: 70px;'>正确! </span>","null","","","","","","","","","","","","","","","","","","","","","","","","","feedback",""
"","","","","","psychophysics","20","265022","0.0-7.0-0.0-0.4","801","","j","","","","","","","","","","","","","key","j","16.770344827586086","720","446","./1_3_Stimuli/S_ambi40.png","自我","Word","朋友","Mismatch","j","true","Practice",""
"","","","","","html-keyboard-response","21","265325","0.0-7.0-0.0-1.4","null","<span style='color:GreenYellow; font-size: 70px;'>正确! </span>","null","","","","","","","","","","","","","","","","","","","","","","","","","feedback",""
"","","","","","psychophysics","22","267199","0.0-7.0-0.0-0.5","720","","j","","","","","","","","","","","","","key","j","16.840720720720785","720","446","./1_3_Stimuli/C_ambi40.png","他人","Image","自我","Mismatch","j","true","Practice",""
"","","","","","html-keyboard-response","23","267502","0.0-7.0-0.0-1.5","null","<span style='color:GreenYellow; font-size: 70px;'>正确! </span>","null","","","","","","","","","","","","","","","","","","","","","","","","","feedback",""
"","","","","","psychophysics","24","269765","0.0-7.0-0.0-0.6","1110","","f","","","","","","","","","","","","","key","f","16.667313432836135","720","446","./1_3_Stimuli/S_ambi40.png","朋友","Word","朋友","Match","f","true","Practice",""
"","","","","","html-keyboard-response","25","270069","0.0-7.0-0.0-1.6","null","<span style='color:GreenYellow; font-size: 70px;'>正确! </span>","null","","","","","","","","","","","","","","","","","","","","","","","","","feedback",""
"","","","","","psychophysics","26","272165","0.0-7.0-0.0-0.7","940","","j","","","","","","","","","","","","","key","j","16.667580645161514","720","446","./1_3_Stimuli/T_ambi40.png","朋友","Image","他人","Mismatch","j","true","Practice",""
"","","","","","html-keyboard-response","27","272469","0.0-7.0-0.0-1.7","null","<span style='color:GreenYellow; font-size: 70px;'>正确! </span>","null","","","","","","","","","","","","","","","","","","","","","","","","","feedback",""
"","","","","","psychophysics","28","274637","0.0-7.0-0.0-0.8","957","","j","","","","","","","","","","","","","key","j","16.72930232558152","720","446","./1_3_Stimuli/C_ambi40.png","他人","Word","自我","Mismatch","j","true","Practice",""
"","","","","","html-keyboard-response","29","274943","0.0-7.0-0.0-1.8","null","<span style='color:GreenYellow; font-size: 70px;'>正确! </span>","null","","","","","","","","","","","","","","","","","","","","","","","","","feedback",""
"","","","","","psychophysics","30","277580","0.0-7.0-0.0-0.9","1484","","f","","","","","","","","","","","","","key","f","16.786114649681796","720","446","./1_3_Stimuli/T_ambi40.png","他人","Image","他人","Match","f","true","Practice",""
"","","","","","html-keyboard-response","31","277882","0.0-7.0-0.0-1.9","null","<span style='color:GreenYellow; font-size: 70px;'>正确! </span>","null","","","","","","","","","","","","","","","","","","","","","","","","","feedback",""
"","","","","","psychophysics","32","280530","0.0-7.0-0.0-0.10","1492","","f","","","","","","","","","","","","","key","f","16.74797468354426","720","446","./1_3_Stimuli/S_ambi40.png","朋友","Word","朋友","Match","f","true","Practice",""
"","","","","","html-keyboard-response","33","280836","0.0-7.0-0.0-1.10","null","<span style='color:GreenYellow; font-size: 70px;'>正确! </span>","null","","","","","","","","","","","","","","","","","","","","","","","","","feedback",""
"","","","","","psychophysics","34","283192","0.0-7.0-0.0-0.11","1203","","f","","","","","","","","","","","","","key","f","16.732142857142858","720","446","./1_3_Stimuli/T_ambi40.png","他人","Word","他人","Match","f","true","Practice",""
"","","","","","html-keyboard-response","35","283497","0.0-7.0-0.0-1.11","null","<span style='color:GreenYellow; font-size: 70px;'>正确! </span>","null","","","","","","","","","","","","","","","","","","","","","","","","","feedback",""
"","","","","","psychophysics","36","285571","0.0-7.0-0.0-0.12","919","","f","","","","","","","","","","","","","key","f","16.782601626016337","720","446","./1_3_Stimuli/S_ambi40.png","朋友","Image","朋友","Match","f","true","Practice",""
"","","","","","html-keyboard-response","37","285874","0.0-7.0-0.0-1.12","null","<span style='color:GreenYellow; font-size: 70px;'>正确! </span>","null","","","","","","","","","","","","","","","","","","","","","","","","","feedback",""
"","","","","","psychophysics","38","288269","0.0-7.0-0.0-0.13","1239","","f","","","","","","","","","","","","","key","f","16.667323943662037","720","446","./1_3_Stimuli/T_ambi40.png","他人","Image","他人","Match","f","true","Practice",""
"","","","","","html-keyboard-response","39","288576","0.0-7.0-0.0-1.13","null","<span style='color:GreenYellow; font-size: 70px;'>正确! </span>","null","","","","","","","","","","","","","","","","","","","","","","","","","feedback",""
"","","","","","psychophysics","40","291103","0.0-7.0-0.0-0.14","1375","","f","","","","","","","","","","","","","key","f","16.78800000000008","720","446","./1_3_Stimuli/S_ambi40.png","朋友","Image","朋友","Match","f","true","Practice",""
"","","","","","html-keyboard-response","41","291409","0.0-7.0-0.0-1.14","null","<span style='color:GreenYellow; font-size: 70px;'>正确! </span>","null","","","","","","","","","","","","","","","","","","","","","","","","","feedback",""
"","","","","","psychophysics","42","293555","0.0-7.0-0.0-0.15","902","","f","","","","","","","","","","","","","key","f","16.823149606299047","720","446","./1_3_Stimuli/T_ambi40.png","他人","Word","他人","Match","f","true","Practice",""
"","","","","","html-keyboard-response","43","293888","0.0-7.0-0.0-1.15","null","<span style='color:GreenYellow; font-size: 70px;'>正确! </span>","null","","","","","","","","","","","","","","","","","","","","","","","","","feedback",""
"","","","","","psychophysics","44","295904","0.0-7.0-0.0-0.16","862","","j","","","","","","","","","","","","","key","j","16.67142857142828","720","446","./1_3_Stimuli/C_ambi40.png","自我","Word","自我","Match","f","false","Practice",""
"","","","","","html-keyboard-response","45","296210","0.0-7.0-0.0-1.16","null","<span style='color:red; font-size: 70px;'>错误! </span>","null","","","","","","","","","","","","","","","","","","","","","","","","","feedback",""
"","","","","","psychophysics","46","298601","0.0-7.0-0.0-0.17","1236","","f","","","","","","","","","","","","","key","f","16.785633802816886","720","446","./1_3_Stimuli/S_ambi40.png","他人","Word","朋友","Mismatch","j","false","Practice",""
"","","","","","html-keyboard-response","47","298918","0.0-7.0-0.0-1.17","null","<span style='color:red; font-size: 70px;'>错误! </span>","null","","","","","","","","","","","","","","","","","","","","","","","","","feedback",""
"","","","","","psychophysics","48","301623","0.0-7.0-0.0-0.18","null","","null","","","","","","","","","","","","","key","null","16.72782608695648","720","446","./1_3_Stimuli/C_ambi40.png","朋友","Word","自我","Mismatch","j","false","Practice",""
"","","","","","html-keyboard-response","49","301942","0.0-7.0-0.0-1.18","null","<span class='add_' style='color:yellow; font-size: 70px;'> 太慢! </span>","null","","","","","","","","","","","","","","","","","","","","","","","","","feedback",""
"","","","","","psychophysics","50","303821","0.0-7.0-0.0-0.19","726","","j","","","","","","","","","","","","","key","j","16.84558558558546","720","446","./1_3_Stimuli/C_ambi40.png","自我","Word","自我","Match","f","false","Practice",""
"","","","","","html-keyboard-response","51","304127","0.0-7.0-0.0-1.19","null","<span style='color:red; font-size: 70px;'>错误! </span>","null","","","","","","","","","","","","","","","","","","","","","","","","","feedback",""
"","","","","","psychophysics","52","306681","0.0-7.0-0.0-0.20","1401","","f","","","","","","","","","","","","","key","f","16.782368421052908","720","446","./1_3_Stimuli/T_ambi40.png","自我","Word","他人","Mismatch","j","false","Practice",""
"","","","","","html-keyboard-response","53","306986","0.0-7.0-0.0-1.20","null","<span style='color:red; font-size: 70px;'>错误! </span>","null","","","","","","","","","","","","","","","","","","","","","","","","","feedback",""
"","","","","","psychophysics","54","309167","0.0-7.0-0.0-0.21","1030","","j","","","","","","","","","","","","","key","j","16.667131782945717","720","446","./1_3_Stimuli/C_ambi40.png","自我","Image","自我","Match","f","false","Practice",""
"","","","","","html-keyboard-response","55","309471","0.0-7.0-0.0-1.21","null","<span style='color:red; font-size: 70px;'>错误! </span>","null","","","","","","","","","","","","","","","","","","","","","","","","","feedback",""
"","","","","","psychophysics","56","312367","0.0-7.0-0.0-0.22","null","","null","","","","","","","","","","","","","key","null","16.67046511627911","720","446","./1_3_Stimuli/T_ambi40.png","朋友","Word","他人","Mismatch","j","false","Practice",""
"","","","","","html-keyboard-response","57","312672","0.0-7.0-0.0-1.22","null","<span class='add_' style='color:yellow; font-size: 70px;'> 太慢! </span>","null","","","","","","","","","","","","","","","","","","","","","","","","","feedback",""
"","","","","","psychophysics","58","314714","0.0-7.0-0.0-0.23","886","","j","","","","","","","","","","","","","key","j","16.675371900826214","720","446","./1_3_Stimuli/S_ambi40.png","自我","Image","朋友","Mismatch","j","true","Practice",""
"","","","","","html-keyboard-response","59","315018","0.0-7.0-0.0-1.23","null","<span style='color:GreenYellow; font-size: 70px;'>正确! </span>","null","","","","","","","","","","","","","","","","","","","","","","","","","feedback",""
"","","","","","html-keyboard-response","60","335898","0.0-7.0-1.0-0.0","20879","<style>.context{color:white; font-size: 35px; line-height:40px}</style>                        <div><p class='context'>您正确回答了63% 的试次。</p><p class='context'>您的平均反应时为1042毫秒。</p><p> <div style = 'color: green'><按空格键至下页></div></p>"," ","","","","","","","","","","","","","","","","","","","","","","","","","",""
"","","","","","instructions","61","342032","0.0-7.0-1.0-1.0","6133","","","","","","","","","","","","","","[{""page_index"":0,""viewing_time"":1729},{""page_index"":1,""viewing_time"":2177},{""page_index"":2,""viewing_time"":2226}]","","","","","","","","","","","","","",""
"","","","","","psychophysics","62","343907","0.0-7.1-0.1-0.24","721","","j","","","","","","","","","","","","","key","j","16.776216216215985","720","446","./1_3_Stimuli/S_ambi40.png","自我","Image","朋友","Mismatch","j","true","Practice",""
"","","","","","html-keyboard-response","63","344213","0.0-7.1-0.1-1.24","null","<span style='color:GreenYellow; font-size: 70px;'>正确! </span>","null","","","","","","","","","","","","","","","","","","","","","","","","","feedback",""
"","","","","","psychophysics","64","346687","0.0-7.1-0.1-0.25","1319","","f","","","","","","","","","","","","","key","f","16.77102040816344","720","446","./1_3_Stimuli/C_ambi40.png","自我","Word","自我","Match","f","true","Practice",""
"","","","","","html-keyboard-response","65","346992","0.0-7.1-0.1-1.25","null","<span style='color:GreenYellow; font-size: 70px;'>正确! </span>","null","","","","","","","","","","","","","","","","","","","","","","","","","feedback",""
"","","","","","psychophysics","66","348825","0.0-7.1-0.1-0.26","680","","f","","","","","","","","","","","","","key","f","16.8435185185183","720","446","./1_3_Stimuli/C_ambi40.png","自我","Image","自我","Match","f","true","Practice",""
"","","","","","html-keyboard-response","67","349146","0.0-7.1-0.1-1.26","null","<span style='color:GreenYellow; font-size: 70px;'>正确! </span>","null","","","","","","","","","","","","","","","","","","","","","","","","","feedback",""
"","","","","","psychophysics","68","350937","0.0-7.1-0.1-0.27","639","","j","","","","","","","","","","","","","key","j","16.810754716981155","720","446","./1_3_Stimuli/C_ambi40.png","朋友","Image","自我","Mismatch","j","true","Practice",""
"","","","","","html-keyboard-response","69","351254","0.0-7.1-0.1-1.27","null","<span style='color:GreenYellow; font-size: 70px;'>正确! </span>","null","","","","","","","","","","","","","","","","","","","","","","","","","feedback",""
"","","","","","psychophysics","70","353817","0.0-7.1-0.1-0.28","1407","","j","","","","","","","","","","","","","key","j","16.667368421052263","720","446","./1_3_Stimuli/T_ambi40.png","朋友","Image","他人","Mismatch","j","true","Practice",""
"","","","","","html-keyboard-response","71","354122","0.0-7.1-0.1-1.28","null","<span style='color:GreenYellow; font-size: 70px;'>正确! </span>","null","","","","","","","","","","","","","","","","","","","","","","","","","feedback",""
"","","","","","psychophysics","72","356618","0.0-7.1-0.1-0.29","1333","","j","","","","","","","","","","","","","key","j","16.66743243243223","720","446","./1_3_Stimuli/T_ambi40.png","自我","Image","他人","Mismatch","j","true","Practice",""
"","","","","","html-keyboard-response","73","356924","0.0-7.1-0.1-1.29","null","<span style='color:GreenYellow; font-size: 70px;'>正确! </span>","null","","","","","","","","","","","","","","","","","","","","","","","","","feedback",""
"","","","","","psychophysics","74","359184","0.0-7.1-0.1-0.30","1105","","f","","","","","","","","","","","","","key","f","16.815522388059474","720","446","./1_3_Stimuli/S_ambi40.png","朋友","Word","朋友","Match","f","true","Practice",""
"","","","","","html-keyboard-response","75","359489","0.0-7.1-0.1-1.30","null","<span style='color:GreenYellow; font-size: 70px;'>正确! </span>","null","","","","","","","","","","","","","","","","","","","","","","","","","feedback",""
"","","","","","psychophysics","76","361333","0.0-7.1-0.1-0.31","690","","f","","","","","","","","","","","","","key","f","16.667155963302495","720","446","./1_3_Stimuli/S_ambi40.png","朋友","Word","朋友","Match","f","true","Practice",""
"","","","","","html-keyboard-response","77","361634","0.0-7.1-0.1-1.31","null","<span style='color:GreenYellow; font-size: 70px;'>正确! </span>","null","","","","","","","","","","","","","","","","","","","","","","","","","feedback",""
"","","","","","psychophysics","78","364365","0.0-7.1-0.1-0.32","null","","null","","","","","","","","","","","","","key","null","16.663950617283938","720","446","./1_3_Stimuli/T_ambi40.png","他人","Word","他人","Match","f","false","Practice",""
"","","","","","html-keyboard-response","79","364666","0.0-7.1-0.1-1.32","null","<span class='add_' style='color:yellow; font-size: 70px;'> 太慢! </span>","null","","","","","","","","","","","","","","","","","","","","","","","","","feedback",""
"","","","","","psychophysics","80","366517","0.0-7.1-0.1-0.33","695","","f","","","","","","","","","","","","","key","f","16.77472727272702","720","446","./1_3_Stimuli/S_ambi40.png","朋友","Image","朋友","Match","f","true","Practice",""
"","","","","","html-keyboard-response","81","366823","0.0-7.1-0.1-1.33","null","<span style='color:GreenYellow; font-size: 70px;'>正确! </span>","null","","","","","","","","","","","","","","","","","","","","","","","","","feedback",""
"","","","","","psychophysics","82","368505","0.0-7.1-0.1-0.34","528","","j","","","","","","","","","","","","","key","j","16.667070707070497","720","446","./1_3_Stimuli/C_ambi40.png","自我","Image","自我","Match","f","false","Practice",""
"","","","","","html-keyboard-response","83","368808","0.0-7.1-0.1-1.34","null","<span style='color:red; font-size: 70px;'>错误! </span>","null","","","","","","","","","","","","","","","","","","","","","","","","","feedback",""
"","","","","","psychophysics","84","371031","0.0-7.1-0.1-0.35","1069","","j","","","","","","","","","","","","","key","j","16.811212121211803","720","446","./1_3_Stimuli/T_ambi40.png","朋友","Word","他人","Mismatch","j","true","Practice",""
"","","","","","html-keyboard-response","85","371336","0.0-7.1-0.1-1.35","null","<span style='color:GreenYellow; font-size: 70px;'>正确! </span>","null","","","","","","","","","","","","","","","","","","","","","","","","","feedback",""
"","","","","","psychophysics","86","373370","0.0-7.1-0.1-0.36","877","","f","","","","","","","","","","","","","key","f","16.667666666666626","720","446","./1_3_Stimuli/C_ambi40.png","他人","Word","自我","Mismatch","j","false","Practice",""
"","","","","","html-keyboard-response","87","373676","0.0-7.1-0.1-1.36","null","<span style='color:red; font-size: 70px;'>错误! </span>","null","","","","","","","","","","","","","","","","","","","","","","","","","feedback",""
"","","","","","psychophysics","88","375753","0.0-7.1-0.1-0.37","922","","f","","","","","","","","","","","","","key","f","16.81495934959342","720","446","./1_3_Stimuli/C_ambi40.png","自我","Word","自我","Match","f","true","Practice",""
"","","","","","html-keyboard-response","89","376057","0.0-7.1-0.1-1.37","null","<span style='color:GreenYellow; font-size: 70px;'>正确! </span>","null","","","","","","","","","","","","","","","","","","","","","","","","","feedback",""
"","","","","","psychophysics","90","378318","0.0-7.1-0.1-0.38","1104","","j","","","","","","","","","","","","","key","j","16.816716417910467","720","446","./1_3_Stimuli/S_ambi40.png","他人","Image","朋友","Mismatch","j","true","Practice",""
"","","","","","html-keyboard-response","91","378623","0.0-7.1-0.1-1.38","null","<span style='color:GreenYellow; font-size: 70px;'>正确! </span>","null","","","","","","","","","","","","","","","","","","","","","","","","","feedback",""
"","","","","","psychophysics","92","380781","0.0-7.1-0.1-0.39","1004","","f","","","","","","","","","","","","","key","f","16.664843749999818","720","446","./1_3_Stimuli/C_ambi40.png","朋友","Word","自我","Mismatch","j","false","Practice",""
"","","","","","html-keyboard-response","93","381082","0.0-7.1-0.1-1.39","null","<span style='color:red; font-size: 70px;'>错误! </span>","null","","","","","","","","","","","","","","","","","","","","","","","","","feedback",""
"","","","","","psychophysics","94","383248","0.0-7.1-0.1-0.40","1014","","j","","","","","","","","","","","","","key","j","16.75736434108536","720","446","./1_3_Stimuli/C_ambi40.png","他人","Image","自我","Mismatch","j","true","Practice",""
"","","","","","html-keyboard-response","95","383551","0.0-7.1-0.1-1.40","null","<span style='color:GreenYellow; font-size: 70px;'>正确! </span>","null","","","","","","","","","","","","","","","","","","","","","","","","","feedback",""
"","","","","","psychophysics","96","385864","0.0-7.1-0.1-0.41","1158","","j","","","","","","","","","","","","","key","j","16.734637681159455","720","446","./1_3_Stimuli/S_ambi40.png","他人","Word","朋友","Mismatch","j","true","Practice",""
"","","","","","html-keyboard-response","97","386167","0.0-7.1-0.1-1.41","null","<span style='color:GreenYellow; font-size: 70px;'>正确! </span>","null","","","","","","","","","","","","","","","","","","","","","","","","","feedback",""
"","","","","","psychophysics","98","388140","0.0-7.1-0.1-0.42","816","","j","","","","","","","","","","","","","key","j","16.753504273504056","720","446","./1_3_Stimuli/S_ambi40.png","自我","Word","朋友","Mismatch","j","true","Practice",""
"","","","","","html-keyboard-response","99","388443","0.0-7.1-0.1-1.42","null","<span style='color:GreenYellow; font-size: 70px;'>正确! </span>","null","","","","","","","","","","","","","","","","","","","","","","","","","feedback",""
"","","","","","psychophysics","100","391066","0.0-7.1-0.1-0.43","1330","","f","","","","","","","","","","","","","key","f","16.7747435897435","720","446","./1_3_Stimuli/T_ambi40.png","他人","Image","他人","Match","f","true","Practice",""
"","","","","","html-keyboard-response","101","391373","0.0-7.1-0.1-1.43","null","<span style='color:GreenYellow; font-size: 70px;'>正确! </span>","null","","","","","","","","","","","","","","","","","","","","","","","","","feedback",""
"","","","","","psychophysics","102","393501","0.0-7.1-0.1-0.44","974","","f","","","","","","","","","","","","","key","f","16.667460317460595","720","446","./1_3_Stimuli/T_ambi40.png","他人","Image","他人","Match","f","true","Practice",""
"","","","","","html-keyboard-response","103","393803","0.0-7.1-0.1-1.44","null","<span style='color:GreenYellow; font-size: 70px;'>正确! </span>","null","","","","","","","","","","","","","","","","","","","","","","","","","feedback",""
"","","","","","psychophysics","104","395532","0.0-7.1-0.1-0.45","574","","j","","","","","","","","","","","","","key","j","16.67235294117663","720","446","./1_3_Stimuli/T_ambi40.png","自我","Word","他人","Mismatch","j","true","Practice",""
"","","","","","html-keyboard-response","105","395838","0.0-7.1-0.1-1.45","null","<span style='color:GreenYellow; font-size: 70px;'>正确! </span>","null","","","","","","","","","","","","","","","","","","","","","","","","","feedback",""
"","","","","","psychophysics","106","397986","0.0-7.1-0.1-0.46","991","","f","","","","","","","","","","","","","key","f","16.67338582677134","720","446","./1_3_Stimuli/S_ambi40.png","朋友","Image","朋友","Match","f","true","Practice",""
"","","","","","html-keyboard-response","107","398293","0.0-7.1-0.1-1.46","null","<span style='color:GreenYellow; font-size: 70px;'>正确! </span>","null","","","","","","","","","","","","","","","","","","","","","","","","","feedback",""
"","","","","","psychophysics","108","400225","0.0-7.1-0.1-0.47","775","","f","","","","","","","","","","","","","key","f","16.819473684210383","720","446","./1_3_Stimuli/T_ambi40.png","他人","Word","他人","Match","f","true","Practice",""
"","","","","","html-keyboard-response","109","400531","0.0-7.1-0.1-1.47","null","<span style='color:GreenYellow; font-size: 70px;'>正确! </span>","null","","","","","","","","","","","","","","","","","","","","","","","","","feedback",""
"","","","","","html-keyboard-response","110","403201","0.0-7.1-1.1-0.1","2668","<style>.context{color:white; font-size: 35px; line-height:40px}</style>                        <div><p class='context'>您正确回答了83% 的试次。</p><p class='context'>您的平均反应时为966毫秒。</p><p> <div style = 'color: green'><按空格键至下页></div></p>"," ","","","","","","","","","","","","","","","","","","","","","","","","","",""
"","","","","","instructions","111","406940","0.0-7.1-1.1-1.1","3737","","","","","","","","","","","","","","[{""page_index"":0,""viewing_time"":1331},{""page_index"":1,""viewing_time"":1699},{""page_index"":2,""viewing_time"":705}]","","","","","","","","","","","","","",""
"","","","","","psychophysics","112","408849","0.0-7.2-0.2-0.48","754","","f","","","","","","","","","","","","","key","f","16.667433628318953","720","446","./1_3_Stimuli/C_ambi40.png","自我","Image","自我","Match","f","true","Practice",""
"","","","","","html-keyboard-response","113","409155","0.0-7.2-0.2-1.48","null","<span style='color:GreenYellow; font-size: 70px;'>正确! </span>","null","","","","","","","","","","","","","","","","","","","","","","","","","feedback",""
"","","","","","psychophysics","114","411019","0.0-7.2-0.2-0.49","708","","j","","","","","","","","","","","","","key","j","16.667636363636383","720","446","./1_3_Stimuli/C_ambi40.png","他人","Word","自我","Mismatch","j","true","Practice",""
"","","","","","html-keyboard-response","115","411321","0.0-7.2-0.2-1.49","null","<span style='color:GreenYellow; font-size: 70px;'>正确! </span>","null","","","","","","","","","","","","","","","","","","","","","","","","","feedback",""
"","","","","","psychophysics","116","413520","0.0-7.2-0.2-0.50","1048","","j","","","","","","","","","","","","","key","j","16.6672307692307","720","446","./1_3_Stimuli/S_ambi40.png","朋友","Image","朋友","Match","f","false","Practice",""
"","","","","","html-keyboard-response","117","413826","0.0-7.2-0.2-1.50","null","<span style='color:red; font-size: 70px;'>错误! </span>","null","","","","","","","","","","","","","","","","","","","","","","","","","feedback",""
"","","","","","psychophysics","118","415725","0.0-7.2-0.2-0.51","742","","f","","","","","","","","","","","","","key","f","16.82500000000021","720","446","./1_3_Stimuli/T_ambi40.png","他人","Word","他人","Match","f","true","Practice",""
"","","","","","html-keyboard-response","119","416031","0.0-7.2-0.2-1.51","null","<span style='color:GreenYellow; font-size: 70px;'>正确! </span>","null","","","","","","","","","","","","","","","","","","","","","","","","","feedback",""
"","","","","","psychophysics","120","418113","0.0-7.2-0.2-0.52","926","","f","","","","","","","","","","","","","key","f","16.768709677419412","720","446","./1_3_Stimuli/T_ambi40.png","他人","Image","他人","Match","f","true","Practice",""
"","","","","","html-keyboard-response","121","418419","0.0-7.2-0.2-1.52","null","<span style='color:GreenYellow; font-size: 70px;'>正确! </span>","null","","","","","","","","","","","","","","","","","","","","","","","","","feedback",""
"","","","","","psychophysics","122","420564","0.0-7.2-0.2-0.53","990","","f","","","","","","","","","","","","","key","f","16.667401574803222","720","446","./1_3_Stimuli/S_ambi40.png","朋友","Image","朋友","Match","f","true","Practice",""
"","","","","","html-keyboard-response","123","420871","0.0-7.2-0.2-1.53","null","<span style='color:GreenYellow; font-size: 70px;'>正确! </span>","null","","","","","","","","","","","","","","","","","","","","","","","","","feedback",""
"","","","","","psychophysics","124","423198","0.0-7.2-0.2-0.54","1173","","j","","","","","","","","","","","","","key","j","16.667536231884025","720","446","./1_3_Stimuli/S_ambi40.png","自我","Image","朋友","Mismatch","j","true","Practice",""
"","","","","","html-keyboard-response","125","423530","0.0-7.2-0.2-1.54","null","<span style='color:GreenYellow; font-size: 70px;'>正确! </span>","null","","","","","","","","","","","","","","","","","","","","","","","","","feedback",""
"","","","","","psychophysics","126","425422","0.0-7.2-0.2-0.55","739","","f","","","","","","","","","","","","","key","f","16.794999999999813","720","446","./1_3_Stimuli/C_ambi40.png","自我","Word","自我","Match","f","true","Practice",""
"","","","","","html-keyboard-response","127","425726","0.0-7.2-0.2-1.55","null","<span style='color:GreenYellow; font-size: 70px;'>正确! </span>","null","","","","","","","","","","","","","","","","","","","","","","","","","feedback",""
"","","","","","psychophysics","128","427996","0.0-7.2-0.2-0.56","1114","","f","","","","","","","","","","","","","key","f","16.79259259259259","720","446","./1_3_Stimuli/C_ambi40.png","自我","Image","自我","Match","f","true","Practice",""
"","","","","","html-keyboard-response","129","428301","0.0-7.2-0.2-1.56","null","<span style='color:GreenYellow; font-size: 70px;'>正确! </span>","null","","","","","","","","","","","","","","","","","","","","","","","","","feedback",""
"","","","","","psychophysics","130","430737","0.0-7.2-0.2-0.57","1285","","f","","","","","","","","","","","","","key","f","16.666944444444297","720","446","./1_3_Stimuli/T_ambi40.png","他人","Word","他人","Match","f","true","Practice",""
"","","","","","html-keyboard-response","131","431063","0.0-7.2-0.2-1.57","null","<span style='color:GreenYellow; font-size: 70px;'>正确! </span>","null","","","","","","","","","","","","","","","","","","","","","","","","","feedback",""
"","","","","","psychophysics","132","432939","0.0-7.2-0.2-0.58","726","","j","","","","","","","","","","","","","key","j","16.792432432432097","720","446","./1_3_Stimuli/T_ambi40.png","自我","Image","他人","Mismatch","j","true","Practice",""
"","","","","","html-keyboard-response","133","433244","0.0-7.2-0.2-1.58","null","<span style='color:GreenYellow; font-size: 70px;'>正确! </span>","null","","","","","","","","","","","","","","","","","","","","","","","","","feedback",""
"","","","","","psychophysics","134","435087","0.0-7.2-0.2-0.59","687","","j","","","","","","","","","","","","","key","j","16.811559633027716","720","446","./1_3_Stimuli/S_ambi40.png","自我","Word","朋友","Mismatch","j","true","Practice",""
"","","","","","html-keyboard-response","135","435391","0.0-7.2-0.2-1.59","null","<span style='color:GreenYellow; font-size: 70px;'>正确! </span>","null","","","","","","","","","","","","","","","","","","","","","","","","","feedback",""
"","","","","","psychophysics","136","437602","0.0-7.2-0.2-0.60","1060","","f","","","","","","","","","","","","","key","f","16.81816793893169","720","446","./1_3_Stimuli/T_ambi40.png","他人","Image","他人","Match","f","true","Practice",""
"","","","","","html-keyboard-response","137","437906","0.0-7.2-0.2-1.60","null","<span style='color:GreenYellow; font-size: 70px;'>正确! </span>","null","","","","","","","","","","","","","","","","","","","","","","","","","feedback",""
"","","","","","psychophysics","138","439934","0.0-7.2-0.2-0.61","874","","j","","","","","","","","","","","","","key","j","16.66716666666665","720","446","./1_3_Stimuli/S_ambi40.png","他人","Word","朋友","Mismatch","j","true","Practice",""
"","","","","","html-keyboard-response","139","440240","0.0-7.2-0.2-1.61","null","<span style='color:GreenYellow; font-size: 70px;'>正确! </span>","null","","","","","","","","","","","","","","","","","","","","","","","","","feedback",""
"","","","","","psychophysics","140","442525","0.0-7.2-0.2-0.62","1129","","j","","","","","","","","","","","","","key","j","16.815555555555385","720","446","./1_3_Stimuli/T_ambi40.png","自我","Word","他人","Mismatch","j","true","Practice",""
"","","","","","html-keyboard-response","141","442830","0.0-7.2-0.2-1.62","null","<span style='color:GreenYellow; font-size: 70px;'>正确! </span>","null","","","","","","","","","","","","","","","","","","","","","","","","","feedback",""
"","","","","","psychophysics","142","444964","0.0-7.2-0.2-0.63","848","","f","","","","","","","","","","","","","key","f","16.773070866142135","720","446","./1_3_Stimuli/T_ambi40.png","朋友","Word","他人","Mismatch","j","false","Practice",""
"","","","","","html-keyboard-response","143","445268","0.0-7.2-0.2-1.63","null","<span style='color:red; font-size: 70px;'>错误! </span>","null","","","","","","","","","","","","","","","","","","","","","","","","","feedback",""
"","","","","","psychophysics","144","447728","0.0-7.2-0.2-0.64","1308","","j","","","","","","","","","","","","","key","j","16.66739726027399","720","446","./1_3_Stimuli/S_ambi40.png","他人","Image","朋友","Mismatch","j","true","Practice",""
"","","","","","html-keyboard-response","145","448033","0.0-7.2-0.2-1.64","null","<span style='color:GreenYellow; font-size: 70px;'>正确! </span>","null","","","","","","","","","","","","","","","","","","","","","","","","","feedback",""
"","","","","","psychophysics","146","450288","0.0-7.2-0.2-0.65","1100","","j","","","","","","","","","","","","","key","j","16.737313432835734","720","446","./1_3_Stimuli/C_ambi40.png","朋友","Image","自我","Mismatch","j","true","Practice",""
"","","","","","html-keyboard-response","147","450591","0.0-7.2-0.2-1.65","null","<span style='color:GreenYellow; font-size: 70px;'>正确! </span>","null","","","","","","","","","","","","","","","","","","","","","","","","","feedback",""
"","","","","","psychophysics","148","452857","0.0-7.2-0.2-0.66","1114","","j","","","","","","","","","","","","","key","j","16.80850746268676","720","446","./1_3_Stimuli/T_ambi40.png","朋友","Image","他人","Mismatch","j","true","Practice",""
"","","","","","html-keyboard-response","149","453162","0.0-7.2-0.2-1.66","null","<span style='color:GreenYellow; font-size: 70px;'>正确! </span>","null","","","","","","","","","","","","","","","","","","","","","","","","","feedback",""
"","","","","","psychophysics","150","455282","0.0-7.2-0.2-0.67","933","","j","","","","","","","","","","","","","key","j","16.779206349206756","720","446","./1_3_Stimuli/C_ambi40.png","朋友","Word","自我","Mismatch","j","true","Practice",""
"","","","","","html-keyboard-response","151","455590","0.0-7.2-0.2-1.67","null","<span style='color:GreenYellow; font-size: 70px;'>正确! </span>","null","","","","","","","","","","","","","","","","","","","","","","","","","feedback",""
"","","","","","psychophysics","152","457437","0.0-7.2-0.2-0.68","690","","j","","","","","","","","","","","","","key","j","16.6673394495412","720","446","./1_3_Stimuli/C_ambi40.png","自我","Word","自我","Match","f","false","Practice",""
"","","","","","html-keyboard-response","153","457738","0.0-7.2-0.2-1.68","null","<span style='color:red; font-size: 70px;'>错误! </span>","null","","","","","","","","","","","","","","","","","","","","","","","","","feedback",""
"","","","","","psychophysics","154","459584","0.0-7.2-0.2-0.69","691","","j","","","","","","","","","","","","","key","j","16.665688073394474","720","446","./1_3_Stimuli/C_ambi40.png","他人","Image","自我","Mismatch","j","true","Practice",""
"","","","","","html-keyboard-response","155","459890","0.0-7.2-0.2-1.69","null","<span style='color:GreenYellow; font-size: 70px;'>正确! </span>","null","","","","","","","","","","","","","","","","","","","","","","","","","feedback",""
"","","","","","psychophysics","156","462134","0.0-7.2-0.2-0.70","1088","","f","","","","","","","","","","","","","key","f","16.81924812030091","720","446","./1_3_Stimuli/S_ambi40.png","朋友","Word","朋友","Match","f","true","Practice",""
"","","","","","html-keyboard-response","157","462440","0.0-7.2-0.2-1.70","null","<span style='color:GreenYellow; font-size: 70px;'>正确! </span>","null","","","","","","","","","","","","","","","","","","","","","","","","","feedback",""
"","","","","","psychophysics","158","464658","0.0-7.2-0.2-0.71","1061","","j","","","","","","","","","","","","","key","j","16.819847328244453","720","446","./1_3_Stimuli/S_ambi40.png","朋友","Word","朋友","Match","f","false","Practice",""
"","","","","","html-keyboard-response","159","464959","0.0-7.2-0.2-1.71","null","<span style='color:red; font-size: 70px;'>错误! </span>","null","","","","","","","","","","","","","","","","","","","","","","","","","feedback",""
"","","","","","html-keyboard-response","160","467506","0.0-7.2-1.2-0.2","2545","<style>.context{color:white; font-size: 35px; line-height:40px}</style>                        <div><p class='context'>您正确回答了83% 的试次。</p><p class='context'>您的平均反应时为957毫秒。</p><p> <div style = 'color: green'><按空格键至下页></div></p>"," ","","","","","","","","","","","","","","","","","","","","","","","","","",""
"","","","","","instructions","161","472054","0.0-7.2-1.2-1.2","4547","","","","","","","","","","","","","","[{""page_index"":0,""viewing_time"":727},{""page_index"":1,""viewing_time"":2455},{""page_index"":2,""viewing_time"":1364}]","","","","","","","","","","","","","",""
"","","","","","psychophysics","162","474655","0.0-7.3-0.3-0.72","1443","","j","","","","","","","","","","","","","key","j","16.668571428571564","720","446","./1_3_Stimuli/T_ambi40.png","自我","Word","他人","Mismatch","j","true","Practice",""
"","","","","","html-keyboard-response","163","474958","0.0-7.3-0.3-1.72","null","<span style='color:GreenYellow; font-size: 70px;'>正确! </span>","null","","","","","","","","","","","","","","","","","","","","","","","","","feedback",""
"","","","","","psychophysics","164","477663","0.0-7.3-0.3-0.73","null","","null","","","","","","","","","","","","","key","null","16.786086956521725","720","446","./1_3_Stimuli/C_ambi40.png","自我","Word","自我","Match","f","false","Practice",""
"","","","","","html-keyboard-response","165","477970","0.0-7.3-0.3-1.73","null","<span class='add_' style='color:yellow; font-size: 70px;'> 太慢! </span>","null","","","","","","","","","","","","","","","","","","","","","","","","","feedback",""
"","","","","","psychophysics","166","480236","0.0-7.3-0.3-0.74","1111","","f","","","","","","","","","","","","","key","f","16.667611940298663","720","446","./1_3_Stimuli/C_ambi40.png","他人","Word","自我","Mismatch","j","false","Practice",""
"","","","","","html-keyboard-response","167","480542","0.0-7.3-0.3-1.74","null","<span style='color:red; font-size: 70px;'>错误! </span>","null","","","","","","","","","","","","","","","","","","","","","","","","","feedback",""
"","","","","","psychophysics","168","482716","0.0-7.3-0.3-0.75","1023","","j","","","","","","","","","","","","","key","j","16.805736434108546","720","446","./1_3_Stimuli/T_ambi40.png","他人","Image","他人","Match","f","false","Practice",""
"","","","","","html-keyboard-response","169","483028","0.0-7.3-0.3-1.75","null","<span style='color:red; font-size: 70px;'>错误! </span>","null","","","","","","","","","","","","","","","","","","","","","","","","","feedback",""
"","","","","","psychophysics","170","485706","0.0-7.3-0.3-0.76","1439","","j","","","","","","","","","","","","","key","j","16.765660377358433","720","446","./1_3_Stimuli/S_ambi40.png","他人","Word","朋友","Mismatch","j","true","Practice",""
"","","","","","html-keyboard-response","171","486009","0.0-7.3-0.3-1.76","null","<span style='color:GreenYellow; font-size: 70px;'>正确! </span>","null","","","","","","","","","","","","","","","","","","","","","","","","","feedback",""
"","","","","","psychophysics","172","488622","0.0-7.3-0.3-0.77","1459","","f","","","","","","","","","","","","","key","f","16.779225806451795","720","446","./1_3_Stimuli/T_ambi40.png","朋友","Image","他人","Mismatch","j","false","Practice",""
"","","","","","html-keyboard-response","173","488926","0.0-7.3-0.3-1.77","null","<span style='color:red; font-size: 70px;'>错误! </span>","null","","","","","","","","","","","","","","","","","","","","","","","","","feedback",""
"","","","","","psychophysics","174","490667","0.0-7.3-0.3-0.78","584","","j","","","","","","","","","","","","","key","j","16.833786407767036","720","446","./1_3_Stimuli/C_ambi40.png","自我","Image","自我","Match","f","false","Practice",""
"","","","","","html-keyboard-response","175","490967","0.0-7.3-0.3-1.78","null","<span style='color:red; font-size: 70px;'>错误! </span>","null","","","","","","","","","","","","","","","","","","","","","","","","","feedback",""
"","","","","","psychophysics","176","493686","0.0-7.3-0.3-0.79","1562","","f","","","","","","","","","","","","","key","f","16.722716049382818","720","446","./1_3_Stimuli/S_ambi40.png","朋友","Image","朋友","Match","f","true","Practice",""
"","","","","","html-keyboard-response","177","493992","0.0-7.3-0.3-1.79","null","<span class='add_' style='color:yellow; font-size: 70px;'> 太慢! </span>","null","","","","","","","","","","","","","","","","","","","","","","","","","feedback",""
"","","","","","psychophysics","178","496697","0.0-7.3-0.3-0.80","1551","","j","","","","","","","","","","","","","key","j","16.779378881987462","720","446","./1_3_Stimuli/C_ambi40.png","自我","Image","自我","Match","f","false","Practice",""
"","","","","","html-keyboard-response","179","497001","0.0-7.3-0.3-1.80","null","<span class='add_' style='color:yellow; font-size: 70px;'> 太慢! </span>","null","","","","","","","","","","","","","","","","","","","","","","","","","feedback",""
"","","","","","psychophysics","180","498855","0.0-7.3-0.3-0.81","702","","j","","","","","","","","","","","","","key","j","16.67504587155925","720","446","./1_3_Stimuli/T_ambi40.png","他人","Word","他人","Match","f","false","Practice",""
"","","","","","html-keyboard-response","181","499159","0.0-7.3-0.3-1.81","null","<span style='color:red; font-size: 70px;'>错误! </span>","null","","","","","","","","","","","","","","","","","","","","","","","","","feedback",""
"","","","","","psychophysics","182","501865","0.0-7.3-0.3-0.82","null","","null","","","","","","","","","","","","","key","null","16.77341614906844","720","446","./1_3_Stimuli/S_ambi40.png","朋友","Word","朋友","Match","f","false","Practice",""
"","","","","","html-keyboard-response","183","502172","0.0-7.3-0.3-1.82","null","<span class='add_' style='color:yellow; font-size: 70px;'> 太慢! </span>","null","","","","","","","","","","","","","","","","","","","","","","","","","feedback",""
"","","","","","psychophysics","184","504457","0.0-7.3-0.3-0.83","1120","","f","","","","","","","","","","","","","key","f","16.667407407407236","720","446","./1_3_Stimuli/T_ambi40.png","朋友","Word","他人","Mismatch","j","false","Practice",""
"","","","","","html-keyboard-response","185","504763","0.0-7.3-0.3-1.83","null","<span style='color:red; font-size: 70px;'>错误! </span>","null","","","","","","","","","","","","","","","","","","","","","","","","","feedback",""
"","","","","","psychophysics","186","507023","0.0-7.3-0.3-0.84","1105","","j","","","","","","","","","","","","","key","j","16.76865671641791","720","446","./1_3_Stimuli/C_ambi40.png","他人","Image","自我","Mismatch","j","true","Practice",""
"","","","","","html-keyboard-response","187","507326","0.0-7.3-0.3-1.84","null","<span style='color:GreenYellow; font-size: 70px;'>正确! </span>","null","","","","","","","","","","","","","","","","","","","","","","","","","feedback",""
"","","","","","psychophysics","188","509118","0.0-7.3-0.3-0.85","639","","j","","","","","","","","","","","","","key","j","16.81962264150948","720","446","./1_3_Stimuli/S_ambi40.png","自我","Word","朋友","Mismatch","j","true","Practice",""
"","","","","","html-keyboard-response","189","509422","0.0-7.3-0.3-1.85","null","<span style='color:GreenYellow; font-size: 70px;'>正确! </span>","null","","","","","","","","","","","","","","","","","","","","","","","","","feedback",""
"","","","","","psychophysics","190","511348","0.0-7.3-0.3-0.86","771","","j","","","","","","","","","","","","","key","j","16.667017543859465","720","446","./1_3_Stimuli/T_ambi40.png","自我","Image","他人","Mismatch","j","true","Practice",""
"","","","","","html-keyboard-response","191","511653","0.0-7.3-0.3-1.86","null","<span style='color:GreenYellow; font-size: 70px;'>正确! </span>","null","","","","","","","","","","","","","","","","","","","","","","","","","feedback",""
"","","","","","psychophysics","192","513853","0.0-7.3-0.3-0.87","1044","","f","","","","","","","","","","","","","key","f","16.662615384615492","720","446","./1_3_Stimuli/T_ambi40.png","他人","Word","他人","Match","f","true","Practice",""
"","","","","","html-keyboard-response","193","514158","0.0-7.3-0.3-1.87","null","<span style='color:GreenYellow; font-size: 70px;'>正确! </span>","null","","","","","","","","","","","","","","","","","","","","","","","","","feedback",""
"","","","","","psychophysics","194","516056","0.0-7.3-0.3-0.88","746","","j","","","","","","","","","","","","","key","j","16.829285714285756","720","446","./1_3_Stimuli/S_ambi40.png","自我","Image","朋友","Mismatch","j","true","Practice",""
"","","","","","html-keyboard-response","195","516361","0.0-7.3-0.3-1.88","null","<span style='color:GreenYellow; font-size: 70px;'>正确! </span>","null","","","","","","","","","","","","","","","","","","","","","","","","","feedback",""
"","","","","","psychophysics","196","519067","0.0-7.3-0.3-0.89","null","","null","","","","","","","","","","","","","key","null","16.76559006211186","720","446","./1_3_Stimuli/S_ambi40.png","朋友","Image","朋友","Match","f","false","Practice",""
"","","","","","html-keyboard-response","197","519371","0.0-7.3-0.3-1.89","null","<span class='add_' style='color:yellow; font-size: 70px;'> 太慢! </span>","null","","","","","","","","","","","","","","","","","","","","","","","","","feedback",""
"","","","","","psychophysics","198","521266","0.0-7.3-0.3-0.90","618","","j","","","","","","","","","","","","","key","j","16.667321428571345","720","446","./1_3_Stimuli/C_ambi40.png","自我","Word","自我","Match","f","false","Practice",""
"","","","","","html-keyboard-response","199","521570","0.0-7.3-0.3-1.90","null","<span style='color:red; font-size: 70px;'>错误! </span>","null","","","","","","","","","","","","","","","","","","","","","","","","","feedback",""
"","","","","","psychophysics","200","523941","0.0-7.3-0.3-0.91","1214","","f","","","","","","","","","","","","","key","f","16.667428571428587","720","446","./1_3_Stimuli/S_ambi40.png","朋友","Word","朋友","Match","f","true","Practice",""
"","","","","","html-keyboard-response","201","524276","0.0-7.3-0.3-1.91","null","<span style='color:GreenYellow; font-size: 70px;'>正确! </span>","null","","","","","","","","","","","","","","","","","","","","","","","","","feedback",""
"","","","","","psychophysics","202","526185","0.0-7.3-0.3-0.92","752","","j","","","","","","","","","","","","","key","j","16.81610619469002","720","446","./1_3_Stimuli/C_ambi40.png","朋友","Image","自我","Mismatch","j","true","Practice",""
"","","","","","html-keyboard-response","203","526490","0.0-7.3-0.3-1.92","null","<span style='color:GreenYellow; font-size: 70px;'>正确! </span>","null","","","","","","","","","","","","","","","","","","","","","","","","","feedback",""
"","","","","","psychophysics","204","528536","0.0-7.3-0.3-0.93","793","","j","","","","","","","","","","","","","key","j","16.82677685950444","720","446","./1_3_Stimuli/C_ambi40.png","朋友","Word","自我","Mismatch","j","true","Practice",""
"","","","","","html-keyboard-response","205","528840","0.0-7.3-0.3-1.93","null","<span style='color:GreenYellow; font-size: 70px;'>正确! </span>","null","","","","","","","","","","","","","","","","","","","","","","","","","feedback",""
"","","","","","psychophysics","206","530986","0.0-7.3-0.3-0.94","992","","j","","","","","","","","","","","","","key","j","16.815118110236366","720","446","./1_3_Stimuli/T_ambi40.png","他人","Image","他人","Match","f","false","Practice",""
"","","","","","html-keyboard-response","207","531293","0.0-7.3-0.3-1.94","null","<span style='color:red; font-size: 70px;'>错误! </span>","null","","","","","","","","","","","","","","","","","","","","","","","","","feedback",""
"","","","","","psychophysics","208","533484","0.0-7.3-0.3-0.95","1034","","j","","","","","","","","","","","","","key","j","16.799538461538926","720","446","./1_3_Stimuli/S_ambi40.png","他人","Image","朋友","Mismatch","j","true","Practice",""
"","","","","","html-keyboard-response","209","533787","0.0-7.3-0.3-1.95","null","<span style='color:GreenYellow; font-size: 70px;'>正确! </span>","null","","","","","","","","","","","","","","","","","","","","","","","","","feedback",""
"","","","","","html-keyboard-response","210","535817","0.0-7.3-1.3-0.3","2028","<style>.context{color:white; font-size: 35px; line-height:40px}</style>                        <div><p class='context'>您正确回答了50% 的试次。</p><p class='context'>您的平均反应时为1045毫秒。</p><p> <div style = 'color: green'><按空格键至下页></div></p>"," ","","","","","","","","","","","","","","","","","","","","","","","","","",""
"","","","","","instructions","211","538126","0.0-7.3-1.3-1.3","2307","","","","","","","","","","","","","","[{""page_index"":0,""viewing_time"":951},{""page_index"":1,""viewing_time"":597},{""page_index"":2,""viewing_time"":759}]","","","","","","","","","","","","","",""
"","","","","","psychophysics","212","540301","0.0-7.4-0.4-0.96","1017","","j","","","","","","","","","","","","","key","j","16.79875968992277","720","446","./1_3_Stimuli/T_ambi40.png","自我","Word","他人","Mismatch","j","true","Practice",""
"","","","","","html-keyboard-response","213","540602","0.0-7.4-0.4-1.96","null","<span style='color:GreenYellow; font-size: 70px;'>正确! </span>","null","","","","","","","","","","","","","","","","","","","","","","","","","feedback",""
"","","","","","psychophysics","214","542696","0.0-7.4-0.4-0.97","938","","j","","","","","","","","","","","","","key","j","16.667258064516055","720","446","./1_3_Stimuli/C_ambi40.png","朋友","Word","自我","Mismatch","j","true","Practice",""
"","","","","","html-keyboard-response","215","543001","0.0-7.4-0.4-1.97","null","<span style='color:GreenYellow; font-size: 70px;'>正确! </span>","null","","","","","","","","","","","","","","","","","","","","","","","","","feedback",""
"","","","","","psychophysics","216","545062","0.0-7.4-0.4-0.98","807","","f","","","","","","","","","","","","","key","f","16.667377049180672","720","446","./1_3_Stimuli/T_ambi40.png","他人","Word","他人","Match","f","true","Practice",""
"","","","","","html-keyboard-response","217","545362","0.0-7.4-0.4-1.98","null","<span style='color:GreenYellow; font-size: 70px;'>正确! </span>","null","","","","","","","","","","","","","","","","","","","","","","","","","feedback",""
"","","","","","psychophysics","218","547164","0.0-7.4-0.4-0.99","647","","j","","","","","","","","","","","","","key","j","16.790093457944273","720","446","./1_3_Stimuli/S_ambi40.png","自我","Image","朋友","Mismatch","j","true","Practice",""
"","","","","","html-keyboard-response","219","547468","0.0-7.4-0.4-1.99","null","<span style='color:GreenYellow; font-size: 70px;'>正确! </span>","null","","","","","","","","","","","","","","","","","","","","","","","","","feedback",""
"","","","","","psychophysics","220","549582","0.0-7.4-0.4-0.100","961","","f","","","","","","","","","","","","","key","f","16.72539682539701","720","446","./1_3_Stimuli/S_ambi40.png","朋友","Image","朋友","Match","f","true","Practice",""
"","","","","","html-keyboard-response","221","549887","0.0-7.4-0.4-1.100","null","<span style='color:GreenYellow; font-size: 70px;'>正确! </span>","null","","","","","","","","","","","","","","","","","","","","","","","","","feedback",""
"","","","","","psychophysics","222","552219","0.0-7.4-0.4-0.101","1176","","j","","","","","","","","","","","","","key","j","16.667246376811292","720","446","./1_3_Stimuli/S_ambi40.png","他人","Word","朋友","Mismatch","j","true","Practice",""
"","","","","","html-keyboard-response","223","552523","0.0-7.4-0.4-1.101","null","<span style='color:GreenYellow; font-size: 70px;'>正确! </span>","null","","","","","","","","","","","","","","","","","","","","","","","","","feedback",""
"","","","","","psychophysics","224","554483","0.0-7.4-0.4-0.102","806","","f","","","","","","","","","","","","","key","f","16.840689655172575","720","446","./1_3_Stimuli/C_ambi40.png","自我","Word","自我","Match","f","true","Practice",""
"","","","","","html-keyboard-response","225","554787","0.0-7.4-0.4-1.102","null","<span style='color:GreenYellow; font-size: 70px;'>正确! </span>","null","","","","","","","","","","","","","","","","","","","","","","","","","feedback",""
"","","","","","psychophysics","226","556833","0.0-7.4-0.4-0.103","893","","f","","","","","","","","","","","","","key","f","16.668429752066153","720","446","./1_3_Stimuli/T_ambi40.png","他人","Image","他人","Match","f","true","Practice",""
"","","","","","html-keyboard-response","227","557137","0.0-7.4-0.4-1.103","null","<span style='color:GreenYellow; font-size: 70px;'>正确! </span>","null","","","","","","","","","","","","","","","","","","","","","","","","","feedback",""
"","","","","","psychophysics","228","559202","0.0-7.4-0.4-0.104","908","","f","","","","","","","","","","","","","key","f","16.66508196721323","720","446","./1_3_Stimuli/S_ambi40.png","朋友","Word","朋友","Match","f","true","Practice",""
"","","","","","html-keyboard-response","229","559535","0.0-7.4-0.4-1.104","null","<span style='color:GreenYellow; font-size: 70px;'>正确! </span>","null","","","","","","","","","","","","","","","","","","","","","","","","","feedback",""
"","","","","","psychophysics","230","561357","0.0-7.4-0.4-0.105","666","","j","","","","","","","","","","","","","key","j","16.667289719626385","720","446","./1_3_Stimuli/C_ambi40.png","他人","Word","自我","Mismatch","j","true","Practice",""
"","","","","","html-keyboard-response","231","561661","0.0-7.4-0.4-1.105","null","<span style='color:GreenYellow; font-size: 70px;'>正确! </span>","null","","","","","","","","","","","","","","","","","","","","","","","","","feedback",""
"","","","","","psychophysics","232","564135","0.0-7.4-0.4-0.106","1321","","f","","","","","","","","","","","","","key","f","16.76530612244898","720","446","./1_3_Stimuli/T_ambi40.png","他人","Image","他人","Match","f","true","Practice",""
"","","","","","html-keyboard-response","233","564439","0.0-7.4-0.4-1.106","null","<span style='color:GreenYellow; font-size: 70px;'>正确! </span>","null","","","","","","","","","","","","","","","","","","","","","","","","","feedback",""
"","","","","","psychophysics","234","566561","0.0-7.4-0.4-0.107","885","","j","","","","","","","","","","","","","key","j","16.6658730158732","720","446","./1_3_Stimuli/T_ambi40.png","朋友","Word","他人","Mismatch","j","true","Practice",""
"","","","","","html-keyboard-response","235","566866","0.0-7.4-0.4-1.107","null","<span style='color:GreenYellow; font-size: 70px;'>正确! </span>","null","","","","","","","","","","","","","","","","","","","","","","","","","feedback",""
"","","","","","psychophysics","236","569040","0.0-7.4-0.4-0.108","1017","","j","","","","","","","","","","","","","key","j","16.74062015503905","720","446","./1_3_Stimuli/C_ambi40.png","朋友","Image","自我","Mismatch","j","true","Practice",""
"","","","","","html-keyboard-response","237","569343","0.0-7.4-0.4-1.108","null","<span style='color:GreenYellow; font-size: 70px;'>正确! </span>","null","","","","","","","","","","","","","","","","","","","","","","","","","feedback",""
"","","","","","psychophysics","238","571284","0.0-7.4-0.4-0.109","789","","f","","","","","","","","","","","","","key","f","16.8","720","446","./1_3_Stimuli/S_ambi40.png","朋友","Image","朋友","Match","f","true","Practice",""
"","","","","","html-keyboard-response","239","571585","0.0-7.4-0.4-1.109","null","<span style='color:GreenYellow; font-size: 70px;'>正确! </span>","null","","","","","","","","","","","","","","","","","","","","","","","","","feedback",""
"","","","","","psychophysics","240","573897","0.0-7.4-0.4-0.110","1157","","f","","","","","","","","","","","","","key","f","16.667299270073297","720","446","./1_3_Stimuli/T_ambi40.png","他人","Word","他人","Match","f","true","Practice",""
"","","","","","html-keyboard-response","241","574198","0.0-7.4-0.4-1.110","null","<span style='color:GreenYellow; font-size: 70px;'>正确! </span>","null","","","","","","","","","","","","","","","","","","","","","","","","","feedback",""
"","","","","","psychophysics","242","575996","0.0-7.4-0.4-0.111","645","","j","","","","","","","","","","","","","key","j","16.768971962615996","720","446","./1_3_Stimuli/T_ambi40.png","自我","Image","他人","Mismatch","j","true","Practice",""
"","","","","","html-keyboard-response","243","576298","0.0-7.4-0.4-1.111","null","<span style='color:GreenYellow; font-size: 70px;'>正确! </span>","null","","","","","","","","","","","","","","","","","","","","","","","","","feedback",""
"","","","","","psychophysics","244","578485","0.0-7.4-0.4-0.112","1030","","j","","","","","","","","","","","","","key","j","16.749384615384937","720","446","./1_3_Stimuli/S_ambi40.png","自我","Word","朋友","Mismatch","j","true","Practice",""
"","","","","","html-keyboard-response","245","578785","0.0-7.4-0.4-1.112","null","<span style='color:GreenYellow; font-size: 70px;'>正确! </span>","null","","","","","","","","","","","","","","","","","","","","","","","","","feedback",""
"","","","","","psychophysics","246","580733","0.0-7.4-0.4-0.113","794","","j","","","","","","","","","","","","","key","j","16.66695652173974","720","446","./1_3_Stimuli/C_ambi40.png","他人","Image","自我","Mismatch","j","true","Practice",""
"","","","","","html-keyboard-response","247","581038","0.0-7.4-0.4-1.113","null","<span style='color:GreenYellow; font-size: 70px;'>正确! </span>","null","","","","","","","","","","","","","","","","","","","","","","","","","feedback",""
"","","","","","psychophysics","248","582997","0.0-7.4-0.4-0.114","802","","j","","","","","","","","","","","","","key","j","16.662068965517644","720","446","./1_3_Stimuli/C_ambi40.png","自我","Image","自我","Match","f","false","Practice",""
"","","","","","html-keyboard-response","249","583302","0.0-7.4-0.4-1.114","null","<span style='color:red; font-size: 70px;'>错误! </span>","null","","","","","","","","","","","","","","","","","","","","","","","","","feedback",""
"","","","","","psychophysics","250","585785","0.0-7.4-0.4-0.115","1329","","j","","","","","","","","","","","","","key","j","16.667210884353455","720","446","./1_3_Stimuli/S_ambi40.png","他人","Image","朋友","Mismatch","j","true","Practice",""
"","","","","","html-keyboard-response","251","586088","0.0-7.4-0.4-1.115","null","<span style='color:GreenYellow; font-size: 70px;'>正确! </span>","null","","","","","","","","","","","","","","","","","","","","","","","","","feedback",""
"","","","","","psychophysics","252","588075","0.0-7.4-0.4-0.116","834","","f","","","","","","","","","","","","","key","f","16.664444444444364","720","446","./1_3_Stimuli/S_ambi40.png","朋友","Word","朋友","Match","f","true","Practice",""
"","","","","","html-keyboard-response","253","588381","0.0-7.4-0.4-1.116","null","<span style='color:GreenYellow; font-size: 70px;'>正确! </span>","null","","","","","","","","","","","","","","","","","","","","","","","","","feedback",""
"","","","","","psychophysics","254","590286","0.0-7.4-0.4-0.117","750","","f","","","","","","","","","","","","","key","f","16.767079646018153","720","446","./1_3_Stimuli/C_ambi40.png","自我","Image","自我","Match","f","true","Practice",""
"","","","","","html-keyboard-response","255","590592","0.0-7.4-0.4-1.117","null","<span style='color:GreenYellow; font-size: 70px;'>正确! </span>","null","","","","","","","","","","","","","","","","","","","","","","","","","feedback",""
"","","","","","psychophysics","256","592519","0.0-7.4-0.4-0.118","770","","j","","","","","","","","","","","","","key","j","16.809473684210772","720","446","./1_3_Stimuli/T_ambi40.png","朋友","Image","他人","Mismatch","j","true","Practice",""
"","","","","","html-keyboard-response","257","592824","0.0-7.4-0.4-1.118","null","<span style='color:GreenYellow; font-size: 70px;'>正确! </span>","null","","","","","","","","","","","","","","","","","","","","","","","","","feedback",""
"","","","","","psychophysics","258","594712","0.0-7.4-0.4-0.119","731","","f","","","","","","","","","","","","","key","f","16.830178571428405","720","446","./1_3_Stimuli/C_ambi40.png","自我","Word","自我","Match","f","true","Practice",""
"","","","","","html-keyboard-response","259","595014","0.0-7.4-0.4-1.119","null","<span style='color:GreenYellow; font-size: 70px;'>正确! </span>","null","","","","","","","","","","","","","","","","","","","","","","","","","feedback",""
"","","","","","html-keyboard-response","260","744450","0.0-8.0","149440","<style>.context{color:white; font-size: 35px; line-height:40px}</style>                          <div><p class='context'>您正确回答了96% 的试次。</p><p class='context'>您的平均反应时为907毫秒。</p><p class='context'>恭喜您完成练习。现在请休息3~5分钟。</p><p class='context'>之后，按任意键进入正式实验。需要注意的是，正式实验将不再提供反应是否正确的反馈。</p><p class='footer' style='font-size: 35px; line-height:40px;'>请在进入正式实验实验之前将您的<span style='color: lightgreen;'>食指</span>放在电脑键盘的相应键位上进行按键。</p>","arrowright","","","","","","","","","","","","","","","","","","","","","","","","","",""
"","","","","","psychophysics","261","746298","0.0-9.0-0.0-0.0","692","","j","","","","","","","","","","","","","key","j","16.667706422017538","720","446","./1_3_Stimuli/C_ambi40.png","他人","Image","自我","Mismatch","j","true","Formal",""
"","","","","","psychophysics","262","748339","0.0-9.0-0.0-0.1","850","","j","","","","","","","","","","","","","key","j","16.667603305785356","720","446","./1_3_Stimuli/C_ambi40.png","朋友","Image","自我","Mismatch","j","true","Formal",""
"","","","","","psychophysics","263","750597","0.0-9.0-0.0-0.2","1105","","j","","","","","","","","","","","","","key","j","16.67119402985033","720","446","./1_3_Stimuli/T_ambi40.png","朋友","Image","他人","Mismatch","j","true","Formal",""
"","","","","","psychophysics","264","752698","0.0-9.0-0.0-0.3","946","","f","","","","","","","","","","","","","key","f","16.66559999999963","720","446","./1_3_Stimuli/S_ambi40.png","朋友","Word","朋友","Match","f","true","Formal",""
"","","","","","psychophysics","265","754738","0.0-9.0-0.0-0.4","886","","j","","","","","","","","","","","","","key","j","16.67487603305812","720","446","./1_3_Stimuli/S_ambi40.png","他人","Word","朋友","Mismatch","j","true","Formal",""
"","","","","","psychophysics","266","756600","0.0-9.0-0.0-0.5","705","","j","","","","","","","","","","","","","key","j","16.667567567567357","720","446","./1_3_Stimuli/C_ambi40.png","他人","Word","自我","Mismatch","j","true","Formal",""
"","","","","","psychophysics","267","758678","0.0-9.0-0.0-0.6","925","","f","","","","","","","","","","","","","key","f","16.667258064516055","720","446","./1_3_Stimuli/S_ambi40.png","朋友","Image","朋友","Match","f","true","Formal",""
"","","","","","psychophysics","268","760588","0.0-9.0-0.0-0.7","754","","f","","","","","","","","","","","","","key","f","16.667433628318953","720","446","./1_3_Stimuli/T_ambi40.png","他人","Word","他人","Match","f","true","Formal",""
"","","","","","psychophysics","269","763294","0.0-9.0-0.0-0.8","null","","null","","","","","","","","","","","","","key","null","16.665432098765002","720","446","./1_3_Stimuli/C_ambi40.png","朋友","Word","自我","Mismatch","j","false","Formal",""
"","","","","","psychophysics","270","765799","0.0-9.0-0.0-0.9","1215","","j","","","","","","","","","","","","","key","j","16.66751677852324","720","446","./1_3_Stimuli/T_ambi40.png","朋友","Word","他人","Mismatch","j","true","Formal",""
"","","","","","psychophysics","271","767779","0.0-9.0-0.0-0.10","821","","f","","","","","","","","","","","","","key","f","16.667288135593143","720","446","./1_3_Stimuli/S_ambi40.png","朋友","Word","朋友","Match","f","true","Formal",""
"","","","","","psychophysics","272","769928","0.0-9.0-0.0-0.11","995","","f","","","","","","","","","","","","","key","f","16.668437500000437","720","446","./1_3_Stimuli/T_ambi40.png","他人","Image","他人","Match","f","true","Formal",""
"","","","","","psychophysics","273","772111","0.0-9.0-0.0-0.12","1030","","j","","","","","","","","","","","","","key","j","16.663846153846514","720","446","./1_3_Stimuli/C_ambi40.png","自我","Image","自我","Match","f","false","Formal",""
"","","","","","psychophysics","274","774251","0.0-9.0-0.0-0.13","987","","f","","","","","","","","","","","","","key","f","16.66472440944915","720","446","./1_3_Stimuli/C_ambi40.png","自我","Image","自我","Match","f","true","Formal",""
"","","","","","psychophysics","275","776269","0.0-9.0-0.0-0.14","861","","f","","","","","","","","","","","","","key","f","16.667499999999805","720","446","./1_3_Stimuli/S_ambi40.png","朋友","Image","朋友","Match","f","true","Formal",""
"","","","","","psychophysics","276","778147","0.0-9.0-0.0-0.15","722","","f","","","","","","","","","","","","","key","f","16.667142857142608","720","446","./1_3_Stimuli/T_ambi40.png","他人","Image","他人","Match","f","true","Formal",""
"","","","","","psychophysics","277","780663","0.0-9.0-0.0-0.16","1363","","j","","","","","","","","","","","","","key","j","16.66733333333318","720","446","./1_3_Stimuli/S_ambi40.png","他人","Image","朋友","Mismatch","j","true","Formal",""
"","","","","","psychophysics","278","782670","0.0-9.0-0.0-0.17","856","","f","","","","","","","","","","","","","key","f","16.668739495798945","720","446","./1_3_Stimuli/C_ambi40.png","自我","Word","自我","Match","f","true","Formal",""
"","","","","","psychophysics","279","784759","0.0-9.0-0.0-0.18","934","","f","","","","","","","","","","","","","key","f","16.667359999999405","720","446","./1_3_Stimuli/T_ambi40.png","他人","Word","他人","Match","f","true","Formal",""
"","","","","","psychophysics","280","786734","0.0-9.0-0.0-0.19","818","","f","","","","","","","","","","","","","key","f","16.672991452991372","720","446","./1_3_Stimuli/C_ambi40.png","自我","Word","自我","Match","f","true","Formal",""
"","","","","","psychophysics","281","788835","0.0-9.0-0.0-0.20","946","","j","","","","","","","","","","","","","key","j","16.66495999999996","720","446","./1_3_Stimuli/S_ambi40.png","自我","Word","朋友","Mismatch","j","true","Formal",""
"","","","","","psychophysics","282","791286","0.0-9.0-0.0-0.21","1296","","j","","","","","","","","","","","","","key","j","16.667397260274388","720","446","./1_3_Stimuli/S_ambi40.png","自我","Image","朋友","Mismatch","j","true","Formal",""
"","","","","","psychophysics","283","794001","0.0-9.0-0.0-0.22","null","","null","","","","","","","","","","","","","key","null","16.66543209876572","720","446","./1_3_Stimuli/T_ambi40.png","自我","Word","他人","Mismatch","j","false","Formal",""
"","","","","","psychophysics","284","796708","0.0-9.0-0.0-0.23","null","","null","","","","","","","","","","","","","key","null","16.667453416148838","720","446","./1_3_Stimuli/T_ambi40.png","自我","Image","他人","Mismatch","j","false","Formal",""
"","","","","","psychophysics","285","799413","0.0-9.0-0.0-0.24","null","","null","","","","","","","","","","","","","key","null","16.663354037266647","720","446","./1_3_Stimuli/T_ambi40.png","朋友","Word","他人","Mismatch","j","false","Formal",""
"","","","","","psychophysics","286","801434","0.0-9.0-0.0-0.25","866","","j","","","","","","","","","","","","","key","j","16.662166666666355","720","446","./1_3_Stimuli/S_ambi40.png","他人","Word","朋友","Mismatch","j","true","Formal",""
"","","","","","psychophysics","287","803245","0.0-9.0-0.0-0.26","658","","j","","","","","","","","","","","","","key","j","16.66814814814845","720","446","./1_3_Stimuli/C_ambi40.png","朋友","Word","自我","Mismatch","j","true","Formal",""
"","","","","","psychophysics","288","805789","0.0-9.0-0.0-0.27","1388","","f","","","","","","","","","","","","","key","f","16.665430463576037","720","446","./1_3_Stimuli/S_ambi40.png","朋友","Word","朋友","Match","f","true","Formal",""
"","","","","","psychophysics","289","807971","0.0-9.0-0.0-0.28","1030","","f","","","","","","","","","","","","","key","f","16.667538461538676","720","446","./1_3_Stimuli/T_ambi40.png","他人","Word","他人","Match","f","true","Formal",""
"","","","","","psychophysics","290","810320","0.0-9.0-0.0-0.29","1144","","f","","","","","","","","","","","","","key","f","16.66742857142817","720","446","./1_3_Stimuli/T_ambi40.png","他人","Image","他人","Match","f","true","Formal",""
"","","","","","psychophysics","291","812147","0.0-9.0-0.0-0.30","674","","f","","","","","","","","","","","","","key","f","16.6717431192658","720","446","./1_3_Stimuli/T_ambi40.png","他人","Image","他人","Match","f","true","Formal",""
"","","","","","psychophysics","292","814037","0.0-9.0-0.0-0.31","732","","j","","","","","","","","","","","","","key","j","16.667321428571345","720","446","./1_3_Stimuli/T_ambi40.png","自我","Word","他人","Mismatch","j","true","Formal",""
"","","","","","psychophysics","293","816629","0.0-9.0-0.0-0.32","1318","","j","","","","","","","","","","","","","key","j","16.66967741935439","720","446","./1_3_Stimuli/S_ambi40.png","朋友","Image","朋友","Match","f","false","Formal",""
"","","","","","psychophysics","294","818550","0.0-9.0-0.0-0.33","771","","j","","","","","","","","","","","","","key","j","16.674561403508974","720","446","./1_3_Stimuli/S_ambi40.png","自我","Word","朋友","Mismatch","j","true","Formal",""
"","","","","","psychophysics","295","820326","0.0-9.0-0.0-0.34","621","","f","","","","","","","","","","","","","key","f","16.667358490567047","720","446","./1_3_Stimuli/S_ambi40.png","朋友","Image","朋友","Match","f","true","Formal",""
"","","","","","psychophysics","296","822350","0.0-9.0-0.0-0.35","873","","f","","","","","","","","","","","","","key","f","16.667333333332984","720","446","./1_3_Stimuli/C_ambi40.png","自我","Word","自我","Match","f","true","Formal",""
"","","","","","psychophysics","297","824515","0.0-9.0-0.0-0.36","1011","","j","","","","","","","","","","","","","key","j","16.66961240310081","720","446","./1_3_Stimuli/S_ambi40.png","他人","Image","朋友","Mismatch","j","true","Formal",""
"","","","","","psychophysics","298","826362","0.0-9.0-0.0-0.37","692","","f","","","","","","","","","","","","","key","f","16.667272727272938","720","446","./1_3_Stimuli/S_ambi40.png","朋友","Word","朋友","Match","f","true","Formal",""
"","","","","","psychophysics","299","828343","0.0-9.0-0.0-0.38","825","","f","","","","","","","","","","","","","key","f","16.67355932203374","720","446","./1_3_Stimuli/T_ambi40.png","他人","Word","他人","Match","f","true","Formal",""
"","","","","","psychophysics","300","830149","0.0-9.0-0.0-0.39","620","","j","","","","","","","","","","","","","key","j","16.674018691588742","720","446","./1_3_Stimuli/C_ambi40.png","自我","Image","自我","Match","f","false","Formal",""
"","","","","","psychophysics","301","831866","0.0-9.0-0.0-0.40","561","","j","","","","","","","","","","","","","key","j","16.669019607843047","720","446","./1_3_Stimuli/C_ambi40.png","自我","Word","自我","Match","f","false","Formal",""
"","","","","","psychophysics","302","833499","0.0-9.0-0.0-0.41","480","","f","","","","","","","","","","","","","key","f","16.66329896907303","720","446","./1_3_Stimuli/C_ambi40.png","自我","Image","自我","Match","f","true","Formal",""
"","","","","","psychophysics","303","835622","0.0-9.0-0.0-0.42","971","","j","","","","","","","","","","","","","key","j","16.66730158730218","720","446","./1_3_Stimuli/S_ambi40.png","自我","Image","朋友","Mismatch","j","true","Formal",""
"","","","","","psychophysics","304","838001","0.0-9.0-0.0-0.43","1227","","j","","","","","","","","","","","","","key","j","16.667323943662037","720","446","./1_3_Stimuli/C_ambi40.png","他人","Word","自我","Mismatch","j","true","Formal",""
"","","","","","psychophysics","305","839976","0.0-9.0-0.0-0.44","821","","j","","","","","","","","","","","","","key","j","16.667288135593143","720","446","./1_3_Stimuli/T_ambi40.png","自我","Image","他人","Mismatch","j","true","Formal",""
"","","","","","psychophysics","306","842428","0.0-9.0-0.0-0.45","1295","","j","","","","","","","","","","","","","key","j","16.673972602739884","720","446","./1_3_Stimuli/C_ambi40.png","他人","Image","自我","Mismatch","j","true","Formal",""
"","","","","","psychophysics","307","844444","0.0-9.0-0.0-0.46","800","","j","","","","","","","","","","","","","key","j","16.669333333332908","720","446","./1_3_Stimuli/T_ambi40.png","朋友","Image","他人","Mismatch","j","true","Formal",""
"","","","","","psychophysics","308","846429","0.0-9.0-0.0-0.47","771","","j","","","","","","","","","","","","","key","j","16.675084745762003","720","446","./1_3_Stimuli/C_ambi40.png","朋友","Image","自我","Mismatch","j","true","Formal",""
"","","","","","psychophysics","309","848398","0.0-9.0-0.0-0.48","724","","j","","","","","","","","","","","","","key","j","16.667521367521168","720","446","./1_3_Stimuli/S_ambi40.png","朋友","Image","朋友","Match","f","false","Formal",""
"","","","","","psychophysics","310","850392","0.0-9.0-0.0-0.49","712","","j","","","","","","","","","","","","","key","j","16.667394957983547","720","446","./1_3_Stimuli/S_ambi40.png","自我","Word","朋友","Mismatch","j","true","Formal",""
"","","","","","psychophysics","311","852631","0.0-9.0-0.0-0.50","1087","","f","","","","","","","","","","","","","key","f","16.667518796991818","720","446","./1_3_Stimuli/S_ambi40.png","朋友","Word","朋友","Match","f","true","Formal",""
"","","","","","psychophysics","312","854578","0.0-9.0-0.0-0.51","791","","j","","","","","","","","","","","","","key","j","16.659137931034163","720","446","./1_3_Stimuli/T_ambi40.png","自我","Word","他人","Mismatch","j","true","Formal",""
"","","","","","psychophysics","313","857285","0.0-9.0-0.0-0.52","null","","null","","","","","","","","","","","","","key","null","16.671677018633627","720","446","./1_3_Stimuli/T_ambi40.png","自我","Image","他人","Mismatch","j","false","Formal",""
"","","","","","psychophysics","314","859199","0.0-9.0-0.0-0.53","757","","f","","","","","","","","","","","","","key","f","16.667368421053286","720","446","./1_3_Stimuli/C_ambi40.png","自我","Image","自我","Match","f","true","Formal",""
"","","","","","psychophysics","315","861238","0.0-9.0-0.0-0.54","883","","f","","","","","","","","","","","","","key","f","16.667438016529","720","446","./1_3_Stimuli/T_ambi40.png","他人","Word","他人","Match","f","true","Formal",""
"","","","","","psychophysics","316","863370","0.0-9.0-0.0-0.55","977","","f","","","","","","","","","","","","","key","f","16.667401574803222","720","446","./1_3_Stimuli/T_ambi40.png","他人","Image","他人","Match","f","true","Formal",""
"","","","","","psychophysics","317","865149","0.0-9.0-0.0-0.56","625","","j","","","","","","","","","","","","","key","j","16.65943396226437","720","446","./1_3_Stimuli/S_ambi40.png","自我","Image","朋友","Mismatch","j","true","Formal",""
"","","","","","psychophysics","318","867502","0.0-9.0-0.0-0.57","1199","","j","","","","","","","","","","","","","key","j","16.660285714286147","720","446","./1_3_Stimuli/S_ambi40.png","他人","Image","朋友","Mismatch","j","true","Formal",""
"","","","","","psychophysics","319","869496","0.0-9.0-0.0-0.58","841","","j","","","","","","","","","","","","","key","j","16.672268907563026","720","446","./1_3_Stimuli/C_ambi40.png","朋友","Image","自我","Mismatch","j","true","Formal",""
"","","","","","psychophysics","320","871285","0.0-9.0-0.0-0.59","633","","j","","","","","","","","","","","","","key","j","16.664716981131726","720","446","./1_3_Stimuli/C_ambi40.png","他人","Image","自我","Mismatch","j","true","Formal",""
"","","","","","psychophysics","321","873694","0.0-9.0-0.0-0.60","1253","","f","","","","","","","","","","","","","key","f","16.66152777777784","720","446","./1_3_Stimuli/T_ambi40.png","他人","Image","他人","Match","f","true","Formal",""
"","","","","","psychophysics","322","875660","0.0-9.0-0.0-0.61","809","","j","","","","","","","","","","","","","key","j","16.668376068376666","720","446","./1_3_Stimuli/C_ambi40.png","他人","Word","自我","Mismatch","j","true","Formal",""
"","","","","","psychophysics","323","877663","0.0-9.0-0.0-0.62","849","","j","","","","","","","","","","","","","key","j","16.667394957983547","720","446","./1_3_Stimuli/T_ambi40.png","朋友","Image","他人","Mismatch","j","true","Formal",""
"","","","","","psychophysics","324","879542","0.0-9.0-0.0-0.63","727","","f","","","","","","","","","","","","","key","f","16.667321428571345","720","446","./1_3_Stimuli/C_ambi40.png","自我","Word","自我","Match","f","true","Formal",""
"","","","","","psychophysics","325","881411","0.0-9.0-0.0-0.64","717","","f","","","","","","","","","","","","","key","f","16.666486486486317","720","446","./1_3_Stimuli/C_ambi40.png","自我","Word","自我","Match","f","true","Formal",""
"","","","","","psychophysics","326","883294","0.0-9.0-0.0-0.65","729","","j","","","","","","","","","","","","","key","j","16.659821428571636","720","446","./1_3_Stimuli/T_ambi40.png","朋友","Word","他人","Mismatch","j","true","Formal",""
"","","","","","psychophysics","327","885098","0.0-9.0-0.0-0.66","650","","f","","","","","","","","","","","","","key","f","16.67551401869185","720","446","./1_3_Stimuli/C_ambi40.png","自我","Image","自我","Match","f","true","Formal",""
"","","","","","psychophysics","328","887047","0.0-9.0-0.0-0.67","794","","f","","","","","","","","","","","","","key","f","16.665517241379913","720","446","./1_3_Stimuli/S_ambi40.png","朋友","Word","朋友","Match","f","true","Formal",""
"","","","","","psychophysics","329","888870","0.0-9.0-0.0-0.68","610","","f","","","","","","","","","","","","","key","f","16.671296296296298","720","446","./1_3_Stimuli/S_ambi40.png","朋友","Image","朋友","Match","f","true","Formal",""
"","","","","","psychophysics","330","890688","0.0-9.0-0.0-0.69","665","","f","","","","","","","","","","","","","key","f","16.66740740740702","720","446","./1_3_Stimuli/T_ambi40.png","他人","Word","他人","Match","f","true","Formal",""
"","","","","","psychophysics","331","892754","0.0-9.0-0.0-0.70","911","","j","","","","","","","","","","","","","key","j","16.665853658536776","720","446","./1_3_Stimuli/S_ambi40.png","他人","Word","朋友","Mismatch","j","true","Formal",""
"","","","","","psychophysics","332","894909","0.0-9.0-0.0-0.71","1002","","j","","","","","","","","","","","","","key","j","16.667441860464937","720","446","./1_3_Stimuli/C_ambi40.png","朋友","Word","自我","Mismatch","j","true","Formal",""
"","","","","","psychophysics","333","897197","0.0-9.0-0.0-0.72","1135","","j","","","","","","","","","","","","","key","j","16.667647058823015","720","446","./1_3_Stimuli/S_ambi40.png","自我","Image","朋友","Mismatch","j","true","Formal",""
"","","","","","psychophysics","334","899143","0.0-9.0-0.0-0.73","665","","f","","","","","","","","","","","","","key","f","16.66896551724118","720","446","./1_3_Stimuli/T_ambi40.png","他人","Image","他人","Match","f","true","Formal",""
"","","","","","psychophysics","335","901013","0.0-9.0-0.0-0.74","716","","f","","","","","","","","","","","","","key","f","16.67027027027048","720","446","./1_3_Stimuli/C_ambi40.png","自我","Image","自我","Match","f","true","Formal",""
"","","","","","psychophysics","336","902797","0.0-9.0-0.0-0.75","629","","j","","","","","","","","","","","","","key","j","16.666981132075033","720","446","./1_3_Stimuli/T_ambi40.png","自我","Image","他人","Mismatch","j","true","Formal",""
"","","","","","psychophysics","337","904830","0.0-9.0-0.0-0.76","878","","f","","","","","","","","","","","","","key","f","16.6671074380163","720","446","./1_3_Stimuli/T_ambi40.png","他人","Image","他人","Match","f","true","Formal",""
"","","","","","psychophysics","338","907046","0.0-9.0-0.0-0.77","1064","","j","","","","","","","","","","","","","key","j","16.6639393939395","720","446","./1_3_Stimuli/S_ambi40.png","自我","Word","朋友","Mismatch","j","true","Formal",""
"","","","","","psychophysics","339","908992","0.0-9.0-0.0-0.78","791","","j","","","","","","","","","","","","","key","j","16.66758620689607","720","446","./1_3_Stimuli/C_ambi40.png","朋友","Word","自我","Mismatch","j","true","Formal",""
"","","","","","psychophysics","340","911264","0.0-9.0-0.0-0.79","1115","","f","","","","","","","","","","","","","key","f","16.667407407407236","720","446","./1_3_Stimuli/S_ambi40.png","他人","Word","朋友","Mismatch","j","false","Formal",""
"","","","","","psychophysics","341","913200","0.0-9.0-0.0-0.80","781","","j","","","","","","","","","","","","","key","j","16.670434782608492","720","446","./1_3_Stimuli/C_ambi40.png","他人","Image","自我","Mismatch","j","true","Formal",""
"","","","","","psychophysics","342","915194","0.0-9.0-0.0-0.81","840","","f","","","","","","","","","","","","","key","f","16.66369747899144","720","446","./1_3_Stimuli/S_ambi40.png","朋友","Word","朋友","Match","f","true","Formal",""
"","","","","","psychophysics","343","917632","0.0-9.0-0.0-0.82","1286","","j","","","","","","","","","","","","","key","j","16.66731034482765","720","446","./1_3_Stimuli/C_ambi40.png","自我","Image","自我","Match","f","false","Formal",""
"","","","","","psychophysics","344","920288","0.0-9.0-0.0-0.83","1501","","j","","","","","","","","","","","","","key","j","16.667721518987342","720","446","./1_3_Stimuli/C_ambi40.png","他人","Word","自我","Mismatch","j","true","Formal",""
"","","","","","psychophysics","345","922282","0.0-9.0-0.0-0.84","843","","f","","","","","","","","","","","","","key","f","16.660504201680478","720","446","./1_3_Stimuli/T_ambi40.png","他人","Word","他人","Match","f","true","Formal",""
"","","","","","psychophysics","346","924205","0.0-9.0-0.0-0.85","769","","f","","","","","","","","","","","","","key","f","16.661052631578826","720","446","./1_3_Stimuli/C_ambi40.png","自我","Word","自我","Match","f","true","Formal",""
"","","","","","psychophysics","347","926598","0.0-9.0-0.0-0.86","1237","","f","","","","","","","","","","","","","key","f","16.667692307692178","720","446","./1_3_Stimuli/S_ambi40.png","朋友","Image","朋友","Match","f","true","Formal",""
"","","","","","psychophysics","348","928688","0.0-9.0-0.0-0.87","934","","f","","","","","","","","","","","","","key","f","16.666774193547862","720","446","./1_3_Stimuli/S_ambi40.png","他人","Image","朋友","Mismatch","j","false","Formal",""
"","","","","","psychophysics","349","930762","0.0-9.0-0.0-0.88","828","","j","","","","","","","","","","","","","key","j","16.66516129032243","720","446","./1_3_Stimuli/T_ambi40.png","朋友","Word","他人","Mismatch","j","true","Formal",""
"","","","","","psychophysics","350","932946","0.0-9.0-0.0-0.89","1002","","f","","","","","","","","","","","","","key","f","16.66030769230744","720","446","./1_3_Stimuli/T_ambi40.png","他人","Word","他人","Match","f","true","Formal",""
"","","","","","psychophysics","351","934861","0.0-9.0-0.0-0.90","759","","f","","","","","","","","","","","","","key","f","16.667368421052263","720","446","./1_3_Stimuli/S_ambi40.png","朋友","Word","朋友","Match","f","true","Formal",""
"","","","","","psychophysics","352","937032","0.0-9.0-0.0-0.91","1015","","j","","","","","","","","","","","","","key","j","16.66759689922477","720","446","./1_3_Stimuli/T_ambi40.png","朋友","Image","他人","Mismatch","j","true","Formal",""
"","","","","","psychophysics","353","939031","0.0-9.0-0.0-0.92","843","","f","","","","","","","","","","","","","key","f","16.665378151259958","720","446","./1_3_Stimuli/C_ambi40.png","自我","Word","自我","Match","f","true","Formal",""
"","","","","","psychophysics","354","941049","0.0-9.0-0.0-0.93","862","","j","","","","","","","","","","","","","key","j","16.667333333332984","720","446","./1_3_Stimuli/C_ambi40.png","朋友","Image","自我","Mismatch","j","true","Formal",""
"","","","","","psychophysics","355","943752","0.0-9.0-0.0-0.94","null","","null","","","","","","","","","","","","","key","null","16.672546583851105","720","446","./1_3_Stimuli/T_ambi40.png","自我","Word","他人","Mismatch","j","false","Formal",""
"","","","","","psychophysics","356","945552","0.0-9.0-0.0-0.95","645","","f","","","","","","","","","","","","","key","f","16.666542056075375","720","446","./1_3_Stimuli/S_ambi40.png","朋友","Image","朋友","Match","f","true","Formal",""
"","","","","","psychophysics","357","947365","0.0-9.0-0.0-0.96","661","","f","","","","","","","","","","","","","key","f","16.66740740740702","720","446","./1_3_Stimuli/S_ambi40.png","朋友","Word","朋友","Match","f","true","Formal",""
"","","","","","psychophysics","358","949196","0.0-9.0-0.0-0.97","675","","f","","","","","","","","","","","","","key","f","16.667522935779903","720","446","./1_3_Stimuli/C_ambi40.png","自我","Image","自我","Match","f","true","Formal",""
"","","","","","psychophysics","359","951739","0.0-9.0-0.0-0.98","1387","","j","","","","","","","","","","","","","key","j","16.667417218543232","720","446","./1_3_Stimuli/S_ambi40.png","朋友","Image","朋友","Match","f","false","Formal",""
"","","","","","psychophysics","360","953776","0.0-9.0-0.0-0.99","881","","j","","","","","","","","","","","","","key","j","16.667377049179716","720","446","./1_3_Stimuli/C_ambi40.png","他人","Word","自我","Mismatch","j","true","Formal",""
"","","","","","psychophysics","361","955651","0.0-9.0-0.0-0.100","718","","f","","","","","","","","","","","","","key","f","16.672612612612905","720","446","./1_3_Stimuli/C_ambi40.png","自我","Word","自我","Match","f","true","Formal",""
"","","","","","psychophysics","362","957593","0.0-9.0-0.0-0.101","788","","j","","","","","","","","","","","","","key","j","16.666551724138493","720","446","./1_3_Stimuli/T_ambi40.png","自我","Image","他人","Mismatch","j","true","Formal",""
"","","","","","psychophysics","363","959383","0.0-9.0-0.0-0.102","634","","f","","","","","","","","","","","","","key","f","16.667358490567047","720","446","./1_3_Stimuli/C_ambi40.png","自我","Image","自我","Match","f","true","Formal",""
"","","","","","psychophysics","364","961961","0.0-9.0-0.0-0.103","1422","","j","","","","","","","","","","","","","key","j","16.667402597402777","720","446","./1_3_Stimuli/T_ambi40.png","他人","Image","他人","Match","f","false","Formal",""
"","","","","","psychophysics","365","963992","0.0-9.0-0.0-0.104","874","","f","","","","","","","","","","","","","key","f","16.667438016529","720","446","./1_3_Stimuli/T_ambi40.png","他人","Word","他人","Match","f","true","Formal",""
"","","","","","psychophysics","366","966082","0.0-9.0-0.0-0.105","938","","j","","","","","","","","","","","","","key","j","16.67129032258057","720","446","./1_3_Stimuli/T_ambi40.png","朋友","Word","他人","Mismatch","j","true","Formal",""
"","","","","","psychophysics","367","968012","0.0-9.0-0.0-0.106","777","","f","","","","","","","","","","","","","key","f","16.66330434782633","720","446","./1_3_Stimuli/T_ambi40.png","他人","Image","他人","Match","f","true","Formal",""
"","","","","","psychophysics","368","970479","0.0-9.0-0.0-0.107","1314","","j","","","","","","","","","","","","","key","j","16.663945578231925","720","446","./1_3_Stimuli/S_ambi40.png","他人","Word","朋友","Mismatch","j","true","Formal",""
"","","","","","psychophysics","369","972177","0.0-9.0-0.0-0.108","450","","f","","","","","","","","","","","","","key","f","16.667326732673498","720","446","./1_3_Stimuli/S_ambi40.png","朋友","Word","朋友","Match","f","true","Formal",""
"","","","","","psychophysics","370","973927","0.0-9.0-0.0-0.109","597","","f","","","","","","","","","","","","","key","f","16.667500000000402","720","446","./1_3_Stimuli/S_ambi40.png","朋友","Image","朋友","Match","f","true","Formal",""
"","","","","","psychophysics","371","975727","0.0-9.0-0.0-0.110","648","","j","","","","","","","","","","","","","key","j","16.66411214953323","720","446","./1_3_Stimuli/S_ambi40.png","自我","Image","朋友","Mismatch","j","true","Formal",""
"","","","","","psychophysics","372","977681","0.0-9.0-0.0-0.111","798","","j","","","","","","","","","","","","","key","j","16.667413793102806","720","446","./1_3_Stimuli/T_ambi40.png","朋友","Image","他人","Mismatch","j","true","Formal",""
"","","","","","psychophysics","373","979467","0.0-9.0-0.0-0.112","630","","j","","","","","","","","","","","","","key","j","16.66358490566007","720","446","./1_3_Stimuli/C_ambi40.png","朋友","Image","自我","Mismatch","j","true","Formal",""
"","","","","","psychophysics","374","981748","0.0-9.0-0.0-0.113","1128","","j","","","","","","","","","","","","","key","j","16.662352941176163","720","446","./1_3_Stimuli/C_ambi40.png","朋友","Word","自我","Mismatch","j","true","Formal",""
"","","","","","psychophysics","375","983616","0.0-9.0-0.0-0.114","706","","f","","","","","","","","","","","","","key","f","16.667387387388057","720","446","./1_3_Stimuli/C_ambi40.png","自我","Word","自我","Match","f","true","Formal",""
"","","","","","psychophysics","376","986318","0.0-9.0-0.0-0.115","null","","null","","","","","","","","","","","","","key","null","16.66732919254696","720","446","./1_3_Stimuli/S_ambi40.png","他人","Image","朋友","Mismatch","j","false","Formal",""
"","","","","","psychophysics","377","988370","0.0-9.0-0.0-0.116","900","","j","","","","","","","","","","","","","key","j","16.667540983607054","720","446","./1_3_Stimuli/C_ambi40.png","他人","Image","自我","Mismatch","j","true","Formal",""
"","","","","","psychophysics","378","990126","0.0-9.0-0.0-0.117","603","","f","","","","","","","","","","","","","key","f","16.667619047618825","720","446","./1_3_Stimuli/T_ambi40.png","他人","Word","他人","Match","f","true","Formal",""
"","","","","","psychophysics","379","991876","0.0-9.0-0.0-0.118","593","","j","","","","","","","","","","","","","key","j","16.66038461538399","720","446","./1_3_Stimuli/T_ambi40.png","自我","Word","他人","Mismatch","j","true","Formal",""
"","","","","","psychophysics","380","993777","0.0-9.0-0.0-0.119","750","","j","","","","","","","","","","","","","key","j","16.66247787610607","720","446","./1_3_Stimuli/S_ambi40.png","自我","Word","朋友","Mismatch","j","true","Formal",""
"","","","","","html-keyboard-response","381","997590","0.0-9.0-1.0","3811","<style>.context{color:white; font-size: 35px; line-height:40px}</style>                        <div><p class='context'>您正确回答了86% 的试次。</p><p class='context'>您的平均反应时为858毫秒。</p><p> <div style = 'color: green'><按任意键进入休息></div></p>"," ","","","","","","","","","","","","","","","","","","","","","","","","","",""
"","","","","","html-button-response","382","1038511","0.0-9.0-2.0","40920","
                  <p>您当前还剩余5组实验</p>
                  <p>现在是休息时间，当您结束休息后，您可以点击 结束休息 按钮 继续</p>
                  <p>建议休息时间还剩余<span id=""iii"">60</span>秒</p>","0","","","","","","","","","","","","","","","","","","","","","","","","","",""
"","","","","","psychophysics","383","1040468","0.0-9.0-0.1-0.120","800","","j","","","","","","","","","","","","","key","j","16.667478260869647","720","446","./1_3_Stimuli/S_ambi40.png","自我","Word","朋友","Mismatch","j","true","Formal",""
"","","","","","psychophysics","384","1042231","0.0-9.0-0.1-0.121","535","","f","","","","","","","","","","","","","key","f","16.66780952380948","720","446","./1_3_Stimuli/S_ambi40.png","朋友","Image","朋友","Match","f","true","Formal",""
"","","","","","psychophysics","385","1044035","0.0-9.0-0.1-0.122","650","","f","","","","","","","","","","","","","key","f","16.66747663551332","720","446","./1_3_Stimuli/T_ambi40.png","他人","Image","他人","Match","f","true","Formal",""
"","","","","","psychophysics","386","1045962","0.0-9.0-0.1-0.123","770","","j","","","","","","","","","","","","","key","j","16.667368421052263","720","446","./1_3_Stimuli/C_ambi40.png","朋友","Image","自我","Mismatch","j","true","Formal",""
"","","","","","psychophysics","387","1047950","0.0-9.0-0.1-0.124","838","","j","","","","","","","","","","","","","key","j","16.66949152542373","720","446","./1_3_Stimuli/C_ambi40.png","朋友","Word","自我","Mismatch","j","true","Formal",""
"","","","","","psychophysics","388","1050281","0.0-9.0-0.1-0.125","1154","","j","","","","","","","","","","","","","key","j","16.66517985611484","720","446","./1_3_Stimuli/S_ambi40.png","他人","Image","朋友","Mismatch","j","true","Formal",""
"","","","","","psychophysics","389","1052162","0.0-9.0-0.1-0.126","729","","f","","","","","","","","","","","","","key","f","16.667321428571345","720","446","./1_3_Stimuli/S_ambi40.png","朋友","Image","朋友","Match","f","true","Formal",""
"","","","","","psychophysics","390","1053885","0.0-9.0-0.1-0.127","566","","j","","","","","","","","","","","","","key","j","16.662745098037846","720","446","./1_3_Stimuli/C_ambi40.png","他人","Word","自我","Mismatch","j","true","Formal",""
"","","","","","psychophysics","391","1055952","0.0-9.0-0.1-0.128","912","","j","","","","","","","","","","","","","key","j","16.67024390243857","720","446","./1_3_Stimuli/T_ambi40.png","朋友","Image","他人","Mismatch","j","true","Formal",""
"","","","","","psychophysics","392","1057875","0.0-9.0-0.1-0.129","766","","f","","","","","","","","","","","","","key","f","16.667304347826008","720","446","./1_3_Stimuli/T_ambi40.png","他人","Word","他人","Match","f","true","Formal",""
"","","","","","psychophysics","393","1059808","0.0-9.0-0.1-0.130","779","","j","","","","","","","","","","","","","key","j","16.667130434782365","720","446","./1_3_Stimuli/T_ambi40.png","朋友","Word","他人","Mismatch","j","true","Formal",""
"","","","","","psychophysics","394","1062046","0.0-9.0-0.1-0.131","1083","","j","","","","","","","","","","","","","key","j","16.6673684210527","720","446","./1_3_Stimuli/C_ambi40.png","他人","Image","自我","Mismatch","j","true","Formal",""
"","","","","","psychophysics","395","1063732","0.0-9.0-0.1-0.132","529","","f","","","","","","","","","","","","","key","f","16.66739999999991","720","446","./1_3_Stimuli/C_ambi40.png","自我","Word","自我","Match","f","true","Formal",""
"","","","","","psychophysics","396","1065510","0.0-9.0-0.1-0.133","624","","f","","","","","","","","","","","","","key","f","16.663584905661168","720","446","./1_3_Stimuli/C_ambi40.png","自我","Image","自我","Match","f","true","Formal",""
"","","","","","psychophysics","397","1067529","0.0-9.0-0.1-0.134","865","","f","","","","","","","","","","","","","key","f","16.665833333334497","720","446","./1_3_Stimuli/T_ambi40.png","他人","Image","他人","Match","f","true","Formal",""
"","","","","","psychophysics","398","1069248","0.0-9.0-0.1-0.135","567","","j","","","","","","","","","","","","","key","j","16.665882352942727","720","446","./1_3_Stimuli/C_ambi40.png","自我","Image","自我","Match","f","false","Formal",""
"","","","","","psychophysics","399","1071209","0.0-9.0-0.1-0.136","805","","f","","","","","","","","","","","","","key","f","16.667350427351064","720","446","./1_3_Stimuli/T_ambi40.png","他人","Word","他人","Match","f","true","Formal",""
"","","","","","psychophysics","400","1072967","0.0-9.0-0.1-0.137","603","","j","","","","","","","","","","","","","key","j","16.667307692309034","720","446","./1_3_Stimuli/T_ambi40.png","自我","Image","他人","Mismatch","j","true","Formal",""
"","","","","","psychophysics","401","1074892","0.0-9.0-0.1-0.138","770","","f","","","","","","","","","","","","","key","f","16.667478260869647","720","446","./1_3_Stimuli/S_ambi40.png","朋友","Word","朋友","Match","f","true","Formal",""
"","","","","","psychophysics","402","1076749","0.0-9.0-0.1-0.139","704","","j","","","","","","","","","","","","","key","j","16.66690909091002","720","446","./1_3_Stimuli/S_ambi40.png","自我","Image","朋友","Mismatch","j","true","Formal",""
"","","","","","psychophysics","403","1078966","0.0-9.0-0.1-0.140","1042","","f","","","","","","","","","","","","","key","f","16.667575757576603","720","446","./1_3_Stimuli/S_ambi40.png","朋友","Word","朋友","Match","f","true","Formal",""
"","","","","","psychophysics","404","1080743","0.0-9.0-0.1-0.141","621","","j","","","","","","","","","","","","","key","j","16.663207547170252","720","446","./1_3_Stimuli/C_ambi40.png","自我","Word","自我","Match","f","false","Formal",""
"","","","","","psychophysics","405","1082691","0.0-9.0-0.1-0.142","758","","j","","","","","","","","","","","","","key","j","16.664137931034805","720","446","./1_3_Stimuli/S_ambi40.png","他人","Word","朋友","Mismatch","j","true","Formal",""
"","","","","","psychophysics","406","1084810","0.0-9.0-0.1-0.143","868","","j","","","","","","","","","","","","","key","j","16.66730158730218","720","446","./1_3_Stimuli/T_ambi40.png","自我","Word","他人","Mismatch","j","true","Formal",""
"","","","","","psychophysics","407","1086996","0.0-9.0-0.1-0.144","1030","","j","","","","","","","","","","","","","key","j","16.670461538460895","720","446","./1_3_Stimuli/T_ambi40.png","自我","Image","他人","Mismatch","j","true","Formal",""
"","","","","","psychophysics","408","1088943","0.0-9.0-0.1-0.145","791","","f","","","","","","","","","","","","","key","f","16.667413793104814","720","446","./1_3_Stimuli/S_ambi40.png","朋友","Image","朋友","Match","f","true","Formal",""
"","","","","","psychophysics","409","1090680","0.0-9.0-0.1-0.146","584","","j","","","","","","","","","","","","","key","j","16.667378640776608","720","446","./1_3_Stimuli/S_ambi40.png","自我","Image","朋友","Mismatch","j","true","Formal",""
"","","","","","psychophysics","410","1092661","0.0-9.0-0.1-0.147","824","","f","","","","","","","","","","","","","key","f","16.667457627118722","720","446","./1_3_Stimuli/T_ambi40.png","他人","Image","他人","Match","f","true","Formal",""
"","","","","","psychophysics","411","1094435","0.0-9.0-0.1-0.148","596","","j","","","","","","","","","","","","","key","j","16.67142857142857","720","446","./1_3_Stimuli/S_ambi40.png","他人","Word","朋友","Mismatch","j","true","Formal",""
"","","","","","psychophysics","412","1096529","0.0-9.0-0.1-0.149","940","","j","","","","","","","","","","","","","key","j","16.67311999999918","720","446","./1_3_Stimuli/T_ambi40.png","朋友","Image","他人","Mismatch","j","true","Formal",""
"","","","","","psychophysics","413","1098596","0.0-9.0-0.1-0.150","912","","j","","","","","","","","","","","","","key","j","16.666666666666668","720","446","./1_3_Stimuli/S_ambi40.png","他人","Image","朋友","Mismatch","j","true","Formal",""
