"success","timeout","failed_images","failed_audio","failed_video","trial_type","trial_index","time_elapsed","internal_node_id","rt","stimulus","response","value","item_width_mm","item_height_mm","item_width_px","px2mm","view_dist_mm","item_width_deg","px2deg","scale_factor","win_width_deg","win_height_deg","view_history","response_type","key_press","avg_frame_time","center_x","center_y","image","word","target","valence","matchness","correct_response","correct","exp_condition"
"true","false","[]","[]","[]","preload","0","10","0.0-0.0","","","","","","","","","","","","","","","","","","","","","","","","","","","",""
"","","","","","html-keyboard-response","1","4551","0.0-1.0","4541","
     <p>您好，欢迎参加本次实验。</p>
     <p>为充分保障您的权利，请确保您已经知晓并同意《参与实验同意书》以及《数据公开知情同意书》。</p>
     <p>如果您未见过上述内容，请咨询实验员。</p>
     <p>如果您选择继续实验，则表示您已经清楚两份知情同意书的内容并同意。</p>
     <p> <div style = ""color: green""><按任意键至下页></div> </p>
     ","z","","","","","","","","","","","","","","","","","","","","","","","","",""
"","","","","","html-keyboard-response","2","5357","0.0-2.0-0.0","806","
      <p>本实验首先需要您填写一些基本个人信息。</p>
      <p> <div style = ""color: green""><按任意键至下页></div></p>
      ","z","","","","","","","","","","","","","","","","","","","","","","","","",""
"","","","","","call-function","3","5358","0.0-2.0-1.0","","","","","","","","","","","","","","","","","","","","","","","","","","","",""
"","","","","","survey-html-form","4","11005","0.0-2.0-2.0","5647","","{""Q0"":""1019""}","","","","","","","","","","","","","","","","","","","","","","","","",""
"","","","","","html-button-response","5","11757","0.0-2.0-3.0","751","<p style = 'color : white'>您的性别</p>","1","","","","","","","","","","","","","","","","","","","","","","","","",""
"","","","","","survey-html-form","6","16651","0.0-2.0-4.0","4893","","{""Q0"":""2003""}","","","","","","","","","","","","","","","","","","","","","","","","",""
"","","","","","survey-html-form","7","18715","0.0-2.0-5.0","2063","","{""Q0"":""5""}","","","","","","","","","","","","","","","","","","","","","","","","",""
"","","","","","virtual-chinrest","8","77343","0.0-3.0","58626","","","","85.6","53.98","371.5513957182516","4.338284762505722","659.08","7.431027914365032","50","0.9473790276565736","23.7","11.96","","","","","","","","","","","","","",""
"true","","","","","fullscreen","9","79449","0.0-4.0","","","","","","","","","","","","","","","","","","","","","","","","","","","",""
"","","","","","instructions","10","113554","0.0-5.0","34104","","","","","","","","","","","","","","[{""page_index"":0,""viewing_time"":2016},{""page_index"":1,""viewing_time"":28200},{""page_index"":2,""viewing_time"":1785},{""page_index"":3,""viewing_time"":2103}]","","","","","","","","","","","","",""
"","","","","","html-keyboard-response","11","117214","0.0-6.0","null","<count-down title=""""></count-down>","null","","","","","","","","","","","","","","","","","","","","","","","","",""
"","","","","","psychophysics","12","119670","0.0-7.0-0.0-0.0","1302","","j","","","","","","","","","","","","","key","j","16.684678082191805","640","356","./1_3_Stimuli/S_ambi40.png","朋友","Image","朋友","Match","j","true","Practice"
"","","","","","html-keyboard-response","13","119976","0.0-7.0-0.0-1.0","null","<span style='color:GreenYellow; font-size: 70px;'>正确! </span>","null","","","","","","","","","","","","","","","","","","","","","","","","","feedback"
"","","","","","psychophysics","14","122034","0.0-7.0-0.0-0.1","899","","f","","","","","","","","","","","","","key","f","16.683852459016336","640","356","./1_3_Stimuli/S_ambi40.png","自我","Image","朋友","Mismatch","f","true","Practice"
"","","","","","html-keyboard-response","15","122342","0.0-7.0-0.0-1.1","null","<span style='color:GreenYellow; font-size: 70px;'>正确! </span>","null","","","","","","","","","","","","","","","","","","","","","","","","","feedback"
"","","","","","psychophysics","16","124191","0.0-7.0-0.0-0.2","694","","j","","","","","","","","","","","","","key","j","16.685909090909064","640","356","./1_3_Stimuli/T_ambi40.png","自我","Word","自我","Match","j","true","Practice"
"","","","","","html-keyboard-response","17","124497","0.0-7.0-0.0-1.2","null","<span style='color:GreenYellow; font-size: 70px;'>正确! </span>","null","","","","","","","","","","","","","","","","","","","","","","","","","feedback"
"","","","","","psychophysics","18","126550","0.0-7.0-0.0-0.3","898","","j","","","","","","","","","","","","","key","j","16.68636065573774","640","356","./1_3_Stimuli/S_ambi40.png","朋友","Image","朋友","Match","j","true","Practice"
"","","","","","html-keyboard-response","19","126854","0.0-7.0-0.0-1.3","null","<span style='color:GreenYellow; font-size: 70px;'>正确! </span>","null","","","","","","","","","","","","","","","","","","","","","","","","","feedback"
"","","","","","psychophysics","20","128630","0.0-7.0-0.0-0.4","621","","f","","","","","","","","","","","","","key","f","16.67477142857152","640","356","./1_3_Stimuli/S_ambi40.png","自我","Word","朋友","Mismatch","f","true","Practice"
"","","","","","html-keyboard-response","21","128935","0.0-7.0-0.0-1.4","null","<span style='color:GreenYellow; font-size: 70px;'>正确! </span>","null","","","","","","","","","","","","","","","","","","","","","","","","","feedback"
"","","","","","psychophysics","22","130760","0.0-7.0-0.0-0.5","671","","j","","","","","","","","","","","","","key","j","16.685268518518434","640","356","./1_3_Stimuli/T_ambi40.png","自我","Image","自我","Match","j","true","Practice"
"","","","","","html-keyboard-response","23","131068","0.0-7.0-0.0-1.5","null","<span style='color:GreenYellow; font-size: 70px;'>正确! </span>","null","","","","","","","","","","","","","","","","","","","","","","","","","feedback"
"","","","","","psychophysics","24","132684","0.0-7.0-0.0-0.6","462","","j","","","","","","","","","","","","","key","j","16.68686458333347","640","356","./1_3_Stimuli/C_ambi40.png","他人","Word","他人","Match","j","true","Practice"
"","","","","","html-keyboard-response","25","132999","0.0-7.0-0.0-1.6","null","<span style='color:GreenYellow; font-size: 70px;'>正确! </span>","null","","","","","","","","","","","","","","","","","","","","","","","","","feedback"
"","","","","","psychophysics","26","134869","0.0-7.0-0.0-0.7","714","","j","","","","","","","","","","","","","key","j","16.68535135135129","640","356","./1_3_Stimuli/S_ambi40.png","朋友","Word","朋友","Match","j","true","Practice"
"","","","","","html-keyboard-response","27","135182","0.0-7.0-0.0-1.7","null","<span style='color:GreenYellow; font-size: 70px;'>正确! </span>","null","","","","","","","","","","","","","","","","","","","","","","","","","feedback"
"","","","","","psychophysics","28","137040","0.0-7.0-0.0-0.8","705","","f","","","","","","","","","","","","","key","f","16.682772727272557","640","356","./1_3_Stimuli/S_ambi40.png","他人","Image","朋友","Mismatch","f","true","Practice"
"","","","","","html-keyboard-response","29","137341","0.0-7.0-0.0-1.8","null","<span style='color:GreenYellow; font-size: 70px;'>正确! </span>","null","","","","","","","","","","","","","","","","","","","","","","","","","feedback"
"","","","","","psychophysics","30","138974","0.0-7.0-0.0-0.9","470","","j","","","","","","","","","","","","","key","j","16.68479381443287","640","356","./1_3_Stimuli/C_ambi40.png","他人","Image","他人","Match","j","true","Practice"
"","","","","","html-keyboard-response","31","139284","0.0-7.0-0.0-1.9","null","<span style='color:GreenYellow; font-size: 70px;'>正确! </span>","null","","","","","","","","","","","","","","","","","","","","","","","","","feedback"
"","","","","","psychophysics","32","140948","0.0-7.0-0.0-0.10","508","","f","","","","","","","","","","","","","key","f","16.85398989899003","640","356","./1_3_Stimuli/C_ambi40.png","自我","Word","他人","Mismatch","f","true","Practice"
"","","","","","html-keyboard-response","33","141262","0.0-7.0-0.0-1.10","null","<span style='color:GreenYellow; font-size: 70px;'>正确! </span>","null","","","","","","","","","","","","","","","","","","","","","","","","","feedback"
"","","","","","psychophysics","34","142992","0.0-7.0-0.0-0.11","580","","j","","","","","","","","","","","","","key","j","16.683067961165047","640","356","./1_3_Stimuli/T_ambi40.png","自我","Word","自我","Match","j","true","Practice"
"","","","","","html-keyboard-response","35","143297","0.0-7.0-0.0-1.11","null","<span style='color:GreenYellow; font-size: 70px;'>正确! </span>","null","","","","","","","","","","","","","","","","","","","","","","","","","feedback"
"","","","","","psychophysics","36","145078","0.0-7.0-0.0-0.12","628","","f","","","","","","","","","","","","","key","f","16.684575471698135","640","356","./1_3_Stimuli/C_ambi40.png","自我","Image","他人","Mismatch","f","true","Practice"
"","","","","","html-keyboard-response","37","145388","0.0-7.0-0.0-1.12","null","<span style='color:GreenYellow; font-size: 70px;'>正确! </span>","null","","","","","","","","","","","","","","","","","","","","","","","","","feedback"
"","","","","","psychophysics","38","147353","0.0-7.0-0.0-0.13","811","","f","","","","","","","","","","","","","key","f","16.68522222222224","640","356","./1_3_Stimuli/T_ambi40.png","朋友","Word","自我","Mismatch","f","true","Practice"
"","","","","","html-keyboard-response","39","147660","0.0-7.0-0.0-1.13","null","<span style='color:GreenYellow; font-size: 70px;'>正确! </span>","null","","","","","","","","","","","","","","","","","","","","","","","","","feedback"
"","","","","","psychophysics","40","149949","0.0-7.0-0.0-0.14","1137","","f","","","","","","","","","","","","","key","f","16.80693382352932","640","356","./1_3_Stimuli/C_ambi40.png","朋友","Image","他人","Mismatch","f","true","Practice"
"","","","","","html-keyboard-response","41","150258","0.0-7.0-0.0-1.14","null","<span style='color:GreenYellow; font-size: 70px;'>正确! </span>","null","","","","","","","","","","","","","","","","","","","","","","","","","feedback"
"","","","","","psychophysics","42","152089","0.0-7.0-0.0-0.15","678","","j","","","","","","","","","","","","","key","j","16.685724770642256","640","356","./1_3_Stimuli/C_ambi40.png","他人","Word","他人","Match","j","true","Practice"
"","","","","","html-keyboard-response","43","152392","0.0-7.0-0.0-1.15","null","<span style='color:GreenYellow; font-size: 70px;'>正确! </span>","null","","","","","","","","","","","","","","","","","","","","","","","","","feedback"
"","","","","","psychophysics","44","154003","0.0-7.0-0.0-0.16","450","","j","","","","","","","","","","","","","key","j","16.684687499999807","640","356","./1_3_Stimuli/C_ambi40.png","他人","Image","他人","Match","j","true","Practice"
"","","","","","html-keyboard-response","45","154305","0.0-7.0-0.0-1.16","null","<span style='color:GreenYellow; font-size: 70px;'>正确! </span>","null","","","","","","","","","","","","","","","","","","","","","","","","","feedback"
"","","","","","psychophysics","46","156133","0.0-7.0-0.0-0.17","677","","f","","","","","","","","","","","","","key","f","16.68578899082559","640","356","./1_3_Stimuli/T_ambi40.png","朋友","Image","自我","Mismatch","f","true","Practice"
"","","","","","html-keyboard-response","47","156439","0.0-7.0-0.0-1.17","null","<span style='color:GreenYellow; font-size: 70px;'>正确! </span>","null","","","","","","","","","","","","","","","","","","","","","","","","","feedback"
"","","","","","psychophysics","48","158379","0.0-7.0-0.0-0.18","787","","f","","","","","","","","","","","","","key","f","16.68577391304349","640","356","./1_3_Stimuli/T_ambi40.png","他人","Word","自我","Mismatch","f","true","Practice"
"","","","","","html-keyboard-response","49","158694","0.0-7.0-0.0-1.18","null","<span style='color:GreenYellow; font-size: 70px;'>正确! </span>","null","","","","","","","","","","","","","","","","","","","","","","","","","feedback"
"","","","","","psychophysics","50","160503","0.0-7.0-0.0-0.19","656","","f","","","","","","","","","","","","","key","f","16.68609345794376","640","356","./1_3_Stimuli/T_ambi40.png","他人","Image","自我","Mismatch","f","true","Practice"
"","","","","","html-keyboard-response","51","160807","0.0-7.0-0.0-1.19","null","<span style='color:GreenYellow; font-size: 70px;'>正确! </span>","null","","","","","","","","","","","","","","","","","","","","","","","","","feedback"
"","","","","","psychophysics","52","162889","0.0-7.0-0.0-0.20","931","","j","","","","","","","","","","","","","key","j","16.685736000000034","640","356","./1_3_Stimuli/T_ambi40.png","自我","Image","自我","Match","j","true","Practice"
"","","","","","html-keyboard-response","53","163204","0.0-7.0-0.0-1.20","null","<span style='color:GreenYellow; font-size: 70px;'>正确! </span>","null","","","","","","","","","","","","","","","","","","","","","","","","","feedback"
"","","","","","psychophysics","54","165254","0.0-7.0-0.0-0.21","895","","j","","","","","","","","","","","","","key","j","16.684467213114793","640","356","./1_3_Stimuli/S_ambi40.png","朋友","Word","朋友","Match","j","true","Practice"
"","","","","","html-keyboard-response","55","165560","0.0-7.0-0.0-1.21","null","<span style='color:GreenYellow; font-size: 70px;'>正确! </span>","null","","","","","","","","","","","","","","","","","","","","","","","","","feedback"
"","","","","","psychophysics","56","167274","0.0-7.0-0.0-0.22","556","","f","","","","","","","","","","","","","key","f","16.686186274509893","640","356","./1_3_Stimuli/S_ambi40.png","他人","Word","朋友","Mismatch","f","true","Practice"
"","","","","","html-keyboard-response","57","167582","0.0-7.0-0.0-1.22","null","<span style='color:GreenYellow; font-size: 70px;'>正确! </span>","null","","","","","","","","","","","","","","","","","","","","","","","","","feedback"
"","","","","","psychophysics","58","169642","0.0-7.0-0.0-0.23","904","","f","","","","","","","","","","","","","key","f","16.686943089430944","640","356","./1_3_Stimuli/C_ambi40.png","朋友","Word","他人","Mismatch","f","true","Practice"
"","","","","","html-keyboard-response","59","169942","0.0-7.0-0.0-1.23","null","<span style='color:GreenYellow; font-size: 70px;'>正确! </span>","null","","","","","","","","","","","","","","","","","","","","","","","","","feedback"
"","","","","","html-keyboard-response","60","221764","0.0-8.0","51819","<style>.context{color:white; font-size: 35px; line-height:40px}</style>                          <div><p class='context'>您正确回答了100% 的试次。</p><p class='context'>您的平均反应时为735毫秒。</p><p class='context'>恭喜您完成练习。现在请休息3~5分钟。</p><p class='context'>之后，按任意键进入正式实验。需要注意的是，正式实验将不再提供反应是否正确的反馈。</p><p class='footer' style='font-size: 35px; line-height:40px;'>请在进入正式实验实验之前将您的<span style='color: lightgreen;'>食指</span>放在电脑键盘的相应键位上进行按键。</p>"," ","","","","","","","","","","","","","","","","","","","","","","","","",""
"","","","","","psychophysics","61","223547","0.0-9.0-0.0-0.0","629","","f","","","","","","","","","","","","","key","f","16.685571428571297","640","356","./1_3_Stimuli/S_ambi40.png","他人","Word","朋友","Mismatch","f","true","Formal"
"","","","","","psychophysics","62","225216","0.0-9.0-0.0-0.1","516","","j","","","","","","","","","","","","","key","j","16.685806122449005","640","356","./1_3_Stimuli/C_ambi40.png","他人","Word","他人","Match","j","true","Formal"
"","","","","","psychophysics","63","227015","0.0-9.0-0.0-0.2","647","","j","","","","","","","","","","","","","key","j","16.68426415094346","640","356","./1_3_Stimuli/T_ambi40.png","自我","Image","自我","Match","j","true","Formal"
"","","","","","psychophysics","64","229210","0.0-9.0-0.0-0.3","1040","","j","","","","","","","","","","","","","key","j","16.684676923076935","640","356","./1_3_Stimuli/C_ambi40.png","朋友","Word","他人","Mismatch","f","false","Formal"
"","","","","","psychophysics","65","231919","0.0-9.0-0.0-0.4","null","","null","","","","","","","","","","","","","key","null","16.684434782608626","640","356","./1_3_Stimuli/T_ambi40.png","朋友","Word","自我","Mismatch","f","false","Formal"
"","","","","","psychophysics","66","233555","0.0-9.0-0.0-0.5","480","","j","","","","","","","","","","","","","key","j","16.685453608247435","640","356","./1_3_Stimuli/T_ambi40.png","自我","Image","自我","Match","j","true","Formal"
"","","","","","psychophysics","67","235590","0.0-9.0-0.0-0.6","880","","f","","","","","","","","","","","","","key","f","16.68447500000014","640","356","./1_3_Stimuli/S_ambi40.png","自我","Image","朋友","Mismatch","f","true","Formal"
"","","","","","psychophysics","68","237646","0.0-9.0-0.0-0.7","900","","j","","","","","","","","","","","","","key","j","16.68389344262293","640","356","./1_3_Stimuli/S_ambi40.png","朋友","Word","朋友","Match","j","true","Formal"
"","","","","","psychophysics","69","239615","0.0-9.0-0.0-0.8","817","","f","","","","","","","","","","","","","key","f","16.686836206896636","640","356","./1_3_Stimuli/T_ambi40.png","朋友","Image","自我","Mismatch","f","true","Formal"
"","","","","","psychophysics","70","241304","0.0-9.0-0.0-0.9","537","","j","","","","","","","","","","","","","key","j","16.684949999999954","640","356","./1_3_Stimuli/C_ambi40.png","他人","Word","他人","Match","j","true","Formal"
"","","","","","psychophysics","71","244009","0.0-9.0-0.0-0.10","null","","null","","","","","","","","","","","","","key","null","16.684875776397423","640","356","./1_3_Stimuli/C_ambi40.png","朋友","Image","他人","Mismatch","f","false","Formal"
"","","","","","psychophysics","72","245864","0.0-9.0-0.0-0.11","703","","j","","","","","","","","","","","","","key","j","16.68580909090921","640","356","./1_3_Stimuli/C_ambi40.png","他人","Image","他人","Match","j","true","Formal"
"","","","","","psychophysics","73","247614","0.0-9.0-0.0-0.12","599","","j","","","","","","","","","","","","","key","j","16.68425961538462","640","356","./1_3_Stimuli/T_ambi40.png","自我","Word","自我","Match","j","true","Formal"
"","","","","","psychophysics","74","249545","0.0-9.0-0.0-0.13","769","","j","","","","","","","","","","","","","key","j","16.68473043478266","640","356","./1_3_Stimuli/S_ambi40.png","朋友","Word","朋友","Match","j","true","Formal"
"","","","","","psychophysics","75","251282","0.0-9.0-0.0-0.14","576","","j","","","","","","","","","","","","","key","j","16.685679611650485","640","356","./1_3_Stimuli/T_ambi40.png","自我","Word","自我","Match","j","true","Formal"
"","","","","","psychophysics","76","253086","0.0-9.0-0.0-0.15","648","","j","","","","","","","","","","","","","key","j","16.686411214953235","640","356","./1_3_Stimuli/C_ambi40.png","他人","Image","他人","Match","j","true","Formal"
"","","","","","psychophysics","77","255021","0.0-9.0-0.0-0.16","772","","f","","","","","","","","","","","","","key","f","16.68372173913041","640","356","./1_3_Stimuli/T_ambi40.png","他人","Image","自我","Mismatch","f","true","Formal"
"","","","","","psychophysics","78","257001","0.0-9.0-0.0-0.17","817","","j","","","","","","","","","","","","","key","j","16.686974358974517","640","356","./1_3_Stimuli/S_ambi40.png","朋友","Image","朋友","Match","j","true","Formal"
"","","","","","psychophysics","79","258985","0.0-9.0-0.0-0.18","832","","j","","","","","","","","","","","","","key","j","16.6848119658119","640","356","./1_3_Stimuli/S_ambi40.png","朋友","Image","朋友","Match","j","true","Formal"
"","","","","","psychophysics","80","260915","0.0-9.0-0.0-0.19","776","","f","","","","","","","","","","","","","key","f","16.686666666666657","640","356","./1_3_Stimuli/C_ambi40.png","自我","Word","他人","Mismatch","f","true","Formal"
"","","","","","psychophysics","81","262777","0.0-9.0-0.0-0.20","704","","f","","","","","","","","","","","","","key","f","16.68474774774786","640","356","./1_3_Stimuli/S_ambi40.png","他人","Image","朋友","Mismatch","f","true","Formal"
"","","","","","psychophysics","82","264548","0.0-9.0-0.0-0.21","619","","f","","","","","","","","","","","","","key","f","16.684580952380895","640","356","./1_3_Stimuli/S_ambi40.png","自我","Word","朋友","Mismatch","f","true","Formal"
"","","","","","psychophysics","83","266732","0.0-9.0-0.0-0.22","1029","","f","","","","","","","","","","","","","key","f","16.68509230769257","640","356","./1_3_Stimuli/C_ambi40.png","自我","Image","他人","Mismatch","f","true","Formal"
"","","","","","psychophysics","84","268467","0.0-9.0-0.0-0.23","570","","f","","","","","","","","","","","","","key","f","16.682563106796152","640","356","./1_3_Stimuli/T_ambi40.png","他人","Word","自我","Mismatch","f","true","Formal"
"","","","","","psychophysics","85","270251","0.0-9.0-0.0-0.24","629","","f","","","","","","","","","","","","","key","f","16.683641509434104","640","356","./1_3_Stimuli/T_ambi40.png","他人","Image","自我","Mismatch","f","true","Formal"
"","","","","","psychophysics","86","272156","0.0-9.0-0.0-0.25","743","","j","","","","","","","","","","","","","key","j","16.68353097345134","640","356","./1_3_Stimuli/S_ambi40.png","朋友","Word","朋友","Match","j","true","Formal"
"","","","","","psychophysics","87","274366","0.0-9.0-0.0-0.26","1051","","f","","","","","","","","","","","","","key","f","16.68419847328248","640","356","./1_3_Stimuli/C_ambi40.png","朋友","Word","他人","Mismatch","f","true","Formal"
"","","","","","psychophysics","88","276220","0.0-9.0-0.0-0.27","698","","j","","","","","","","","","","","","","key","j","16.683935779816505","640","356","./1_3_Stimuli/T_ambi40.png","自我","Image","自我","Match","j","true","Formal"
"","","","","","psychophysics","89","277920","0.0-9.0-0.0-0.28","546","","f","","","","","","","","","","","","","key","f","16.684070000000066","640","356","./1_3_Stimuli/T_ambi40.png","他人","Word","自我","Mismatch","f","true","Formal"
"","","","","","psychophysics","90","279964","0.0-9.0-0.0-0.29","892","","f","","","","","","","","","","","","","key","f","16.68589344262298","640","356","./1_3_Stimuli/T_ambi40.png","朋友","Image","自我","Mismatch","f","true","Formal"
"","","","","","psychophysics","91","281743","0.0-9.0-0.0-0.30","617","","j","","","","","","","","","","","","","key","j","16.68524761904763","640","356","./1_3_Stimuli/S_ambi40.png","朋友","Image","朋友","Match","j","true","Formal"
"","","","","","psychophysics","92","283894","0.0-9.0-0.0-0.31","998","","j","","","","","","","","","","","","","key","j","16.685708661417486","640","356","./1_3_Stimuli/T_ambi40.png","自我","Word","自我","Match","j","true","Formal"
"","","","","","psychophysics","93","285753","0.0-9.0-0.0-0.32","705","","j","","","","","","","","","","","","","key","j","16.687207207206935","640","356","./1_3_Stimuli/T_ambi40.png","自我","Image","自我","Match","j","true","Formal"
"","","","","","psychophysics","94","287653","0.0-9.0-0.0-0.33","744","","f","","","","","","","","","","","","","key","f","16.686557522123945","640","356","./1_3_Stimuli/T_ambi40.png","朋友","Word","自我","Mismatch","f","true","Formal"
"","","","","","psychophysics","95","289643","0.0-9.0-0.0-0.34","835","","j","","","","","","","","","","","","","key","j","16.68502542372868","640","356","./1_3_Stimuli/S_ambi40.png","朋友","Image","朋友","Match","j","true","Formal"
"","","","","","psychophysics","96","291296","0.0-9.0-0.0-0.35","494","","j","","","","","","","","","","","","","key","j","16.683551020408288","640","356","./1_3_Stimuli/C_ambi40.png","他人","Image","他人","Match","j","true","Formal"
"","","","","","psychophysics","97","292992","0.0-9.0-0.0-0.36","537","","f","","","","","","","","","","","","","key","f","16.684504950495143","640","356","./1_3_Stimuli/S_ambi40.png","他人","Word","朋友","Mismatch","f","true","Formal"
"","","","","","psychophysics","98","295107","0.0-9.0-0.0-0.37","955","","f","","","","","","","","","","","","","key","f","16.68477600000007","640","356","./1_3_Stimuli/C_ambi40.png","自我","Word","他人","Mismatch","f","true","Formal"
"","","","","","psychophysics","99","297397","0.0-9.0-0.0-0.38","1138","","f","","","","","","","","","","","","","key","f","16.686204379562113","640","356","./1_3_Stimuli/S_ambi40.png","自我","Image","朋友","Mismatch","f","true","Formal"
"","","","","","psychophysics","100","299633","0.0-9.0-0.0-0.39","1081","","f","","","","","","","","","","","","","key","f","16.68490977443604","640","356","./1_3_Stimuli/C_ambi40.png","自我","Image","他人","Mismatch","f","true","Formal"
"","","","","","psychophysics","101","301793","0.0-9.0-0.0-0.40","998","","j","","","","","","","","","","","","","key","j","16.684523437500047","640","356","./1_3_Stimuli/C_ambi40.png","他人","Image","他人","Match","j","true","Formal"
"","","","","","psychophysics","102","303616","0.0-9.0-0.0-0.41","664","","f","","","","","","","","","","","","","key","f","16.6874351851848","640","356","./1_3_Stimuli/S_ambi40.png","自我","Word","朋友","Mismatch","f","true","Formal"
"","","","","","psychophysics","103","305391","0.0-9.0-0.0-0.42","621","","j","","","","","","","","","","","","","key","j","16.68514285714288","640","356","./1_3_Stimuli/T_ambi40.png","自我","Word","自我","Match","j","true","Formal"
"","","","","","psychophysics","104","307600","0.0-9.0-0.0-0.43","1044","","j","","","","","","","","","","","","","key","j","16.68574809160293","640","356","./1_3_Stimuli/S_ambi40.png","朋友","Word","朋友","Match","j","true","Formal"
"","","","","","psychophysics","105","309284","0.0-9.0-0.0-0.44","532","","j","","","","","","","","","","","","","key","j","16.686080000000075","640","356","./1_3_Stimuli/C_ambi40.png","他人","Word","他人","Match","j","true","Formal"
"","","","","","psychophysics","106","311118","0.0-9.0-0.0-0.45","675","","f","","","","","","","","","","","","","key","f","16.684403669724556","640","356","./1_3_Stimuli/C_ambi40.png","朋友","Image","他人","Mismatch","f","true","Formal"
"","","","","","psychophysics","107","312990","0.0-9.0-0.0-0.46","717","","j","","","","","","","","","","","","","key","j","16.683963963963816","640","356","./1_3_Stimuli/C_ambi40.png","他人","Word","他人","Match","j","true","Formal"
"","","","","","psychophysics","108","315158","0.0-9.0-0.0-0.47","1016","","f","","","","","","","","","","","","","key","f","16.68574418604659","640","356","./1_3_Stimuli/S_ambi40.png","他人","Image","朋友","Mismatch","f","true","Formal"
"","","","","","psychophysics","109","317529","0.0-9.0-0.0-0.48","1213","","f","","","","","","","","","","","","","key","f","16.683999999999713","640","356","./1_3_Stimuli/C_ambi40.png","朋友","Word","他人","Mismatch","f","true","Formal"
"","","","","","psychophysics","110","319298","0.0-9.0-0.0-0.49","612","","f","","","","","","","","","","","","","key","f","16.685304761904714","640","356","./1_3_Stimuli/T_ambi40.png","他人","Word","自我","Mismatch","f","true","Formal"
"","","","","","psychophysics","111","321205","0.0-9.0-0.0-0.50","750","","f","","","","","","","","","","","","","key","f","16.68383333333329","640","356","./1_3_Stimuli/S_ambi40.png","他人","Image","朋友","Mismatch","f","true","Formal"
"","","","","","psychophysics","112","322998","0.0-9.0-0.0-0.51","642","","j","","","","","","","","","","","","","key","j","16.68366037735843","640","356","./1_3_Stimuli/S_ambi40.png","朋友","Image","朋友","Match","j","true","Formal"
"","","","","","psychophysics","113","324897","0.0-9.0-0.0-0.52","741","","f","","","","","","","","","","","","","key","f","16.68553097345104","640","356","./1_3_Stimuli/S_ambi40.png","自我","Image","朋友","Mismatch","f","true","Formal"
"","","","","","psychophysics","114","326842","0.0-9.0-0.0-0.53","786","","j","","","","","","","","","","","","","key","j","16.686260869565075","640","356","./1_3_Stimuli/T_ambi40.png","自我","Word","自我","Match","j","true","Formal"
"","","","","","psychophysics","115","328651","0.0-9.0-0.0-0.54","655","","f","","","","","","","","","","","","","key","f","16.68509345794386","640","356","./1_3_Stimuli/S_ambi40.png","他人","Word","朋友","Mismatch","f","true","Formal"
"","","","","","psychophysics","116","330410","0.0-9.0-0.0-0.55","595","","j","","","","","","","","","","","","","key","j","16.683009615384574","640","356","./1_3_Stimuli/C_ambi40.png","他人","Image","他人","Match","j","true","Formal"
"","","","","","psychophysics","117","332209","0.0-9.0-0.0-0.56","642","","j","","","","","","","","","","","","","key","j","16.68554205607479","640","356","./1_3_Stimuli/T_ambi40.png","自我","Image","自我","Match","j","true","Formal"
"","","","","","psychophysics","118","334921","0.0-9.0-0.0-0.57","null","","null","","","","","","","","","","","","","key","null","16.685888888888897","640","356","./1_3_Stimuli/S_ambi40.png","朋友","Word","朋友","Match","j","false","Formal"
"","","","","","psychophysics","119","337151","0.0-9.0-0.0-0.58","1079","","f","","","","","","","","","","","","","key","f","16.685530303030674","640","356","./1_3_Stimuli/C_ambi40.png","朋友","Image","他人","Mismatch","f","true","Formal"
"","","","","","psychophysics","120","338845","0.0-9.0-0.0-0.59","538","","f","","","","","","","","","","","","","key","f","16.684782178217826","640","356","./1_3_Stimuli/S_ambi40.png","朋友","Word","朋友","Match","j","false","Formal"
"","","","","","psychophysics","121","340589","0.0-9.0-0.0-0.60","584","","j","","","","","","","","","","","","","key","j","16.68505825242706","640","356","./1_3_Stimuli/T_ambi40.png","自我","Word","自我","Match","j","true","Formal"
"","","","","","psychophysics","122","342550","0.0-9.0-0.0-0.61","804","","j","","","","","","","","","","","","","key","j","16.687145299145367","640","356","./1_3_Stimuli/C_ambi40.png","他人","Word","他人","Match","j","true","Formal"
"","","","","","psychophysics","123","344339","0.0-9.0-0.0-0.62","625","","f","","","","","","","","","","","","","key","f","16.68430188679266","640","356","./1_3_Stimuli/S_ambi40.png","自我","Word","朋友","Mismatch","f","true","Formal"
"","","","","","psychophysics","124","346279","0.0-9.0-0.0-0.63","786","","j","","","","","","","","","","","","","key","j","16.68419130434758","640","356","./1_3_Stimuli/T_ambi40.png","自我","Image","自我","Match","j","true","Formal"
"","","","","","psychophysics","125","348398","0.0-9.0-0.0-0.64","964","","j","","","","","","","","","","","","","key","j","16.686198412698495","640","356","./1_3_Stimuli/S_ambi40.png","朋友","Image","朋友","Match","j","true","Formal"
"","","","","","psychophysics","126","350368","0.0-9.0-0.0-0.65","814","","f","","","","","","","","","","","","","key","f","16.684666666666416","640","356","./1_3_Stimuli/C_ambi40.png","自我","Image","他人","Mismatch","f","true","Formal"
"","","","","","psychophysics","127","352043","0.0-9.0-0.0-0.66","521","","j","","","","","","","","","","","","","key","j","16.68424242424233","640","356","./1_3_Stimuli/C_ambi40.png","他人","Image","他人","Match","j","true","Formal"
"","","","","","psychophysics","128","353951","0.0-9.0-0.0-0.67","753","","f","","","","","","","","","","","","","key","f","16.686681415928955","640","356","./1_3_Stimuli/T_ambi40.png","朋友","Image","自我","Mismatch","f","true","Formal"
"","","","","","psychophysics","129","355856","0.0-9.0-0.0-0.68","746","","f","","","","","","","","","","","","","key","f","16.685716814159072","640","356","./1_3_Stimuli/T_ambi40.png","他人","Image","自我","Mismatch","f","true","Formal"
"","","","","","psychophysics","130","357721","0.0-9.0-0.0-0.69","709","","f","","","","","","","","","","","","","key","f","16.683899999999927","640","356","./1_3_Stimuli/T_ambi40.png","朋友","Word","自我","Mismatch","f","true","Formal"
"","","","","","psychophysics","131","359716","0.0-9.0-0.0-0.70","841","","f","","","","","","","","","","","","","key","f","16.685798319328104","640","356","./1_3_Stimuli/C_ambi40.png","自我","Word","他人","Mismatch","f","true","Formal"
"","","","","","psychophysics","132","361389","0.0-9.0-0.0-0.71","519","","j","","","","","","","","","","","","","key","j","16.68576767676771","640","356","./1_3_Stimuli/C_ambi40.png","他人","Word","他人","Match","j","true","Formal"
"","","","","","psychophysics","133","363030","0.0-9.0-0.0-0.72","479","","j","","","","","","","","","","","","","key","j","16.68498969072183","640","356","./1_3_Stimuli/C_ambi40.png","他人","Word","他人","Match","j","true","Formal"
"","","","","","psychophysics","134","365249","0.0-9.0-0.0-0.73","1064","","f","","","","","","","","","","","","","key","f","16.686196969697257","640","356","./1_3_Stimuli/T_ambi40.png","朋友","Word","自我","Mismatch","f","true","Formal"
"","","","","","psychophysics","135","367204","0.0-9.0-0.0-0.74","798","","j","","","","","","","","","","","","","key","j","16.684629310344963","640","356","./1_3_Stimuli/T_ambi40.png","自我","Image","自我","Match","j","true","Formal"
"","","","","","psychophysics","136","369370","0.0-9.0-0.0-0.75","1012","","j","","","","","","","","","","","","","key","j","16.685148437500175","640","356","./1_3_Stimuli/S_ambi40.png","朋友","Image","朋友","Match","j","true","Formal"
"","","","","","psychophysics","137","371239","0.0-9.0-0.0-0.76","713","","f","","","","","","","","","","","","","key","f","16.68621621621607","640","356","./1_3_Stimuli/C_ambi40.png","自我","Image","他人","Mismatch","f","true","Formal"
"","","","","","psychophysics","138","372908","0.0-9.0-0.0-0.77","513","","j","","","","","","","","","","","","","key","j","16.683878787878474","640","356","./1_3_Stimuli/C_ambi40.png","他人","Image","他人","Match","j","true","Formal"
"","","","","","psychophysics","139","374848","0.0-9.0-0.0-0.78","785","","f","","","","","","","","","","","","","key","f","16.683895652173796","640","356","./1_3_Stimuli/C_ambi40.png","朋友","Image","他人","Mismatch","f","true","Formal"
"","","","","","psychophysics","140","376703","0.0-9.0-0.0-0.79","703","","f","","","","","","","","","","","","","key","f","16.686818181818605","640","356","./1_3_Stimuli/S_ambi40.png","自我","Word","朋友","Mismatch","f","true","Formal"
"","","","","","psychophysics","141","378606","0.0-9.0-0.0-0.80","742","","f","","","","","","","","","","","","","key","f","16.684964601770023","640","356","./1_3_Stimuli/T_ambi40.png","朋友","Image","自我","Mismatch","f","true","Formal"
"","","","","","psychophysics","142","380367","0.0-9.0-0.0-0.81","601","","j","","","","","","","","","","","","","key","j","16.68446153846162","640","356","./1_3_Stimuli/S_ambi40.png","朋友","Word","朋友","Match","j","true","Formal"
"","","","","","psychophysics","143","382251","0.0-9.0-0.0-0.82","729","","f","","","","","","","","","","","","","key","f","16.686330357142392","640","356","./1_3_Stimuli/S_ambi40.png","自我","Image","朋友","Mismatch","f","true","Formal"
"","","","","","psychophysics","144","384777","0.0-9.0-0.0-0.83","1372","","j","","","","","","","","","","","","","key","j","16.684854304635763","640","356","./1_3_Stimuli/S_ambi40.png","朋友","Word","朋友","Match","j","true","Formal"
"","","","","","psychophysics","145","386486","0.0-9.0-0.0-0.84","548","","f","","","","","","","","","","","","","key","f","16.686405940593964","640","356","./1_3_Stimuli/C_ambi40.png","自我","Word","他人","Mismatch","f","true","Formal"
"","","","","","psychophysics","146","388498","0.0-9.0-0.0-0.85","853","","f","","","","","","","","","","","","","key","f","16.685783333333287","640","356","./1_3_Stimuli/S_ambi40.png","他人","Image","朋友","Mismatch","f","true","Formal"
"","","","","","psychophysics","147","390532","0.0-9.0-0.0-0.86","882","","j","","","","","","","","","","","","","key","j","16.68346280991706","640","356","./1_3_Stimuli/C_ambi40.png","他人","Image","他人","Match","j","true","Formal"
"","","","","","psychophysics","148","392347","0.0-9.0-0.0-0.87","664","","j","","","","","","","","","","","","","key","j","16.685813084112535","640","356","./1_3_Stimuli/T_ambi40.png","自我","Word","自我","Match","j","true","Formal"
"","","","","","psychophysics","149","394085","0.0-9.0-0.0-0.88","584","","f","","","","","","","","","","","","","key","f","16.684815533980796","640","356","./1_3_Stimuli/T_ambi40.png","他人","Word","自我","Mismatch","f","true","Formal"
"","","","","","psychophysics","150","396014","0.0-9.0-0.0-0.89","777","","j","","","","","","","","","","","","","key","j","16.685500000000488","640","356","./1_3_Stimuli/S_ambi40.png","朋友","Image","朋友","Match","j","true","Formal"
"","","","","","psychophysics","151","397678","0.0-9.0-0.0-0.90","510","","f","","","","","","","","","","","","","key","f","16.6852323232328","640","356","./1_3_Stimuli/S_ambi40.png","他人","Word","朋友","Mismatch","f","true","Formal"
"","","","","","psychophysics","152","399337","0.0-9.0-0.0-0.91","503","","j","","","","","","","","","","","","","key","j","16.68669387755134","640","356","./1_3_Stimuli/T_ambi40.png","自我","Image","自我","Match","j","true","Formal"
"","","","","","psychophysics","153","401164","0.0-9.0-0.0-0.92","671","","j","","","","","","","","","","","","","key","j","16.68419266055037","640","356","./1_3_Stimuli/C_ambi40.png","他人","Word","他人","Match","j","true","Formal"
"","","","","","psychophysics","154","403076","0.0-9.0-0.0-0.93","750","","j","","","","","","","","","","","","","key","j","16.68641592920356","640","356","./1_3_Stimuli/T_ambi40.png","自我","Word","自我","Match","j","true","Formal"
"","","","","","psychophysics","155","405212","0.0-9.0-0.0-0.94","983","","f","","","","","","","","","","","","","key","f","16.68518110236252","640","356","./1_3_Stimuli/C_ambi40.png","朋友","Word","他人","Mismatch","f","true","Formal"
"","","","","","psychophysics","156","406956","0.0-9.0-0.0-0.95","590","","f","","","","","","","","","","","","","key","f","16.68595192307671","640","356","./1_3_Stimuli/T_ambi40.png","他人","Image","自我","Mismatch","f","true","Formal"
"","","","","","psychophysics","157","409276","0.0-9.0-0.0-0.96","1158","","j","","","","","","","","","","","","","key","j","16.68642028985525","640","356","./1_3_Stimuli/S_ambi40.png","朋友","Word","朋友","Match","j","true","Formal"
"","","","","","psychophysics","158","411052","0.0-9.0-0.0-0.97","625","","f","","","","","","","","","","","","","key","f","16.68474285714273","640","356","./1_3_Stimuli/C_ambi40.png","朋友","Word","他人","Mismatch","f","true","Formal"
"","","","","","psychophysics","159","413110","0.0-9.0-0.0-0.98","905","","f","","","","","","","","","","","","","key","f","16.684278688524262","640","356","./1_3_Stimuli/T_ambi40.png","他人","Image","自我","Mismatch","f","true","Formal"
"","","","","","psychophysics","160","414896","0.0-9.0-0.0-0.99","626","","f","","","","","","","","","","","","","key","f","16.685971698113104","640","356","./1_3_Stimuli/C_ambi40.png","自我","Word","他人","Mismatch","f","true","Formal"
"","","","","","psychophysics","161","416725","0.0-9.0-0.0-0.100","665","","f","","","","","","","","","","","","","key","f","16.685268518518704","640","356","./1_3_Stimuli/C_ambi40.png","自我","Image","他人","Mismatch","f","true","Formal"
"","","","","","psychophysics","162","418734","0.0-9.0-0.0-0.101","856","","j","","","","","","","","","","","","","key","j","16.68537499999996","640","356","./1_3_Stimuli/S_ambi40.png","朋友","Image","朋友","Match","j","true","Formal"
"","","","","","psychophysics","163","420604","0.0-9.0-0.0-0.102","717","","f","","","","","","","","","","","","","key","f","16.684909909910118","640","356","./1_3_Stimuli/T_ambi40.png","自我","Word","自我","Match","j","false","Formal"
"","","","","","psychophysics","164","422779","0.0-9.0-0.0-0.103","1018","","j","","","","","","","","","","","","","key","j","16.685271317829187","640","356","./1_3_Stimuli/S_ambi40.png","朋友","Image","朋友","Match","j","true","Formal"
"","","","","","psychophysics","165","424440","0.0-9.0-0.0-0.104","505","","f","","","","","","","","","","","","","key","f","16.685343434343306","640","356","./1_3_Stimuli/S_ambi40.png","他人","Word","朋友","Mismatch","f","true","Formal"
"","","","","","psychophysics","166","426519","0.0-9.0-0.0-0.105","914","","f","","","","","","","","","","","","","key","f","16.686219512194874","640","356","./1_3_Stimuli/C_ambi40.png","朋友","Image","他人","Mismatch","f","true","Formal"
"","","","","","psychophysics","167","428639","0.0-9.0-0.0-0.106","966","","j","","","","","","","","","","","","","key","j","16.685174603174563","640","356","./1_3_Stimuli/S_ambi40.png","朋友","Word","朋友","Match","j","true","Formal"
"","","","","","psychophysics","168","430323","0.0-9.0-0.0-0.107","532","","f","","","","","","","","","","","","","key","f","16.685484848484382","640","356","./1_3_Stimuli/T_ambi40.png","朋友","Word","自我","Mismatch","f","true","Formal"
"","","","","","psychophysics","169","432122","0.0-9.0-0.0-0.108","646","","j","","","","","","","","","","","","","key","j","16.686245283019126","640","356","./1_3_Stimuli/C_ambi40.png","他人","Word","他人","Match","j","true","Formal"
"","","","","","psychophysics","170","433892","0.0-9.0-0.0-0.109","614","","j","","","","","","","","","","","","","key","j","16.686000000000266","640","356","./1_3_Stimuli/T_ambi40.png","自我","Image","自我","Match","j","true","Formal"
"","","","","","psychophysics","171","435818","0.0-9.0-0.0-0.110","770","","f","","","","","","","","","","","","","key","f","16.68446086956512","640","356","./1_3_Stimuli/S_ambi40.png","自我","Word","朋友","Mismatch","f","true","Formal"
"","","","","","psychophysics","172","437611","0.0-9.0-0.0-0.111","632","","f","","","","","","","","","","","","","key","f","16.68490566037714","640","356","./1_3_Stimuli/S_ambi40.png","自我","Image","朋友","Mismatch","f","true","Formal"
"","","","","","psychophysics","173","439388","0.0-9.0-0.0-0.112","625","","j","","","","","","","","","","","","","key","j","16.68433962264131","640","356","./1_3_Stimuli/C_ambi40.png","他人","Word","他人","Match","j","true","Formal"
"","","","","","psychophysics","174","441465","0.0-9.0-0.0-0.113","925","","j","","","","","","","","","","","","","key","j","16.685617886178907","640","356","./1_3_Stimuli/C_ambi40.png","他人","Image","他人","Match","j","true","Formal"
"","","","","","psychophysics","175","443129","0.0-9.0-0.0-0.114","507","","j","","","","","","","","","","","","","key","j","16.686989898989776","640","356","./1_3_Stimuli/T_ambi40.png","自我","Image","自我","Match","j","true","Formal"
"","","","","","psychophysics","176","444959","0.0-9.0-0.0-0.115","668","","f","","","","","","","","","","","","","key","f","16.68531192660571","640","356","./1_3_Stimuli/S_ambi40.png","他人","Image","朋友","Mismatch","f","true","Formal"
"","","","","","psychophysics","177","446949","0.0-9.0-0.0-0.116","839","","j","","","","","","","","","","","","","key","j","16.684033898305213","640","356","./1_3_Stimuli/T_ambi40.png","自我","Word","自我","Match","j","true","Formal"
"","","","","","psychophysics","178","448774","0.0-9.0-0.0-0.117","662","","f","","","","","","","","","","","","","key","f","16.68546296296322","640","356","./1_3_Stimuli/T_ambi40.png","朋友","Image","自我","Mismatch","f","true","Formal"
"","","","","","psychophysics","179","450587","0.0-9.0-0.0-0.118","657","","j","","","","","","","","","","","","","key","j","16.685231481481523","640","356","./1_3_Stimuli/C_ambi40.png","他人","Image","他人","Match","j","true","Formal"
"","","","","","psychophysics","180","452238","0.0-9.0-0.0-0.119","500","","f","","","","","","","","","","","","","key","f","16.684418367346684","640","356","./1_3_Stimuli/T_ambi40.png","他人","Word","自我","Mismatch","f","true","Formal"
"","","","","","html-keyboard-response","181","459029","0.0-9.0-1.0","6789","<style>.context{color:white; font-size: 35px; line-height:40px}</style>                        <div><p class='context'>您正确回答了95% 的试次。</p><p class='context'>您的平均反应时为744毫秒。</p><p> <div style = 'color: green'><按任意键进入休息></div></p>"," ","","","","","","","","","","","","","","","","","","","","","","","","",""
"","","","","","html-button-response","182","484711","0.0-9.0-2.0","25679","
                  <p>您当前还剩余5组实验</p>
                  <p>现在是休息时间，当您结束休息后，您可以点击 结束休息 按钮 继续</p>
                  <p>建议休息时间还剩余<span id=""iii"">60</span>秒</p>","0","","","","","","","","","","","","","","","","","","","","","","","","",""
"","","","","","psychophysics","183","486577","0.0-9.0-0.1-0.120","708","","f","","","","","","","","","","","","","key","f","16.68724324324311","640","356","./1_3_Stimuli/S_ambi40.png","朋友","Word","朋友","Match","j","false","Formal"
"","","","","","psychophysics","184","488361","0.0-9.0-0.1-0.121","631","","j","","","","","","","","","","","","","key","j","16.68430188679266","640","356","./1_3_Stimuli/T_ambi40.png","自我","Word","自我","Match","j","true","Formal"
"","","","","","psychophysics","185","490215","0.0-9.0-0.1-0.122","695","","j","","","","","","","","","","","","","key","j","16.684509090909376","640","356","./1_3_Stimuli/T_ambi40.png","自我","Image","自我","Match","j","true","Formal"
"","","","","","psychophysics","186","491959","0.0-9.0-0.1-0.123","586","","j","","","","","","","","","","","","","key","j","16.684155339805763","640","356","./1_3_Stimuli/S_ambi40.png","朋友","Image","朋友","Match","j","true","Formal"
"","","","","","psychophysics","187","493588","0.0-9.0-0.1-0.124","477","","j","","","","","","","","","","","","","key","j","16.68418750000031","640","356","./1_3_Stimuli/S_ambi40.png","他人","Word","朋友","Mismatch","f","false","Formal"
"","","","","","psychophysics","188","495293","0.0-9.0-0.1-0.125","554","","j","","","","","","","","","","","","","key","j","16.684663366336757","640","356","./1_3_Stimuli/T_ambi40.png","自我","Image","自我","Match","j","true","Formal"
"","","","","","psychophysics","189","497673","0.0-9.0-0.1-0.126","1225","","f","","","","","","","","","","","","","key","f","16.68568794326221","640","356","./1_3_Stimuli/S_ambi40.png","自我","Image","朋友","Mismatch","f","true","Formal"
"","","","","","psychophysics","190","500004","0.0-9.0-0.1-0.127","1167","","f","","","","","","","","","","","","","key","f","16.686316546762495","640","356","./1_3_Stimuli/C_ambi40.png","朋友","Word","他人","Mismatch","f","true","Formal"
"","","","","","psychophysics","191","501903","0.0-9.0-0.1-0.128","738","","f","","","","","","","","","","","","","key","f","16.685848214285734","640","356","./1_3_Stimuli/C_ambi40.png","朋友","Image","他人","Mismatch","f","true","Formal"
"","","","","","psychophysics","192","503703","0.0-9.0-0.1-0.129","647","","f","","","","","","","","","","","","","key","f","16.68644339622675","640","356","./1_3_Stimuli/T_ambi40.png","他人","Word","自我","Mismatch","f","true","Formal"
"","","","","","psychophysics","193","505798","0.0-9.0-0.1-0.130","940","","f","","","","","","","","","","","","","key","f","16.684279999999795","640","356","./1_3_Stimuli/T_ambi40.png","他人","Image","自我","Mismatch","f","true","Formal"
"","","","","","psychophysics","194","507645","0.0-9.0-0.1-0.131","688","","f","","","","","","","","","","","","","key","f","16.68629090909116","640","356","./1_3_Stimuli/C_ambi40.png","自我","Image","他人","Mismatch","f","true","Formal"
"","","","","","psychophysics","195","509458","0.0-9.0-0.1-0.132","661","","j","","","","","","","","","","","","","key","j","16.684700934579226","640","356","./1_3_Stimuli/S_ambi40.png","朋友","Image","朋友","Match","j","true","Formal"
"","","","","","psychophysics","196","511082","0.0-9.0-0.1-0.133","469","","j","","","","","","","","","","","","","key","j","16.68576288659824","640","356","./1_3_Stimuli/C_ambi40.png","他人","Image","他人","Match","j","true","Formal"
"","","","","","psychophysics","197","512915","0.0-9.0-0.1-0.134","672","","f","","","","","","","","","","","","","key","f","16.68680555555545","640","356","./1_3_Stimuli/C_ambi40.png","他人","Image","他人","Match","j","false","Formal"
"","","","","","psychophysics","198","514639","0.0-9.0-0.1-0.135","572","","f","","","","","","","","","","","","","key","f","16.685500000000307","640","356","./1_3_Stimuli/S_ambi40.png","他人","Image","朋友","Mismatch","f","true","Formal"
"","","","","","psychophysics","199","516456","0.0-9.0-0.1-0.136","656","","f","","","","","","","","","","","","","key","f","16.684361111111315","640","356","./1_3_Stimuli/T_ambi40.png","朋友","Image","自我","Mismatch","f","true","Formal"
"","","","","","psychophysics","200","518639","0.0-9.0-0.1-0.137","1019","","j","","","","","","","","","","","","","key","j","16.684438461538566","640","356","./1_3_Stimuli/C_ambi40.png","他人","Word","他人","Match","j","true","Formal"
"","","","","","psychophysics","201","520660","0.0-9.0-0.1-0.138","867","","f","","","","","","","","","","","","","key","f","16.684683333333428","640","356","./1_3_Stimuli/C_ambi40.png","自我","Word","他人","Mismatch","f","true","Formal"
"","","","","","psychophysics","202","522440","0.0-9.0-0.1-0.139","628","","j","","","","","","","","","","","","","key","j","16.686685714285844","640","356","./1_3_Stimuli/T_ambi40.png","自我","Word","自我","Match","j","true","Formal"
"","","","","","psychophysics","203","524630","0.0-9.0-0.1-0.140","1038","","f","","","","","","","","","","","","","key","f","16.684610687022964","640","356","./1_3_Stimuli/S_ambi40.png","自我","Word","朋友","Mismatch","f","true","Formal"
"","","","","","psychophysics","204","527306","0.0-9.0-0.1-0.141","1517","","f","","","","","","","","","","","","","key","f","16.684905660377506","640","356","./1_3_Stimuli/T_ambi40.png","朋友","Word","自我","Mismatch","f","true","Formal"
"","","","","","psychophysics","205","529240","0.0-9.0-0.1-0.142","773","","j","","","","","","","","","","","","","key","j","16.68552173913011","640","356","./1_3_Stimuli/S_ambi40.png","朋友","Word","朋友","Match","j","true","Formal"
"","","","","","psychophysics","206","531094","0.0-9.0-0.1-0.143","695","","j","","","","","","","","","","","","","key","j","16.685509090908717","640","356","./1_3_Stimuli/C_ambi40.png","他人","Word","他人","Match","j","true","Formal"
"","","","","","psychophysics","207","533009","0.0-9.0-0.1-0.144","755","","j","","","","","","","","","","","","","key","j","16.68620175438557","640","356","./1_3_Stimuli/T_ambi40.png","自我","Image","自我","Match","j","true","Formal"
"","","","","","psychophysics","208","534618","0.0-9.0-0.1-0.145","445","","j","","","","","","","","","","","","","key","j","16.686084210525856","640","356","./1_3_Stimuli/C_ambi40.png","他人","Word","他人","Match","j","true","Formal"
"","","","","","psychophysics","209","536407","0.0-9.0-0.1-0.146","632","","f","","","","","","","","","","","","","key","f","16.684150943396403","640","356","./1_3_Stimuli/S_ambi40.png","他人","Image","朋友","Mismatch","f","true","Formal"
"","","","","","psychophysics","210","538122","0.0-9.0-0.1-0.147","562","","j","","","","","","","","","","","","","key","j","16.683376237623264","640","356","./1_3_Stimuli/T_ambi40.png","自我","Word","自我","Match","j","true","Formal"
"","","","","","psychophysics","211","540417","0.0-9.0-0.1-0.148","1139","","f","","","","","","","","","","","","","key","f","16.685160583941382","640","356","./1_3_Stimuli/S_ambi40.png","他人","Word","朋友","Mismatch","f","true","Formal"
"","","","","","psychophysics","212","542312","0.0-9.0-0.1-0.149","730","","j","","","","","","","","","","","","","key","j","16.684499999999908","640","356","./1_3_Stimuli/S_ambi40.png","朋友","Image","朋友","Match","j","true","Formal"
"","","","","","psychophysics","213","544256","0.0-9.0-0.1-0.150","791","","f","","","","","","","","","","","","","key","f","16.68645217391237","640","356","./1_3_Stimuli/C_ambi40.png","自我","Word","他人","Mismatch","f","true","Formal"
"","","","","","psychophysics","214","546281","0.0-9.0-0.1-0.151","870","","j","","","","","","","","","","","","","key","j","16.684683333333428","640","356","./1_3_Stimuli/S_ambi40.png","朋友","Image","朋友","Match","j","true","Formal"
"","","","","","psychophysics","215","548267","0.0-9.0-0.1-0.152","829","","f","","","","","","","","","","","","","key","f","16.68627118644052","640","356","./1_3_Stimuli/C_ambi40.png","朋友","Image","他人","Mismatch","f","true","Formal"
"","","","","","psychophysics","216","550101","0.0-9.0-0.1-0.153","677","","j","","","","","","","","","","","","","key","j","16.686916666666985","640","356","./1_3_Stimuli/C_ambi40.png","他人","Image","他人","Match","j","true","Formal"
"","","","","","psychophysics","217","551795","0.0-9.0-0.1-0.154","543","","j","","","","","","","","","","","","","key","j","16.68522772277212","640","356","./1_3_Stimuli/C_ambi40.png","他人","Image","他人","Match","j","true","Formal"
"","","","","","psychophysics","218","553474","0.0-9.0-0.1-0.155","525","","f","","","","","","","","","","","","","key","f","16.686696969697046","640","356","./1_3_Stimuli/T_ambi40.png","他人","Word","自我","Mismatch","f","true","Formal"
"","","","","","psychophysics","219","555369","0.0-9.0-0.1-0.156","741","","j","","","","","","","","","","","","","key","j","16.684767857143015","640","356","./1_3_Stimuli/T_ambi40.png","自我","Image","自我","Match","j","true","Formal"
"","","","","","psychophysics","220","557253","0.0-9.0-0.1-0.157","723","","j","","","","","","","","","","","","","key","j","16.684232142856803","640","356","./1_3_Stimuli/S_ambi40.png","朋友","Word","朋友","Match","j","true","Formal"
"","","","","","psychophysics","221","559060","0.0-9.0-0.1-0.158","644","","f","","","","","","","","","","","","","key","f","16.686000000000018","640","356","./1_3_Stimuli/C_ambi40.png","朋友","Word","他人","Mismatch","f","true","Formal"
"","","","","","psychophysics","222","560788","0.0-9.0-0.1-0.159","578","","j","","","","","","","","","","","","","key","j","16.684864077670724","640","356","./1_3_Stimuli/T_ambi40.png","自我","Word","自我","Match","j","true","Formal"
"","","","","","psychophysics","223","562913","0.0-9.0-0.1-0.160","973","","j","","","","","","","","","","","","","key","j","16.685476190476155","640","356","./1_3_Stimuli/S_ambi40.png","朋友","Word","朋友","Match","j","true","Formal"
"","","","","","psychophysics","224","564802","0.0-9.0-0.1-0.161","729","","j","","","","","","","","","","","","","key","j","16.68384821428585","640","356","./1_3_Stimuli/C_ambi40.png","他人","Word","他人","Match","j","true","Formal"
"","","","","","psychophysics","225","566817","0.0-9.0-0.1-0.162","863","","f","","","","","","","","","","","","","key","f","16.68520168067316","640","356","./1_3_Stimuli/T_ambi40.png","朋友","Image","自我","Mismatch","f","true","Formal"
"","","","","","psychophysics","226","569180","0.0-9.0-0.1-0.163","1203","","f","","","","","","","","","","","","","key","f","16.686737588652186","640","356","./1_3_Stimuli/S_ambi40.png","自我","Word","朋友","Mismatch","f","true","Formal"
"","","","","","psychophysics","227","571018","0.0-9.0-0.1-0.164","680","","f","","","","","","","","","","","","","key","f","16.68603669724709","640","356","./1_3_Stimuli/S_ambi40.png","自我","Image","朋友","Mismatch","f","true","Formal"
"","","","","","psychophysics","228","573088","0.0-9.0-0.1-0.165","907","","f","","","","","","","","","","","","","key","f","16.68493495934938","640","356","./1_3_Stimuli/T_ambi40.png","他人","Image","自我","Mismatch","f","true","Formal"
"","","","","","psychophysics","229","575043","0.0-9.0-0.1-0.166","794","","f","","","","","","","","","","","","","key","f","16.684637931034025","640","356","./1_3_Stimuli/T_ambi40.png","朋友","Word","自我","Mismatch","f","true","Formal"
"","","","","","psychophysics","230","577068","0.0-9.0-0.1-0.167","870","","f","","","","","","","","","","","","","key","f","16.686108333333202","640","356","./1_3_Stimuli/C_ambi40.png","自我","Image","他人","Mismatch","f","true","Formal"
"","","","","","psychophysics","231","578832","0.0-9.0-0.1-0.168","610","","j","","","","","","","","","","","","","key","j","16.68453846153884","640","356","./1_3_Stimuli/S_ambi40.png","朋友","Word","朋友","Match","j","true","Formal"
"","","","","","psychophysics","232","581063","0.0-9.0-0.1-0.169","1073","","f","","","","","","","","","","","","","key","f","16.683157894736738","640","356","./1_3_Stimuli/S_ambi40.png","自我","Word","朋友","Mismatch","f","true","Formal"
"","","","","","psychophysics","233","582813","0.0-9.0-0.1-0.170","589","","j","","","","","","","","","","","","","key","j","16.68471153846118","640","356","./1_3_Stimuli/C_ambi40.png","他人","Word","他人","Match","j","true","Formal"
"","","","","","psychophysics","234","584533","0.0-9.0-0.1-0.171","563","","f","","","","","","","","","","","","","key","f","16.684794117646366","640","356","./1_3_Stimuli/S_ambi40.png","他人","Word","朋友","Mismatch","f","true","Formal"
"","","","","","psychophysics","235","586306","0.0-9.0-0.1-0.172","622","","j","","","","","","","","","","","","","key","j","16.684942857142804","640","356","./1_3_Stimuli/T_ambi40.png","自我","Word","自我","Match","j","true","Formal"
"","","","","","psychophysics","236","589007","0.0-9.0-0.1-0.173","1549","","f","","","","","","","","","","","","","key","f","16.68481987577672","640","356","./1_3_Stimuli/C_ambi40.png","朋友","Image","他人","Mismatch","f","true","Formal"
"","","","","","psychophysics","237","590854","0.0-9.0-0.1-0.174","692","","f","","","","","","","","","","","","","key","f","16.68731818181801","640","356","./1_3_Stimuli/S_ambi40.png","他人","Image","朋友","Mismatch","f","true","Formal"
"","","","","","psychophysics","238","592913","0.0-9.0-0.1-0.175","898","","j","","","","","","","","","","","","","key","j","16.685385245901386","640","356","./1_3_Stimuli/S_ambi40.png","朋友","Word","朋友","Match","j","true","Formal"
"","","","","","psychophysics","239","594857","0.0-9.0-0.1-0.176","787","","j","","","","","","","","","","","","","key","j","16.68497413793049","640","356","./1_3_Stimuli/C_ambi40.png","他人","Image","他人","Match","j","true","Formal"
"","","","","","psychophysics","240","596767","0.0-9.0-0.1-0.177","759","","f","","","","","","","","","","","","","key","f","16.685964601770646","640","356","./1_3_Stimuli/C_ambi40.png","自我","Word","他人","Mismatch","f","true","Formal"
"","","","","","psychophysics","241","598643","0.0-9.0-0.1-0.178","716","","j","","","","","","","","","","","","","key","j","16.684126126125815","640","356","./1_3_Stimuli/T_ambi40.png","自我","Image","自我","Match","j","true","Formal"
"","","","","","psychophysics","242","600688","0.0-9.0-0.1-0.179","892","","f","","","","","","","","","","","","","key","f","16.68642975206579","640","356","./1_3_Stimuli/C_ambi40.png","朋友","Word","他人","Mismatch","f","true","Formal"
"","","","","","psychophysics","243","602912","0.0-9.0-0.1-0.180","1065","","f","","","","","","","","","","","","","key","f","16.685598484849006","640","356","./1_3_Stimuli/T_ambi40.png","朋友","Image","自我","Mismatch","f","true","Formal"
"","","","","","psychophysics","244","605105","0.0-9.0-0.1-0.181","1039","","f","","","","","","","","","","","","","key","f","16.685824427480867","640","356","./1_3_Stimuli/T_ambi40.png","朋友","Word","自我","Mismatch","f","true","Formal"
"","","","","","psychophysics","245","606863","0.0-9.0-0.1-0.182","594","","f","","","","","","","","","","","","","key","f","16.68425961538406","640","356","./1_3_Stimuli/T_ambi40.png","他人","Word","自我","Mismatch","f","true","Formal"
"","","","","","psychophysics","246","608551","0.0-9.0-0.1-0.183","533","","j","","","","","","","","","","","","","key","j","16.687619999999878","640","356","./1_3_Stimuli/C_ambi40.png","他人","Word","他人","Match","j","true","Formal"
"","","","","","psychophysics","247","610371","0.0-9.0-0.1-0.184","665","","f","","","","","","","","","","","","","key","f","16.68472222222287","640","356","./1_3_Stimuli/S_ambi40.png","自我","Image","朋友","Mismatch","f","true","Formal"
"","","","","","psychophysics","248","612165","0.0-9.0-0.1-0.185","644","","j","","","","","","","","","","","","","key","j","16.684252336448292","640","356","./1_3_Stimuli/T_ambi40.png","自我","Word","自我","Match","j","true","Formal"
"","","","","","psychophysics","249","614252","0.0-9.0-0.1-0.186","926","","j","","","","","","","","","","","","","key","j","16.684475806451612","640","356","./1_3_Stimuli/S_ambi40.png","朋友","Image","朋友","Match","j","true","Formal"
"","","","","","psychophysics","250","616417","0.0-9.0-0.1-0.187","1004","","j","","","","","","","","","","","","","key","j","16.685364341085357","640","356","./1_3_Stimuli/T_ambi40.png","自我","Image","自我","Match","j","true","Formal"
"","","","","","psychophysics","251","618240","0.0-9.0-0.1-0.188","661","","f","","","","","","","","","","","","","key","f","16.685194444443805","640","356","./1_3_Stimuli/T_ambi40.png","他人","Image","自我","Mismatch","f","true","Formal"
"","","","","","psychophysics","252","620220","0.0-9.0-0.1-0.189","827","","j","","","","","","","","","","","","","key","j","16.68615254237301","640","356","./1_3_Stimuli/C_ambi40.png","他人","Image","他人","Match","j","true","Formal"
"","","","","","psychophysics","253","621990","0.0-9.0-0.1-0.190","605","","j","","","","","","","","","","","","","key","j","16.685476190475967","640","356","./1_3_Stimuli/S_ambi40.png","朋友","Image","朋友","Match","j","true","Formal"
"","","","","","psychophysics","254","623769","0.0-9.0-0.1-0.191","628","","f","","","","","","","","","","","","","key","f","16.68549523809592","640","356","./1_3_Stimuli/C_ambi40.png","自我","Image","他人","Mismatch","f","true","Formal"
"","","","","","psychophysics","255","625741","0.0-9.0-0.1-0.192","817","","f","","","","","","","","","","","","","key","f","16.684465517241765","640","356","./1_3_Stimuli/T_ambi40.png","朋友","Word","自我","Mismatch","f","true","Formal"
"","","","","","psychophysics","256","627499","0.0-9.0-0.1-0.193","606","","f","","","","","","","","","","","","","key","f","16.68413461538484","640","356","./1_3_Stimuli/C_ambi40.png","朋友","Image","他人","Mismatch","f","true","Formal"
"","","","","","psychophysics","257","629304","0.0-9.0-0.1-0.194","644","","f","","","","","","","","","","","","","key","f","16.685261682242757","640","356","./1_3_Stimuli/C_ambi40.png","自我","Image","他人","Mismatch","f","true","Formal"
"","","","","","psychophysics","258","631248","0.0-9.0-0.1-0.195","786","","j","","","","","","","","","","","","","key","j","16.68444827586264","640","356","./1_3_Stimuli/T_ambi40.png","自我","Image","自我","Match","j","true","Formal"
"","","","","","psychophysics","259","633178","0.0-9.0-0.1-0.196","763","","f","","","","","","","","","","","","","key","f","16.68359649122852","640","356","./1_3_Stimuli/S_ambi40.png","自我","Word","朋友","Mismatch","f","true","Formal"
"","","","","","psychophysics","260","635168","0.0-9.0-0.1-0.197","837","","j","","","","","","","","","","","","","key","j","16.6843644067797","640","356","./1_3_Stimuli/T_ambi40.png","自我","Image","自我","Match","j","true","Formal"
"","","","","","psychophysics","261","637002","0.0-9.0-0.1-0.198","682","","f","","","","","","","","","","","","","key","f","16.685842592592557","640","356","./1_3_Stimuli/T_ambi40.png","他人","Image","自我","Mismatch","f","true","Formal"
"","","","","","psychophysics","262","639053","0.0-9.0-0.1-0.199","897","","j","","","","","","","","","","","","","key","j","16.685157024793227","640","356","./1_3_Stimuli/S_ambi40.png","朋友","Image","朋友","Match","j","true","Formal"
"","","","","","psychophysics","263","641028","0.0-9.0-0.1-0.200","821","","j","","","","","","","","","","","","","key","j","16.684940677966875","640","356","./1_3_Stimuli/T_ambi40.png","自我","Word","自我","Match","j","true","Formal"
"","","","","","psychophysics","264","643017","0.0-9.0-0.1-0.201","824","","j","","","","","","","","","","","","","key","j","16.684262711864548","640","356","./1_3_Stimuli/C_ambi40.png","他人","Word","他人","Match","j","true","Formal"
"","","","","","psychophysics","265","644967","0.0-9.0-0.1-0.202","798","","j","","","","","","","","","","","","","key","j","16.684715517241596","640","356","./1_3_Stimuli/T_ambi40.png","朋友","Image","自我","Mismatch","f","false","Formal"
"","","","","","psychophysics","266","646861","0.0-9.0-0.1-0.203","731","","j","","","","","","","","","","","","","key","j","16.68474999999931","640","356","./1_3_Stimuli/S_ambi40.png","朋友","Word","朋友","Match","j","true","Formal"
"","","","","","psychophysics","267","648857","0.0-9.0-0.1-0.204","842","","j","","","","","","","","","","","","","key","j","16.686127118643974","640","356","./1_3_Stimuli/S_ambi40.png","朋友","Word","朋友","Match","j","true","Formal"
"","","","","","psychophysics","268","651093","0.0-9.0-0.1-0.205","1084","","f","","","","","","","","","","","","","key","f","16.686037593985088","640","356","./1_3_Stimuli/C_ambi40.png","朋友","Word","他人","Mismatch","f","true","Formal"
"","","","","","psychophysics","269","652902","0.0-9.0-0.1-0.206","651","","j","","","","","","","","","","","","","key","j","16.685953271028012","640","356","./1_3_Stimuli/S_ambi40.png","朋友","Image","朋友","Match","j","true","Formal"
"","","","","","psychophysics","270","654731","0.0-9.0-0.1-0.207","679","","f","","","","","","","","","","","","","key","f","16.684277777777794","640","356","./1_3_Stimuli/S_ambi40.png","自我","Image","朋友","Mismatch","f","true","Formal"
"","","","","","psychophysics","271","656832","0.0-9.0-0.1-0.208","944","","f","","","","","","","","","","","","","key","f","16.684575999999417","640","356","./1_3_Stimuli/S_ambi40.png","他人","Word","朋友","Mismatch","f","true","Formal"
"","","","","","psychophysics","272","658525","0.0-9.0-0.1-0.209","536","","j","","","","","","","","","","","","","key","j","16.685479999999515","640","356","./1_3_Stimuli/C_ambi40.png","他人","Image","他人","Match","j","true","Formal"
"","","","","","psychophysics","273","660350","0.0-9.0-0.1-0.210","672","","f","","","","","","","","","","","","","key","f","16.685249999999844","640","356","./1_3_Stimuli/C_ambi40.png","自我","Word","他人","Mismatch","f","true","Formal"
"","","","","","psychophysics","274","662351","0.0-9.0-0.1-0.211","845","","j","","","","","","","","","","","","","key","j","16.68414285714335","640","356","./1_3_Stimuli/C_ambi40.png","他人","Image","他人","Match","j","true","Formal"
"","","","","","psychophysics","275","664140","0.0-9.0-0.1-0.212","634","","j","","","","","","","","","","","","","key","j","16.684792452830084","640","356","./1_3_Stimuli/T_ambi40.png","自我","Word","自我","Match","j","true","Formal"
"","","","","","psychophysics","276","665879","0.0-9.0-0.1-0.213","582","","f","","","","","","","","","","","","","key","f","16.686300970873912","640","356","./1_3_Stimuli/S_ambi40.png","他人","Image","朋友","Mismatch","f","true","Formal"
"","","","","","psychophysics","277","667733","0.0-9.0-0.1-0.214","697","","j","","","","","","","","","","","","","key","j","16.6851454545458","640","356","./1_3_Stimuli/C_ambi40.png","他人","Word","他人","Match","j","true","Formal"
"","","","","","psychophysics","278","669703","0.0-9.0-0.1-0.215","815","","f","","","","","","","","","","","","","key","f","16.686042735042673","640","356","./1_3_Stimuli/T_ambi40.png","他人","Word","自我","Mismatch","f","true","Formal"
"","","","","","psychophysics","279","671733","0.0-9.0-0.1-0.216","877","","f","","","","","","","","","","","","","key","f","16.686791666666977","640","356","./1_3_Stimuli/C_ambi40.png","朋友","Image","他人","Mismatch","f","true","Formal"
"","","","","","psychophysics","280","673392","0.0-9.0-0.1-0.217","509","","j","","","","","","","","","","","","","key","j","16.685775510204138","640","356","./1_3_Stimuli/C_ambi40.png","他人","Word","他人","Match","j","true","Formal"
"","","","","","psychophysics","281","675131","0.0-9.0-0.1-0.218","586","","j","","","","","","","","","","","","","key","j","16.68312621359189","640","356","./1_3_Stimuli/S_ambi40.png","朋友","Word","朋友","Match","j","true","Formal"
"","","","","","psychophysics","282","677146","0.0-9.0-0.1-0.219","851","","j","","","","","","","","","","","","","key","j","16.68721848739577","640","356","./1_3_Stimuli/S_ambi40.png","朋友","Image","朋友","Match","j","true","Formal"
"","","","","","psychophysics","283","678950","0.0-9.0-0.1-0.220","652","","j","","","","","","","","","","","","","key","j","16.68396261682251","640","356","./1_3_Stimuli/C_ambi40.png","他人","Word","他人","Match","j","true","Formal"
"","","","","","psychophysics","284","680745","0.0-9.0-0.1-0.221","644","","j","","","","","","","","","","","","","key","j","16.684698113207354","640","356","./1_3_Stimuli/C_ambi40.png","他人","Image","他人","Match","j","true","Formal"
"","","","","","psychophysics","285","682630","0.0-9.0-0.1-0.222","727","","f","","","","","","","","","","","","","key","f","16.68766071428607","640","356","./1_3_Stimuli/S_ambi40.png","他人","Image","朋友","Mismatch","f","true","Formal"
"","","","","","psychophysics","286","684464","0.0-9.0-0.1-0.223","676","","f","","","","","","","","","","","","","key","f","16.685550458716452","640","356","./1_3_Stimuli/S_ambi40.png","他人","Word","朋友","Mismatch","f","true","Formal"
"","","","","","psychophysics","287","686293","0.0-9.0-0.1-0.224","674","","f","","","","","","","","","","","","","key","f","16.684825688074","640","356","./1_3_Stimuli/T_ambi40.png","朋友","Image","自我","Mismatch","f","true","Formal"
"","","","","","psychophysics","288","688038","0.0-9.0-0.1-0.225","586","","j","","","","","","","","","","","","","key","j","16.6844757281558","640","356","./1_3_Stimuli/T_ambi40.png","自我","Word","自我","Match","j","true","Formal"
"","","","","","psychophysics","289","689995","0.0-9.0-0.1-0.226","801","","f","","","","","","","","","","","","","key","f","16.683145299144925","640","356","./1_3_Stimuli/C_ambi40.png","自我","Image","他人","Mismatch","f","true","Formal"
"","","","","","psychophysics","290","692234","0.0-9.0-0.1-0.227","1088","","f","","","","","","","","","","","","","key","f","16.68580451127863","640","356","./1_3_Stimuli/T_ambi40.png","他人","Word","自我","Mismatch","f","true","Formal"
"","","","","","psychophysics","291","694293","0.0-9.0-0.1-0.228","900","","j","","","","","","","","","","","","","key","j","16.685352459016492","640","356","./1_3_Stimuli/C_ambi40.png","他人","Image","他人","Match","j","true","Formal"
"","","","","","psychophysics","292","696223","0.0-9.0-0.1-0.229","772","","j","","","","","","","","","","","","","key","j","16.684365217391726","640","356","./1_3_Stimuli/S_ambi40.png","朋友","Word","朋友","Match","j","true","Formal"
"","","","","","psychophysics","293","697972","0.0-9.0-0.1-0.230","594","","f","","","","","","","","","","","","","key","f","16.68274999999938","640","356","./1_3_Stimuli/S_ambi40.png","自我","Image","朋友","Mismatch","f","true","Formal"
"","","","","","psychophysics","294","700238","0.0-9.0-0.1-0.231","1103","","j","","","","","","","","","","","","","key","j","16.68479104477603","640","356","./1_3_Stimuli/S_ambi40.png","朋友","Image","朋友","Match","j","true","Formal"
"","","","","","psychophysics","295","702002","0.0-9.0-0.1-0.232","611","","f","","","","","","","","","","","","","key","f","16.6847884615384","640","356","./1_3_Stimuli/T_ambi40.png","朋友","Word","自我","Mismatch","f","true","Formal"
"","","","","","psychophysics","296","703752","0.0-9.0-0.1-0.233","593","","j","","","","","","","","","","","","","key","j","16.683624999999527","640","356","./1_3_Stimuli/T_ambi40.png","自我","Image","自我","Match","j","true","Formal"
"","","","","","psychophysics","297","706293","0.0-9.0-0.1-0.234","1382","","f","","","","","","","","","","","","","key","f","16.685821192053037","640","356","./1_3_Stimuli/C_ambi40.png","朋友","Word","他人","Mismatch","f","true","Formal"
"","","","","","psychophysics","298","708262","0.0-9.0-0.1-0.235","815","","f","","","","","","","","","","","","","key","f","16.685538461538325","640","356","./1_3_Stimuli/T_ambi40.png","他人","Image","自我","Mismatch","f","true","Formal"
"","","","","","psychophysics","299","710192","0.0-9.0-0.1-0.236","777","","j","","","","","","","","","","","","","key","j","16.686278260869745","640","356","./1_3_Stimuli/T_ambi40.png","自我","Image","自我","Match","j","true","Formal"
"","","","","","psychophysics","300","712217","0.0-9.0-0.1-0.237","865","","j","","","","","","","","","","","","","key","j","16.686225000000558","640","356","./1_3_Stimuli/T_ambi40.png","自我","Word","自我","Match","j","true","Formal"
"","","","","","psychophysics","301","714011","0.0-9.0-0.1-0.238","641","","f","","","","","","","","","","","","","key","f","16.685869158878834","640","356","./1_3_Stimuli/C_ambi40.png","自我","Word","他人","Mismatch","f","true","Formal"
"","","","","","psychophysics","302","715810","0.0-9.0-0.1-0.239","638","","f","","","","","","","","","","","","","key","f","16.68405607476652","640","356","./1_3_Stimuli/S_ambi40.png","自我","Word","朋友","Mismatch","f","true","Formal"
"","","","","","html-keyboard-response","303","723205","0.0-9.0-1.1","7393","<style>.context{color:white; font-size: 35px; line-height:40px}</style>                        <div><p class='context'>您正确回答了97% 的试次。</p><p class='context'>您的平均反应时为773毫秒。</p><p> <div style = 'color: green'><按任意键进入休息></div></p>","n","","","","","","","","","","","","","","","","","","","","","","","","",""
"","","","","","html-button-response","304","732037","0.0-9.0-2.1","8830","
                  <p>您当前还剩余4组实验</p>
                  <p>现在是休息时间，当您结束休息后，您可以点击 结束休息 按钮 继续</p>
                  <p>建议休息时间还剩余<span id=""iii"">60</span>秒</p>","0","","","","","","","","","","","","","","","","","","","","","","","","",""
"","","","","","psychophysics","305","734242","0.0-9.0-0.2-0.240","1049","","j","","","","","","","","","","","","","key","j","16.68709923664129","640","356","./1_3_Stimuli/S_ambi40.png","朋友","Word","朋友","Match","j","true","Formal"
"","","","","","psychophysics","306","735942","0.0-9.0-0.2-0.241","548","","j","","","","","","","","","","","","","key","j","16.686089999999385","640","356","./1_3_Stimuli/C_ambi40.png","他人","Image","他人","Match","j","true","Formal"
"","","","","","psychophysics","307","737659","0.0-9.0-0.2-0.242","562","","f","","","","","","","","","","","","","key","f","16.684666666666768","640","356","./1_3_Stimuli/C_ambi40.png","朋友","Image","他人","Mismatch","f","true","Formal"
"","","","","","psychophysics","308","739603","0.0-9.0-0.2-0.243","788","","f","","","","","","","","","","","","","key","f","16.68518260869643","640","356","./1_3_Stimuli/T_ambi40.png","朋友","Word","自我","Mismatch","f","true","Formal"
"","","","","","psychophysics","309","741299","0.0-9.0-0.2-0.244","543","","j","","","","","","","","","","","","","key","j","16.683319999999366","640","356","./1_3_Stimuli/T_ambi40.png","自我","Image","自我","Match","j","true","Formal"
"","","","","","psychophysics","310","743434","0.0-9.0-0.2-0.245","981","","j","","","","","","","","","","","","","key","j","16.68573228346448","640","356","./1_3_Stimuli/T_ambi40.png","自我","Word","自我","Match","j","true","Formal"
"","","","","","psychophysics","311","745310","0.0-9.0-0.2-0.246","722","","f","","","","","","","","","","","","","key","f","16.685207207207903","640","356","./1_3_Stimuli/S_ambi40.png","自我","Image","朋友","Mismatch","f","true","Formal"
"","","","","","psychophysics","312","747434","0.0-9.0-0.2-0.247","961","","f","","","","","","","","","","","","","key","f","16.68473809523811","640","356","./1_3_Stimuli/C_ambi40.png","朋友","Word","他人","Mismatch","f","true","Formal"
"","","","","","psychophysics","313","749380","0.0-9.0-0.2-0.248","792","","f","","","","","","","","","","","","","key","f","16.68497413793049","640","356","./1_3_Stimuli/C_ambi40.png","自我","Image","他人","Mismatch","f","true","Formal"
"","","","","","psychophysics","314","751230","0.0-9.0-0.2-0.249","697","","f","","","","","","","","","","","","","key","f","16.68409090909091","640","356","./1_3_Stimuli/T_ambi40.png","他人","Word","自我","Mismatch","f","true","Formal"
"","","","","","psychophysics","315","753082","0.0-9.0-0.2-0.250","695","","f","","","","","","","","","","","","","key","f","16.683654545453926","640","356","./1_3_Stimuli/S_ambi40.png","自我","Word","朋友","Mismatch","f","true","Formal"
"","","","","","psychophysics","316","755054","0.0-9.0-0.2-0.251","817","","j","","","","","","","","","","","","","key","j","16.685803418802934","640","356","./1_3_Stimuli/S_ambi40.png","朋友","Image","朋友","Match","j","true","Formal"
"","","","","","psychophysics","317","756762","0.0-9.0-0.2-0.252","553","","j","","","","","","","","","","","","","key","j","16.683702970297066","640","356","./1_3_Stimuli/T_ambi40.png","自我","Word","自我","Match","j","true","Formal"
"","","","","","psychophysics","318","758506","0.0-9.0-0.2-0.253","586","","f","","","","","","","","","","","","","key","f","16.68425961538406","640","356","./1_3_Stimuli/C_ambi40.png","自我","Word","他人","Mismatch","f","true","Formal"
"","","","","","psychophysics","319","760807","0.0-9.0-0.2-0.254","1139","","j","","","","","","","","","","","","","key","j","16.68416058394147","640","356","./1_3_Stimuli/S_ambi40.png","朋友","Image","朋友","Match","j","true","Formal"
"","","","","","psychophysics","320","762545","0.0-9.0-0.2-0.255","587","","f","","","","","","","","","","","","","key","f","16.685233009709002","640","356","./1_3_Stimuli/C_ambi40.png","他人","Word","他人","Match","j","false","Formal"
"","","","","","psychophysics","321","764316","0.0-9.0-0.2-0.256","614","","j","","","","","","","","","","","","","key","j","16.684276190476623","640","356","./1_3_Stimuli/T_ambi40.png","自我","Image","自我","Match","j","true","Formal"
"","","","","","psychophysics","322","767024","0.0-9.0-0.2-0.257","null","","null","","","","","","","","","","","","","key","null","16.684099378882074","640","356","./1_3_Stimuli/T_ambi40.png","朋友","Image","自我","Mismatch","f","false","Formal"
"","","","","","psychophysics","323","768846","0.0-9.0-0.2-0.258","665","","j","","","","","","","","","","","","","key","j","16.685130841121573","640","356","./1_3_Stimuli/S_ambi40.png","朋友","Word","朋友","Match","j","true","Formal"
"","","","","","psychophysics","324","771168","0.0-9.0-0.2-0.259","1169","","j","","","","","","","","","","","","","key","j","16.684366906474665","640","356","./1_3_Stimuli/C_ambi40.png","他人","Word","他人","Match","j","true","Formal"
"","","","","","psychophysics","325","772876","0.0-9.0-0.2-0.260","556","","f","","","","","","","","","","","","","key","f","16.685217821781553","640","356","./1_3_Stimuli/S_ambi40.png","他人","Word","朋友","Mismatch","f","true","Formal"
"","","","","","psychophysics","326","774550","0.0-9.0-0.2-0.261","518","","j","","","","","","","","","","","","","key","j","16.68314141414194","640","356","./1_3_Stimuli/C_ambi40.png","他人","Image","他人","Match","j","true","Formal"
"","","","","","psychophysics","327","776399","0.0-9.0-0.2-0.262","695","","f","","","","","","","","","","","","","key","f","16.68562727272722","640","356","./1_3_Stimuli/T_ambi40.png","他人","Image","自我","Mismatch","f","true","Formal"
"","","","","","psychophysics","328","778050","0.0-9.0-0.2-0.263","493","","j","","","","","","","","","","","","","key","j","16.686193877550753","640","356","./1_3_Stimuli/S_ambi40.png","他人","Image","朋友","Mismatch","f","false","Formal"
"","","","","","psychophysics","329","779933","0.0-9.0-0.2-0.264","726","","f","","","","","","","","","","","","","key","f","16.683901785713847","640","356","./1_3_Stimuli/T_ambi40.png","他人","Image","自我","Mismatch","f","true","Formal"
"","","","","","psychophysics","330","781677","0.0-9.0-0.2-0.265","584","","j","","","","","","","","","","","","","key","j","16.68263106796104","640","356","./1_3_Stimuli/S_ambi40.png","朋友","Image","朋友","Match","j","true","Formal"
"","","","","","psychophysics","331","783427","0.0-9.0-0.2-0.266","596","","j","","","","","","","","","","","","","key","j","16.683757281553643","640","356","./1_3_Stimuli/S_ambi40.png","朋友","Word","朋友","Match","j","true","Formal"
"","","","","","psychophysics","332","785181","0.0-9.0-0.2-0.267","598","","f","","","","","","","","","","","","","key","f","16.684728155339823","640","356","./1_3_Stimuli/S_ambi40.png","他人","Image","朋友","Mismatch","f","true","Formal"
"","","","","","psychophysics","333","786975","0.0-9.0-0.2-0.268","641","","j","","","","","","","","","","","","","key","j","16.68586792452766","640","356","./1_3_Stimuli/T_ambi40.png","自我","Word","自我","Match","j","true","Formal"
"","","","","","psychophysics","334","788807","0.0-9.0-0.2-0.269","671","","j","","","","","","","","","","","","","key","j","16.685440366972376","640","356","./1_3_Stimuli/C_ambi40.png","朋友","Word","他人","Mismatch","f","false","Formal"
"","","","","","psychophysics","335","790805","0.0-9.0-0.2-0.270","845","","j","","","","","","","","","","","","","key","j","16.683686440677373","640","356","./1_3_Stimuli/T_ambi40.png","自我","Image","自我","Match","j","true","Formal"
"","","","","","psychophysics","336","792610","0.0-9.0-0.2-0.271","652","","j","","","","","","","","","","","","","key","j","16.684831775700953","640","356","./1_3_Stimuli/S_ambi40.png","朋友","Word","朋友","Match","j","true","Formal"
"","","","","","psychophysics","337","794490","0.0-9.0-0.2-0.272","720","","f","","","","","","","","","","","","","key","f","16.68619819819877","640","356","./1_3_Stimuli/T_ambi40.png","朋友","Image","自我","Mismatch","f","true","Formal"
"","","","","","psychophysics","338","796709","0.0-9.0-0.2-0.273","1068","","f","","","","","","","","","","","","","key","f","16.685671755725","640","356","./1_3_Stimuli/C_ambi40.png","自我","Word","他人","Mismatch","f","true","Formal"
"","","","","","psychophysics","339","799005","0.0-9.0-0.2-0.274","1141","","f","","","","","","","","","","","","","key","f","16.684635036496655","640","356","./1_3_Stimuli/S_ambi40.png","自我","Image","朋友","Mismatch","f","true","Formal"
"","","","","","psychophysics","340","801005","0.0-9.0-0.2-0.275","838","","j","","","","","","","","","","","","","key","j","16.684184873949135","640","356","./1_3_Stimuli/C_ambi40.png","他人","Image","他人","Match","j","true","Formal"
"","","","","","psychophysics","341","802779","0.0-9.0-0.2-0.276","616","","f","","","","","","","","","","","","","key","f","16.68596190476147","640","356","./1_3_Stimuli/C_ambi40.png","自我","Image","他人","Mismatch","f","true","Formal"
"","","","","","psychophysics","342","804440","0.0-9.0-0.2-0.277","504","","j","","","","","","","","","","","","","key","j","16.685717171717744","640","356","./1_3_Stimuli/C_ambi40.png","他人","Word","他人","Match","j","true","Formal"
"","","","","","psychophysics","343","806814","0.0-9.0-0.2-0.278","1209","","f","","","","","","","","","","","","","key","f","16.68572340425556","640","356","./1_3_Stimuli/T_ambi40.png","朋友","Word","自我","Mismatch","f","true","Formal"
"","","","","","psychophysics","344","808683","0.0-9.0-0.2-0.279","715","","j","","","","","","","","","","","","","key","j","16.684486486486513","640","356","./1_3_Stimuli/T_ambi40.png","自我","Image","自我","Match","j","true","Formal"
"","","","","","psychophysics","345","810608","0.0-9.0-0.2-0.280","773","","j","","","","","","","","","","","","","key","j","16.686324561402824","640","356","./1_3_Stimuli/C_ambi40.png","他人","Image","他人","Match","j","true","Formal"
"","","","","","psychophysics","346","812518","0.0-9.0-0.2-0.281","756","","f","","","","","","","","","","","","","key","f","16.686078947368323","640","356","./1_3_Stimuli/S_ambi40.png","自我","Word","朋友","Mismatch","f","true","Formal"
"","","","","","psychophysics","347","814944","0.0-9.0-0.2-0.282","1265","","f","","","","","","","","","","","","","key","f","16.68593750000016","640","356","./1_3_Stimuli/C_ambi40.png","朋友","Image","他人","Mismatch","f","true","Formal"
"","","","","","psychophysics","348","816984","0.0-9.0-0.2-0.283","883","","j","","","","","","","","","","","","","key","j","16.685033057850962","640","356","./1_3_Stimuli/S_ambi40.png","朋友","Image","朋友","Match","j","true","Formal"
"","","","","","psychophysics","349","818794","0.0-9.0-0.2-0.284","658","","j","","","","","","","","","","","","","key","j","16.683906542055666","640","356","./1_3_Stimuli/C_ambi40.png","他人","Word","他人","Match","j","true","Formal"
"","","","","","psychophysics","350","820840","0.0-9.0-0.2-0.285","889","","f","","","","","","","","","","","","","key","f","16.684016393443194","640","356","./1_3_Stimuli/T_ambi40.png","他人","Word","自我","Mismatch","f","true","Formal"
"","","","","","psychophysics","351","823543","0.0-9.0-0.2-0.286","null","","null","","","","","","","","","","","","","key","null","16.685304347826282","640","356","./1_3_Stimuli/S_ambi40.png","他人","Word","朋友","Mismatch","f","false","Formal"
"","","","","","psychophysics","352","825280","0.0-9.0-0.2-0.287","586","","j","","","","","","","","","","","","","key","j","16.684029126214316","640","356","./1_3_Stimuli/T_ambi40.png","自我","Word","自我","Match","j","true","Formal"
"","","","","","psychophysics","353","827961","0.0-9.0-0.2-0.288","1524","","f","","","","","","","","","","","","","key","f","16.684955974842374","640","356","./1_3_Stimuli/T_ambi40.png","他人","Image","自我","Mismatch","f","true","Formal"
"","","","","","psychophysics","354","829820","0.0-9.0-0.2-0.289","708","","j","","","","","","","","","","","","","key","j","16.685234234234116","640","356","./1_3_Stimuli/T_ambi40.png","自我","Image","自我","Match","j","true","Formal"
"","","","","","psychophysics","355","831695","0.0-9.0-0.2-0.290","725","","j","","","","","","","","","","","","","key","j","16.685720720720635","640","356","./1_3_Stimuli/T_ambi40.png","自我","Image","自我","Match","j","true","Formal"
"","","","","","psychophysics","356","833951","0.0-9.0-0.2-0.291","1099","","f","","","","","","","","","","","","","key","f","16.686293233082722","640","356","./1_3_Stimuli/S_ambi40.png","他人","Image","朋友","Mismatch","f","true","Formal"
"","","","","","psychophysics","357","835842","0.0-9.0-0.2-0.292","738","","j","","","","","","","","","","","","","key","j","16.68598230088447","640","356","./1_3_Stimuli/S_ambi40.png","朋友","Word","朋友","Match","j","true","Formal"
"","","","","","psychophysics","358","838349","0.0-9.0-0.2-0.293","1356","","f","","","","","","","","","","","","","key","f","16.684583892617624","640","356","./1_3_Stimuli/C_ambi40.png","朋友","Image","他人","Mismatch","f","true","Formal"
"","","","","","psychophysics","359","840131","0.0-9.0-0.2-0.294","622","","j","","","","","","","","","","","","","key","j","16.684405660377553","640","356","./1_3_Stimuli/S_ambi40.png","朋友","Word","朋友","Match","j","true","Formal"
"","","","","","psychophysics","360","841926","0.0-9.0-0.2-0.295","632","","j","","","","","","","","","","","","","key","j","16.68708490566043","640","356","./1_3_Stimuli/T_ambi40.png","自我","Word","自我","Match","j","true","Formal"
"","","","","","psychophysics","361","843746","0.0-9.0-0.2-0.296","666","","f","","","","","","","","","","","","","key","f","16.685749999999878","640","356","./1_3_Stimuli/T_ambi40.png","朋友","Image","自我","Mismatch","f","true","Formal"
"","","","","","psychophysics","362","846081","0.0-9.0-0.2-0.297","1182","","f","","","","","","","","","","","","","key","f","16.6853840579709","640","356","./1_3_Stimuli/C_ambi40.png","朋友","Word","他人","Mismatch","f","true","Formal"
"","","","","","psychophysics","363","847800","0.0-9.0-0.2-0.298","566","","f","","","","","","","","","","","","","key","f","16.685235294117366","640","356","./1_3_Stimuli/T_ambi40.png","他人","Word","自我","Mismatch","f","true","Formal"
"","","","","","psychophysics","364","849830","0.0-9.0-0.2-0.299","877","","f","","","","","","","","","","","","","key","f","16.686291666666513","640","356","./1_3_Stimuli/C_ambi40.png","自我","Word","他人","Mismatch","f","true","Formal"
"","","","","","psychophysics","365","851821","0.0-9.0-0.2-0.300","837","","f","","","","","","","","","","","","","key","f","16.684084745762295","640","356","./1_3_Stimuli/S_ambi40.png","自我","Word","朋友","Mismatch","f","true","Formal"
"","","","","","psychophysics","366","853780","0.0-9.0-0.2-0.301","805","","j","","","","","","","","","","","","","key","j","16.68688034188026","640","356","./1_3_Stimuli/C_ambi40.png","他人","Image","他人","Match","j","true","Formal"
"","","","","","psychophysics","367","855585","0.0-9.0-0.2-0.302","642","","j","","","","","","","","","","","","","key","j","16.687495327102038","640","356","./1_3_Stimuli/S_ambi40.png","朋友","Image","朋友","Match","j","true","Formal"
"","","","","","psychophysics","368","857540","0.0-9.0-0.2-0.303","804","","j","","","","","","","","","","","","","key","j","16.6849482758623","640","356","./1_3_Stimuli/C_ambi40.png","他人","Word","他人","Match","j","true","Formal"
"","","","","","psychophysics","369","859189","0.0-9.0-0.2-0.304","492","","j","","","","","","","","","","","","","key","j","16.685316326531428","640","356","./1_3_Stimuli/C_ambi40.png","他人","Image","他人","Match","j","true","Formal"
"","","","","","psychophysics","370","860823","0.0-9.0-0.2-0.305","478","","j","","","","","","","","","","","","","key","j","16.685938144329523","640","356","./1_3_Stimuli/C_ambi40.png","他人","Word","他人","Match","j","true","Formal"
"","","","","","psychophysics","371","862783","0.0-9.0-0.2-0.306","800","","j","","","","","","","","","","","","","key","j","16.68434482758588","640","356","./1_3_Stimuli/S_ambi40.png","朋友","Image","朋友","Match","j","true","Formal"
"","","","","","psychophysics","372","864598","0.0-9.0-0.2-0.307","664","","f","","","","","","","","","","","","","key","f","16.686249999999912","640","356","./1_3_Stimuli/S_ambi40.png","他人","Word","朋友","Mismatch","f","true","Formal"
"","","","","","psychophysics","373","866495","0.0-9.0-0.2-0.308","740","","f","","","","","","","","","","","","","key","f","16.68513274336217","640","356","./1_3_Stimuli/T_ambi40.png","朋友","Word","自我","Mismatch","f","true","Formal"
"","","","","","psychophysics","374","868387","0.0-9.0-0.2-0.309","741","","f","","","","","","","","","","","","","key","f","16.68629464285706","640","356","./1_3_Stimuli/S_ambi40.png","自我","Image","朋友","Mismatch","f","true","Formal"
"","","","","","psychophysics","375","870524","0.0-9.0-0.2-0.310","981","","j","","","","","","","","","","","","","key","j","16.684889763778838","640","356","./1_3_Stimuli/T_ambi40.png","自我","Word","自我","Match","j","true","Formal"
"","","","","","psychophysics","376","872288","0.0-9.0-0.2-0.311","609","","f","","","","","","","","","","","","","key","f","16.684914285713983","640","356","./1_3_Stimuli/C_ambi40.png","自我","Image","他人","Mismatch","f","true","Formal"
"","","","","","psychophysics","377","874072","0.0-9.0-0.2-0.312","625","","j","","","","","","","","","","","","","key","j","16.684443396226204","640","356","./1_3_Stimuli/T_ambi40.png","自我","Image","自我","Match","j","true","Formal"
"","","","","","psychophysics","378","875777","0.0-9.0-0.2-0.313","544","","j","","","","","","","","","","","","","key","j","16.685118811880468","640","356","./1_3_Stimuli/C_ambi40.png","他人","Word","他人","Match","j","true","Formal"
"","","","","","psychophysics","379","877551","0.0-9.0-0.2-0.314","622","","f","","","","","","","","","","","","","key","f","16.684390476190796","640","356","./1_3_Stimuli/C_ambi40.png","自我","Image","他人","Mismatch","f","true","Formal"
"","","","","","psychophysics","380","879475","0.0-9.0-0.2-0.315","772","","j","","","","","","","","","","","","","key","j","16.685736842105253","640","356","./1_3_Stimuli/T_ambi40.png","自我","Word","自我","Match","j","true","Formal"
"","","","","","psychophysics","381","881841","0.0-9.0-0.2-0.316","1211","","j","","","","","","","","","","","","","key","j","16.684886524822822","640","356","./1_3_Stimuli/C_ambi40.png","他人","Image","他人","Match","j","true","Formal"
"","","","","","psychophysics","382","883651","0.0-9.0-0.2-0.317","646","","j","","","","","","","","","","","","","key","j","16.683420560748107","640","356","./1_3_Stimuli/T_ambi40.png","自我","Image","自我","Match","j","true","Formal"
"","","","","","psychophysics","383","885336","0.0-9.0-0.2-0.318","529","","j","","","","","","","","","","","","","key","j","16.68662000000011","640","356","./1_3_Stimuli/C_ambi40.png","他人","Word","他人","Match","j","true","Formal"
"","","","","","psychophysics","384","887119","0.0-9.0-0.2-0.319","628","","j","","","","","","","","","","","","","key","j","16.686650943395435","640","356","./1_3_Stimuli/S_ambi40.png","朋友","Word","朋友","Match","j","true","Formal"
"","","","","","psychophysics","385","889130","0.0-9.0-0.2-0.320","850","","f","","","","","","","","","","","","","key","f","16.686252100841227","640","356","./1_3_Stimuli/T_ambi40.png","朋友","Word","自我","Mismatch","f","true","Formal"
"","","","","","psychophysics","386","891204","0.0-9.0-0.2-0.321","922","","f","","","","","","","","","","","","","key","f","16.685162601626207","640","356","./1_3_Stimuli/C_ambi40.png","朋友","Word","他人","Mismatch","f","true","Formal"
"","","","","","psychophysics","387","893465","0.0-9.0-0.2-0.322","1096","","f","","","","","","","","","","","","","key","f","16.683514925373245","640","356","./1_3_Stimuli/S_ambi40.png","自我","Image","朋友","Mismatch","f","true","Formal"
"","","","","","psychophysics","388","896173","0.0-9.0-0.2-0.323","null","","null","","","","","","","","","","","","","key","null","16.68647530864217","640","356","./1_3_Stimuli/T_ambi40.png","他人","Image","自我","Mismatch","f","false","Formal"
"","","","","","psychophysics","389","898157","0.0-9.0-0.2-0.324","833","","f","","","","","","","","","","","","","key","f","16.684957264957383","640","356","./1_3_Stimuli/C_ambi40.png","朋友","Image","他人","Mismatch","f","true","Formal"
"","","","","","psychophysics","390","900597","0.0-9.0-0.2-0.325","1287","","f","","","","","","","","","","","","","key","f","16.68526896551685","640","356","./1_3_Stimuli/S_ambi40.png","他人","Word","朋友","Mismatch","f","true","Formal"
"","","","","","psychophysics","391","902492","0.0-9.0-0.2-0.326","735","","j","","","","","","","","","","","","","key","j","16.686678571428015","640","356","./1_3_Stimuli/S_ambi40.png","朋友","Image","朋友","Match","j","true","Formal"
"","","","","","psychophysics","392","904527","0.0-9.0-0.2-0.327","880","","j","","","","","","","","","","","","","key","j","16.684708333333642","640","356","./1_3_Stimuli/C_ambi40.png","他人","Image","他人","Match","j","true","Formal"
"","","","","","psychophysics","393","906291","0.0-9.0-0.2-0.328","608","","f","","","","","","","","","","","","","key","f","16.684857142856345","640","356","./1_3_Stimuli/T_ambi40.png","他人","Word","自我","Mismatch","f","true","Formal"
"","","","","","psychophysics","394","908439","0.0-9.0-0.2-0.329","995","","f","","","","","","","","","","","","","key","f","16.685023437499694","640","356","./1_3_Stimuli/S_ambi40.png","自我","Word","朋友","Mismatch","f","true","Formal"
"","","","","","psychophysics","395","910732","0.0-9.0-0.2-0.330","1141","","f","","","","","","","","","","","","","key","f","16.683926470587988","640","356","./1_3_Stimuli/T_ambi40.png","朋友","Image","自我","Mismatch","f","true","Formal"
"","","","","","psychophysics","396","912521","0.0-9.0-0.2-0.331","632","","j","","","","","","","","","","","","","key","j","16.68411320754775","640","356","./1_3_Stimuli/T_ambi40.png","自我","Word","自我","Match","j","true","Formal"
"","","","","","psychophysics","397","914473","0.0-9.0-0.2-0.332","798","","j","","","","","","","","","","","","","key","j","16.687034482758587","640","356","./1_3_Stimuli/S_ambi40.png","朋友","Word","朋友","Match","j","true","Formal"
"","","","","","psychophysics","398","916432","0.0-9.0-0.2-0.333","805","","j","","","","","","","","","","","","","key","j","16.684991379310617","640","356","./1_3_Stimuli/S_ambi40.png","朋友","Image","朋友","Match","j","true","Formal"
"","","","","","psychophysics","399","918458","0.0-9.0-0.2-0.334","871","","f","","","","","","","","","","","","","key","f","16.68401666666711","640","356","./1_3_Stimuli/S_ambi40.png","他人","Image","朋友","Mismatch","f","true","Formal"
"","","","","","psychophysics","400","920967","0.0-9.0-0.2-0.335","1353","","f","","","","","","","","","","","","","key","f","16.683946666667083","640","356","./1_3_Stimuli/C_ambi40.png","自我","Word","他人","Mismatch","f","true","Formal"
"","","","","","psychophysics","401","922722","0.0-9.0-0.2-0.336","592","","j","","","","","","","","","","","","","key","j","16.68417307692289","640","356","./1_3_Stimuli/C_ambi40.png","他人","Word","他人","Match","j","true","Formal"
"","","","","","psychophysics","402","924497","0.0-9.0-0.2-0.337","611","","f","","","","","","","","","","","","","key","f","16.6851523809523","640","356","./1_3_Stimuli/T_ambi40.png","朋友","Word","自我","Mismatch","f","true","Formal"
"","","","","","psychophysics","403","926672","0.0-9.0-0.2-0.338","1020","","j","","","","","","","","","","","","","key","j","16.682372093023805","640","356","./1_3_Stimuli/C_ambi40.png","他人","Image","他人","Match","j","true","Formal"
"","","","","","psychophysics","404","928495","0.0-9.0-0.2-0.339","671","","j","","","","","","","","","","","","","key","j","16.68476851851813","640","356","./1_3_Stimuli/S_ambi40.png","朋友","Word","朋友","Match","j","true","Formal"
"","","","","","psychophysics","405","930587","0.0-9.0-0.2-0.340","935","","f","","","","","","","","","","","","","key","f","16.685346774193608","640","356","./1_3_Stimuli/S_ambi40.png","自我","Image","朋友","Mismatch","f","true","Formal"
"","","","","","psychophysics","406","932877","0.0-9.0-0.2-0.341","1136","","j","","","","","","","","","","","","","key","j","16.68511764705866","640","356","./1_3_Stimuli/T_ambi40.png","自我","Word","自我","Match","j","true","Formal"
"","","","","","psychophysics","407","934702","0.0-9.0-0.2-0.342","671","","f","","","","","","","","","","","","","key","f","16.68571296296324","640","356","./1_3_Stimuli/T_ambi40.png","自我","Word","自我","Match","j","false","Formal"
"","","","","","psychophysics","408","936402","0.0-9.0-0.2-0.343","548","","f","","","","","","","","","","","","","key","f","16.684386138614073","640","356","./1_3_Stimuli/C_ambi40.png","朋友","Image","他人","Mismatch","f","true","Formal"
"","","","","","psychophysics","409","938416","0.0-9.0-0.2-0.344","860","","f","","","","","","","","","","","","","key","f","16.685000000000116","640","356","./1_3_Stimuli/C_ambi40.png","自我","Image","他人","Mismatch","f","true","Formal"
"","","","","","psychophysics","410","941127","0.0-9.0-0.2-0.345","null","","null","","","","","","","","","","","","","key","null","16.683161490682878","640","356","./1_3_Stimuli/S_ambi40.png","他人","Word","朋友","Mismatch","f","false","Formal"
"","","","","","psychophysics","411","943153","0.0-9.0-0.2-0.346","869","","f","","","","","","","","","","","","","key","f","16.686341666665975","640","356","./1_3_Stimuli/T_ambi40.png","朋友","Image","自我","Mismatch","f","true","Formal"
"","","","","","psychophysics","412","945283","0.0-9.0-0.2-0.347","975","","f","","","","","","","","","","","","","key","f","16.68643307086634","640","356","./1_3_Stimuli/S_ambi40.png","自我","Word","朋友","Mismatch","f","true","Formal"
"","","","","","psychophysics","413","947683","0.0-9.0-0.2-0.348","1239","","f","","","","","","","","","","","","","key","f","16.685587412587342","640","356","./1_3_Stimuli/C_ambi40.png","朋友","Word","他人","Mismatch","f","true","Formal"
"","","","","","psychophysics","414","949423","0.0-9.0-0.2-0.349","588","","f","","","","","","","","","","","","","key","f","16.68483495145688","640","356","./1_3_Stimuli/T_ambi40.png","他人","Image","自我","Mismatch","f","true","Formal"
"","","","","","psychophysics","415","951097","0.0-9.0-0.2-0.350","514","","f","","","","","","","","","","","","","key","f","16.68457575757621","640","356","./1_3_Stimuli/T_ambi40.png","他人","Word","自我","Mismatch","f","true","Formal"
"","","","","","psychophysics","416","953032","0.0-9.0-0.2-0.351","781","","f","","","","","","","","","","","","","key","f","16.68564035087771","640","356","./1_3_Stimuli/C_ambi40.png","自我","Word","他人","Mismatch","f","true","Formal"
"","","","","","psychophysics","417","954826","0.0-9.0-0.2-0.352","640","","j","","","","","","","","","","","","","key","j","16.685616822429132","640","356","./1_3_Stimuli/S_ambi40.png","朋友","Word","朋友","Match","j","true","Formal"
"","","","","","psychophysics","418","956646","0.0-9.0-0.2-0.353","661","","j","","","","","","","","","","","","","key","j","16.684166666666798","640","356","./1_3_Stimuli/S_ambi40.png","朋友","Image","朋友","Match","j","true","Formal"
"","","","","","psychophysics","419","958270","0.0-9.0-0.2-0.354","468","","j","","","","","","","","","","","","","key","j","16.68687500000063","640","356","./1_3_Stimuli/S_ambi40.png","朋友","Image","朋友","Match","j","true","Formal"
"","","","","","psychophysics","420","960065","0.0-9.0-0.2-0.355","639","","j","","","","","","","","","","","","","key","j","16.684859813083285","640","356","./1_3_Stimuli/C_ambi40.png","他人","Word","他人","Match","j","true","Formal"
"","","","","","psychophysics","421","961784","0.0-9.0-0.2-0.356","557","","j","","","","","","","","","","","","","key","j","16.685470588235916","640","356","./1_3_Stimuli/T_ambi40.png","自我","Image","自我","Match","j","true","Formal"
"","","","","","psychophysics","422","963551","0.0-9.0-0.2-0.357","613","","j","","","","","","","","","","","","","key","j","16.68541904761833","640","356","./1_3_Stimuli/T_ambi40.png","自我","Image","自我","Match","j","true","Formal"
"","","","","","psychophysics","423","965509","0.0-9.0-0.2-0.358","795","","f","","","","","","","","","","","","","key","f","16.685241379310447","640","356","./1_3_Stimuli/S_ambi40.png","他人","Image","朋友","Mismatch","f","true","Formal"
