"success","timeout","failed_images","failed_audio","failed_video","trial_type","trial_index","time_elapsed","internal_node_id","rt","stimulus","response","value","item_width_mm","item_height_mm","item_width_px","px2mm","view_dist_mm","item_width_deg","px2deg","scale_factor","win_width_deg","win_height_deg","view_history","response_type","key_press","avg_frame_time","center_x","center_y","image","word","target","valence","matchness","correct_response","correct","exp_condition"
"true","false","[]","[]","[]","preload","0","384","0.0-0.0","","","","","","","","","","","","","","","","","","","","","","","","","","","",""
"","","","","","html-keyboard-response","1","14166","0.0-1.0","13780","
     <p>您好，欢迎参加本次实验。</p>
     <p>为充分保障您的权利，请确保您已经知晓并同意《参与实验同意书》以及《数据公开知情同意书》。</p>
     <p>如果您未见过上述内容，请咨询实验员。</p>
     <p>如果您选择继续实验，则表示您已经清楚两份知情同意书的内容并同意。</p>
     <p> <div style = ""color: green""><按任意键至下页></div> </p>
     ","arrowright","","","","","","","","","","","","","","","","","","","","","","","","",""
"","","","","","html-keyboard-response","2","16053","0.0-2.0-0.0","1887","
      <p>本实验首先需要您填写一些基本个人信息。</p>
      <p> <div style = ""color: green""><按任意键至下页></div></p>
      ","arrowright","","","","","","","","","","","","","","","","","","","","","","","","",""
"","","","","","call-function","3","16054","0.0-2.0-1.0","","","","","","","","","","","","","","","","","","","","","","","","","","","",""
"","","","","","survey-html-form","4","26879","0.0-2.0-2.0","10824","","{""Q0"":""1016""}","","","","","","","","","","","","","","","","","","","","","","","","",""
"","","","","","html-button-response","5","28026","0.0-2.0-3.0","1146","<p style = 'color : white'>您的性别</p>","0","","","","","","","","","","","","","","","","","","","","","","","","",""
"","","","","","survey-html-form","6","34742","0.0-2.0-4.0","6716","","{""Q0"":""2003""}","","","","","","","","","","","","","","","","","","","","","","","","",""
"","","","","","survey-html-form","7","38697","0.0-2.0-5.0","3954","","{""Q0"":""5""}","","","","","","","","","","","","","","","","","","","","","","","","",""
"","","","","","virtual-chinrest","8","181189","0.0-3.0","142491","","","","85.6","53.98","361.6204741161122","4.222217074157903","677.23","7.232409482322243","50","1.0065801746698773","50.24","26.36","","","","","","","","","","","","","",""
"true","","","","","fullscreen","9","183795","0.0-4.0","","","","","","","","","","","","","","","","","","","","","","","","","","","",""
"","","","","","instructions","10","248009","0.0-5.0","64213","","","","","","","","","","","","","","[{""page_index"":0,""viewing_time"":5761},{""page_index"":1,""viewing_time"":45722},{""page_index"":2,""viewing_time"":10817},{""page_index"":3,""viewing_time"":1913}]","","","","","","","","","","","","",""
"","","","","","html-keyboard-response","11","251662","0.0-6.0","null","<count-down title=""""></count-down>","null","","","","","","","","","","","","","","","","","","","","","","","","",""
"","","","","","psychophysics","12","254370","0.0-7.0-0.0-0.0","null","","null","","","","","","","","","","","","","key","null","6.962496124031019","1280","716","./1_3_Stimuli/S_ambi40.png","朋友","Image","自我","Mismatch","j","false","Practice"
"","","","","","html-keyboard-response","13","254675","0.0-7.0-0.0-1.0","null","<span class='add_' style='color:yellow; font-size: 70px;'> 太慢! </span>","null","","","","","","","","","","","","","","","","","","","","","","","","","feedback"
"","","","","","psychophysics","14","257377","0.0-7.0-0.0-0.1","null","","null","","","","","","","","","","","","","key","null","6.9446511627907395","1280","716","./1_3_Stimuli/T_ambi40.png","他人","Word","他人","Match","f","false","Practice"
"","","","","","html-keyboard-response","15","257679","0.0-7.0-0.0-1.1","null","<span class='add_' style='color:yellow; font-size: 70px;'> 太慢! </span>","null","","","","","","","","","","","","","","","","","","","","","","","","","feedback"
"","","","","","psychophysics","16","259550","0.0-7.0-0.0-0.2","715","","j","","","","","","","","","","","","","key","j","6.944574626865701","1280","716","./1_3_Stimuli/S_ambi40.png","他人","Image","自我","Mismatch","j","true","Practice"
"","","","","","html-keyboard-response","17","259862","0.0-7.0-0.0-1.2","null","<span style='color:GreenYellow; font-size: 70px;'>正确! </span>","null","","","","","","","","","","","","","","","","","","","","","","","","","feedback"
"","","","","","psychophysics","18","262564","0.0-7.0-0.0-0.3","null","","null","","","","","","","","","","","","","key","null","6.941852713178302","1280","716","./1_3_Stimuli/T_ambi40.png","他人","Image","他人","Match","f","false","Practice"
"","","","","","html-keyboard-response","19","262876","0.0-7.0-0.0-1.3","null","<span class='add_' style='color:yellow; font-size: 70px;'> 太慢! </span>","null","","","","","","","","","","","","","","","","","","","","","","","","","feedback"
"","","","","","psychophysics","20","265578","0.0-7.0-0.0-0.4","null","","null","","","","","","","","","","","","","key","null","6.944219638242895","1280","716","./1_3_Stimuli/S_ambi40.png","自我","Image","自我","Match","f","false","Practice"
"","","","","","html-keyboard-response","21","265884","0.0-7.0-0.0-1.4","null","<span class='add_' style='color:yellow; font-size: 70px;'> 太慢! </span>","null","","","","","","","","","","","","","","","","","","","","","","","","","feedback"
"","","","","","psychophysics","22","268365","0.0-7.0-0.0-0.5","1329","","j","","","","","","","","","","","","","key","j","6.944713483145984","1280","716","./1_3_Stimuli/C_ambi40.png","他人","Image","朋友","Mismatch","j","true","Practice"
"","","","","","html-keyboard-response","23","268681","0.0-7.0-0.0-1.5","null","<span style='color:GreenYellow; font-size: 70px;'>正确! </span>","null","","","","","","","","","","","","","","","","","","","","","","","","","feedback"
"","","","","","psychophysics","24","270830","0.0-7.0-0.0-0.6","998","","j","","","","","","","","","","","","","key","j","6.941405844155967","1280","716","./1_3_Stimuli/C_ambi40.png","自我","Image","朋友","Mismatch","j","true","Practice"
"","","","","","html-keyboard-response","25","271140","0.0-7.0-0.0-1.6","null","<span style='color:GreenYellow; font-size: 70px;'>正确! </span>","null","","","","","","","","","","","","","","","","","","","","","","","","","feedback"
"","","","","","psychophysics","26","273077","0.0-7.0-0.0-0.7","784","","j","","","","","","","","","","","","","key","j","6.940797833935106","1280","716","./1_3_Stimuli/T_ambi40.png","朋友","Word","他人","Mismatch","j","true","Practice"
"","","","","","html-keyboard-response","27","273393","0.0-7.0-0.0-1.7","null","<span style='color:GreenYellow; font-size: 70px;'>正确! </span>","null","","","","","","","","","","","","","","","","","","","","","","","","","feedback"
"","","","","","psychophysics","28","275525","0.0-7.0-0.0-0.8","981","","j","","","","","","","","","","","","","key","j","6.944676470588223","1280","716","./1_3_Stimuli/T_ambi40.png","他人","Word","他人","Match","f","false","Practice"
"","","","","","html-keyboard-response","29","275832","0.0-7.0-0.0-1.8","null","<span style='color:red; font-size: 70px;'>错误! </span>","null","","","","","","","","","","","","","","","","","","","","","","","","","feedback"
"","","","","","psychophysics","30","277717","0.0-7.0-0.0-0.9","731","","f","","","","","","","","","","","","","key","f","6.944570370370315","1280","716","./1_3_Stimuli/S_ambi40.png","自我","Word","自我","Match","f","true","Practice"
"","","","","","html-keyboard-response","31","278026","0.0-7.0-0.0-1.9","null","<span style='color:GreenYellow; font-size: 70px;'>正确! </span>","null","","","","","","","","","","","","","","","","","","","","","","","","","feedback"
"","","","","","psychophysics","32","279741","0.0-7.0-0.0-0.10","562","","f","","","","","","","","","","","","","key","f","6.944638211382089","1280","716","./1_3_Stimuli/S_ambi40.png","自我","Word","自我","Match","f","true","Practice"
"","","","","","html-keyboard-response","33","280047","0.0-7.0-0.0-1.10","null","<span style='color:GreenYellow; font-size: 70px;'>正确! </span>","null","","","","","","","","","","","","","","","","","","","","","","","","","feedback"
"","","","","","psychophysics","34","281878","0.0-7.0-0.0-0.11","675","","j","","","","","","","","","","","","","key","j","6.944634980988643","1280","716","./1_3_Stimuli/S_ambi40.png","他人","Word","自我","Mismatch","j","true","Practice"
"","","","","","html-keyboard-response","35","282189","0.0-7.0-0.0-1.11","null","<span style='color:GreenYellow; font-size: 70px;'>正确! </span>","null","","","","","","","","","","","","","","","","","","","","","","","","","feedback"
"","","","","","psychophysics","36","284533","0.0-7.0-0.0-0.12","1191","","j","","","","","","","","","","","","","key","j","6.9445684523809526","1280","716","./1_3_Stimuli/T_ambi40.png","他人","Image","他人","Match","f","false","Practice"
"","","","","","html-keyboard-response","37","284848","0.0-7.0-0.0-1.12","null","<span style='color:red; font-size: 70px;'>错误! </span>","null","","","","","","","","","","","","","","","","","","","","","","","","","feedback"
"","","","","","psychophysics","38","287101","0.0-7.0-0.0-0.13","1099","","j","","","","","","","","","","","","","key","j","6.943362229102185","1280","716","./1_3_Stimuli/T_ambi40.png","自我","Word","他人","Mismatch","j","true","Practice"
"","","","","","html-keyboard-response","39","287417","0.0-7.0-0.0-1.13","null","<span style='color:GreenYellow; font-size: 70px;'>正确! </span>","null","","","","","","","","","","","","","","","","","","","","","","","","","feedback"
"","","","","","psychophysics","40","289518","0.0-7.0-0.0-0.14","950","","f","","","","","","","","","","","","","key","f","6.944582781456843","1280","716","./1_3_Stimuli/C_ambi40.png","朋友","Image","朋友","Match","f","true","Practice"
"","","","","","html-keyboard-response","41","289828","0.0-7.0-0.0-1.14","null","<span style='color:GreenYellow; font-size: 70px;'>正确! </span>","null","","","","","","","","","","","","","","","","","","","","","","","","","feedback"
"","","","","","psychophysics","42","291853","0.0-7.0-0.0-0.15","872","","f","","","","","","","","","","","","","key","f","6.9427827586205115","1280","716","./1_3_Stimuli/S_ambi40.png","自我","Image","自我","Match","f","true","Practice"
"","","","","","html-keyboard-response","43","292158","0.0-7.0-0.0-1.15","null","<span style='color:GreenYellow; font-size: 70px;'>正确! </span>","null","","","","","","","","","","","","","","","","","","","","","","","","","feedback"
"","","","","","psychophysics","44","294062","0.0-7.0-0.0-0.16","754","","f","","","","","","","","","","","","","key","f","6.9447509157507605","1280","716","./1_3_Stimuli/C_ambi40.png","自我","Word","朋友","Mismatch","j","false","Practice"
"","","","","","html-keyboard-response","45","294371","0.0-7.0-0.0-1.16","null","<span style='color:red; font-size: 70px;'>错误! </span>","null","","","","","","","","","","","","","","","","","","","","","","","","","feedback"
"","","","","","psychophysics","46","296205","0.0-7.0-0.0-0.17","683","","j","","","","","","","","","","","","","key","j","6.944798479087521","1280","716","./1_3_Stimuli/C_ambi40.png","他人","Word","朋友","Mismatch","j","true","Practice"
"","","","","","html-keyboard-response","47","296517","0.0-7.0-0.0-1.17","null","<span style='color:GreenYellow; font-size: 70px;'>正确! </span>","null","","","","","","","","","","","","","","","","","","","","","","","","","feedback"
"","","","","","psychophysics","48","298765","0.0-7.0-0.0-0.18","1096","","f","","","","","","","","","","","","","key","f","6.944658385093146","1280","716","./1_3_Stimuli/C_ambi40.png","朋友","Word","朋友","Match","f","true","Practice"
"","","","","","html-keyboard-response","49","299082","0.0-7.0-0.0-1.18","null","<span style='color:GreenYellow; font-size: 70px;'>正确! </span>","null","","","","","","","","","","","","","","","","","","","","","","","","","feedback"
"","","","","","psychophysics","50","301125","0.0-7.0-0.0-0.19","886","","j","","","","","","","","","","","","","key","j","6.9446109215017335","1280","716","./1_3_Stimuli/T_ambi40.png","朋友","Image","他人","Mismatch","j","true","Practice"
"","","","","","html-keyboard-response","51","301430","0.0-7.0-0.0-1.19","null","<span style='color:GreenYellow; font-size: 70px;'>正确! </span>","null","","","","","","","","","","","","","","","","","","","","","","","","","feedback"
"","","","","","psychophysics","52","303437","0.0-7.0-0.0-0.20","855","","j","","","","","","","","","","","","","key","j","6.944552083333393","1280","716","./1_3_Stimuli/S_ambi40.png","朋友","Word","自我","Mismatch","j","true","Practice"
"","","","","","html-keyboard-response","53","303745","0.0-7.0-0.0-1.20","null","<span style='color:GreenYellow; font-size: 70px;'>正确! </span>","null","","","","","","","","","","","","","","","","","","","","","","","","","feedback"
"","","","","","psychophysics","54","305758","0.0-7.0-0.0-0.21","859","","j","","","","","","","","","","","","","key","j","6.94115625000005","1280","716","./1_3_Stimuli/T_ambi40.png","自我","Image","他人","Mismatch","j","true","Practice"
"","","","","","html-keyboard-response","55","306071","0.0-7.0-0.0-1.21","null","<span style='color:GreenYellow; font-size: 70px;'>正确! </span>","null","","","","","","","","","","","","","","","","","","","","","","","","","feedback"
"","","","","","psychophysics","56","308165","0.0-7.0-0.0-0.22","940","","f","","","","","","","","","","","","","key","f","6.941060000000094","1280","716","./1_3_Stimuli/C_ambi40.png","朋友","Image","朋友","Match","f","true","Practice"
"","","","","","html-keyboard-response","57","308476","0.0-7.0-0.0-1.22","null","<span style='color:GreenYellow; font-size: 70px;'>正确! </span>","null","","","","","","","","","","","","","","","","","","","","","","","","","feedback"
"","","","","","psychophysics","58","310157","0.0-7.0-0.0-0.23","529","","f","","","","","","","","","","","","","key","f","6.9446265560164715","1280","716","./1_3_Stimuli/C_ambi40.png","朋友","Word","朋友","Match","f","true","Practice"
"","","","","","html-keyboard-response","59","310467","0.0-7.0-0.0-1.23","null","<span style='color:GreenYellow; font-size: 70px;'>正确! </span>","null","","","","","","","","","","","","","","","","","","","","","","","","","feedback"
"","","","","","html-keyboard-response","60","316782","0.0-7.0-1.0-0.0","6314","<style>.context{color:white; font-size: 35px; line-height:40px}</style>                        <div><p class='context'>您正确回答了71% 的试次。</p><p class='context'>您的平均反应时为857毫秒。</p><p> <div style = 'color: green'><按空格键至下页></div></p>"," ","","","","","","","","","","","","","","","","","","","","","","","","",""
"","","","","","instructions","61","321658","0.0-7.0-1.0-1.0","4874","","","","","","","","","","","","","","[{""page_index"":0,""viewing_time"":1926},{""page_index"":1,""viewing_time"":1750},{""page_index"":2,""viewing_time"":1198}]","","","","","","","","","","","","",""
"","","","","","psychophysics","62","323574","0.0-7.1-0.1-0.24","758","","f","","","","","","","","","","","","","key","f","7.459886718750113","1280","716","./1_3_Stimuli/S_ambi40.png","自我","Image","自我","Match","f","true","Practice"
"","","","","","html-keyboard-response","63","323876","0.0-7.1-0.1-1.24","null","<span style='color:GreenYellow; font-size: 70px;'>正确! </span>","null","","","","","","","","","","","","","","","","","","","","","","","","","feedback"
"","","","","","psychophysics","64","326077","0.0-7.1-0.1-0.25","1046","","f","","","","","","","","","","","","","key","f","6.94470253164561","1280","716","./1_3_Stimuli/T_ambi40.png","他人","Image","他人","Match","f","true","Practice"
"","","","","","html-keyboard-response","65","326386","0.0-7.1-0.1-1.25","null","<span style='color:GreenYellow; font-size: 70px;'>正确! </span>","null","","","","","","","","","","","","","","","","","","","","","","","","","feedback"
"","","","","","psychophysics","66","328134","0.0-7.1-0.1-0.26","596","","f","","","","","","","","","","","","","key","f","6.944600000000093","1280","716","./1_3_Stimuli/S_ambi40.png","自我","Word","自我","Match","f","true","Practice"
"","","","","","html-keyboard-response","67","328438","0.0-7.1-0.1-1.26","null","<span style='color:GreenYellow; font-size: 70px;'>正确! </span>","null","","","","","","","","","","","","","","","","","","","","","","","","","feedback"
"","","","","","psychophysics","68","330613","0.0-7.1-0.1-0.27","1020","","j","","","","","","","","","","","","","key","j","6.944557692307661","1280","716","./1_3_Stimuli/C_ambi40.png","他人","Word","朋友","Mismatch","j","true","Practice"
"","","","","","html-keyboard-response","69","330921","0.0-7.1-0.1-1.27","null","<span style='color:GreenYellow; font-size: 70px;'>正确! </span>","null","","","","","","","","","","","","","","","","","","","","","","","","","feedback"
"","","","","","psychophysics","70","332789","0.0-7.1-0.1-0.28","717","","j","","","","","","","","","","","","","key","j","6.94472761194021","1280","716","./1_3_Stimuli/C_ambi40.png","自我","Word","朋友","Mismatch","j","true","Practice"
"","","","","","html-keyboard-response","71","333100","0.0-7.1-0.1-1.28","null","<span style='color:GreenYellow; font-size: 70px;'>正确! </span>","null","","","","","","","","","","","","","","","","","","","","","","","","","feedback"
"","","","","","psychophysics","72","335389","0.0-7.1-0.1-0.29","1139","","j","","","","","","","","","","","","","key","j","6.944231707317202","1280","716","./1_3_Stimuli/T_ambi40.png","朋友","Word","他人","Mismatch","j","true","Practice"
"","","","","","html-keyboard-response","73","335696","0.0-7.1-0.1-1.29","null","<span style='color:GreenYellow; font-size: 70px;'>正确! </span>","null","","","","","","","","","","","","","","","","","","","","","","","","","feedback"
"","","","","","psychophysics","74","338109","0.0-7.1-0.1-0.30","1259","","j","","","","","","","","","","","","","key","j","6.9445821325648955","1280","716","./1_3_Stimuli/C_ambi40.png","他人","Image","朋友","Mismatch","j","true","Practice"
"","","","","","html-keyboard-response","75","338424","0.0-7.1-0.1-1.30","null","<span style='color:GreenYellow; font-size: 70px;'>正确! </span>","null","","","","","","","","","","","","","","","","","","","","","","","","","feedback"
"","","","","","psychophysics","76","340118","0.0-7.1-0.1-0.31","542","","f","","","","","","","","","","","","","key","f","6.94462551440327","1280","716","./1_3_Stimuli/S_ambi40.png","自我","Word","自我","Match","f","true","Practice"
"","","","","","html-keyboard-response","77","340426","0.0-7.1-0.1-1.31","null","<span style='color:GreenYellow; font-size: 70px;'>正确! </span>","null","","","","","","","","","","","","","","","","","","","","","","","","","feedback"
"","","","","","psychophysics","78","342549","0.0-7.1-0.1-0.32","969","","j","","","","","","","","","","","","","key","j","6.942671052631723","1280","716","./1_3_Stimuli/T_ambi40.png","他人","Word","他人","Match","f","false","Practice"
"","","","","","html-keyboard-response","79","342851","0.0-7.1-0.1-1.32","null","<span style='color:red; font-size: 70px;'>错误! </span>","null","","","","","","","","","","","","","","","","","","","","","","","","","feedback"
"","","","","","psychophysics","80","344917","0.0-7.1-0.1-0.33","914","","j","","","","","","","","","","","","","key","j","6.944591216216174","1280","716","./1_3_Stimuli/T_ambi40.png","自我","Image","他人","Mismatch","j","true","Practice"
"","","","","","html-keyboard-response","81","345228","0.0-7.1-0.1-1.33","null","<span style='color:GreenYellow; font-size: 70px;'>正确! </span>","null","","","","","","","","","","","","","","","","","","","","","","","","","feedback"
"","","","","","psychophysics","82","347285","0.0-7.1-0.1-0.34","906","","f","","","","","","","","","","","","","key","f","6.944722033898401","1280","716","./1_3_Stimuli/C_ambi40.png","朋友","Word","朋友","Match","f","true","Practice"
"","","","","","html-keyboard-response","83","347592","0.0-7.1-0.1-1.34","null","<span style='color:GreenYellow; font-size: 70px;'>正确! </span>","null","","","","","","","","","","","","","","","","","","","","","","","","","feedback"
"","","","","","psychophysics","84","349493","0.0-7.1-0.1-0.35","746","","j","","","","","","","","","","","","","key","j","6.944593406593446","1280","716","./1_3_Stimuli/S_ambi40.png","他人","Word","自我","Mismatch","j","true","Practice"
"","","","","","html-keyboard-response","85","349800","0.0-7.1-0.1-1.35","null","<span style='color:GreenYellow; font-size: 70px;'>正确! </span>","null","","","","","","","","","","","","","","","","","","","","","","","","","feedback"
"","","","","","psychophysics","86","351878","0.0-7.1-0.1-0.36","926","","f","","","","","","","","","","","","","key","f","6.944560402684537","1280","716","./1_3_Stimuli/T_ambi40.png","他人","Image","他人","Match","f","true","Practice"
"","","","","","html-keyboard-response","87","352182","0.0-7.1-0.1-1.36","null","<span style='color:GreenYellow; font-size: 70px;'>正确! </span>","null","","","","","","","","","","","","","","","","","","","","","","","","","feedback"
"","","","","","psychophysics","88","354237","0.0-7.1-0.1-0.37","903","","j","","","","","","","","","","","","","key","j","6.944589830508408","1280","716","./1_3_Stimuli/S_ambi40.png","朋友","Word","自我","Mismatch","j","true","Practice"
"","","","","","html-keyboard-response","89","354547","0.0-7.1-0.1-1.37","null","<span style='color:GreenYellow; font-size: 70px;'>正确! </span>","null","","","","","","","","","","","","","","","","","","","","","","","","","feedback"
"","","","","","psychophysics","90","356253","0.0-7.1-0.1-0.38","555","","f","","","","","","","","","","","","","key","f","6.944635245901558","1280","716","./1_3_Stimuli/S_ambi40.png","自我","Image","自我","Match","f","true","Practice"
"","","","","","html-keyboard-response","91","356555","0.0-7.1-0.1-1.38","null","<span style='color:GreenYellow; font-size: 70px;'>正确! </span>","null","","","","","","","","","","","","","","","","","","","","","","","","","feedback"
"","","","","","psychophysics","92","358693","0.0-7.1-0.1-0.39","988","","j","","","","","","","","","","","","","key","j","6.944605863192202","1280","716","./1_3_Stimuli/T_ambi40.png","他人","Word","他人","Match","f","false","Practice"
"","","","","","html-keyboard-response","93","359009","0.0-7.1-0.1-1.39","null","<span style='color:red; font-size: 70px;'>错误! </span>","null","","","","","","","","","","","","","","","","","","","","","","","","","feedback"
"","","","","","psychophysics","94","361173","0.0-7.1-0.1-0.40","1011","","j","","","","","","","","","","","","","key","j","6.944303225806441","1280","716","./1_3_Stimuli/T_ambi40.png","自我","Word","他人","Mismatch","j","true","Practice"
"","","","","","html-keyboard-response","95","361484","0.0-7.1-0.1-1.40","null","<span style='color:GreenYellow; font-size: 70px;'>正确! </span>","null","","","","","","","","","","","","","","","","","","","","","","","","","feedback"
"","","","","","psychophysics","96","363429","0.0-7.1-0.1-0.41","794","","j","","","","","","","","","","","","","key","j","6.944627240143498","1280","716","./1_3_Stimuli/S_ambi40.png","他人","Image","自我","Mismatch","j","true","Practice"
"","","","","","html-keyboard-response","97","363736","0.0-7.1-0.1-1.41","null","<span style='color:GreenYellow; font-size: 70px;'>正确! </span>","null","","","","","","","","","","","","","","","","","","","","","","","","","feedback"
"","","","","","psychophysics","98","365893","0.0-7.1-0.1-0.42","1005","","j","","","","","","","","","","","","","key","j","6.944606451612837","1280","716","./1_3_Stimuli/S_ambi40.png","朋友","Image","自我","Mismatch","j","true","Practice"
"","","","","","html-keyboard-response","99","366194","0.0-7.1-0.1-1.42","null","<span style='color:GreenYellow; font-size: 70px;'>正确! </span>","null","","","","","","","","","","","","","","","","","","","","","","","","","feedback"
"","","","","","psychophysics","100","368381","0.0-7.1-0.1-0.43","1036","","j","","","","","","","","","","","","","key","j","6.944640127388437","1280","716","./1_3_Stimuli/T_ambi40.png","朋友","Image","他人","Mismatch","j","true","Practice"
"","","","","","html-keyboard-response","101","368693","0.0-7.1-0.1-1.43","null","<span style='color:GreenYellow; font-size: 70px;'>正确! </span>","null","","","","","","","","","","","","","","","","","","","","","","","","","feedback"
"","","","","","psychophysics","102","370573","0.0-7.1-0.1-0.44","729","","f","","","","","","","","","","","","","key","f","6.944721189591095","1280","716","./1_3_Stimuli/C_ambi40.png","朋友","Word","朋友","Match","f","true","Practice"
"","","","","","html-keyboard-response","103","370886","0.0-7.1-0.1-1.44","null","<span style='color:GreenYellow; font-size: 70px;'>正确! </span>","null","","","","","","","","","","","","","","","","","","","","","","","","","feedback"
"","","","","","psychophysics","104","372549","0.0-7.1-0.1-0.45","510","","f","","","","","","","","","","","","","key","f","6.944676470588169","1280","716","./1_3_Stimuli/C_ambi40.png","朋友","Image","朋友","Match","f","true","Practice"
"","","","","","html-keyboard-response","105","372856","0.0-7.1-0.1-1.45","null","<span style='color:GreenYellow; font-size: 70px;'>正确! </span>","null","","","","","","","","","","","","","","","","","","","","","","","","","feedback"
"","","","","","psychophysics","106","374485","0.0-7.1-0.1-0.46","477","","f","","","","","","","","","","","","","key","f","6.944662393162546","1280","716","./1_3_Stimuli/C_ambi40.png","朋友","Image","朋友","Match","f","true","Practice"
"","","","","","html-keyboard-response","107","374787","0.0-7.1-0.1-1.46","null","<span style='color:GreenYellow; font-size: 70px;'>正确! </span>","null","","","","","","","","","","","","","","","","","","","","","","","","","feedback"
"","","","","","psychophysics","108","376885","0.0-7.1-0.1-0.47","943","","j","","","","","","","","","","","","","key","j","6.941030000000028","1280","716","./1_3_Stimuli/C_ambi40.png","自我","Image","朋友","Mismatch","j","true","Practice"
"","","","","","html-keyboard-response","109","377200","0.0-7.1-0.1-1.47","null","<span style='color:GreenYellow; font-size: 70px;'>正确! </span>","null","","","","","","","","","","","","","","","","","","","","","","","","","feedback"
"","","","","","html-keyboard-response","110","397310","0.0-8.0","20108","<style>.context{color:white; font-size: 35px; line-height:40px}</style>                          <div><p class='context'>您正确回答了92% 的试次。</p><p class='context'>您的平均反应时为842毫秒。</p><p class='context'>恭喜您完成练习。现在请休息3~5分钟。</p><p class='context'>之后，按任意键进入正式实验。需要注意的是，正式实验将不再提供反应是否正确的反馈。</p><p class='footer' style='font-size: 35px; line-height:40px;'>请在进入正式实验实验之前将您的<span style='color: lightgreen;'>食指</span>放在电脑键盘的相应键位上进行按键。</p>"," ","","","","","","","","","","","","","","","","","","","","","","","","",""
"","","","","","psychophysics","111","399749","0.0-9.0-0.0-0.0","1286","","j","","","","","","","","","","","","","key","j","7.191014792899306","1280","716","./1_3_Stimuli/S_ambi40.png","他人","Word","自我","Mismatch","j","true","Formal"
"","","","","","psychophysics","112","401709","0.0-9.0-0.0-0.1","808","","f","","","","","","","","","","","","","key","f","6.94458007117426","1280","716","./1_3_Stimuli/T_ambi40.png","他人","Word","他人","Match","f","true","Formal"
"","","","","","psychophysics","113","403885","0.0-9.0-0.0-0.2","1019","","j","","","","","","","","","","","","","key","j","6.944576923076872","1280","716","./1_3_Stimuli/C_ambi40.png","自我","Image","朋友","Mismatch","j","true","Formal"
"","","","","","psychophysics","114","405965","0.0-9.0-0.0-0.3","925","","j","","","","","","","","","","","","","key","j","6.944577181208043","1280","716","./1_3_Stimuli/T_ambi40.png","自我","Word","他人","Mismatch","j","true","Formal"
"","","","","","psychophysics","115","407773","0.0-9.0-0.0-0.4","658","","f","","","","","","","","","","","","","key","f","6.944602316602324","1280","716","./1_3_Stimuli/C_ambi40.png","朋友","Word","朋友","Match","f","true","Formal"
"","","","","","psychophysics","116","409789","0.0-9.0-0.0-0.5","861","","f","","","","","","","","","","","","","key","f","6.944687499999822","1280","716","./1_3_Stimuli/S_ambi40.png","自我","Word","自我","Match","f","true","Formal"
"","","","","","psychophysics","117","411813","0.0-9.0-0.0-0.6","871","","f","","","","","","","","","","","","","key","f","6.944593103448379","1280","716","./1_3_Stimuli/T_ambi40.png","他人","Word","他人","Match","f","true","Formal"
"","","","","","psychophysics","118","413909","0.0-9.0-0.0-0.7","945","","j","","","","","","","","","","","","","key","j","6.944534883721101","1280","716","./1_3_Stimuli/C_ambi40.png","他人","Image","朋友","Mismatch","j","true","Formal"
"","","","","","psychophysics","119","415773","0.0-9.0-0.0-0.8","712","","f","","","","","","","","","","","","","key","f","6.944528089887689","1280","716","./1_3_Stimuli/T_ambi40.png","他人","Image","他人","Match","f","true","Formal"
"","","","","","psychophysics","120","417798","0.0-9.0-0.0-0.9","871","","j","","","","","","","","","","","","","key","j","6.944542955326539","1280","716","./1_3_Stimuli/T_ambi40.png","朋友","Image","他人","Mismatch","j","true","Formal"
"","","","","","psychophysics","121","419493","0.0-9.0-0.0-0.10","543","","f","","","","","","","","","","","","","key","f","6.9445432098766835","1280","716","./1_3_Stimuli/S_ambi40.png","自我","Word","自我","Match","f","true","Formal"
"","","","","","psychophysics","122","421261","0.0-9.0-0.0-0.11","617","","f","","","","","","","","","","","","","key","f","6.944541501976216","1280","716","./1_3_Stimuli/S_ambi40.png","自我","Image","自我","Match","f","true","Formal"
"","","","","","psychophysics","123","423301","0.0-9.0-0.0-0.12","886","","j","","","","","","","","","","","","","key","j","6.944641638225153","1280","716","./1_3_Stimuli/T_ambi40.png","自我","Image","他人","Mismatch","j","true","Formal"
"","","","","","psychophysics","124","425437","0.0-9.0-0.0-0.13","980","","f","","","","","","","","","","","","","key","f","6.944628664495079","1280","716","./1_3_Stimuli/T_ambi40.png","他人","Image","他人","Match","f","true","Formal"
"","","","","","psychophysics","125","427413","0.0-9.0-0.0-0.14","824","","f","","","","","","","","","","","","","key","f","6.944607773851463","1280","716","./1_3_Stimuli/S_ambi40.png","自我","Image","自我","Match","f","true","Formal"
"","","","","","psychophysics","126","429134","0.0-9.0-0.0-0.15","566","","f","","","","","","","","","","","","","key","f","6.944609756097605","1280","716","./1_3_Stimuli/C_ambi40.png","朋友","Image","朋友","Match","f","true","Formal"
"","","","","","psychophysics","127","431053","0.0-9.0-0.0-0.16","763","","j","","","","","","","","","","","","","key","j","6.944487272727261","1280","716","./1_3_Stimuli/S_ambi40.png","他人","Image","自我","Mismatch","j","true","Formal"
"","","","","","psychophysics","128","433125","0.0-9.0-0.0-0.17","918","","j","","","","","","","","","","","","","key","j","6.944592592592574","1280","716","./1_3_Stimuli/T_ambi40.png","朋友","Word","他人","Mismatch","j","true","Formal"
"","","","","","psychophysics","129","435014","0.0-9.0-0.0-0.18","737","","j","","","","","","","","","","","","","key","j","6.94458302583011","1280","716","./1_3_Stimuli/S_ambi40.png","朋友","Image","自我","Mismatch","j","true","Formal"
"","","","","","psychophysics","130","436925","0.0-9.0-0.0-0.19","760","","j","","","","","","","","","","","","","key","j","6.944565693430822","1280","716","./1_3_Stimuli/C_ambi40.png","自我","Word","朋友","Mismatch","j","true","Formal"
"","","","","","psychophysics","131","438741","0.0-9.0-0.0-0.20","666","","f","","","","","","","","","","","","","key","f","6.944488461538388","1280","716","./1_3_Stimuli/C_ambi40.png","朋友","Image","朋友","Match","f","true","Formal"
"","","","","","psychophysics","132","440510","0.0-9.0-0.0-0.21","615","","j","","","","","","","","","","","","","key","j","6.944596837944464","1280","716","./1_3_Stimuli/S_ambi40.png","朋友","Word","自我","Mismatch","j","true","Formal"
"","","","","","psychophysics","133","442469","0.0-9.0-0.0-0.22","803","","j","","","","","","","","","","","","","key","j","6.944629893238404","1280","716","./1_3_Stimuli/C_ambi40.png","他人","Word","朋友","Mismatch","j","true","Formal"
"","","","","","psychophysics","134","444389","0.0-9.0-0.0-0.23","765","","f","","","","","","","","","","","","","key","f","6.944603636363648","1280","716","./1_3_Stimuli/C_ambi40.png","朋友","Word","朋友","Match","f","true","Formal"
"","","","","","psychophysics","135","446109","0.0-9.0-0.0-0.24","568","","j","","","","","","","","","","","","","key","j","6.944597560975784","1280","716","./1_3_Stimuli/C_ambi40.png","他人","Image","朋友","Mismatch","j","true","Formal"
"","","","","","psychophysics","136","447901","0.0-9.0-0.0-0.25","638","","j","","","","","","","","","","","","","key","j","6.944585937500051","1280","716","./1_3_Stimuli/T_ambi40.png","他人","Image","他人","Match","f","false","Formal"
"","","","","","psychophysics","137","449877","0.0-9.0-0.0-0.26","823","","f","","","","","","","","","","","","","key","f","6.944632508833942","1280","716","./1_3_Stimuli/S_ambi40.png","自我","Image","自我","Match","f","true","Formal"
"","","","","","psychophysics","138","451862","0.0-9.0-0.0-0.27","829","","j","","","","","","","","","","","","","key","j","6.944564912280705","1280","716","./1_3_Stimuli/S_ambi40.png","他人","Word","自我","Mismatch","j","true","Formal"
"","","","","","psychophysics","139","453941","0.0-9.0-0.0-0.28","928","","f","","","","","","","","","","","","","key","f","6.944513422818683","1280","716","./1_3_Stimuli/S_ambi40.png","自我","Word","自我","Match","f","true","Formal"
"","","","","","psychophysics","140","455541","0.0-9.0-0.0-0.29","445","","f","","","","","","","","","","","","","key","f","6.944473913043444","1280","716","./1_3_Stimuli/S_ambi40.png","自我","Word","自我","Match","f","true","Formal"
"","","","","","psychophysics","141","457285","0.0-9.0-0.0-0.30","591","","j","","","","","","","","","","","","","key","j","6.944591999999946","1280","716","./1_3_Stimuli/S_ambi40.png","朋友","Word","自我","Mismatch","j","true","Formal"
"","","","","","psychophysics","142","459309","0.0-9.0-0.0-0.31","872","","f","","","","","","","","","","","","","key","f","6.944610344827705","1280","716","./1_3_Stimuli/T_ambi40.png","他人","Image","他人","Match","f","true","Formal"
"","","","","","psychophysics","143","461101","0.0-9.0-0.0-0.32","639","","f","","","","","","","","","","","","","key","f","6.944556420233422","1280","716","./1_3_Stimuli/T_ambi40.png","他人","Word","他人","Match","f","true","Formal"
"","","","","","psychophysics","144","462942","0.0-9.0-0.0-0.33","686","","f","","","","","","","","","","","","","key","f","6.944624999999977","1280","716","./1_3_Stimuli/S_ambi40.png","自我","Image","自我","Match","f","true","Formal"
"","","","","","psychophysics","145","464717","0.0-9.0-0.0-0.34","621","","f","","","","","","","","","","","","","key","f","6.944568627450944","1280","716","./1_3_Stimuli/C_ambi40.png","朋友","Word","朋友","Match","f","true","Formal"
"","","","","","psychophysics","146","466613","0.0-9.0-0.0-0.35","739","","j","","","","","","","","","","","","","key","j","6.9445073529412396","1280","716","./1_3_Stimuli/C_ambi40.png","自我","Word","朋友","Mismatch","j","true","Formal"
"","","","","","psychophysics","147","468709","0.0-9.0-0.0-0.36","945","","j","","","","","","","","","","","","","key","j","6.944504983388808","1280","716","./1_3_Stimuli/T_ambi40.png","朋友","Word","他人","Mismatch","j","true","Formal"
"","","","","","psychophysics","148","470573","0.0-9.0-0.0-0.37","713","","j","","","","","","","","","","","","","key","j","6.944535580524313","1280","716","./1_3_Stimuli/S_ambi40.png","朋友","Image","自我","Mismatch","j","true","Formal"
"","","","","","psychophysics","149","472429","0.0-9.0-0.0-0.38","700","","j","","","","","","","","","","","","","key","j","6.944518796992366","1280","716","./1_3_Stimuli/T_ambi40.png","自我","Word","他人","Mismatch","j","true","Formal"
"","","","","","psychophysics","150","474270","0.0-9.0-0.0-0.39","687","","j","","","","","","","","","","","","","key","j","6.9445779467680575","1280","716","./1_3_Stimuli/T_ambi40.png","朋友","Image","他人","Mismatch","j","true","Formal"
"","","","","","psychophysics","151","476493","0.0-9.0-0.0-0.40","1070","","j","","","","","","","","","","","","","key","j","6.944611285266475","1280","716","./1_3_Stimuli/C_ambi40.png","自我","Image","朋友","Mismatch","j","true","Formal"
"","","","","","psychophysics","152","478573","0.0-9.0-0.0-0.41","928","","j","","","","","","","","","","","","","key","j","6.944587248322224","1280","716","./1_3_Stimuli/C_ambi40.png","他人","Word","朋友","Mismatch","j","true","Formal"
"","","","","","psychophysics","153","480173","0.0-9.0-0.0-0.42","444","","f","","","","","","","","","","","","","key","f","6.944358078602754","1280","716","./1_3_Stimuli/C_ambi40.png","朋友","Image","朋友","Match","f","true","Formal"
"","","","","","psychophysics","154","482477","0.0-9.0-0.0-0.43","1151","","f","","","","","","","","","","","","","key","f","6.944627272727137","1280","716","./1_3_Stimuli/T_ambi40.png","他人","Word","他人","Match","f","true","Formal"
"","","","","","psychophysics","155","484373","0.0-9.0-0.0-0.44","742","","j","","","","","","","","","","","","","key","j","6.9445992647060315","1280","716","./1_3_Stimuli/S_ambi40.png","他人","Image","自我","Mismatch","j","true","Formal"
"","","","","","psychophysics","156","486844","0.0-9.0-0.0-0.45","1317","","j","","","","","","","","","","","","","key","j","6.9446836158192236","1280","716","./1_3_Stimuli/T_ambi40.png","自我","Image","他人","Mismatch","j","true","Formal"
"","","","","","psychophysics","157","488973","0.0-9.0-0.0-0.46","973","","j","","","","","","","","","","","","","key","j","6.944542483660032","1280","716","./1_3_Stimuli/C_ambi40.png","朋友","Image","朋友","Match","f","false","Formal"
"","","","","","psychophysics","158","491213","0.0-9.0-0.0-0.47","1088","","f","","","","","","","","","","","","","key","f","6.944573208722692","1280","716","./1_3_Stimuli/C_ambi40.png","朋友","Word","朋友","Match","f","true","Formal"
"","","","","","psychophysics","159","492941","0.0-9.0-0.0-0.48","573","","j","","","","","","","","","","","","","key","j","6.9445483870968605","1280","716","./1_3_Stimuli/C_ambi40.png","他人","Image","朋友","Mismatch","j","true","Formal"
"","","","","","psychophysics","160","495317","0.0-9.0-0.0-0.49","1221","","j","","","","","","","","","","","","","key","j","6.944592375366653","1280","716","./1_3_Stimuli/T_ambi40.png","朋友","Image","他人","Mismatch","j","true","Formal"
"","","","","","psychophysics","161","497693","0.0-9.0-0.0-0.50","1221","","j","","","","","","","","","","","","","key","j","6.944592375366653","1280","716","./1_3_Stimuli/T_ambi40.png","他人","Word","他人","Match","f","false","Formal"
"","","","","","psychophysics","162","499821","0.0-9.0-0.0-0.51","974","","j","","","","","","","","","","","","","key","j","6.944600000000009","1280","716","./1_3_Stimuli/T_ambi40.png","朋友","Word","他人","Mismatch","j","true","Formal"
"","","","","","psychophysics","163","501629","0.0-9.0-0.0-0.52","657","","f","","","","","","","","","","","","","key","f","6.9443166023165235","1280","716","./1_3_Stimuli/S_ambi40.png","自我","Image","自我","Match","f","true","Formal"
"","","","","","psychophysics","164","503573","0.0-9.0-0.0-0.53","792","","j","","","","","","","","","","","","","key","j","6.944451612903357","1280","716","./1_3_Stimuli/S_ambi40.png","他人","Word","自我","Mismatch","j","true","Formal"
"","","","","","psychophysics","165","505717","0.0-9.0-0.0-0.54","988","","j","","","","","","","","","","","","","key","j","6.944496753246844","1280","716","./1_3_Stimuli/T_ambi40.png","自我","Image","他人","Mismatch","j","true","Formal"
"","","","","","psychophysics","166","507597","0.0-9.0-0.0-0.55","729","","f","","","","","","","","","","","","","key","f","6.944394052044452","1280","716","./1_3_Stimuli/T_ambi40.png","他人","Image","他人","Match","f","true","Formal"
"","","","","","psychophysics","167","509869","0.0-9.0-0.0-0.56","1119","","f","","","","","","","","","","","","","key","f","6.94460736196331","1280","716","./1_3_Stimuli/T_ambi40.png","他人","Image","他人","Match","f","true","Formal"
"","","","","","psychophysics","168","511717","0.0-9.0-0.0-0.57","696","","f","","","","","","","","","","","","","key","f","6.944588679245252","1280","716","./1_3_Stimuli/S_ambi40.png","自我","Image","自我","Match","f","true","Formal"
"","","","","","psychophysics","169","513828","0.0-9.0-0.0-0.58","960","","j","","","","","","","","","","","","","key","j","6.944468646864683","1280","716","./1_3_Stimuli/S_ambi40.png","他人","Image","自我","Mismatch","j","true","Formal"
"","","","","","psychophysics","170","516030","0.0-9.0-0.0-0.59","1050","","j","","","","","","","","","","","","","key","j","6.944566455696042","1280","716","./1_3_Stimuli/S_ambi40.png","朋友","Image","自我","Mismatch","j","true","Formal"
"","","","","","psychophysics","171","517861","0.0-9.0-0.0-0.60","680","","f","","","","","","","","","","","","","key","f","6.944610687022947","1280","716","./1_3_Stimuli/C_ambi40.png","朋友","Word","朋友","Match","f","true","Formal"
"","","","","","psychophysics","172","519788","0.0-9.0-0.0-0.61","774","","j","","","","","","","","","","","","","key","j","6.944557971014402","1280","716","./1_3_Stimuli/C_ambi40.png","自我","Word","朋友","Mismatch","j","true","Formal"
"","","","","","psychophysics","173","522013","0.0-9.0-0.0-0.62","1069","","f","","","","","","","","","","","","","key","f","6.944520376175627","1280","716","./1_3_Stimuli/S_ambi40.png","自我","Word","自我","Match","f","true","Formal"
"","","","","","psychophysics","174","523661","0.0-9.0-0.0-0.63","496","","f","","","","","","","","","","","","","key","f","6.944457627118859","1280","716","./1_3_Stimuli/S_ambi40.png","自我","Word","自我","Match","f","true","Formal"
"","","","","","psychophysics","175","525581","0.0-9.0-0.0-0.64","769","","f","","","","","","","","","","","","","key","f","6.944479999999855","1280","716","./1_3_Stimuli/C_ambi40.png","朋友","Word","朋友","Match","f","true","Formal"
"","","","","","psychophysics","176","527629","0.0-9.0-0.0-0.65","893","","j","","","","","","","","","","","","","key","j","6.944523809523619","1280","716","./1_3_Stimuli/T_ambi40.png","自我","Word","他人","Mismatch","j","true","Formal"
"","","","","","psychophysics","177","529604","0.0-9.0-0.0-0.66","819","","j","","","","","","","","","","","","","key","j","6.944445229682153","1280","716","./1_3_Stimuli/C_ambi40.png","朋友","Image","朋友","Match","f","false","Formal"
"","","","","","psychophysics","178","531493","0.0-9.0-0.0-0.67","735","","f","","","","","","","","","","","","","key","f","6.944611111110835","1280","716","./1_3_Stimuli/T_ambi40.png","他人","Word","他人","Match","f","true","Formal"
"","","","","","psychophysics","179","533301","0.0-9.0-0.0-0.68","654","","j","","","","","","","","","","","","","key","j","6.944583011583001","1280","716","./1_3_Stimuli/C_ambi40.png","自我","Image","朋友","Mismatch","j","true","Formal"
"","","","","","psychophysics","180","535757","0.0-9.0-0.0-0.69","1305","","f","","","","","","","","","","","","","key","f","6.944551136363853","1280","716","./1_3_Stimuli/C_ambi40.png","朋友","Image","朋友","Match","f","true","Formal"
"","","","","","psychophysics","181","537572","0.0-9.0-0.0-0.70","664","","j","","","","","","","","","","","","","key","j","6.94454230769233","1280","716","./1_3_Stimuli/C_ambi40.png","他人","Word","朋友","Mismatch","j","true","Formal"
"","","","","","psychophysics","182","539557","0.0-9.0-0.0-0.71","834","","j","","","","","","","","","","","","","key","j","6.944519298245901","1280","716","./1_3_Stimuli/S_ambi40.png","朋友","Word","自我","Mismatch","j","true","Formal"
"","","","","","psychophysics","183","541564","0.0-9.0-0.0-0.72","855","","j","","","","","","","","","","","","","key","j","6.9445902777778326","1280","716","./1_3_Stimuli/C_ambi40.png","自我","Word","朋友","Mismatch","j","true","Formal"
"","","","","","psychophysics","184","543413","0.0-9.0-0.0-0.73","697","","f","","","","","","","","","","","","","key","f","6.944592452830336","1280","716","./1_3_Stimuli/T_ambi40.png","他人","Image","他人","Match","f","true","Formal"
"","","","","","psychophysics","185","545309","0.0-9.0-0.0-0.74","745","","j","","","","","","","","","","","","","key","j","6.9446286764702085","1280","716","./1_3_Stimuli/S_ambi40.png","他人","Word","自我","Mismatch","j","true","Formal"
"","","","","","psychophysics","186","547157","0.0-9.0-0.0-0.75","698","","j","","","","","","","","","","","","","key","j","6.944535849056699","1280","716","./1_3_Stimuli/S_ambi40.png","他人","Image","自我","Mismatch","j","true","Formal"
"","","","","","psychophysics","187","549213","0.0-9.0-0.0-0.76","899","","j","","","","","","","","","","","","","key","j","6.944538983050734","1280","716","./1_3_Stimuli/C_ambi40.png","自我","Image","朋友","Mismatch","j","true","Formal"
"","","","","","psychophysics","188","551229","0.0-9.0-0.0-0.77","860","","j","","","","","","","","","","","","","key","j","6.944560553633227","1280","716","./1_3_Stimuli/S_ambi40.png","朋友","Image","自我","Mismatch","j","true","Formal"
"","","","","","psychophysics","189","553437","0.0-9.0-0.0-0.78","1054","","j","","","","","","","","","","","","","key","j","6.9446139240507","1280","716","./1_3_Stimuli/S_ambi40.png","朋友","Word","自我","Mismatch","j","true","Formal"
"","","","","","psychophysics","190","555373","0.0-9.0-0.0-0.79","781","","f","","","","","","","","","","","","","key","f","6.944559566786728","1280","716","./1_3_Stimuli/S_ambi40.png","自我","Word","自我","Match","f","true","Formal"
"","","","","","psychophysics","191","557221","0.0-9.0-0.0-0.80","692","","f","","","","","","","","","","","","","key","f","6.944539622641783","1280","716","./1_3_Stimuli/C_ambi40.png","朋友","Word","朋友","Match","f","true","Formal"
"","","","","","psychophysics","192","559013","0.0-9.0-0.0-0.81","639","","j","","","","","","","","","","","","","key","j","6.944550781249745","1280","716","./1_3_Stimuli/S_ambi40.png","自我","Word","自我","Match","f","false","Formal"
"","","","","","psychophysics","193","560997","0.0-9.0-0.0-0.82","829","","j","","","","","","","","","","","","","key","j","6.944575438596586","1280","716","./1_3_Stimuli/T_ambi40.png","朋友","Image","他人","Mismatch","j","true","Formal"
"","","","","","psychophysics","194","562781","0.0-9.0-0.0-0.83","634","","f","","","","","","","","","","","","","key","f","6.944578125000135","1280","716","./1_3_Stimuli/C_ambi40.png","朋友","Word","朋友","Match","f","true","Formal"
"","","","","","psychophysics","195","564877","0.0-9.0-0.0-0.84","945","","j","","","","","","","","","","","","","key","j","6.944591362126391","1280","716","./1_3_Stimuli/C_ambi40.png","朋友","Image","朋友","Match","f","false","Formal"
"","","","","","psychophysics","196","566877","0.0-9.0-0.0-0.85","848","","f","","","","","","","","","","","","","key","f","6.944564459930605","1280","716","./1_3_Stimuli/T_ambi40.png","他人","Image","他人","Match","f","true","Formal"
"","","","","","psychophysics","197","568661","0.0-9.0-0.0-0.86","633","","f","","","","","","","","","","","","","key","f","6.944572549019758","1280","716","./1_3_Stimuli/S_ambi40.png","自我","Image","自我","Match","f","true","Formal"
"","","","","","psychophysics","198","570453","0.0-9.0-0.0-0.87","639","","f","","","","","","","","","","","","","key","f","6.944789062500149","1280","716","./1_3_Stimuli/C_ambi40.png","朋友","Image","朋友","Match","f","true","Formal"
"","","","","","psychophysics","199","572253","0.0-9.0-0.0-0.88","647","","f","","","","","","","","","","","","","key","f","6.944643410852688","1280","716","./1_3_Stimuli/T_ambi40.png","他人","Word","他人","Match","f","true","Formal"
"","","","","","psychophysics","200","574038","0.0-9.0-0.0-0.89","633","","j","","","","","","","","","","","","","key","j","6.9446914062496035","1280","716","./1_3_Stimuli/T_ambi40.png","自我","Image","他人","Mismatch","j","true","Formal"
"","","","","","psychophysics","201","576165","0.0-9.0-0.0-0.90","976","","f","","","","","","","","","","","","","key","f","6.944560655737754","1280","716","./1_3_Stimuli/S_ambi40.png","自我","Image","自我","Match","f","true","Formal"
"","","","","","psychophysics","202","578269","0.0-9.0-0.0-0.91","948","","j","","","","","","","","","","","","","key","j","6.944576158940357","1280","716","./1_3_Stimuli/T_ambi40.png","朋友","Word","他人","Mismatch","j","true","Formal"
"","","","","","psychophysics","203","580325","0.0-9.0-0.0-0.92","899","","j","","","","","","","","","","","","","key","j","6.944501694914948","1280","716","./1_3_Stimuli/C_ambi40.png","他人","Word","朋友","Mismatch","j","true","Formal"
"","","","","","psychophysics","204","582261","0.0-9.0-0.0-0.93","780","","f","","","","","","","","","","","","","key","f","6.94451438848946","1280","716","./1_3_Stimuli/T_ambi40.png","他人","Word","他人","Match","f","true","Formal"
"","","","","","psychophysics","205","584150","0.0-9.0-0.0-0.94","738","","j","","","","","","","","","","","","","key","j","6.944549815498148","1280","716","./1_3_Stimuli/C_ambi40.png","他人","Image","朋友","Mismatch","j","true","Formal"
"","","","","","psychophysics","206","586856","0.0-9.0-0.0-0.95","null","","null","","","","","","","","","","","","","key","null","6.944541237113599","1280","716","./1_3_Stimuli/T_ambi40.png","自我","Word","他人","Mismatch","j","false","Formal"
"","","","","","psychophysics","207","588981","0.0-9.0-0.0-0.96","972","","j","","","","","","","","","","","","","key","j","6.944565789473831","1280","716","./1_3_Stimuli/C_ambi40.png","自我","Word","朋友","Mismatch","j","true","Formal"
"","","","","","psychophysics","208","590933","0.0-9.0-0.0-0.97","799","","j","","","","","","","","","","","","","key","j","6.944749999999684","1280","716","./1_3_Stimuli/C_ambi40.png","自我","Image","朋友","Mismatch","j","true","Formal"
"","","","","","psychophysics","209","592981","0.0-9.0-0.0-0.98","895","","j","","","","","","","","","","","","","key","j","6.944501706484845","1280","716","./1_3_Stimuli/S_ambi40.png","他人","Word","自我","Mismatch","j","true","Formal"
"","","","","","psychophysics","210","594814","0.0-9.0-0.0-0.99","680","","f","","","","","","","","","","","","","key","f","6.944553435114496","1280","716","./1_3_Stimuli/T_ambi40.png","自我","Image","他人","Mismatch","j","false","Formal"
"","","","","","psychophysics","211","596933","0.0-9.0-0.0-0.100","965","","j","","","","","","","","","","","","","key","j","6.944561056105386","1280","716","./1_3_Stimuli/T_ambi40.png","朋友","Word","他人","Mismatch","j","true","Formal"
"","","","","","psychophysics","212","598949","0.0-9.0-0.0-0.101","863","","f","","","","","","","","","","","","","key","f","6.944681660899777","1280","716","./1_3_Stimuli/T_ambi40.png","他人","Image","他人","Match","f","true","Formal"
"","","","","","psychophysics","213","601045","0.0-9.0-0.0-0.102","946","","j","","","","","","","","","","","","","key","j","6.944634551495279","1280","716","./1_3_Stimuli/S_ambi40.png","朋友","Word","自我","Mismatch","j","true","Formal"
"","","","","","psychophysics","214","603142","0.0-9.0-0.0-0.103","944","","f","","","","","","","","","","","","","key","f","6.944553333333072","1280","716","./1_3_Stimuli/S_ambi40.png","自我","Image","自我","Match","f","true","Formal"
"","","","","","psychophysics","215","605070","0.0-9.0-0.0-0.104","777","","f","","","","","","","","","","","","","key","f","6.94458695652176","1280","716","./1_3_Stimuli/C_ambi40.png","朋友","Image","朋友","Match","f","true","Formal"
"","","","","","psychophysics","216","606878","0.0-9.0-0.0-0.105","652","","j","","","","","","","","","","","","","key","j","6.94458527131775","1280","716","./1_3_Stimuli/T_ambi40.png","自我","Word","他人","Mismatch","j","true","Formal"
"","","","","","psychophysics","217","608965","0.0-9.0-0.0-0.106","935","","j","","","","","","","","","","","","","key","j","6.944548494983028","1280","716","./1_3_Stimuli/T_ambi40.png","朋友","Image","他人","Mismatch","j","true","Formal"
"","","","","","psychophysics","218","610869","0.0-9.0-0.0-0.107","748","","f","","","","","","","","","","","","","key","f","6.944721611721557","1280","716","./1_3_Stimuli/T_ambi40.png","他人","Word","他人","Match","f","true","Formal"
"","","","","","psychophysics","219","612629","0.0-9.0-0.0-0.108","606","","f","","","","","","","","","","","","","key","f","6.944656126481838","1280","716","./1_3_Stimuli/S_ambi40.png","自我","Image","自我","Match","f","true","Formal"
"","","","","","psychophysics","220","614805","0.0-9.0-0.0-0.109","1024","","j","","","","","","","","","","","","","key","j","6.94449679487167","1280","716","./1_3_Stimuli/S_ambi40.png","他人","Image","自我","Mismatch","j","true","Formal"
"","","","","","psychophysics","221","616590","0.0-9.0-0.0-0.110","629","","f","","","","","","","","","","","","","key","f","6.94458203125032","1280","716","./1_3_Stimuli/S_ambi40.png","自我","Word","自我","Match","f","true","Formal"
"","","","","","psychophysics","222","618469","0.0-9.0-0.0-0.111","729","","f","","","","","","","","","","","","","key","f","6.944548148148331","1280","716","./1_3_Stimuli/S_ambi40.png","自我","Word","自我","Match","f","true","Formal"
"","","","","","psychophysics","223","620310","0.0-9.0-0.0-0.112","688","","j","","","","","","","","","","","","","key","j","6.944583333333315","1280","716","./1_3_Stimuli/S_ambi40.png","朋友","Image","自我","Mismatch","j","true","Formal"
"","","","","","psychophysics","224","622085","0.0-9.0-0.0-0.113","625","","f","","","","","","","","","","","","","key","f","6.944370078740139","1280","716","./1_3_Stimuli/T_ambi40.png","他人","Word","他人","Match","f","true","Formal"
"","","","","","psychophysics","225","623917","0.0-9.0-0.0-0.114","678","","f","","","","","","","","","","","","","key","f","6.944513307984373","1280","716","./1_3_Stimuli/C_ambi40.png","朋友","Word","朋友","Match","f","true","Formal"
"","","","","","psychophysics","226","625749","0.0-9.0-0.0-0.115","677","","f","","","","","","","","","","","","","key","f","6.944490494296405","1280","716","./1_3_Stimuli/C_ambi40.png","朋友","Image","朋友","Match","f","true","Formal"
"","","","","","psychophysics","227","627358","0.0-9.0-0.0-0.116","458","","f","","","","","","","","","","","","","key","f","6.944523809523547","1280","716","./1_3_Stimuli/C_ambi40.png","朋友","Word","朋友","Match","f","true","Formal"
"","","","","","psychophysics","228","629061","0.0-9.0-0.0-0.117","551","","j","","","","","","","","","","","","","key","j","6.944627049180572","1280","716","./1_3_Stimuli/C_ambi40.png","他人","Word","朋友","Mismatch","j","true","Formal"
"","","","","","psychophysics","229","630789","0.0-9.0-0.0-0.118","577","","j","","","","","","","","","","","","","key","j","6.9445645161289455","1280","716","./1_3_Stimuli/C_ambi40.png","他人","Image","朋友","Mismatch","j","true","Formal"
"","","","","","psychophysics","230","632470","0.0-9.0-0.0-0.119","529","","j","","","","","","","","","","","","","key","j","6.9445477178420765","1280","716","./1_3_Stimuli/T_ambi40.png","他人","Image","他人","Match","f","false","Formal"
"","","","","","html-keyboard-response","231","639630","0.0-9.0-1.0","7159","<style>.context{color:white; font-size: 35px; line-height:40px}</style>                        <div><p class='context'>您正确回答了93% 的试次。</p><p class='context'>您的平均反应时为800毫秒。</p><p> <div style = 'color: green'><按任意键进入休息></div></p>"," ","","","","","","","","","","","","","","","","","","","","","","","","",""
"","","","","","html-button-response","232","689870","0.0-9.0-2.0","50237","
                  <p>您当前还剩余5组实验</p>
                  <p>现在是休息时间，当您结束休息后，您可以点击 结束休息 按钮 继续</p>
                  <p>建议休息时间还剩余<span id=""iii"">60</span>秒</p>","0","","","","","","","","","","","","","","","","","","","","","","","","",""
"","","","","","psychophysics","233","691693","0.0-9.0-0.1-0.120","668","","j","","","","","","","","","","","","","key","j","7.0522480620154315","1280","716","./1_3_Stimuli/S_ambi40.png","他人","Image","自我","Mismatch","j","true","Formal"
"","","","","","psychophysics","234","693389","0.0-9.0-0.1-0.121","544","","f","","","","","","","","","","","","","key","f","6.9445720164612155","1280","716","./1_3_Stimuli/C_ambi40.png","朋友","Image","朋友","Match","f","true","Formal"
"","","","","","psychophysics","235","695109","0.0-9.0-0.1-0.122","567","","j","","","","","","","","","","","","","key","j","6.944591093117461","1280","716","./1_3_Stimuli/S_ambi40.png","朋友","Word","自我","Mismatch","j","true","Formal"
"","","","","","psychophysics","236","696917","0.0-9.0-0.1-0.123","656","","f","","","","","","","","","","","","","key","f","6.94449806949807","1280","716","./1_3_Stimuli/C_ambi40.png","朋友","Word","朋友","Match","f","true","Formal"
"","","","","","psychophysics","237","698573","0.0-9.0-0.1-0.124","499","","j","","","","","","","","","","","","","key","j","6.944523206750866","1280","716","./1_3_Stimuli/C_ambi40.png","他人","Image","朋友","Mismatch","j","true","Formal"
"","","","","","psychophysics","238","700205","0.0-9.0-0.1-0.125","479","","f","","","","","","","","","","","","","key","f","6.944575107296181","1280","716","./1_3_Stimuli/C_ambi40.png","朋友","Word","朋友","Match","f","true","Formal"
"","","","","","psychophysics","239","702277","0.0-9.0-0.1-0.126","918","","f","","","","","","","","","","","","","key","f","6.94458585858552","1280","716","./1_3_Stimuli/T_ambi40.png","他人","Word","他人","Match","f","true","Formal"
"","","","","","psychophysics","240","703997","0.0-9.0-0.1-0.127","569","","f","","","","","","","","","","","","","key","f","6.944475609756158","1280","716","./1_3_Stimuli/T_ambi40.png","他人","Word","他人","Match","f","true","Formal"
"","","","","","psychophysics","241","705989","0.0-9.0-0.1-0.128","838","","j","","","","","","","","","","","","","key","j","6.944600000000036","1280","716","./1_3_Stimuli/T_ambi40.png","朋友","Image","他人","Mismatch","j","true","Formal"
"","","","","","psychophysics","242","707925","0.0-9.0-0.1-0.129","781","","f","","","","","","","","","","","","","key","f","6.9445451263536695","1280","716","./1_3_Stimuli/T_ambi40.png","他人","Image","他人","Match","f","true","Formal"
"","","","","","psychophysics","243","709853","0.0-9.0-0.1-0.130","776","","j","","","","","","","","","","","","","key","j","6.944725631769","1280","716","./1_3_Stimuli/C_ambi40.png","自我","Image","朋友","Mismatch","j","true","Formal"
"","","","","","psychophysics","244","711605","0.0-9.0-0.1-0.131","600","","j","","","","","","","","","","","","","key","j","6.9445776892431725","1280","716","./1_3_Stimuli/C_ambi40.png","自我","Word","朋友","Mismatch","j","true","Formal"
"","","","","","psychophysics","245","713325","0.0-9.0-0.1-0.132","567","","f","","","","","","","","","","","","","key","f","6.944465587044753","1280","716","./1_3_Stimuli/S_ambi40.png","自我","Word","自我","Match","f","true","Formal"
"","","","","","psychophysics","246","715029","0.0-9.0-0.1-0.133","552","","f","","","","","","","","","","","","","key","f","6.944586065573977","1280","716","./1_3_Stimuli/S_ambi40.png","自我","Image","自我","Match","f","true","Formal"
"","","","","","psychophysics","247","716757","0.0-9.0-0.1-0.134","571","","j","","","","","","","","","","","","","key","j","6.944532258064306","1280","716","./1_3_Stimuli/C_ambi40.png","他人","Word","朋友","Mismatch","j","true","Formal"
"","","","","","psychophysics","248","718981","0.0-9.0-0.1-0.135","1073","","j","","","","","","","","","","","","","key","j","6.944576802508041","1280","716","./1_3_Stimuli/S_ambi40.png","朋友","Image","自我","Mismatch","j","true","Formal"
"","","","","","psychophysics","249","720981","0.0-9.0-0.1-0.136","844","","f","","","","","","","","","","","","","key","f","6.944613240417888","1280","716","./1_3_Stimuli/T_ambi40.png","他人","Image","他人","Match","f","true","Formal"
"","","","","","psychophysics","250","722926","0.0-9.0-0.1-0.137","788","","j","","","","","","","","","","","","","key","j","6.944670250895934","1280","716","./1_3_Stimuli/T_ambi40.png","朋友","Word","他人","Mismatch","j","true","Formal"
"","","","","","psychophysics","251","725229","0.0-9.0-0.1-0.138","1147","","j","","","","","","","","","","","","","key","j","6.944561933534813","1280","716","./1_3_Stimuli/C_ambi40.png","朋友","Image","朋友","Match","f","false","Formal"
"","","","","","psychophysics","252","727197","0.0-9.0-0.1-0.139","817","","j","","","","","","","","","","","","","key","j","6.944627659574501","1280","716","./1_3_Stimuli/S_ambi40.png","他人","Word","自我","Mismatch","j","true","Formal"
"","","","","","psychophysics","253","729501","0.0-9.0-0.1-0.140","1149","","j","","","","","","","","","","","","","key","j","6.944564954682642","1280","716","./1_3_Stimuli/T_ambi40.png","自我","Word","他人","Mismatch","j","true","Formal"
"","","","","","psychophysics","254","731213","0.0-9.0-0.1-0.141","555","","f","","","","","","","","","","","","","key","f","6.9444612244899595","1280","716","./1_3_Stimuli/S_ambi40.png","自我","Word","自我","Match","f","true","Formal"
"","","","","","psychophysics","255","732789","0.0-9.0-0.1-0.142","423","","f","","","","","","","","","","","","","key","f","6.94458222222204","1280","716","./1_3_Stimuli/S_ambi40.png","自我","Image","自我","Match","f","true","Formal"
"","","","","","psychophysics","256","734518","0.0-9.0-0.1-0.143","575","","j","","","","","","","","","","","","","key","j","6.944578947368369","1280","716","./1_3_Stimuli/T_ambi40.png","自我","Image","他人","Mismatch","j","true","Formal"
"","","","","","psychophysics","257","736301","0.0-9.0-0.1-0.144","629","","f","","","","","","","","","","","","","key","f","6.944601562499884","1280","716","./1_3_Stimuli/T_ambi40.png","他人","Image","他人","Match","f","true","Formal"
"","","","","","psychophysics","258","738229","0.0-9.0-0.1-0.145","772","","f","","","","","","","","","","","","","key","f","6.944537906137141","1280","716","./1_3_Stimuli/C_ambi40.png","朋友","Image","朋友","Match","f","true","Formal"
"","","","","","psychophysics","259","740349","0.0-9.0-0.1-0.146","968","","f","","","","","","","","","","","","","key","f","6.9446249999998955","1280","716","./1_3_Stimuli/T_ambi40.png","他人","Image","他人","Match","f","true","Formal"
"","","","","","psychophysics","260","742109","0.0-9.0-0.1-0.147","605","","f","","","","","","","","","","","","","key","f","6.944436507936593","1280","716","./1_3_Stimuli/S_ambi40.png","自我","Word","自我","Match","f","true","Formal"
"","","","","","psychophysics","261","743741","0.0-9.0-0.1-0.148","478","","f","","","","","","","","","","","","","key","f","6.944592274678471","1280","716","./1_3_Stimuli/S_ambi40.png","自我","Image","自我","Match","f","true","Formal"
"","","","","","psychophysics","262","745310","0.0-9.0-0.1-0.149","415","","f","","","","","","","","","","","","","key","f","6.9444821428572014","1280","716","./1_3_Stimuli/S_ambi40.png","自我","Image","自我","Match","f","true","Formal"
"","","","","","psychophysics","263","747085","0.0-9.0-0.1-0.150","621","","j","","","","","","","","","","","","","key","j","6.944607843137255","1280","716","./1_3_Stimuli/S_ambi40.png","朋友","Image","自我","Mismatch","j","true","Formal"
"","","","","","psychophysics","264","749141","0.0-9.0-0.1-0.151","899","","j","","","","","","","","","","","","","key","j","6.944538983050734","1280","716","./1_3_Stimuli/T_ambi40.png","朋友","Image","他人","Mismatch","j","true","Formal"
"","","","","","psychophysics","265","750885","0.0-9.0-0.1-0.152","590","","f","","","","","","","","","","","","","key","f","6.944631999999751","1280","716","./1_3_Stimuli/C_ambi40.png","自我","Image","朋友","Mismatch","j","false","Formal"
"","","","","","psychophysics","266","752989","0.0-9.0-0.1-0.153","952","","f","","","","","","","","","","","","","key","f","6.944496688741762","1280","716","./1_3_Stimuli/C_ambi40.png","朋友","Word","朋友","Match","f","true","Formal"
"","","","","","psychophysics","267","755053","0.0-9.0-0.1-0.154","908","","j","","","","","","","","","","","","","key","j","6.944587837837831","1280","716","./1_3_Stimuli/S_ambi40.png","他人","Word","自我","Mismatch","j","true","Formal"
"","","","","","psychophysics","268","756830","0.0-9.0-0.1-0.155","623","","f","","","","","","","","","","","","","key","f","6.944547244094635","1280","716","./1_3_Stimuli/C_ambi40.png","朋友","Word","朋友","Match","f","true","Formal"
"","","","","","psychophysics","269","758661","0.0-9.0-0.1-0.156","676","","j","","","","","","","","","","","","","key","j","6.944441064638475","1280","716","./1_3_Stimuli/T_ambi40.png","他人","Word","他人","Match","f","false","Formal"
"","","","","","psychophysics","270","760573","0.0-9.0-0.1-0.157","761","","j","","","","","","","","","","","","","key","j","6.9445474452554095","1280","716","./1_3_Stimuli/T_ambi40.png","自我","Image","他人","Mismatch","j","true","Formal"
"","","","","","psychophysics","271","762797","0.0-9.0-0.1-0.158","1069","","f","","","","","","","","","","","","","key","f","6.944523510971649","1280","716","./1_3_Stimuli/T_ambi40.png","他人","Word","他人","Match","f","true","Formal"
"","","","","","psychophysics","272","764925","0.0-9.0-0.1-0.159","974","","f","","","","","","","","","","","","","key","f","6.944606557376988","1280","716","./1_3_Stimuli/S_ambi40.png","自我","Word","自我","Match","f","true","Formal"
"","","","","","psychophysics","273","766693","0.0-9.0-0.1-0.160","617","","j","","","","","","","","","","","","","key","j","6.944628458498174","1280","716","./1_3_Stimuli/S_ambi40.png","他人","Image","自我","Mismatch","j","true","Formal"
"","","","","","psychophysics","274","768654","0.0-9.0-0.1-0.161","807","","j","","","","","","","","","","","","","key","j","6.944576512455437","1280","716","./1_3_Stimuli/T_ambi40.png","自我","Word","他人","Mismatch","j","true","Formal"
"","","","","","psychophysics","275","770437","0.0-9.0-0.1-0.162","632","","f","","","","","","","","","","","","","key","f","6.944584313725286","1280","716","./1_3_Stimuli/C_ambi40.png","朋友","Image","朋友","Match","f","true","Formal"
"","","","","","psychophysics","276","772181","0.0-9.0-0.1-0.163","592","","j","","","","","","","","","","","","","key","j","6.944507999999915","1280","716","./1_3_Stimuli/T_ambi40.png","朋友","Word","他人","Mismatch","j","true","Formal"
"","","","","","psychophysics","277","773925","0.0-9.0-0.1-0.164","592","","j","","","","","","","","","","","","","key","j","6.944619999999646","1280","716","./1_3_Stimuli/C_ambi40.png","他人","Image","朋友","Mismatch","j","true","Formal"
"","","","","","psychophysics","278","775685","0.0-9.0-0.1-0.165","609","","j","","","","","","","","","","","","","key","j","6.944551587301595","1280","716","./1_3_Stimuli/C_ambi40.png","他人","Word","朋友","Mismatch","j","true","Formal"
"","","","","","psychophysics","279","777693","0.0-9.0-0.1-0.166","853","","j","","","","","","","","","","","","","key","j","6.9445902777778326","1280","716","./1_3_Stimuli/S_ambi40.png","朋友","Word","自我","Mismatch","j","true","Formal"
"","","","","","psychophysics","280","779734","0.0-9.0-0.1-0.167","887","","j","","","","","","","","","","","","","key","j","6.944410958904247","1280","716","./1_3_Stimuli/C_ambi40.png","自我","Word","朋友","Mismatch","j","true","Formal"
"","","","","","psychophysics","281","781405","0.0-9.0-0.1-0.168","516","","f","","","","","","","","","","","","","key","f","6.944520833333566","1280","716","./1_3_Stimuli/T_ambi40.png","他人","Image","他人","Match","f","true","Formal"
"","","","","","psychophysics","282","783101","0.0-9.0-0.1-0.169","546","","f","","","","","","","","","","","","","key","f","6.9445802469138025","1280","716","./1_3_Stimuli/S_ambi40.png","自我","Word","自我","Match","f","true","Formal"
"","","","","","psychophysics","283","784909","0.0-9.0-0.1-0.170","652","","f","","","","","","","","","","","","","key","f","6.944664092663888","1280","716","./1_3_Stimuli/C_ambi40.png","朋友","Word","朋友","Match","f","true","Formal"
"","","","","","psychophysics","284","786717","0.0-9.0-0.1-0.171","655","","f","","","","","","","","","","","","","key","f","6.944525096525032","1280","716","./1_3_Stimuli/S_ambi40.png","自我","Image","自我","Match","f","true","Formal"
"","","","","","psychophysics","285","788397","0.0-9.0-0.1-0.172","529","","j","","","","","","","","","","","","","key","j","6.944609958506034","1280","716","./1_3_Stimuli/S_ambi40.png","朋友","Image","自我","Mismatch","j","true","Formal"
"","","","","","psychophysics","286","790174","0.0-9.0-0.1-0.173","626","","j","","","","","","","","","","","","","key","j","6.94444313725484","1280","716","./1_3_Stimuli/T_ambi40.png","自我","Word","他人","Mismatch","j","true","Formal"
"","","","","","psychophysics","287","792229","0.0-9.0-0.1-0.174","903","","j","","","","","","","","","","","","","key","j","6.944598639455583","1280","716","./1_3_Stimuli/T_ambi40.png","朋友","Word","他人","Mismatch","j","true","Formal"
"","","","","","psychophysics","288","793981","0.0-9.0-0.1-0.175","599","","f","","","","","","","","","","","","","key","f","6.9446135458167255","1280","716","./1_3_Stimuli/T_ambi40.png","自我","Image","他人","Mismatch","j","false","Formal"
"","","","","","psychophysics","289","795686","0.0-9.0-0.1-0.176","553","","f","","","","","","","","","","","","","key","f","6.944581967213126","1280","716","./1_3_Stimuli/S_ambi40.png","自我","Image","自我","Match","f","true","Formal"
"","","","","","psychophysics","290","797589","0.0-9.0-0.1-0.177","749","","j","","","","","","","","","","","","","key","j","6.944542124542074","1280","716","./1_3_Stimuli/S_ambi40.png","他人","Image","自我","Mismatch","j","true","Formal"
"","","","","","psychophysics","291","799405","0.0-9.0-0.1-0.178","662","","f","","","","","","","","","","","","","key","f","6.944716475095771","1280","716","./1_3_Stimuli/C_ambi40.png","朋友","Image","朋友","Match","f","true","Formal"
"","","","","","psychophysics","292","801286","0.0-9.0-0.1-0.179","730","","j","","","","","","","","","","","","","key","j","6.94459629629661","1280","716","./1_3_Stimuli/C_ambi40.png","自我","Word","朋友","Mismatch","j","true","Formal"
"","","","","","psychophysics","293","803157","0.0-9.0-0.1-0.180","719","","j","","","","","","","","","","","","","key","j","6.944567164178997","1280","716","./1_3_Stimuli/T_ambi40.png","朋友","Image","他人","Mismatch","j","true","Formal"
"","","","","","psychophysics","294","805117","0.0-9.0-0.1-0.181","804","","f","","","","","","","","","","","","","key","f","6.944647686832727","1280","716","./1_3_Stimuli/C_ambi40.png","朋友","Word","朋友","Match","f","true","Formal"
"","","","","","psychophysics","295","806997","0.0-9.0-0.1-0.182","726","","f","","","","","","","","","","","","","key","f","6.944570370370315","1280","716","./1_3_Stimuli/T_ambi40.png","他人","Image","他人","Match","f","true","Formal"
"","","","","","psychophysics","296","808765","0.0-9.0-0.1-0.183","617","","j","","","","","","","","","","","","","key","j","6.944547244094177","1280","716","./1_3_Stimuli/S_ambi40.png","他人","Word","自我","Mismatch","j","true","Formal"
"","","","","","psychophysics","297","810957","0.0-9.0-0.1-0.184","1040","","j","","","","","","","","","","","","","key","j","6.9446273885350704","1280","716","./1_3_Stimuli/C_ambi40.png","自我","Image","朋友","Mismatch","j","true","Formal"
"","","","","","psychophysics","298","812998","0.0-9.0-0.1-0.185","886","","j","","","","","","","","","","","","","key","j","6.944640410958777","1280","716","./1_3_Stimuli/C_ambi40.png","他人","Word","朋友","Mismatch","j","true","Formal"
"","","","","","psychophysics","299","814733","0.0-9.0-0.1-0.186","583","","f","","","","","","","","","","","","","key","f","6.944578313252825","1280","716","./1_3_Stimuli/S_ambi40.png","自我","Word","自我","Match","f","true","Formal"
"","","","","","psychophysics","300","816693","0.0-9.0-0.1-0.187","804","","f","","","","","","","","","","","","","key","f","6.94457295373682","1280","716","./1_3_Stimuli/T_ambi40.png","他人","Word","他人","Match","f","true","Formal"
"","","","","","psychophysics","301","818485","0.0-9.0-0.1-0.188","640","","j","","","","","","","","","","","","","key","j","6.9445836575872155","1280","716","./1_3_Stimuli/S_ambi40.png","朋友","Word","自我","Mismatch","j","true","Formal"
"","","","","","psychophysics","302","820477","0.0-9.0-0.1-0.189","838","","f","","","","","","","","","","","","","key","f","6.944656140351129","1280","716","./1_3_Stimuli/C_ambi40.png","朋友","Image","朋友","Match","f","true","Formal"
"","","","","","psychophysics","303","822429","0.0-9.0-0.1-0.190","796","","f","","","","","","","","","","","","","key","f","6.944578571428845","1280","716","./1_3_Stimuli/T_ambi40.png","他人","Word","他人","Match","f","true","Formal"
"","","","","","psychophysics","304","824366","0.0-9.0-0.1-0.191","782","","j","","","","","","","","","","","","","key","j","6.944586330935151","1280","716","./1_3_Stimuli/C_ambi40.png","他人","Image","朋友","Mismatch","j","true","Formal"
"","","","","","psychophysics","305","826397","0.0-9.0-0.1-0.192","876","","j","","","","","","","","","","","","","key","j","6.94466095890416","1280","716","./1_3_Stimuli/C_ambi40.png","自我","Word","朋友","Mismatch","j","true","Formal"
"","","","","","psychophysics","306","828645","0.0-9.0-0.1-0.193","1096","","f","","","","","","","","","","","","","key","f","6.944636645962582","1280","716","./1_3_Stimuli/T_ambi40.png","他人","Image","他人","Match","f","true","Formal"
"","","","","","psychophysics","307","830325","0.0-9.0-0.1-0.194","525","","j","","","","","","","","","","","","","key","j","6.944551867219867","1280","716","./1_3_Stimuli/T_ambi40.png","自我","Word","他人","Mismatch","j","true","Formal"
"","","","","","psychophysics","308","832765","0.0-9.0-0.1-0.195","1290","","j","","","","","","","","","","","","","key","j","6.944691428571407","1280","716","./1_3_Stimuli/T_ambi40.png","朋友","Image","他人","Mismatch","j","true","Formal"
"","","","","","psychophysics","309","834822","0.0-9.0-0.1-0.196","904","","j","","","","","","","","","","","","","key","j","6.944610169491636","1280","716","./1_3_Stimuli/C_ambi40.png","他人","Image","朋友","Mismatch","j","true","Formal"
"","","","","","psychophysics","310","836773","0.0-9.0-0.1-0.197","800","","j","","","","","","","","","","","","","key","j","6.94456071428597","1280","716","./1_3_Stimuli/S_ambi40.png","他人","Image","自我","Mismatch","j","true","Formal"
"","","","","","psychophysics","311","839125","0.0-9.0-0.1-0.198","1201","","f","","","","","","","","","","","","","key","f","6.944575667655916","1280","716","./1_3_Stimuli/S_ambi40.png","自我","Image","自我","Match","f","true","Formal"
"","","","","","psychophysics","312","841333","0.0-9.0-0.1-0.199","1054","","f","","","","","","","","","","","","","key","f","6.944477848101133","1280","716","./1_3_Stimuli/C_ambi40.png","朋友","Word","朋友","Match","f","true","Formal"
"","","","","","psychophysics","313","843181","0.0-9.0-0.1-0.200","694","","f","","","","","","","","","","","","","key","f","6.944543396226429","1280","716","./1_3_Stimuli/S_ambi40.png","自我","Word","自我","Match","f","true","Formal"
"","","","","","psychophysics","314","844958","0.0-9.0-0.1-0.201","623","","j","","","","","","","","","","","","","key","j","6.9445866141729535","1280","716","./1_3_Stimuli/T_ambi40.png","自我","Image","他人","Mismatch","j","true","Formal"
"","","","","","psychophysics","315","846709","0.0-9.0-0.1-0.202","600","","f","","","","","","","","","","","","","key","f","6.944752988047931","1280","716","./1_3_Stimuli/S_ambi40.png","自我","Image","自我","Match","f","true","Formal"
"","","","","","psychophysics","316","848381","0.0-9.0-0.1-0.203","518","","j","","","","","","","","","","","","","key","j","6.9445397489539555","1280","716","./1_3_Stimuli/C_ambi40.png","他人","Word","朋友","Mismatch","j","true","Formal"
"","","","","","psychophysics","317","850093","0.0-9.0-0.1-0.204","557","","f","","","","","","","","","","","","","key","f","6.9445934959349405","1280","716","./1_3_Stimuli/T_ambi40.png","他人","Image","他人","Match","f","true","Formal"
"","","","","","psychophysics","318","852221","0.0-9.0-0.1-0.205","977","","j","","","","","","","","","","","","","key","j","6.9445639344264345","1280","716","./1_3_Stimuli/S_ambi40.png","朋友","Word","自我","Mismatch","j","true","Formal"
"","","","","","psychophysics","319","853925","0.0-9.0-0.1-0.206","549","","f","","","","","","","","","","","","","key","f","6.944573770491425","1280","716","./1_3_Stimuli/C_ambi40.png","自我","Image","朋友","Mismatch","j","false","Formal"
"","","","","","psychophysics","320","856078","0.0-9.0-0.1-0.207","1000","","f","","","","","","","","","","","","","key","f","6.944555194805037","1280","716","./1_3_Stimuli/C_ambi40.png","朋友","Image","朋友","Match","f","true","Formal"
"","","","","","psychophysics","321","857829","0.0-9.0-0.1-0.208","598","","f","","","","","","","","","","","","","key","f","6.944593625497982","1280","716","./1_3_Stimuli/T_ambi40.png","他人","Word","他人","Match","f","true","Formal"
"","","","","","psychophysics","322","859837","0.0-9.0-0.1-0.209","856","","j","","","","","","","","","","","","","key","j","6.944618055555313","1280","716","./1_3_Stimuli/T_ambi40.png","朋友","Word","他人","Mismatch","j","true","Formal"
"","","","","","psychophysics","323","861757","0.0-9.0-0.1-0.210","769","","j","","","","","","","","","","","","","key","j","6.944552727272649","1280","716","./1_3_Stimuli/S_ambi40.png","他人","Word","自我","Mismatch","j","true","Formal"
"","","","","","psychophysics","324","863773","0.0-9.0-0.1-0.211","862","","f","","","","","","","","","","","","","key","f","6.9446470588236195","1280","716","./1_3_Stimuli/S_ambi40.png","自我","Word","自我","Match","f","true","Formal"
"","","","","","psychophysics","325","865525","0.0-9.0-0.1-0.212","600","","j","","","","","","","","","","","","","key","j","6.944717131473914","1280","716","./1_3_Stimuli/S_ambi40.png","朋友","Image","自我","Mismatch","j","true","Formal"
"","","","","","psychophysics","326","867374","0.0-9.0-0.1-0.213","698","","f","","","","","","","","","","","","","key","f","6.944596226415421","1280","716","./1_3_Stimuli/T_ambi40.png","他人","Word","他人","Match","f","true","Formal"
"","","","","","psychophysics","327","869013","0.0-9.0-0.1-0.214","489","","f","","","","","","","","","","","","","key","f","6.944557446808594","1280","716","./1_3_Stimuli/C_ambi40.png","朋友","Image","朋友","Match","f","true","Formal"
"","","","","","psychophysics","328","870893","0.0-9.0-0.1-0.215","726","","f","","","","","","","","","","","","","key","f","6.944518518518588","1280","716","./1_3_Stimuli/C_ambi40.png","朋友","Word","朋友","Match","f","true","Formal"
"","","","","","psychophysics","329","872709","0.0-9.0-0.1-0.216","663","","j","","","","","","","","","","","","","key","j","6.944592307692018","1280","716","./1_3_Stimuli/C_ambi40.png","自我","Word","朋友","Mismatch","j","true","Formal"
"","","","","","psychophysics","330","874597","0.0-9.0-0.1-0.217","736","","f","","","","","","","","","","","","","key","f","6.944600000000059","1280","716","./1_3_Stimuli/T_ambi40.png","朋友","Word","他人","Mismatch","j","false","Formal"
"","","","","","psychophysics","331","876325","0.0-9.0-0.1-0.218","573","","f","","","","","","","","","","","","","key","f","6.944576612903244","1280","716","./1_3_Stimuli/S_ambi40.png","自我","Word","自我","Match","f","true","Formal"
"","","","","","psychophysics","332","878390","0.0-9.0-0.1-0.219","913","","j","","","","","","","","","","","","","key","j","6.944533783783963","1280","716","./1_3_Stimuli/S_ambi40.png","朋友","Image","自我","Mismatch","j","true","Formal"
"","","","","","psychophysics","333","880277","0.0-9.0-0.1-0.220","736","","j","","","","","","","","","","","","","key","j","6.944571955719313","1280","716","./1_3_Stimuli/S_ambi40.png","朋友","Word","自我","Mismatch","j","true","Formal"
"","","","","","psychophysics","334","882189","0.0-9.0-0.1-0.221","756","","f","","","","","","","","","","","","","key","f","6.944569343065394","1280","716","./1_3_Stimuli/T_ambi40.png","他人","Image","他人","Match","f","true","Formal"
"","","","","","psychophysics","335","884517","0.0-9.0-0.1-0.222","1175","","f","","","","","","","","","","","","","key","f","6.944649700598909","1280","716","./1_3_Stimuli/C_ambi40.png","朋友","Image","朋友","Match","f","true","Formal"
"","","","","","psychophysics","336","886629","0.0-9.0-0.1-0.223","960","","j","","","","","","","","","","","","","key","j","6.944577557755567","1280","716","./1_3_Stimuli/S_ambi40.png","他人","Word","自我","Mismatch","j","true","Formal"
"","","","","","psychophysics","337","888685","0.0-9.0-0.1-0.224","906","","j","","","","","","","","","","","","","key","j","6.944589830508408","1280","716","./1_3_Stimuli/C_ambi40.png","他人","Image","朋友","Mismatch","j","true","Formal"
"","","","","","psychophysics","338","890621","0.0-9.0-0.1-0.225","783","","j","","","","","","","","","","","","","key","j","6.94461510791326","1280","716","./1_3_Stimuli/C_ambi40.png","自我","Image","朋友","Mismatch","j","true","Formal"
"","","","","","psychophysics","339","892389","0.0-9.0-0.1-0.226","616","","j","","","","","","","","","","","","","key","j","6.944549407114241","1280","716","./1_3_Stimuli/T_ambi40.png","自我","Image","他人","Mismatch","j","true","Formal"
"","","","","","psychophysics","340","894381","0.0-9.0-0.1-0.227","837","","f","","","","","","","","","","","","","key","f","6.9445754385961775","1280","716","./1_3_Stimuli/T_ambi40.png","他人","Image","他人","Match","f","true","Formal"
"","","","","","psychophysics","341","896141","0.0-9.0-0.1-0.228","608","","f","","","","","","","","","","","","","key","f","6.944571428571455","1280","716","./1_3_Stimuli/S_ambi40.png","自我","Image","自我","Match","f","true","Formal"
"","","","","","psychophysics","342","898149","0.0-9.0-0.1-0.229","857","","j","","","","","","","","","","","","","key","j","6.944430555555704","1280","716","./1_3_Stimuli/T_ambi40.png","朋友","Image","他人","Mismatch","j","true","Formal"
"","","","","","psychophysics","343","900070","0.0-9.0-0.1-0.230","768","","f","","","","","","","","","","","","","key","f","6.94461454545444","1280","716","./1_3_Stimuli/C_ambi40.png","朋友","Word","朋友","Match","f","true","Formal"
"","","","","","psychophysics","344","901837","0.0-9.0-0.1-0.231","615","","f","","","","","","","","","","","","","key","f","6.944555118110299","1280","716","./1_3_Stimuli/T_ambi40.png","他人","Word","他人","Match","f","true","Formal"
"","","","","","psychophysics","345","903781","0.0-9.0-0.1-0.232","793","","j","","","","","","","","","","","","","key","j","6.944645161290259","1280","716","./1_3_Stimuli/S_ambi40.png","他人","Image","自我","Mismatch","j","true","Formal"
"","","","","","psychophysics","346","905500","0.0-9.0-0.1-0.233","568","","f","","","","","","","","","","","","","key","f","6.9446788617888675","1280","716","./1_3_Stimuli/C_ambi40.png","朋友","Image","朋友","Match","f","true","Formal"
"","","","","","psychophysics","347","907269","0.0-9.0-0.1-0.234","614","","j","","","","","","","","","","","","","key","j","6.944614173228464","1280","716","./1_3_Stimuli/C_ambi40.png","他人","Word","朋友","Mismatch","j","true","Formal"
"","","","","","psychophysics","348","909101","0.0-9.0-0.1-0.235","682","","f","","","","","","","","","","","","","key","f","6.944555133079646","1280","716","./1_3_Stimuli/S_ambi40.png","自我","Word","自我","Match","f","true","Formal"
"","","","","","psychophysics","349","910805","0.0-9.0-0.1-0.236","553","","f","","","","","","","","","","","","","key","f","6.944569672131052","1280","716","./1_3_Stimuli/S_ambi40.png","自我","Image","自我","Match","f","true","Formal"
"","","","","","psychophysics","350","912556","0.0-9.0-0.1-0.237","600","","f","","","","","","","","","","","","","key","f","6.9445776892431725","1280","716","./1_3_Stimuli/C_ambi40.png","朋友","Word","朋友","Match","f","true","Formal"
"","","","","","psychophysics","351","914292","0.0-9.0-0.1-0.238","582","","j","","","","","","","","","","","","","key","j","6.944546184739113","1280","716","./1_3_Stimuli/T_ambi40.png","自我","Word","他人","Mismatch","j","true","Formal"
"","","","","","psychophysics","352","916029","0.0-9.0-0.1-0.239","582","","f","","","","","","","","","","","","","key","f","6.944633064516013","1280","716","./1_3_Stimuli/T_ambi40.png","他人","Word","他人","Match","f","true","Formal"
"","","","","","html-keyboard-response","353","923165","0.0-9.0-1.1","7135","<style>.context{color:white; font-size: 35px; line-height:40px}</style>                        <div><p class='context'>您正确回答了95% 的试次。</p><p class='context'>您的平均反应时为732毫秒。</p><p> <div style = 'color: green'><按任意键进入休息></div></p>"," ","","","","","","","","","","","","","","","","","","","","","","","","",""
"","","","","","html-button-response","354","929249","0.0-9.0-2.1","6081","
                  <p>您当前还剩余4组实验</p>
                  <p>现在是休息时间，当您结束休息后，您可以点击 结束休息 按钮 继续</p>
                  <p>建议休息时间还剩余<span id=""iii"">60</span>秒</p>","0","","","","","","","","","","","","","","","","","","","","","","","","",""
"","","","","","psychophysics","355","931253","0.0-9.0-0.2-0.240","847","","j","","","","","","","","","","","","","key","j","7.017813380281719","1280","716","./1_3_Stimuli/T_ambi40.png","朋友","Word","他人","Mismatch","j","true","Formal"
"","","","","","psychophysics","356","933045","0.0-9.0-0.2-0.241","639","","f","","","","","","","","","","","","","key","f","6.9445680933855005","1280","716","./1_3_Stimuli/S_ambi40.png","自我","Word","自我","Match","f","true","Formal"
"","","","","","psychophysics","357","934789","0.0-9.0-0.2-0.242","592","","f","","","","","","","","","","","","","key","f","6.944416000000201","1280","716","./1_3_Stimuli/C_ambi40.png","朋友","Word","朋友","Match","f","true","Formal"
"","","","","","psychophysics","358","936668","0.0-9.0-0.2-0.243","728","","j","","","","","","","","","","","","","key","j","6.944691449814029","1280","716","./1_3_Stimuli/S_ambi40.png","他人","Image","自我","Mismatch","j","true","Formal"
"","","","","","psychophysics","359","938652","0.0-9.0-0.2-0.244","830","","f","","","","","","","","","","","","","key","f","6.944609154929476","1280","716","./1_3_Stimuli/C_ambi40.png","朋友","Image","朋友","Match","f","true","Formal"
"","","","","","psychophysics","360","940365","0.0-9.0-0.2-0.245","556","","f","","","","","","","","","","","","","key","f","6.944495934959429","1280","716","./1_3_Stimuli/S_ambi40.png","自我","Image","自我","Match","f","true","Formal"
"","","","","","psychophysics","361","941924","0.0-9.0-0.2-0.246","408","","f","","","","","","","","","","","","","key","f","6.944614349776198","1280","716","./1_3_Stimuli/S_ambi40.png","自我","Image","自我","Match","f","true","Formal"
"","","","","","psychophysics","362","943596","0.0-9.0-0.2-0.247","517","","j","","","","","","","","","","","","","key","j","6.944259414225758","1280","716","./1_3_Stimuli/S_ambi40.png","朋友","Word","自我","Mismatch","j","true","Formal"
"","","","","","psychophysics","363","945301","0.0-9.0-0.2-0.248","551","","f","","","","","","","","","","","","","key","f","6.944528688524456","1280","716","./1_3_Stimuli/S_ambi40.png","自我","Word","自我","Match","f","true","Formal"
"","","","","","psychophysics","364","946988","0.0-9.0-0.2-0.249","534","","j","","","","","","","","","","","","","key","j","6.944726141078854","1280","716","./1_3_Stimuli/T_ambi40.png","朋友","Image","他人","Mismatch","j","true","Formal"
"","","","","","psychophysics","365","948860","0.0-9.0-0.2-0.250","718","","j","","","","","","","","","","","","","key","j","6.944593283581919","1280","716","./1_3_Stimuli/C_ambi40.png","自我","Word","朋友","Mismatch","j","true","Formal"
"","","","","","psychophysics","366","950796","0.0-9.0-0.2-0.251","779","","j","","","","","","","","","","","","","key","j","6.944546762589623","1280","716","./1_3_Stimuli/C_ambi40.png","他人","Image","朋友","Mismatch","j","true","Formal"
"","","","","","psychophysics","367","952660","0.0-9.0-0.2-0.252","713","","f","","","","","","","","","","","","","key","f","6.944621722846142","1280","716","./1_3_Stimuli/T_ambi40.png","他人","Image","他人","Match","f","true","Formal"
"","","","","","psychophysics","368","954348","0.0-9.0-0.2-0.253","533","","j","","","","","","","","","","","","","key","j","6.944516528925516","1280","716","./1_3_Stimuli/C_ambi40.png","他人","Word","朋友","Mismatch","j","true","Formal"
"","","","","","psychophysics","369","956285","0.0-9.0-0.2-0.254","782","","j","","","","","","","","","","","","","key","j","6.944449640287877","1280","716","./1_3_Stimuli/C_ambi40.png","自我","Image","朋友","Mismatch","j","true","Formal"
"","","","","","psychophysics","370","958228","0.0-9.0-0.2-0.255","788","","j","","","","","","","","","","","","","key","j","6.9444695340501195","1280","716","./1_3_Stimuli/T_ambi40.png","自我","Image","他人","Mismatch","j","true","Formal"
"","","","","","psychophysics","371","959972","0.0-9.0-0.2-0.256","587","","j","","","","","","","","","","","","","key","j","6.944412000000011","1280","716","./1_3_Stimuli/T_ambi40.png","自我","Word","他人","Mismatch","j","true","Formal"
"","","","","","psychophysics","372","961789","0.0-9.0-0.2-0.257","661","","f","","","","","","","","","","","","","key","f","6.944455938696972","1280","716","./1_3_Stimuli/T_ambi40.png","他人","Word","他人","Match","f","true","Formal"
"","","","","","psychophysics","373","963629","0.0-9.0-0.2-0.258","688","","f","","","","","","","","","","","","","key","f","6.944376425855676","1280","716","./1_3_Stimuli/T_ambi40.png","他人","Word","他人","Match","f","true","Formal"
"","","","","","psychophysics","374","965357","0.0-9.0-0.2-0.259","575","","j","","","","","","","","","","","","","key","j","6.944506072874279","1280","716","./1_3_Stimuli/S_ambi40.png","他人","Word","自我","Mismatch","j","true","Formal"
"","","","","","psychophysics","375","967206","0.0-9.0-0.2-0.260","695","","f","","","","","","","","","","","","","key","f","6.94456766917295","1280","716","./1_3_Stimuli/C_ambi40.png","朋友","Word","朋友","Match","f","true","Formal"
"","","","","","psychophysics","376","969173","0.0-9.0-0.2-0.261","815","","j","","","","","","","","","","","","","key","j","6.944450354609797","1280","716","./1_3_Stimuli/S_ambi40.png","朋友","Image","自我","Mismatch","j","true","Formal"
"","","","","","psychophysics","377","971133","0.0-9.0-0.2-0.262","809","","f","","","","","","","","","","","","","key","f","6.944437722419885","1280","716","./1_3_Stimuli/C_ambi40.png","朋友","Image","朋友","Match","f","true","Formal"
"","","","","","psychophysics","378","972933","0.0-9.0-0.2-0.263","644","","f","","","","","","","","","","","","","key","f","6.944503875968657","1280","716","./1_3_Stimuli/T_ambi40.png","他人","Image","他人","Match","f","true","Formal"
"","","","","","psychophysics","379","974685","0.0-9.0-0.2-0.264","598","","j","","","","","","","","","","","","","key","j","6.9446215139441305","1280","716","./1_3_Stimuli/T_ambi40.png","自我","Word","他人","Mismatch","j","true","Formal"
"","","","","","psychophysics","380","976605","0.0-9.0-0.2-0.265","767","","j","","","","","","","","","","","","","key","j","6.9446181818182495","1280","716","./1_3_Stimuli/C_ambi40.png","他人","Image","朋友","Mismatch","j","true","Formal"
"","","","","","psychophysics","381","978222","0.0-9.0-0.2-0.266","463","","j","","","","","","","","","","","","","key","j","6.944422413792726","1280","716","./1_3_Stimuli/T_ambi40.png","他人","Word","他人","Match","f","false","Formal"
"","","","","","psychophysics","382","980085","0.0-9.0-0.2-0.267","713","","j","","","","","","","","","","","","","key","j","6.9445168539325355","1280","716","./1_3_Stimuli/C_ambi40.png","朋友","Word","朋友","Match","f","false","Formal"
"","","","","","psychophysics","383","981957","0.0-9.0-0.2-0.268","720","","j","","","","","","","","","","","","","key","j","6.9445687732343355","1280","716","./1_3_Stimuli/C_ambi40.png","自我","Word","朋友","Mismatch","j","true","Formal"
"","","","","","psychophysics","384","983853","0.0-9.0-0.2-0.269","745","","j","","","","","","","","","","","","","key","j","6.944433823529621","1280","716","./1_3_Stimuli/S_ambi40.png","朋友","Image","自我","Mismatch","j","true","Formal"
"","","","","","psychophysics","385","985757","0.0-9.0-0.2-0.270","753","","j","","","","","","","","","","","","","key","j","6.944542124542074","1280","716","./1_3_Stimuli/S_ambi40.png","他人","Image","自我","Mismatch","j","true","Formal"
"","","","","","psychophysics","386","987677","0.0-9.0-0.2-0.271","770","","j","","","","","","","","","","","","","key","j","6.944592727272856","1280","716","./1_3_Stimuli/T_ambi40.png","朋友","Word","他人","Mismatch","j","true","Formal"
"","","","","","psychophysics","387","989614","0.0-9.0-0.2-0.272","783","","j","","","","","","","","","","","","","key","j","6.944589928057624","1280","716","./1_3_Stimuli/T_ambi40.png","自我","Image","他人","Mismatch","j","true","Formal"
"","","","","","psychophysics","388","991421","0.0-9.0-0.2-0.273","653","","f","","","","","","","","","","","","","key","f","6.9444961240307554","1280","716","./1_3_Stimuli/S_ambi40.png","自我","Image","自我","Match","f","true","Formal"
"","","","","","psychophysics","389","993237","0.0-9.0-0.2-0.274","663","","f","","","","","","","","","","","","","key","f","6.944615384615295","1280","716","./1_3_Stimuli/T_ambi40.png","他人","Word","他人","Match","f","true","Formal"
"","","","","","psychophysics","390","994909","0.0-9.0-0.2-0.275","516","","f","","","","","","","","","","","","","key","f","6.944524999999945","1280","716","./1_3_Stimuli/C_ambi40.png","朋友","Image","朋友","Match","f","true","Formal"
"","","","","","psychophysics","391","996797","0.0-9.0-0.2-0.276","737","","f","","","","","","","","","","","","","key","f","6.944586715867186","1280","716","./1_3_Stimuli/T_ambi40.png","他人","Image","他人","Match","f","true","Formal"
"","","","","","psychophysics","392","998581","0.0-9.0-0.2-0.277","632","","f","","","","","","","","","","","","","key","f","6.944541176470618","1280","716","./1_3_Stimuli/S_ambi40.png","自我","Image","自我","Match","f","true","Formal"
"","","","","","psychophysics","393","1000622","0.0-9.0-0.2-0.278","888","","j","","","","","","","","","","","","","key","j","6.944630136986085","1280","716","./1_3_Stimuli/S_ambi40.png","他人","Word","自我","Mismatch","j","true","Formal"
"","","","","","psychophysics","394","1002301","0.0-9.0-0.2-0.279","525","","f","","","","","","","","","","","","","key","f","6.944829166666508","1280","716","./1_3_Stimuli/S_ambi40.png","自我","Word","自我","Match","f","true","Formal"
"","","","","","psychophysics","395","1003973","0.0-9.0-0.2-0.280","517","","j","","","","","","","","","","","","","key","j","6.944595833333733","1280","716","./1_3_Stimuli/T_ambi40.png","朋友","Image","他人","Mismatch","j","true","Formal"
"","","","","","psychophysics","396","1005845","0.0-9.0-0.2-0.281","716","","f","","","","","","","","","","","","","key","f","6.944486988847729","1280","716","./1_3_Stimuli/T_ambi40.png","他人","Image","他人","Match","f","true","Formal"
"","","","","","psychophysics","397","1007517","0.0-9.0-0.2-0.282","519","","f","","","","","","","","","","","","","key","f","6.94455230125532","1280","716","./1_3_Stimuli/C_ambi40.png","朋友","Word","朋友","Match","f","true","Formal"
"","","","","","psychophysics","398","1009189","0.0-9.0-0.2-0.283","518","","j","","","","","","","","","","","","","key","j","6.944606694560907","1280","716","./1_3_Stimuli/C_ambi40.png","他人","Word","朋友","Mismatch","j","true","Formal"
"","","","","","psychophysics","399","1010798","0.0-9.0-0.2-0.284","453","","f","","","","","","","","","","","","","key","f","6.944541125541182","1280","716","./1_3_Stimuli/S_ambi40.png","自我","Word","自我","Match","f","true","Formal"
"","","","","","psychophysics","400","1013141","0.0-9.0-0.2-0.285","1191","","j","","","","","","","","","","","","","key","j","6.944598214285742","1280","716","./1_3_Stimuli/C_ambi40.png","自我","Image","朋友","Mismatch","j","true","Formal"
"","","","","","psychophysics","401","1015245","0.0-9.0-0.2-0.286","948","","j","","","","","","","","","","","","","key","j","6.944543046357545","1280","716","./1_3_Stimuli/S_ambi40.png","朋友","Word","自我","Mismatch","j","true","Formal"
"","","","","","psychophysics","402","1017013","0.0-9.0-0.2-0.287","613","","f","","","","","","","","","","","","","key","f","6.94476771653551","1280","716","./1_3_Stimuli/C_ambi40.png","朋友","Image","朋友","Match","f","true","Formal"
"","","","","","psychophysics","403","1018685","0.0-9.0-0.2-0.288","520","","j","","","","","","","","","","","","","key","j","6.944740585773837","1280","716","./1_3_Stimuli/C_ambi40.png","自我","Image","朋友","Mismatch","j","true","Formal"
"","","","","","psychophysics","404","1020653","0.0-9.0-0.2-0.289","814","","j","","","","","","","","","","","","","key","j","6.9445780141845495","1280","716","./1_3_Stimuli/S_ambi40.png","自我","Word","自我","Match","f","false","Formal"
"","","","","","psychophysics","405","1022374","0.0-9.0-0.2-0.290","570","","f","","","","","","","","","","","","","key","f","6.9445465587042765","1280","716","./1_3_Stimuli/T_ambi40.png","他人","Image","他人","Match","f","true","Formal"
"","","","","","psychophysics","406","1024116","0.0-9.0-0.2-0.291","591","","f","","","","","","","","","","","","","key","f","6.9445840000002645","1280","716","./1_3_Stimuli/C_ambi40.png","朋友","Image","朋友","Match","f","true","Formal"
"","","","","","psychophysics","407","1025780","0.0-9.0-0.2-0.292","512","","j","","","","","","","","","","","","","key","j","6.94463865546179","1280","716","./1_3_Stimuli/C_ambi40.png","自我","Word","朋友","Mismatch","j","true","Formal"
"","","","","","psychophysics","408","1027436","0.0-9.0-0.2-0.293","505","","f","","","","","","","","","","","","","key","f","6.9446050420167715","1280","716","./1_3_Stimuli/T_ambi40.png","他人","Word","他人","Match","f","true","Formal"
"","","","","","psychophysics","409","1029316","0.0-9.0-0.2-0.294","728","","f","","","","","","","","","","","","","key","f","6.944591078066811","1280","716","./1_3_Stimuli/C_ambi40.png","朋友","Word","朋友","Match","f","true","Formal"
"","","","","","psychophysics","410","1030996","0.0-9.0-0.2-0.295","526","","j","","","","","","","","","","","","","key","j","6.944574999999896","1280","716","./1_3_Stimuli/S_ambi40.png","他人","Word","自我","Mismatch","j","true","Formal"
"","","","","","psychophysics","411","1032893","0.0-9.0-0.2-0.296","743","","j","","","","","","","","","","","","","key","j","6.944613970588013","1280","716","./1_3_Stimuli/T_ambi40.png","朋友","Image","他人","Mismatch","j","true","Formal"
"","","","","","psychophysics","412","1034620","0.0-9.0-0.2-0.297","574","","f","","","","","","","","","","","","","key","f","6.944591093117461","1280","716","./1_3_Stimuli/C_ambi40.png","朋友","Word","朋友","Match","f","true","Formal"
"","","","","","psychophysics","413","1036380","0.0-9.0-0.2-0.298","605","","f","","","","","","","","","","","","","key","f","6.944549407114701","1280","716","./1_3_Stimuli/T_ambi40.png","他人","Image","他人","Match","f","true","Formal"
"","","","","","psychophysics","414","1038212","0.0-9.0-0.2-0.299","680","","j","","","","","","","","","","","","","key","j","6.944576335878055","1280","716","./1_3_Stimuli/S_ambi40.png","朋友","Image","自我","Mismatch","j","true","Formal"
"","","","","","psychophysics","415","1040052","0.0-9.0-0.2-0.300","686","","f","","","","","","","","","","","","","key","f","6.944562737642302","1280","716","./1_3_Stimuli/S_ambi40.png","自我","Image","自我","Match","f","true","Formal"
"","","","","","psychophysics","416","1042020","0.0-9.0-0.2-0.301","814","","j","","","","","","","","","","","","","key","j","6.944599290780066","1280","716","./1_3_Stimuli/S_ambi40.png","朋友","Word","自我","Mismatch","j","true","Formal"
"","","","","","psychophysics","417","1044085","0.0-9.0-0.2-0.302","913","","j","","","","","","","","","","","","","key","j","6.944567567567779","1280","716","./1_3_Stimuli/T_ambi40.png","朋友","Word","他人","Mismatch","j","true","Formal"
"","","","","","psychophysics","418","1045892","0.0-9.0-0.2-0.303","651","","j","","","","","","","","","","","","","key","j","6.944555984556039","1280","716","./1_3_Stimuli/S_ambi40.png","他人","Image","自我","Mismatch","j","true","Formal"
"","","","","","psychophysics","419","1047780","0.0-9.0-0.2-0.304","733","","f","","","","","","","","","","","","","key","f","6.944590405904262","1280","716","./1_3_Stimuli/C_ambi40.png","他人","Word","朋友","Mismatch","j","false","Formal"
"","","","","","psychophysics","420","1049484","0.0-9.0-0.2-0.305","549","","f","","","","","","","","","","","","","key","f","6.944581967213603","1280","716","./1_3_Stimuli/S_ambi40.png","自我","Word","自我","Match","f","true","Formal"
"","","","","","psychophysics","421","1051364","0.0-9.0-0.2-0.306","727","","f","","","","","","","","","","","","","key","f","6.94456505576204","1280","716","./1_3_Stimuli/T_ambi40.png","他人","Word","他人","Match","f","true","Formal"
