success,timeout,failed_images,failed_audio,failed_video,trial_type,trial_index,time_elapsed,internal_node_id,rt,stimulus,response,value,item_width_mm,item_height_mm,item_width_px,px2mm,view_dist_mm,item_width_deg,px2deg,scale_factor,win_width_deg,win_height_deg,view_history,response_type,key_press,avg_frame_time,center_x,center_y,image,word,target,valence,matchness,correct_response,correct,exp_condition
true,false,[],[],[],preload,0,1532,0.0-0.0,,,,,,,,,,,,,,,,,,,,,,,,,,,,
,,,,,html-keyboard-response,1,23837,0.0-1.0,22305,"
     <p>您好，欢迎参加本次实验。</p>
     <p>为充分保障您的权利，请确保您已经知晓并同意《参与实验同意书》以及《数据公开知情同意书》。</p>
     <p>如果您未见过上述内容，请咨询实验员。</p>
     <p>如果您选择继续实验，则表示您已经清楚两份知情同意书的内容并同意。</p>
     <p> <div style = ""color: green""><按任意键至下页></div> </p>
     ", ,,,,,,,,,,,,,,,,,,,,,,,,,
,,,,,html-keyboard-response,2,31632,0.0-2.0-0.0,7794,"
      <p>本实验首先需要您填写一些基本个人信息。</p>
      <p> <div style = ""color: green""><按任意键至下页></div></p>
      ", ,,,,,,,,,,,,,,,,,,,,,,,,,
,,,,,call-function,3,31633,0.0-2.0-1.0,,,,,,,,,,,,,,,,,,,,,,,,,,,,
,,,,,survey-html-form,4,43351,0.0-2.0-2.0,11717,,"{""Q0"":""1013""}",,,,,,,,,,,,,,,,,,,,,,,,,
,,,,,html-button-response,5,45191,0.0-2.0-3.0,1839,<p style = 'color : white'>您的性别</p>,1,,,,,,,,,,,,,,,,,,,,,,,,,
,,,,,survey-html-form,6,51982,0.0-2.0-4.0,6791,,"{""Q0"":""2003""}",,,,,,,,,,,,,,,,,,,,,,,,,
,,,,,survey-html-form,7,55093,0.0-2.0-5.0,3111,,"{""Q0"":""5""}",,,,,,,,,,,,,,,,,,,,,,,,,
,,,,,virtual-chinrest,8,193821,0.0-3.0,138726,,,,85.6,53.98,448.648924630714,5.24556697232375,545.47,8.97297849261428,50,0.88265005945562,28.8,15.5,,,,,,,,,,,,,,
true,,,,,fullscreen,9,201342,0.0-4.0,,,,,,,,,,,,,,,,,,,,,,,,,,,,
,,,,,instructions,10,243473,0.0-5.0,42129,,,,,,,,,,,,,,"[{""page_index"":0,""viewing_time"":8177},{""page_index"":1,""viewing_time"":26056},{""page_index"":2,""viewing_time"":5525},{""page_index"":3,""viewing_time"":2372}]",,,,,,,,,,,,,
,,,,,html-keyboard-response,11,247135,0.0-6.0,null,"<count-down title=""""></count-down>",null,,,,,,,,,,,,,,,,,,,,,,,,,
,,,,,psychophysics,12,249486,0.0-7.0-0.0-0.0,1194,,f,,,,,,,,,,,,,key,f,16.6656785714286,720,446,./1_3_Stimuli/S_ambi40.png,朋友,Image,朋友,Match,j,false,Practice
,,,,,html-keyboard-response,13,249801,0.0-7.0-0.0-1.0,null,<span style='color:red; font-size: 70px;'>错误! </span>,null,,,,,,,,,,,,,,,,,,,,,,,,,feedback
,,,,,psychophysics,14,252509,0.0-7.0-0.0-0.1,null,,null,,,,,,,,,,,,,key,null,16.6654844720498,720,446,./1_3_Stimuli/S_ambi40.png,他人,Image,朋友,Mismatch,f,false,Practice
,,,,,html-keyboard-response,15,252822,0.0-7.0-0.0-1.1,null,<span class='add_' style='color:yellow; font-size: 70px;'> 太慢! </span>,null,,,,,,,,,,,,,,,,,,,,,,,,,feedback
,,,,,psychophysics,16,255527,0.0-7.0-0.0-0.2,null,,null,,,,,,,,,,,,,key,null,16.6655776397515,720,446,./1_3_Stimuli/S_ambi40.png,朋友,Image,朋友,Match,j,false,Practice
,,,,,html-keyboard-response,17,255836,0.0-7.0-0.0-1.2,null,<span class='add_' style='color:yellow; font-size: 70px;'> 太慢! </span>,null,,,,,,,,,,,,,,,,,,,,,,,,,feedback
,,,,,psychophysics,18,258261,0.0-7.0-0.0-0.3,1260,,f,,,,,,,,,,,,,key,f,16.6648194444444,720,446,./1_3_Stimuli/C_ambi40.png,他人,Word,他人,Match,j,false,Practice
,,,,,html-keyboard-response,19,258576,0.0-7.0-0.0-1.3,null,<span style='color:red; font-size: 70px;'>错误! </span>,null,,,,,,,,,,,,,,,,,,,,,,,,,feedback
,,,,,psychophysics,20,260632,0.0-7.0-0.0-0.4,900,,f,,,,,,,,,,,,,key,f,16.6654262295082,720,446,./1_3_Stimuli/T_ambi40.png,他人,Word,自我,Mismatch,f,true,Practice
,,,,,html-keyboard-response,21,260935,0.0-7.0-0.0-1.4,null,<span style='color:GreenYellow; font-size: 70px;'>正确! </span>,null,,,,,,,,,,,,,,,,,,,,,,,,,feedback
,,,,,psychophysics,22,262728,0.0-7.0-0.0-0.5,628,,f,,,,,,,,,,,,,key,f,16.6641132075472,720,446,./1_3_Stimuli/S_ambi40.png,自我,Word,朋友,Mismatch,f,true,Practice
,,,,,html-keyboard-response,23,263036,0.0-7.0-0.0-1.5,null,<span style='color:GreenYellow; font-size: 70px;'>正确! </span>,null,,,,,,,,,,,,,,,,,,,,,,,,,feedback
,,,,,psychophysics,24,265195,0.0-7.0-0.0-0.6,1003,,j,,,,,,,,,,,,,key,j,16.6642812499999,720,446,./1_3_Stimuli/C_ambi40.png,自我,Word,他人,Mismatch,f,false,Practice
,,,,,html-keyboard-response,25,265505,0.0-7.0-0.0-1.6,null,<span style='color:red; font-size: 70px;'>错误! </span>,null,,,,,,,,,,,,,,,,,,,,,,,,,feedback
,,,,,psychophysics,26,267538,0.0-7.0-0.0-0.7,880,,f,,,,,,,,,,,,,key,f,16.6670991735541,720,446,./1_3_Stimuli/S_ambi40.png,自我,Image,朋友,Mismatch,f,true,Practice
,,,,,html-keyboard-response,27,267845,0.0-7.0-0.0-1.7,null,<span style='color:GreenYellow; font-size: 70px;'>正确! </span>,null,,,,,,,,,,,,,,,,,,,,,,,,,feedback
,,,,,psychophysics,28,269814,0.0-7.0-0.0-0.8,818,,f,,,,,,,,,,,,,key,f,16.6638632478629,720,446,./1_3_Stimuli/C_ambi40.png,自我,Image,他人,Mismatch,f,true,Practice
,,,,,html-keyboard-response,29,270116,0.0-7.0-0.0-1.8,null,<span style='color:GreenYellow; font-size: 70px;'>正确! </span>,null,,,,,,,,,,,,,,,,,,,,,,,,,feedback
,,,,,psychophysics,30,271814,0.0-7.0-0.0-0.9,540,,j,,,,,,,,,,,,,key,j,16.6649099999998,720,446,./1_3_Stimuli/T_ambi40.png,自我,Word,自我,Match,j,true,Practice
,,,,,html-keyboard-response,31,272130,0.0-7.0-0.0-1.9,null,<span style='color:GreenYellow; font-size: 70px;'>正确! </span>,null,,,,,,,,,,,,,,,,,,,,,,,,,feedback
,,,,,psychophysics,32,274197,0.0-7.0-0.0-0.10,915,,j,,,,,,,,,,,,,key,j,16.6653821138212,720,446,./1_3_Stimuli/S_ambi40.png,朋友,Word,朋友,Match,j,true,Practice
,,,,,html-keyboard-response,33,274501,0.0-7.0-0.0-1.10,null,<span style='color:GreenYellow; font-size: 70px;'>正确! </span>,null,,,,,,,,,,,,,,,,,,,,,,,,,feedback
,,,,,psychophysics,34,276565,0.0-7.0-0.0-0.11,907,,j,,,,,,,,,,,,,key,j,16.6636178861789,720,446,./1_3_Stimuli/C_ambi40.png,他人,Word,他人,Match,j,true,Practice
,,,,,html-keyboard-response,35,276874,0.0-7.0-0.0-1.11,null,<span style='color:GreenYellow; font-size: 70px;'>正确! </span>,null,,,,,,,,,,,,,,,,,,,,,,,,,feedback
,,,,,psychophysics,36,278609,0.0-7.0-0.0-0.12,583,,f,,,,,,,,,,,,,key,f,16.6643883495143,720,446,./1_3_Stimuli/T_ambi40.png,朋友,Image,自我,Mismatch,f,true,Practice
,,,,,html-keyboard-response,37,278915,0.0-7.0-0.0-1.12,null,<span style='color:GreenYellow; font-size: 70px;'>正确! </span>,null,,,,,,,,,,,,,,,,,,,,,,,,,feedback
,,,,,psychophysics,38,281082,0.0-7.0-0.0-0.13,1017,,j,,,,,,,,,,,,,key,j,16.6646201550386,720,446,./1_3_Stimuli/S_ambi40.png,朋友,Word,朋友,Match,j,true,Practice
,,,,,html-keyboard-response,39,281394,0.0-7.0-0.0-1.13,null,<span style='color:GreenYellow; font-size: 70px;'>正确! </span>,null,,,,,,,,,,,,,,,,,,,,,,,,,feedback
,,,,,psychophysics,40,283545,0.0-7.0-0.0-0.14,998,,f,,,,,,,,,,,,,key,f,16.6661093750004,720,446,./1_3_Stimuli/C_ambi40.png,朋友,Word,他人,Mismatch,f,true,Practice
,,,,,html-keyboard-response,41,283859,0.0-7.0-0.0-1.14,null,<span style='color:GreenYellow; font-size: 70px;'>正确! </span>,null,,,,,,,,,,,,,,,,,,,,,,,,,feedback
,,,,,psychophysics,42,285902,0.0-7.0-0.0-0.15,888,,j,,,,,,,,,,,,,key,j,16.6652786885245,720,446,./1_3_Stimuli/C_ambi40.png,他人,Image,他人,Match,j,true,Practice
,,,,,html-keyboard-response,43,286217,0.0-7.0-0.0-1.15,null,<span style='color:GreenYellow; font-size: 70px;'>正确! </span>,null,,,,,,,,,,,,,,,,,,,,,,,,,feedback
,,,,,psychophysics,44,287832,0.0-7.0-0.0-0.16,463,,j,,,,,,,,,,,,,key,j,16.664145833333,720,446,./1_3_Stimuli/T_ambi40.png,自我,Word,自我,Match,j,true,Practice
,,,,,html-keyboard-response,45,288135,0.0-7.0-0.0-1.16,null,<span style='color:GreenYellow; font-size: 70px;'>正确! </span>,null,,,,,,,,,,,,,,,,,,,,,,,,,feedback
,,,,,psychophysics,46,289909,0.0-7.0-0.0-0.17,618,,f,,,,,,,,,,,,,key,f,16.6650571428572,720,446,./1_3_Stimuli/T_ambi40.png,朋友,Word,自我,Mismatch,f,true,Practice
,,,,,html-keyboard-response,47,290223,0.0-7.0-0.0-1.17,null,<span style='color:GreenYellow; font-size: 70px;'>正确! </span>,null,,,,,,,,,,,,,,,,,,,,,,,,,feedback
,,,,,psychophysics,48,292306,0.0-7.0-0.0-0.18,932,,j,,,,,,,,,,,,,key,j,16.6647741935486,720,446,./1_3_Stimuli/C_ambi40.png,他人,Image,他人,Match,j,true,Practice
,,,,,html-keyboard-response,49,292615,0.0-7.0-0.0-1.18,null,<span style='color:GreenYellow; font-size: 70px;'>正确! </span>,null,,,,,,,,,,,,,,,,,,,,,,,,,feedback
,,,,,psychophysics,50,294417,0.0-7.0-0.0-0.19,647,,f,,,,,,,,,,,,,key,f,16.6641121495327,720,446,./1_3_Stimuli/T_ambi40.png,他人,Image,自我,Mismatch,f,true,Practice
,,,,,html-keyboard-response,51,294724,0.0-7.0-0.0-1.19,null,<span style='color:GreenYellow; font-size: 70px;'>正确! </span>,null,,,,,,,,,,,,,,,,,,,,,,,,,feedback
,,,,,psychophysics,52,296628,0.0-7.0-0.0-0.20,749,,j,,,,,,,,,,,,,key,j,16.6641327433625,720,446,./1_3_Stimuli/T_ambi40.png,自我,Image,自我,Match,j,true,Practice
,,,,,html-keyboard-response,53,296944,0.0-7.0-0.0-1.20,null,<span style='color:GreenYellow; font-size: 70px;'>正确! </span>,null,,,,,,,,,,,,,,,,,,,,,,,,,feedback
,,,,,psychophysics,54,299038,0.0-7.0-0.0-0.21,941,,j,,,,,,,,,,,,,key,j,16.6662559999996,720,446,./1_3_Stimuli/C_ambi40.png,朋友,Image,他人,Mismatch,f,false,Practice
,,,,,html-keyboard-response,55,299348,0.0-7.0-0.0-1.21,null,<span style='color:red; font-size: 70px;'>错误! </span>,null,,,,,,,,,,,,,,,,,,,,,,,,,feedback
,,,,,psychophysics,56,301021,0.0-7.0-0.0-0.22,521,,j,,,,,,,,,,,,,key,j,16.663080808081,720,446,./1_3_Stimuli/T_ambi40.png,自我,Image,自我,Match,j,true,Practice
,,,,,html-keyboard-response,57,301329,0.0-7.0-0.0-1.22,null,<span style='color:GreenYellow; font-size: 70px;'>正确! </span>,null,,,,,,,,,,,,,,,,,,,,,,,,,feedback
,,,,,psychophysics,58,303585,0.0-7.0-0.0-0.23,1105,,j,,,,,,,,,,,,,key,j,16.6664402985071,720,446,./1_3_Stimuli/S_ambi40.png,他人,Word,朋友,Mismatch,f,false,Practice
,,,,,html-keyboard-response,59,303891,0.0-7.0-0.0-1.23,null,<span style='color:red; font-size: 70px;'>错误! </span>,null,,,,,,,,,,,,,,,,,,,,,,,,,feedback
,,,,,html-keyboard-response,60,306836,0.0-7.0-1.0-0.0,2944,<style>.context{color:white; font-size: 35px; line-height:40px}</style>                        <div><p class='context'>您正确回答了71% 的试次。</p><p class='context'>您的平均反应时为765毫秒。</p><p> <div style = 'color: green'><按空格键至下页></div></p>, ,,,,,,,,,,,,,,,,,,,,,,,,,
,,,,,instructions,61,334318,0.0-7.0-1.0-1.0,27480,,,,,,,,,,,,,,"[{""page_index"":0,""viewing_time"":1927},{""page_index"":1,""viewing_time"":16529},{""page_index"":2,""viewing_time"":3798},{""page_index"":1,""viewing_time"":2617},{""page_index"":2,""viewing_time"":2610}]",,,,,,,,,,,,,
,,,,,psychophysics,62,336083,0.0-7.1-0.1-0.24,611,,f,,,,,,,,,,,,,key,f,16.6649428571425,720,446,./1_3_Stimuli/T_ambi40.png,朋友,Word,自我,Mismatch,f,true,Practice
,,,,,html-keyboard-response,63,336393,0.0-7.1-0.1-1.24,null,<span style='color:GreenYellow; font-size: 70px;'>正确! </span>,null,,,,,,,,,,,,,,,,,,,,,,,,,feedback
,,,,,psychophysics,64,338069,0.0-7.1-0.1-0.25,525,,f,,,,,,,,,,,,,key,f,16.6666060606061,720,446,./1_3_Stimuli/S_ambi40.png,自我,Word,朋友,Mismatch,f,true,Practice
,,,,,html-keyboard-response,65,338373,0.0-7.1-0.1-1.25,null,<span style='color:GreenYellow; font-size: 70px;'>正确! </span>,null,,,,,,,,,,,,,,,,,,,,,,,,,feedback
,,,,,psychophysics,66,340139,0.0-7.1-0.1-0.26,611,,f,,,,,,,,,,,,,key,f,16.6647714285712,720,446,./1_3_Stimuli/C_ambi40.png,自我,Word,他人,Mismatch,f,true,Practice
,,,,,html-keyboard-response,67,340447,0.0-7.1-0.1-1.26,null,<span style='color:GreenYellow; font-size: 70px;'>正确! </span>,null,,,,,,,,,,,,,,,,,,,,,,,,,feedback
,,,,,psychophysics,68,342054,0.0-7.1-0.1-0.27,450,,j,,,,,,,,,,,,,key,j,16.6636421052629,720,446,./1_3_Stimuli/T_ambi40.png,自我,Image,自我,Match,j,true,Practice
,,,,,html-keyboard-response,69,342366,0.0-7.1-0.1-1.27,null,<span style='color:GreenYellow; font-size: 70px;'>正确! </span>,null,,,,,,,,,,,,,,,,,,,,,,,,,feedback
,,,,,psychophysics,70,344406,0.0-7.1-0.1-0.28,883,,j,,,,,,,,,,,,,key,j,16.6641818181821,720,446,./1_3_Stimuli/S_ambi40.png,朋友,Word,朋友,Match,j,true,Practice
,,,,,html-keyboard-response,71,344713,0.0-7.1-0.1-1.28,null,<span style='color:GreenYellow; font-size: 70px;'>正确! </span>,null,,,,,,,,,,,,,,,,,,,,,,,,,feedback
,,,,,psychophysics,72,347050,0.0-7.1-0.1-0.29,1182,,j,,,,,,,,,,,,,key,j,16.6631942446044,720,446,./1_3_Stimuli/C_ambi40.png,朋友,Word,他人,Mismatch,f,false,Practice
,,,,,html-keyboard-response,73,347364,0.0-7.1-0.1-1.29,null,<span style='color:red; font-size: 70px;'>错误! </span>,null,,,,,,,,,,,,,,,,,,,,,,,,,feedback
,,,,,psychophysics,74,349116,0.0-7.1-0.1-0.30,590,,f,,,,,,,,,,,,,key,f,16.6643269230766,720,446,./1_3_Stimuli/T_ambi40.png,朋友,Image,自我,Mismatch,f,true,Practice
,,,,,html-keyboard-response,75,349423,0.0-7.1-0.1-1.30,null,<span style='color:GreenYellow; font-size: 70px;'>正确! </span>,null,,,,,,,,,,,,,,,,,,,,,,,,,feedback
,,,,,psychophysics,76,351468,0.0-7.1-0.1-0.31,893,,j,,,,,,,,,,,,,key,j,16.6563636363635,720,446,./1_3_Stimuli/S_ambi40.png,他人,Image,朋友,Mismatch,f,false,Practice
,,,,,html-keyboard-response,77,351773,0.0-7.1-0.1-1.31,null,<span style='color:red; font-size: 70px;'>错误! </span>,null,,,,,,,,,,,,,,,,,,,,,,,,,feedback
,,,,,psychophysics,78,353619,0.0-7.1-0.1-0.32,694,,f,,,,,,,,,,,,,key,f,16.6670999999999,720,446,./1_3_Stimuli/T_ambi40.png,他人,Word,自我,Mismatch,f,true,Practice
,,,,,html-keyboard-response,79,353934,0.0-7.1-0.1-1.32,null,<span style='color:GreenYellow; font-size: 70px;'>正确! </span>,null,,,,,,,,,,,,,,,,,,,,,,,,,feedback
,,,,,psychophysics,80,355950,0.0-7.1-0.1-0.33,867,,j,,,,,,,,,,,,,key,j,16.6633416666664,720,446,./1_3_Stimuli/C_ambi40.png,他人,Image,他人,Match,j,true,Practice
,,,,,html-keyboard-response,81,356252,0.0-7.1-0.1-1.33,null,<span style='color:GreenYellow; font-size: 70px;'>正确! </span>,null,,,,,,,,,,,,,,,,,,,,,,,,,feedback
,,,,,psychophysics,82,357961,0.0-7.1-0.1-0.34,558,,f,,,,,,,,,,,,,key,f,16.6642549019609,720,446,./1_3_Stimuli/C_ambi40.png,朋友,Image,他人,Mismatch,f,true,Practice
,,,,,html-keyboard-response,83,358274,0.0-7.1-0.1-1.34,null,<span style='color:GreenYellow; font-size: 70px;'>正确! </span>,null,,,,,,,,,,,,,,,,,,,,,,,,,feedback
,,,,,psychophysics,84,359928,0.0-7.1-0.1-0.35,501,,j,,,,,,,,,,,,,key,j,16.6659081632655,720,446,./1_3_Stimuli/C_ambi40.png,他人,Word,他人,Match,j,true,Practice
,,,,,html-keyboard-response,85,360234,0.0-7.1-0.1-1.35,null,<span style='color:GreenYellow; font-size: 70px;'>正确! </span>,null,,,,,,,,,,,,,,,,,,,,,,,,,feedback
,,,,,psychophysics,86,361851,0.0-7.1-0.1-0.36,460,,j,,,,,,,,,,,,,key,j,16.6662499999996,720,446,./1_3_Stimuli/C_ambi40.png,他人,Image,他人,Match,j,true,Practice
,,,,,html-keyboard-response,87,362156,0.0-7.1-0.1-1.36,null,<span style='color:GreenYellow; font-size: 70px;'>正确! </span>,null,,,,,,,,,,,,,,,,,,,,,,,,,feedback
,,,,,psychophysics,88,364022,0.0-7.1-0.1-0.37,715,,j,,,,,,,,,,,,,key,j,16.6657727272731,720,446,./1_3_Stimuli/S_ambi40.png,朋友,Image,朋友,Match,j,true,Practice
,,,,,html-keyboard-response,89,364335,0.0-7.1-0.1-1.37,null,<span style='color:GreenYellow; font-size: 70px;'>正确! </span>,null,,,,,,,,,,,,,,,,,,,,,,,,,feedback
,,,,,psychophysics,90,365912,0.0-7.1-0.1-0.38,422,,j,,,,,,,,,,,,,key,j,16.6640212765958,720,446,./1_3_Stimuli/T_ambi40.png,自我,Word,自我,Match,j,true,Practice
,,,,,html-keyboard-response,91,366222,0.0-7.1-0.1-1.38,null,<span style='color:GreenYellow; font-size: 70px;'>正确! </span>,null,,,,,,,,,,,,,,,,,,,,,,,,,feedback
,,,,,psychophysics,92,367998,0.0-7.1-0.1-0.39,625,,j,,,,,,,,,,,,,key,j,16.6669904761903,720,446,./1_3_Stimuli/S_ambi40.png,他人,Word,朋友,Mismatch,f,false,Practice
,,,,,html-keyboard-response,93,368304,0.0-7.1-0.1-1.39,null,<span style='color:red; font-size: 70px;'>错误! </span>,null,,,,,,,,,,,,,,,,,,,,,,,,,feedback
,,,,,psychophysics,94,370180,0.0-7.1-0.1-0.40,725,,j,,,,,,,,,,,,,key,j,16.6626756756759,720,446,./1_3_Stimuli/S_ambi40.png,朋友,Image,朋友,Match,j,true,Practice
,,,,,html-keyboard-response,95,370487,0.0-7.1-0.1-1.40,null,<span style='color:GreenYellow; font-size: 70px;'>正确! </span>,null,,,,,,,,,,,,,,,,,,,,,,,,,feedback
,,,,,psychophysics,96,372311,0.0-7.1-0.1-0.41,672,,f,,,,,,,,,,,,,key,f,16.6659266055047,720,446,./1_3_Stimuli/C_ambi40.png,自我,Image,他人,Mismatch,f,true,Practice
,,,,,html-keyboard-response,97,372620,0.0-7.1-0.1-1.41,null,<span style='color:GreenYellow; font-size: 70px;'>正确! </span>,null,,,,,,,,,,,,,,,,,,,,,,,,,feedback
,,,,,psychophysics,98,374602,0.0-7.1-0.1-0.42,830,,j,,,,,,,,,,,,,key,j,16.6653728813561,720,446,./1_3_Stimuli/S_ambi40.png,朋友,Word,朋友,Match,j,true,Practice
,,,,,html-keyboard-response,99,374915,0.0-7.1-0.1-1.42,null,<span style='color:GreenYellow; font-size: 70px;'>正确! </span>,null,,,,,,,,,,,,,,,,,,,,,,,,,feedback
,,,,,psychophysics,100,376573,0.0-7.1-0.1-0.43,501,,j,,,,,,,,,,,,,key,j,16.665888888889,720,446,./1_3_Stimuli/C_ambi40.png,他人,Word,他人,Match,j,true,Practice
,,,,,html-keyboard-response,101,376886,0.0-7.1-0.1-1.43,null,<span style='color:GreenYellow; font-size: 70px;'>正确! </span>,null,,,,,,,,,,,,,,,,,,,,,,,,,feedback
,,,,,psychophysics,102,378694,0.0-7.1-0.1-0.44,655,,f,,,,,,,,,,,,,key,f,16.6657407407404,720,446,./1_3_Stimuli/S_ambi40.png,自我,Image,朋友,Mismatch,f,true,Practice
,,,,,html-keyboard-response,103,379009,0.0-7.1-0.1-1.44,null,<span style='color:GreenYellow; font-size: 70px;'>正确! </span>,null,,,,,,,,,,,,,,,,,,,,,,,,,feedback
,,,,,psychophysics,104,380699,0.0-7.1-0.1-0.45,527,,f,,,,,,,,,,,,,key,f,16.66359,720,446,./1_3_Stimuli/T_ambi40.png,他人,Image,自我,Mismatch,f,true,Practice
,,,,,html-keyboard-response,105,381013,0.0-7.1-0.1-1.45,null,<span style='color:GreenYellow; font-size: 70px;'>正确! </span>,null,,,,,,,,,,,,,,,,,,,,,,,,,feedback
,,,,,psychophysics,106,382726,0.0-7.1-0.1-0.46,554,,j,,,,,,,,,,,,,key,j,16.6663431372549,720,446,./1_3_Stimuli/T_ambi40.png,自我,Word,自我,Match,j,true,Practice
,,,,,html-keyboard-response,107,383034,0.0-7.1-0.1-1.46,null,<span style='color:GreenYellow; font-size: 70px;'>正确! </span>,null,,,,,,,,,,,,,,,,,,,,,,,,,feedback
,,,,,psychophysics,108,385108,0.0-7.1-0.1-0.47,919,,j,,,,,,,,,,,,,key,j,16.6665080645161,720,446,./1_3_Stimuli/T_ambi40.png,自我,Image,自我,Match,j,true,Practice
,,,,,html-keyboard-response,109,385411,0.0-7.1-0.1-1.47,null,<span style='color:GreenYellow; font-size: 70px;'>正确! </span>,null,,,,,,,,,,,,,,,,,,,,,,,,,feedback
,,,,,html-keyboard-response,110,402513,0.0-8.0,17100,<style>.context{color:white; font-size: 35px; line-height:40px}</style>                          <div><p class='context'>您正确回答了88% 的试次。</p><p class='context'>您的平均反应时为632毫秒。</p><p class='context'>恭喜您完成练习。现在请休息3~5分钟。</p><p class='context'>之后，按任意键进入正式实验。需要注意的是，正式实验将不再提供反应是否正确的反馈。</p><p class='footer' style='font-size: 35px; line-height:40px;'>请在进入正式实验实验之前将您的<span style='color: lightgreen;'>食指</span>放在电脑键盘的相应键位上进行按键。</p>, ,,,,,,,,,,,,,,,,,,,,,,,,,
,,,,,psychophysics,111,404182,0.0-9.0-0.0-0.0,513,,f,,,,,,,,,,,,,key,f,16.6659393939395,720,446,./1_3_Stimuli/T_ambi40.png,朋友,Image,自我,Mismatch,f,true,Formal
,,,,,psychophysics,112,406494,0.0-9.0-0.0-0.1,1158,,j,,,,,,,,,,,,,key,j,16.6646376811592,720,446,./1_3_Stimuli/C_ambi40.png,他人,Word,他人,Match,j,true,Formal
,,,,,psychophysics,113,408348,0.0-9.0-0.0-0.2,700,,f,,,,,,,,,,,,,key,f,16.6635181818184,720,446,./1_3_Stimuli/S_ambi40.png,自我,Image,朋友,Mismatch,f,true,Formal
,,,,,psychophysics,114,410494,0.0-9.0-0.0-0.3,993,,f,,,,,,,,,,,,,key,f,16.6641640625003,720,446,./1_3_Stimuli/T_ambi40.png,他人,Word,自我,Mismatch,f,true,Formal
,,,,,psychophysics,115,412244,0.0-9.0-0.0-0.4,592,,j,,,,,,,,,,,,,key,j,16.6652019230768,720,446,./1_3_Stimuli/T_ambi40.png,自我,Image,自我,Match,j,true,Formal
,,,,,psychophysics,116,413953,0.0-9.0-0.0-0.5,554,,j,,,,,,,,,,,,,key,j,16.6652254901961,720,446,./1_3_Stimuli/T_ambi40.png,自我,Word,自我,Match,j,true,Formal
,,,,,psychophysics,117,415607,0.0-9.0-0.0-0.6,501,,f,,,,,,,,,,,,,key,f,16.6654591836731,720,446,./1_3_Stimuli/T_ambi40.png,他人,Image,自我,Mismatch,f,true,Formal
,,,,,psychophysics,118,417512,0.0-9.0-0.0-0.7,751,,f,,,,,,,,,,,,,key,f,16.6659292035398,720,446,./1_3_Stimuli/T_ambi40.png,朋友,Word,自我,Mismatch,f,true,Formal
,,,,,psychophysics,119,419150,0.0-9.0-0.0-0.8,484,,j,,,,,,,,,,,,,key,j,16.6636907216492,720,446,./1_3_Stimuli/T_ambi40.png,自我,Image,自我,Match,j,true,Formal
,,,,,psychophysics,120,420855,0.0-9.0-0.0-0.9,553,,f,,,,,,,,,,,,,key,f,16.6647920792076,720,446,./1_3_Stimuli/C_ambi40.png,朋友,Image,他人,Mismatch,f,true,Formal
,,,,,psychophysics,121,422679,0.0-9.0-0.0-0.10,669,,f,,,,,,,,,,,,,key,f,16.666462962963,720,446,./1_3_Stimuli/C_ambi40.png,自我,Image,他人,Mismatch,f,true,Formal
,,,,,psychophysics,122,424699,0.0-9.0-0.0-0.11,864,,j,,,,,,,,,,,,,key,j,16.6638083333334,720,446,./1_3_Stimuli/S_ambi40.png,朋友,Word,朋友,Match,j,true,Formal
,,,,,psychophysics,123,426851,0.0-9.0-0.0-0.12,999,,f,,,,,,,,,,,,,key,f,16.6655781250001,720,446,./1_3_Stimuli/C_ambi40.png,朋友,Word,他人,Mismatch,f,true,Formal
,,,,,psychophysics,124,428690,0.0-9.0-0.0-0.13,688,,f,,,,,,,,,,,,,key,f,16.6640550458714,720,446,./1_3_Stimuli/S_ambi40.png,自我,Word,朋友,Mismatch,f,true,Formal
,,,,,psychophysics,125,431083,0.0-9.0-0.0-0.14,1242,,f,,,,,,,,,,,,,key,f,16.6651830985916,720,446,./1_3_Stimuli/S_ambi40.png,他人,Word,朋友,Mismatch,f,true,Formal
,,,,,psychophysics,126,432947,0.0-9.0-0.0-0.15,713,,j,,,,,,,,,,,,,key,j,16.666690909091,720,446,./1_3_Stimuli/C_ambi40.png,他人,Image,他人,Match,j,true,Formal
,,,,,psychophysics,127,434747,0.0-9.0-0.0-0.16,646,,j,,,,,,,,,,,,,key,j,16.666719626168,720,446,./1_3_Stimuli/S_ambi40.png,朋友,Image,朋友,Match,j,true,Formal
,,,,,psychophysics,128,436507,0.0-9.0-0.0-0.17,606,,f,,,,,,,,,,,,,key,f,16.6652476190473,720,446,./1_3_Stimuli/C_ambi40.png,自我,Word,他人,Mismatch,f,true,Formal
,,,,,psychophysics,129,438818,0.0-9.0-0.0-0.18,1155,,f,,,,,,,,,,,,,key,f,16.6651304347826,720,446,./1_3_Stimuli/S_ambi40.png,他人,Image,朋友,Mismatch,f,true,Formal
,,,,,psychophysics,130,440645,0.0-9.0-0.0-0.19,671,,j,,,,,,,,,,,,,key,j,16.6678148148144,720,446,./1_3_Stimuli/C_ambi40.png,他人,Word,他人,Match,j,true,Formal
,,,,,psychophysics,131,442467,0.0-9.0-0.0-0.20,668,,j,,,,,,,,,,,,,key,j,16.6642844036698,720,446,./1_3_Stimuli/S_ambi40.png,朋友,Word,朋友,Match,j,true,Formal
,,,,,psychophysics,132,444202,0.0-9.0-0.0-0.21,578,,j,,,,,,,,,,,,,key,j,16.6649611650489,720,446,./1_3_Stimuli/S_ambi40.png,朋友,Image,朋友,Match,j,true,Formal
,,,,,psychophysics,133,445875,0.0-9.0-0.0-0.22,520,,j,,,,,,,,,,,,,key,j,16.6648686868685,720,446,./1_3_Stimuli/T_ambi40.png,自我,Word,自我,Match,j,true,Formal
,,,,,psychophysics,134,447549,0.0-9.0-0.0-0.23,516,,f,,,,,,,,,,,,,key,f,16.6655656565657,720,446,./1_3_Stimuli/C_ambi40.png,他人,Image,他人,Match,j,false,Formal
,,,,,psychophysics,135,449238,0.0-9.0-0.0-0.24,529,,j,,,,,,,,,,,,,key,j,16.66522,720,446,./1_3_Stimuli/T_ambi40.png,自我,Word,自我,Match,j,true,Formal
,,,,,psychophysics,136,450962,0.0-9.0-0.0-0.25,572,,f,,,,,,,,,,,,,key,f,16.6644117647055,720,446,./1_3_Stimuli/C_ambi40.png,自我,Word,他人,Mismatch,f,true,Formal
,,,,,psychophysics,137,452626,0.0-9.0-0.0-0.26,510,,j,,,,,,,,,,,,,key,j,16.6644747474747,720,446,./1_3_Stimuli/S_ambi40.png,朋友,Word,朋友,Match,j,true,Formal
,,,,,psychophysics,138,454325,0.0-9.0-0.0-0.27,543,,f,,,,,,,,,,,,,key,f,16.6638514851485,720,446,./1_3_Stimuli/S_ambi40.png,他人,Word,朋友,Mismatch,f,true,Formal
,,,,,psychophysics,139,456049,0.0-9.0-0.0-0.28,567,,j,,,,,,,,,,,,,key,j,16.6623883495148,720,446,./1_3_Stimuli/T_ambi40.png,自我,Word,自我,Match,j,true,Formal
,,,,,psychophysics,140,457838,0.0-9.0-0.0-0.29,627,,f,,,,,,,,,,,,,key,f,16.6646792452831,720,446,./1_3_Stimuli/C_ambi40.png,自我,Image,他人,Mismatch,f,true,Formal
,,,,,psychophysics,141,459622,0.0-9.0-0.0-0.30,624,,f,,,,,,,,,,,,,key,f,16.6655283018865,720,446,./1_3_Stimuli/T_ambi40.png,朋友,Image,自我,Mismatch,f,true,Formal
,,,,,psychophysics,142,461432,0.0-9.0-0.0-0.31,651,,f,,,,,,,,,,,,,key,f,16.6641481481482,720,446,./1_3_Stimuli/T_ambi40.png,他人,Image,自我,Mismatch,f,true,Formal
,,,,,psychophysics,143,464134,0.0-9.0-0.0-0.32,null,,null,,,,,,,,,,,,,key,null,16.6651863354036,720,446,./1_3_Stimuli/C_ambi40.png,朋友,Word,他人,Mismatch,f,false,Formal
,,,,,psychophysics,144,466328,0.0-9.0-0.0-0.33,1042,,f,,,,,,,,,,,,,key,f,16.6654076923079,720,446,./1_3_Stimuli/C_ambi40.png,朋友,Image,他人,Mismatch,f,true,Formal
,,,,,psychophysics,145,468207,0.0-9.0-0.0-0.34,729,,f,,,,,,,,,,,,,key,f,16.6642946428573,720,446,./1_3_Stimuli/S_ambi40.png,他人,Image,朋友,Mismatch,f,true,Formal
,,,,,psychophysics,146,469912,0.0-9.0-0.0-0.35,549,,j,,,,,,,,,,,,,key,j,16.6649405940593,720,446,./1_3_Stimuli/C_ambi40.png,他人,Image,他人,Match,j,true,Formal
,,,,,psychophysics,147,471551,0.0-9.0-0.0-0.36,486,,f,,,,,,,,,,,,,key,f,16.665163265306,720,446,./1_3_Stimuli/S_ambi40.png,自我,Image,朋友,Mismatch,f,true,Formal
,,,,,psychophysics,148,473280,0.0-9.0-0.0-0.37,577,,j,,,,,,,,,,,,,key,j,16.6645145631069,720,446,./1_3_Stimuli/C_ambi40.png,他人,Word,他人,Match,j,true,Formal
,,,,,psychophysics,149,475074,0.0-9.0-0.0-0.38,638,,j,,,,,,,,,,,,,key,j,16.6636792452828,720,446,./1_3_Stimuli/S_ambi40.png,朋友,Word,朋友,Match,j,true,Formal
,,,,,psychophysics,150,477029,0.0-9.0-0.0-0.39,802,,f,,,,,,,,,,,,,key,f,36.1605849056604,720,446,./1_3_Stimuli/T_ambi40.png,朋友,Word,自我,Mismatch,f,true,Formal
,,,,,psychophysics,151,479613,0.0-9.0-0.0-0.40,1429,,j,,,,,,,,,,,,,key,j,43.3863793103454,720,446,./1_3_Stimuli/S_ambi40.png,朋友,Image,朋友,Match,j,true,Formal
,,,,,psychophysics,152,482319,0.0-9.0-0.0-0.41,null,,null,,,,,,,,,,,,,key,null,47.0204464285718,720,446,./1_3_Stimuli/T_ambi40.png,自我,Image,自我,Match,j,false,Formal
,,,,,psychophysics,153,484157,0.0-9.0-0.0-0.42,675,,j,,,,,,,,,,,,,key,j,67.3004230769226,720,446,./1_3_Stimuli/T_ambi40.png,他人,Word,自我,Mismatch,f,false,Formal
,,,,,psychophysics,154,486866,0.0-9.0-0.0-0.43,null,,null,,,,,,,,,,,,,key,null,72.5147837837828,720,446,./1_3_Stimuli/T_ambi40.png,自我,Image,自我,Match,j,false,Formal
,,,,,psychophysics,155,489568,0.0-9.0-0.0-0.44,null,,null,,,,,,,,,,,,,key,null,61.7816585365842,720,446,./1_3_Stimuli/C_ambi40.png,他人,Word,他人,Match,j,false,Formal
,,,,,psychophysics,156,491811,0.0-9.0-0.0-0.45,1085,,j,,,,,,,,,,,,,key,j,30.0426478873238,720,446,./1_3_Stimuli/C_ambi40.png,他人,Image,他人,Match,j,true,Formal
,,,,,psychophysics,157,494108,0.0-9.0-0.0-0.46,1146,,j,,,,,,,,,,,,,key,j,26.905807228916,720,446,./1_3_Stimuli/S_ambi40.png,朋友,Image,朋友,Match,j,true,Formal
,,,,,psychophysics,158,496014,0.0-9.0-0.0-0.47,744,,f,,,,,,,,,,,,,key,f,25.1071466666662,720,446,./1_3_Stimuli/S_ambi40.png,自我,Word,朋友,Mismatch,f,true,Formal
,,,,,psychophysics,159,498245,0.0-9.0-0.0-0.48,1068,,j,,,,,,,,,,,,,key,j,22.9144895833336,720,446,./1_3_Stimuli/C_ambi40.png,他人,Word,他人,Match,j,true,Formal
,,,,,psychophysics,160,500271,0.0-9.0-0.0-0.49,860,,f,,,,,,,,,,,,,key,f,32.5075245901635,720,446,./1_3_Stimuli/C_ambi40.png,自我,Image,他人,Mismatch,f,true,Formal
,,,,,psychophysics,161,502168,0.0-9.0-0.0-0.50,746,,f,,,,,,,,,,,,,key,f,33.3294285714292,720,446,./1_3_Stimuli/T_ambi40.png,自我,Image,自我,Match,j,false,Formal
,,,,,psychophysics,162,503915,0.0-9.0-0.0-0.51,589,,f,,,,,,,,,,,,,key,f,18.4376489361705,720,446,./1_3_Stimuli/T_ambi40.png,他人,Image,自我,Mismatch,f,true,Formal
,,,,,psychophysics,163,506031,0.0-9.0-0.0-0.52,961,,j,,,,,,,,,,,,,key,j,17.8045897435896,720,446,./1_3_Stimuli/C_ambi40.png,他人,Image,他人,Match,j,true,Formal
,,,,,psychophysics,164,507650,0.0-9.0-0.0-0.53,460,,f,,,,,,,,,,,,,key,f,17.1969999999998,720,446,./1_3_Stimuli/S_ambi40.png,他人,Word,朋友,Mismatch,f,true,Formal
,,,,,psychophysics,165,509384,0.0-9.0-0.0-0.54,577,,j,,,,,,,,,,,,,key,j,17.5231855670104,720,446,./1_3_Stimuli/T_ambi40.png,自我,Word,自我,Match,j,true,Formal
,,,,,psychophysics,166,511762,0.0-9.0-0.0-0.55,1223,,f,,,,,,,,,,,,,key,f,17.7928345864665,720,446,./1_3_Stimuli/C_ambi40.png,朋友,Word,他人,Mismatch,f,true,Formal
,,,,,psychophysics,167,513662,0.0-9.0-0.0-0.56,743,,f,,,,,,,,,,,,,key,f,16.6655840707966,720,446,./1_3_Stimuli/T_ambi40.png,他人,Word,自我,Mismatch,f,true,Formal
,,,,,psychophysics,168,515440,0.0-9.0-0.0-0.57,616,,f,,,,,,,,,,,,,key,f,16.9886990291257,720,446,./1_3_Stimuli/S_ambi40.png,自我,Word,朋友,Mismatch,f,true,Formal
,,,,,psychophysics,169,517361,0.0-9.0-0.0-0.58,769,,j,,,,,,,,,,,,,key,j,16.6652608695653,720,446,./1_3_Stimuli/S_ambi40.png,朋友,Image,朋友,Match,j,true,Formal
,,,,,psychophysics,170,519065,0.0-9.0-0.0-0.59,539,,f,,,,,,,,,,,,,key,f,16.6649900990098,720,446,./1_3_Stimuli/S_ambi40.png,朋友,Image,朋友,Match,j,false,Formal
,,,,,psychophysics,171,520744,0.0-9.0-0.0-0.60,518,,j,,,,,,,,,,,,,key,j,16.6640099999995,720,446,./1_3_Stimuli/T_ambi40.png,自我,Word,自我,Match,j,true,Formal
,,,,,psychophysics,172,522618,0.0-9.0-0.0-0.61,721,,j,,,,,,,,,,,,,key,j,16.6653423423429,720,446,./1_3_Stimuli/T_ambi40.png,自我,Image,自我,Match,j,true,Formal
,,,,,psychophysics,173,524398,0.0-9.0-0.0-0.62,623,,f,,,,,,,,,,,,,key,f,16.6643301886792,720,446,./1_3_Stimuli/T_ambi40.png,朋友,Image,自我,Mismatch,f,true,Formal
,,,,,psychophysics,174,526233,0.0-9.0-0.0-0.63,674,,j,,,,,,,,,,,,,key,j,16.6657798165133,720,446,./1_3_Stimuli/C_ambi40.png,他人,Image,他人,Match,j,true,Formal
,,,,,psychophysics,175,528042,0.0-9.0-0.0-0.64,656,,j,,,,,,,,,,,,,key,j,16.9823142857147,720,446,./1_3_Stimuli/S_ambi40.png,朋友,Word,朋友,Match,j,true,Formal
,,,,,psychophysics,176,529766,0.0-9.0-0.0-0.65,565,,f,,,,,,,,,,,,,key,f,17.1700303030301,720,446,./1_3_Stimuli/S_ambi40.png,他人,Image,朋友,Mismatch,f,true,Formal
,,,,,psychophysics,177,531656,0.0-9.0-0.0-0.66,732,,f,,,,,,,,,,,,,key,f,16.6642142857142,720,446,./1_3_Stimuli/S_ambi40.png,自我,Image,朋友,Mismatch,f,true,Formal
,,,,,psychophysics,178,533702,0.0-9.0-0.0-0.67,894,,f,,,,,,,,,,,,,key,f,16.6650247933884,720,446,./1_3_Stimuli/C_ambi40.png,自我,Word,他人,Mismatch,f,true,Formal
,,,,,psychophysics,179,535688,0.0-9.0-0.0-0.68,833,,j,,,,,,,,,,,,,key,j,16.664466101695,720,446,./1_3_Stimuli/C_ambi40.png,他人,Word,他人,Match,j,true,Formal
,,,,,psychophysics,180,537427,0.0-9.0-0.0-0.69,586,,f,,,,,,,,,,,,,key,f,16.6652233009713,720,446,./1_3_Stimuli/T_ambi40.png,朋友,Word,自我,Mismatch,f,true,Formal
,,,,,psychophysics,181,539704,0.0-9.0-0.0-0.70,1119,,j,,,,,,,,,,,,,key,j,16.66497037037,720,446,./1_3_Stimuli/C_ambi40.png,朋友,Image,他人,Mismatch,f,false,Formal
,,,,,psychophysics,182,541810,0.0-9.0-0.0-0.71,953,,j,,,,,,,,,,,,,key,j,16.6653333333328,720,446,./1_3_Stimuli/S_ambi40.png,朋友,Word,朋友,Match,j,true,Formal
,,,,,psychophysics,183,543519,0.0-9.0-0.0-0.72,547,,j,,,,,,,,,,,,,key,j,16.6645445544549,720,446,./1_3_Stimuli/T_ambi40.png,自我,Image,自我,Match,j,true,Formal
,,,,,psychophysics,184,545756,0.0-9.0-0.0-0.73,1086,,f,,,,,,,,,,,,,key,f,16.6651353383458,720,446,./1_3_Stimuli/C_ambi40.png,朋友,Word,他人,Mismatch,f,true,Formal
,,,,,psychophysics,185,547642,0.0-9.0-0.0-0.74,731,,f,,,,,,,,,,,,,key,f,16.6649464285708,720,446,./1_3_Stimuli/T_ambi40.png,朋友,Word,自我,Mismatch,f,true,Formal
,,,,,psychophysics,186,549411,0.0-9.0-0.0-0.75,617,,f,,,,,,,,,,,,,key,f,16.6644380952376,720,446,./1_3_Stimuli/C_ambi40.png,自我,Word,他人,Mismatch,f,true,Formal
,,,,,psychophysics,187,551366,0.0-9.0-0.0-0.76,793,,f,,,,,,,,,,,,,key,f,16.6645258620696,720,446,./1_3_Stimuli/S_ambi40.png,他人,Word,朋友,Mismatch,f,true,Formal
,,,,,psychophysics,188,553171,0.0-9.0-0.0-0.77,653,,j,,,,,,,,,,,,,key,j,16.6662803738319,720,446,./1_3_Stimuli/S_ambi40.png,朋友,Word,朋友,Match,j,true,Formal
,,,,,psychophysics,189,554948,0.0-9.0-0.0-0.78,626,,f,,,,,,,,,,,,,key,f,16.6659622641515,720,446,./1_3_Stimuli/C_ambi40.png,自我,Image,他人,Mismatch,f,true,Formal
,,,,,psychophysics,190,556594,0.0-9.0-0.0-0.79,493,,j,,,,,,,,,,,,,key,j,16.664163265306,720,446,./1_3_Stimuli/T_ambi40.png,自我,Word,自我,Match,j,true,Formal
,,,,,psychophysics,191,558660,0.0-9.0-0.0-0.80,908,,f,,,,,,,,,,,,,key,f,16.665121951219,720,446,./1_3_Stimuli/C_ambi40.png,朋友,Image,他人,Mismatch,f,true,Formal
,,,,,psychophysics,192,560510,0.0-9.0-0.0-0.81,698,,f,,,,,,,,,,,,,key,f,16.6650090909087,720,446,./1_3_Stimuli/S_ambi40.png,自我,Image,朋友,Mismatch,f,true,Formal
,,,,,psychophysics,193,562611,0.0-9.0-0.0-0.82,943,,f,,,,,,,,,,,,,key,f,16.6654480000008,720,446,./1_3_Stimuli/S_ambi40.png,他人,Image,朋友,Mismatch,f,true,Formal
,,,,,psychophysics,194,564521,0.0-9.0-0.0-0.83,749,,j,,,,,,,,,,,,,key,j,16.6663893805312,720,446,./1_3_Stimuli/T_ambi40.png,自我,Image,自我,Match,j,true,Formal
,,,,,psychophysics,195,566848,0.0-9.0-0.0-0.84,1177,,j,,,,,,,,,,,,,key,j,16.6652898550729,720,446,./1_3_Stimuli/S_ambi40.png,朋友,Word,朋友,Match,j,true,Formal
,,,,,psychophysics,196,568724,0.0-9.0-0.0-0.85,720,,f,,,,,,,,,,,,,key,f,16.6641517857144,720,446,./1_3_Stimuli/T_ambi40.png,他人,Word,自我,Mismatch,f,true,Formal
,,,,,psychophysics,197,570669,0.0-9.0-0.0-0.86,793,,f,,,,,,,,,,,,,key,f,16.6636869565219,720,446,./1_3_Stimuli/S_ambi40.png,自我,Word,朋友,Mismatch,f,true,Formal
,,,,,psychophysics,198,572712,0.0-9.0-0.0-0.87,891,,j,,,,,,,,,,,,,key,j,16.6643057851244,720,446,./1_3_Stimuli/C_ambi40.png,他人,Image,他人,Match,j,true,Formal
,,,,,psychophysics,199,574590,0.0-9.0-0.0-0.88,720,,j,,,,,,,,,,,,,key,j,16.6653392857146,720,446,./1_3_Stimuli/S_ambi40.png,朋友,Image,朋友,Match,j,true,Formal
,,,,,psychophysics,200,576333,0.0-9.0-0.0-0.89,582,,j,,,,,,,,,,,,,key,j,16.6643980582532,720,446,./1_3_Stimuli/S_ambi40.png,朋友,Image,朋友,Match,j,true,Formal
,,,,,psychophysics,201,578284,0.0-9.0-0.0-0.90,797,,f,,,,,,,,,,,,,key,f,16.6647844827585,720,446,./1_3_Stimuli/T_ambi40.png,他人,Image,自我,Mismatch,f,true,Formal
,,,,,psychophysics,202,580365,0.0-9.0-0.0-0.91,928,,j,,,,,,,,,,,,,key,j,16.6657886178861,720,446,./1_3_Stimuli/C_ambi40.png,他人,Image,他人,Match,j,true,Formal
,,,,,psychophysics,203,581954,0.0-9.0-0.0-0.92,434,,j,,,,,,,,,,,,,key,j,16.6652105263165,720,446,./1_3_Stimuli/T_ambi40.png,自我,Word,自我,Match,j,true,Formal
,,,,,psychophysics,204,583859,0.0-9.0-0.0-0.93,744,,f,,,,,,,,,,,,,key,f,16.6650088495571,720,446,./1_3_Stimuli/T_ambi40.png,朋友,Image,自我,Mismatch,f,true,Formal
,,,,,psychophysics,205,585684,0.0-9.0-0.0-0.94,668,,j,,,,,,,,,,,,,key,j,16.6641388888896,720,446,./1_3_Stimuli/C_ambi40.png,他人,Word,他人,Match,j,true,Formal
,,,,,psychophysics,206,587423,0.0-9.0-0.0-0.95,587,,j,,,,,,,,,,,,,key,j,16.9962475247529,720,446,./1_3_Stimuli/C_ambi40.png,他人,Word,他人,Match,j,true,Formal
,,,,,psychophysics,207,589182,0.0-9.0-0.0-0.96,608,,f,,,,,,,,,,,,,key,f,16.6669519230759,720,446,./1_3_Stimuli/T_ambi40.png,朋友,Word,自我,Mismatch,f,true,Formal
,,,,,psychophysics,208,591032,0.0-9.0-0.0-0.97,696,,f,,,,,,,,,,,,,key,f,16.6646090909098,720,446,./1_3_Stimuli/S_ambi40.png,自我,Image,朋友,Mismatch,f,true,Formal
,,,,,psychophysics,209,593043,0.0-9.0-0.0-0.98,857,,f,,,,,,,,,,,,,key,f,16.6641583333335,720,446,./1_3_Stimuli/S_ambi40.png,朋友,Image,朋友,Match,j,false,Formal
,,,,,psychophysics,210,595033,0.0-9.0-0.0-0.99,839,,f,,,,,,,,,,,,,key,f,16.6652203389824,720,446,./1_3_Stimuli/S_ambi40.png,他人,Image,朋友,Mismatch,f,true,Formal
,,,,,psychophysics,211,596837,0.0-9.0-0.0-0.100,653,,f,,,,,,,,,,,,,key,f,16.6653981481483,720,446,./1_3_Stimuli/C_ambi40.png,自我,Image,他人,Mismatch,f,true,Formal
,,,,,psychophysics,212,598622,0.0-9.0-0.0-0.101,625,,j,,,,,,,,,,,,,key,j,16.6643301886792,720,446,./1_3_Stimuli/T_ambi40.png,自我,Image,自我,Match,j,true,Formal
,,,,,psychophysics,213,600382,0.0-9.0-0.0-0.102,609,,j,,,,,,,,,,,,,key,j,16.6639615384618,720,446,./1_3_Stimuli/S_ambi40.png,朋友,Word,朋友,Match,j,true,Formal
,,,,,psychophysics,214,602110,0.0-9.0-0.0-0.103,576,,j,,,,,,,,,,,,,key,j,16.6646078431376,720,446,./1_3_Stimuli/T_ambi40.png,自我,Image,自我,Match,j,true,Formal
,,,,,psychophysics,215,603825,0.0-9.0-0.0-0.104,558,,f,,,,,,,,,,,,,key,f,16.6649607843137,720,446,./1_3_Stimuli/T_ambi40.png,他人,Image,自我,Mismatch,f,true,Formal
,,,,,psychophysics,216,605439,0.0-9.0-0.0-0.105,462,,j,,,,,,,,,,,,,key,j,16.6652916666668,720,446,./1_3_Stimuli/T_ambi40.png,自我,Word,自我,Match,j,true,Formal
,,,,,psychophysics,217,607499,0.0-9.0-0.0-0.106,906,,f,,,,,,,,,,,,,key,f,16.6660081967215,720,446,./1_3_Stimuli/S_ambi40.png,他人,Word,朋友,Mismatch,f,true,Formal
,,,,,psychophysics,218,609243,0.0-9.0-0.0-0.107,593,,j,,,,,,,,,,,,,key,j,16.6658349514564,720,446,./1_3_Stimuli/T_ambi40.png,自我,Word,自我,Match,j,true,Formal
,,,,,psychophysics,219,611400,0.0-9.0-0.0-0.108,1000,,j,,,,,,,,,,,,,key,j,16.6637519379841,720,446,./1_3_Stimuli/C_ambi40.png,他人,Image,他人,Match,j,true,Formal
,,,,,psychophysics,220,613501,0.0-9.0-0.0-0.109,948,,j,,,,,,,,,,,,,key,j,16.6661040000003,720,446,./1_3_Stimuli/C_ambi40.png,他人,Image,他人,Match,j,true,Formal
,,,,,psychophysics,221,615245,0.0-9.0-0.0-0.110,584,,f,,,,,,,,,,,,,key,f,16.6658155339808,720,446,./1_3_Stimuli/T_ambi40.png,朋友,Image,自我,Mismatch,f,true,Formal
,,,,,psychophysics,222,617085,0.0-9.0-0.0-0.111,686,,j,,,,,,,,,,,,,key,j,16.6647181818177,720,446,./1_3_Stimuli/S_ambi40.png,朋友,Word,朋友,Match,j,true,Formal
,,,,,psychophysics,223,619031,0.0-9.0-0.0-0.112,785,,j,,,,,,,,,,,,,key,j,16.6657217391311,720,446,./1_3_Stimuli/C_ambi40.png,他人,Word,他人,Match,j,true,Formal
,,,,,psychophysics,224,620806,0.0-9.0-0.0-0.113,623,,f,,,,,,,,,,,,,key,f,16.6664476190472,720,446,./1_3_Stimuli/T_ambi40.png,他人,Word,自我,Mismatch,f,true,Formal
,,,,,psychophysics,225,623077,0.0-9.0-0.0-0.114,1113,,f,,,,,,,,,,,,,key,f,16.6647555555562,720,446,./1_3_Stimuli/C_ambi40.png,朋友,Image,他人,Mismatch,f,true,Formal
,,,,,psychophysics,226,624789,0.0-9.0-0.0-0.115,557,,f,,,,,,,,,,,,,key,f,16.6660980392161,720,446,./1_3_Stimuli/S_ambi40.png,自我,Word,朋友,Mismatch,f,true,Formal
,,,,,psychophysics,227,626636,0.0-9.0-0.0-0.116,692,,j,,,,,,,,,,,,,key,j,16.6648272727267,720,446,./1_3_Stimuli/C_ambi40.png,他人,Word,他人,Match,j,true,Formal
,,,,,psychophysics,228,628441,0.0-9.0-0.0-0.117,645,,j,,,,,,,,,,,,,key,j,16.6643831775704,720,446,./1_3_Stimuli/S_ambi40.png,朋友,Image,朋友,Match,j,true,Formal
,,,,,psychophysics,229,630352,0.0-9.0-0.0-0.118,754,,f,,,,,,,,,,,,,key,f,16.6661403508777,720,446,./1_3_Stimuli/C_ambi40.png,自我,Word,他人,Mismatch,f,true,Formal
,,,,,psychophysics,230,632226,0.0-9.0-0.0-0.119,712,,f,,,,,,,,,,,,,key,f,16.6671261261259,720,446,./1_3_Stimuli/C_ambi40.png,朋友,Word,他人,Mismatch,f,true,Formal
,,,,,html-keyboard-response,231,636011,0.0-9.0-1.0,3784,<style>.context{color:white; font-size: 35px; line-height:40px}</style>                        <div><p class='context'>您正确回答了92% 的试次。</p><p class='context'>您的平均反应时为731毫秒。</p><p> <div style = 'color: green'><按任意键进入休息></div></p>, ,,,,,,,,,,,,,,,,,,,,,,,,,
,,,,,html-button-response,232,698635,0.0-9.0-2.0,62620,"
                  <p>您当前还剩余5组实验</p>
                  <p>现在是休息时间，当您结束休息后，您可以点击 结束休息 按钮 继续</p>
                  <p>建议休息时间还剩余<span id=""iii"">60</span>秒</p>",0,,,,,,,,,,,,,,,,,,,,,,,,,
,,,,,psychophysics,233,700457,0.0-9.0-0.1-0.120,668,,f,,,,,,,,,,,,,key,f,16.6645740740749,720,446,./1_3_Stimuli/T_ambi40.png,他人,Word,自我,Mismatch,f,true,Formal
,,,,,psychophysics,234,702128,0.0-9.0-0.1-0.121,520,,f,,,,,,,,,,,,,key,f,16.6642525252519,720,446,./1_3_Stimuli/C_ambi40.png,他人,Image,他人,Match,j,false,Formal
,,,,,psychophysics,235,703859,0.0-9.0-0.1-0.122,575,,j,,,,,,,,,,,,,key,j,16.6647281553393,720,446,./1_3_Stimuli/S_ambi40.png,朋友,Word,朋友,Match,j,true,Formal
,,,,,psychophysics,236,705759,0.0-9.0-0.1-0.123,743,,f,,,,,,,,,,,,,key,f,16.6617610619467,720,446,./1_3_Stimuli/S_ambi40.png,他人,Word,朋友,Mismatch,f,true,Formal
,,,,,psychophysics,237,707503,0.0-9.0-0.1-0.124,587,,f,,,,,,,,,,,,,key,f,16.6670291262139,720,446,./1_3_Stimuli/S_ambi40.png,自我,Image,朋友,Mismatch,f,true,Formal
,,,,,psychophysics,238,709152,0.0-9.0-0.1-0.125,494,,j,,,,,,,,,,,,,key,j,16.6656326530608,720,446,./1_3_Stimuli/T_ambi40.png,自我,Word,自我,Match,j,true,Formal
,,,,,psychophysics,239,710947,0.0-9.0-0.1-0.126,640,,f,,,,,,,,,,,,,key,f,16.6652990654209,720,446,./1_3_Stimuli/C_ambi40.png,朋友,Word,他人,Mismatch,f,true,Formal
,,,,,psychophysics,240,712650,0.0-9.0-0.1-0.127,551,,f,,,,,,,,,,,,,key,f,16.6654455445541,720,446,./1_3_Stimuli/T_ambi40.png,他人,Image,自我,Mismatch,f,true,Formal
,,,,,psychophysics,241,714449,0.0-9.0-0.1-0.128,642,,j,,,,,,,,,,,,,key,j,16.6650186915888,720,446,./1_3_Stimuli/S_ambi40.png,朋友,Word,朋友,Match,j,true,Formal
,,,,,psychophysics,242,716093,0.0-9.0-0.1-0.129,490,,f,,,,,,,,,,,,,key,f,16.6655714285717,720,446,./1_3_Stimuli/S_ambi40.png,自我,Word,朋友,Mismatch,f,true,Formal
,,,,,psychophysics,243,718028,0.0-9.0-0.1-0.130,775,,j,,,,,,,,,,,,,key,j,16.6637913043479,720,446,./1_3_Stimuli/S_ambi40.png,朋友,Image,朋友,Match,j,true,Formal
,,,,,psychophysics,244,719908,0.0-9.0-0.1-0.131,721,,f,,,,,,,,,,,,,key,f,16.6650089285717,720,446,./1_3_Stimuli/T_ambi40.png,朋友,Image,自我,Mismatch,f,true,Formal
,,,,,psychophysics,245,721582,0.0-9.0-0.1-0.132,521,,j,,,,,,,,,,,,,key,j,17.5510744680849,720,446,./1_3_Stimuli/T_ambi40.png,自我,Image,自我,Match,j,true,Formal
,,,,,psychophysics,246,723422,0.0-9.0-0.1-0.133,682,,f,,,,,,,,,,,,,key,f,16.8185925925931,720,446,./1_3_Stimuli/T_ambi40.png,朋友,Word,自我,Mismatch,f,true,Formal
,,,,,psychophysics,247,725135,0.0-9.0-0.1-0.134,563,,j,,,,,,,,,,,,,key,j,16.9986600000004,720,446,./1_3_Stimuli/T_ambi40.png,自我,Image,自我,Match,j,true,Formal
,,,,,psychophysics,248,727086,0.0-9.0-0.1-0.135,799,,j,,,,,,,,,,,,,key,j,17.1090265486721,720,446,./1_3_Stimuli/C_ambi40.png,他人,Word,他人,Match,j,true,Formal
,,,,,psychophysics,249,728936,0.0-9.0-0.1-0.136,697,,f,,,,,,,,,,,,,key,f,16.6653909090906,720,446,./1_3_Stimuli/C_ambi40.png,自我,Image,他人,Mismatch,f,true,Formal
,,,,,psychophysics,250,730816,0.0-9.0-0.1-0.137,727,,f,,,,,,,,,,,,,key,f,16.6638125000006,720,446,./1_3_Stimuli/C_ambi40.png,朋友,Image,他人,Mismatch,f,true,Formal
,,,,,psychophysics,251,732611,0.0-9.0-0.1-0.138,639,,j,,,,,,,,,,,,,key,j,16.6659906542051,720,446,./1_3_Stimuli/T_ambi40.png,自我,Word,自我,Match,j,true,Formal
,,,,,psychophysics,252,734691,0.0-9.0-0.1-0.139,919,,j,,,,,,,,,,,,,key,j,16.6657903225803,720,446,./1_3_Stimuli/C_ambi40.png,他人,Image,他人,Match,j,true,Formal
,,,,,psychophysics,253,736646,0.0-9.0-0.1-0.140,799,,j,,,,,,,,,,,,,key,j,16.664844827586,720,446,./1_3_Stimuli/S_ambi40.png,朋友,Image,朋友,Match,j,true,Formal
,,,,,psychophysics,254,738572,0.0-9.0-0.1-0.141,767,,f,,,,,,,,,,,,,key,f,16.664434782609,720,446,./1_3_Stimuli/C_ambi40.png,自我,Word,他人,Mismatch,f,true,Formal
,,,,,psychophysics,255,740574,0.0-9.0-0.1-0.142,843,,j,,,,,,,,,,,,,key,j,16.6663025210087,720,446,./1_3_Stimuli/C_ambi40.png,他人,Word,他人,Match,j,true,Formal
,,,,,psychophysics,256,742377,0.0-9.0-0.1-0.143,651,,f,,,,,,,,,,,,,key,f,16.6645607476636,720,446,./1_3_Stimuli/S_ambi40.png,他人,Image,朋友,Mismatch,f,true,Formal
,,,,,psychophysics,257,744096,0.0-9.0-0.1-0.144,558,,j,,,,,,,,,,,,,key,j,16.664431372549,720,446,./1_3_Stimuli/C_ambi40.png,他人,Word,他人,Match,j,true,Formal
,,,,,psychophysics,258,745765,0.0-9.0-0.1-0.145,511,,j,,,,,,,,,,,,,key,j,16.6646363636364,720,446,./1_3_Stimuli/T_ambi40.png,自我,Image,自我,Match,j,true,Formal
,,,,,psychophysics,259,747484,0.0-9.0-0.1-0.146,563,,j,,,,,,,,,,,,,key,j,16.6654705882344,720,446,./1_3_Stimuli/C_ambi40.png,他人,Word,他人,Match,j,true,Formal
,,,,,psychophysics,260,749108,0.0-9.0-0.1-0.147,471,,j,,,,,,,,,,,,,key,j,16.6643917525773,720,446,./1_3_Stimuli/T_ambi40.png,自我,Word,自我,Match,j,true,Formal
,,,,,psychophysics,261,750884,0.0-9.0-0.1-0.148,618,,j,,,,,,,,,,,,,key,j,16.6663714285718,720,446,./1_3_Stimuli/S_ambi40.png,朋友,Image,朋友,Match,j,true,Formal
,,,,,psychophysics,262,752496,0.0-9.0-0.1-0.149,459,,j,,,,,,,,,,,,,key,j,16.6662604166668,720,446,./1_3_Stimuli/T_ambi40.png,自我,Word,自我,Match,j,true,Formal
,,,,,psychophysics,263,754204,0.0-9.0-0.1-0.150,551,,j,,,,,,,,,,,,,key,j,16.6656372549021,720,446,./1_3_Stimuli/C_ambi40.png,他人,Image,他人,Match,j,true,Formal
,,,,,psychophysics,264,755973,0.0-9.0-0.1-0.151,608,,f,,,,,,,,,,,,,key,f,16.6649999999996,720,446,./1_3_Stimuli/S_ambi40.png,自我,Image,朋友,Mismatch,f,true,Formal
,,,,,psychophysics,265,757914,0.0-9.0-0.1-0.152,789,,f,,,,,,,,,,,,,key,f,16.6633391304347,720,446,./1_3_Stimuli/S_ambi40.png,他人,Image,朋友,Mismatch,f,true,Formal
,,,,,psychophysics,266,759663,0.0-9.0-0.1-0.153,597,,j,,,,,,,,,,,,,key,j,16.6658173076934,720,446,./1_3_Stimuli/S_ambi40.png,朋友,Word,朋友,Match,j,true,Formal
,,,,,psychophysics,267,761663,0.0-9.0-0.1-0.154,844,,f,,,,,,,,,,,,,key,f,16.664697478992,720,446,./1_3_Stimuli/T_ambi40.png,朋友,Word,自我,Mismatch,f,true,Formal
,,,,,psychophysics,268,763474,0.0-9.0-0.1-0.155,655,,f,,,,,,,,,,,,,key,f,16.6651666666666,720,446,./1_3_Stimuli/C_ambi40.png,自我,Image,他人,Mismatch,f,true,Formal
,,,,,psychophysics,269,765529,0.0-9.0-0.1-0.156,894,,j,,,,,,,,,,,,,key,j,16.6641147540983,720,446,./1_3_Stimuli/C_ambi40.png,他人,Image,他人,Match,j,true,Formal
,,,,,psychophysics,270,767284,0.0-9.0-0.1-0.157,599,,f,,,,,,,,,,,,,key,f,16.6658653846154,720,446,./1_3_Stimuli/C_ambi40.png,自我,Word,他人,Mismatch,f,true,Formal
,,,,,psychophysics,271,769068,0.0-9.0-0.1-0.158,633,,j,,,,,,,,,,,,,key,j,16.6653018867924,720,446,./1_3_Stimuli/S_ambi40.png,朋友,Image,朋友,Match,j,true,Formal
,,,,,psychophysics,272,770998,0.0-9.0-0.1-0.159,774,,f,,,,,,,,,,,,,key,f,16.6641666666674,720,446,./1_3_Stimuli/C_ambi40.png,朋友,Image,他人,Mismatch,f,true,Formal
,,,,,psychophysics,273,772793,0.0-9.0-0.1-0.160,641,,j,,,,,,,,,,,,,key,j,16.6662149532713,720,446,./1_3_Stimuli/S_ambi40.png,朋友,Word,朋友,Match,j,true,Formal
,,,,,psychophysics,274,774376,0.0-9.0-0.1-0.161,431,,j,,,,,,,,,,,,,key,j,16.6629574468094,720,446,./1_3_Stimuli/T_ambi40.png,自我,Image,自我,Match,j,true,Formal
,,,,,psychophysics,275,776251,0.0-9.0-0.1-0.162,717,,f,,,,,,,,,,,,,key,f,16.6651607142859,720,446,./1_3_Stimuli/S_ambi40.png,自我,Word,朋友,Mismatch,f,true,Formal
,,,,,psychophysics,276,778508,0.0-9.0-0.1-0.163,1102,,f,,,,,,,,,,,,,key,f,16.6650447761197,720,446,./1_3_Stimuli/C_ambi40.png,朋友,Word,他人,Mismatch,f,true,Formal
,,,,,psychophysics,277,780122,0.0-9.0-0.1-0.164,456,,j,,,,,,,,,,,,,key,j,16.6672291666667,720,446,./1_3_Stimuli/T_ambi40.png,他人,Image,自我,Mismatch,f,false,Formal
,,,,,psychophysics,278,781949,0.0-9.0-0.1-0.165,665,,f,,,,,,,,,,,,,key,f,16.6648796296299,720,446,./1_3_Stimuli/T_ambi40.png,朋友,Image,自我,Mismatch,f,true,Formal
,,,,,psychophysics,279,783967,0.0-9.0-0.1-0.166,867,,f,,,,,,,,,,,,,key,f,16.6638677685949,720,446,./1_3_Stimuli/T_ambi40.png,他人,Word,自我,Mismatch,f,true,Formal
,,,,,psychophysics,280,785943,0.0-9.0-0.1-0.167,814,,f,,,,,,,,,,,,,key,f,16.6649230769238,720,446,./1_3_Stimuli/S_ambi40.png,他人,Word,朋友,Mismatch,f,true,Formal
,,,,,psychophysics,281,787758,0.0-9.0-0.1-0.168,658,,j,,,,,,,,,,,,,key,j,16.6635648148152,720,446,./1_3_Stimuli/S_ambi40.png,朋友,Word,朋友,Match,j,true,Formal
,,,,,psychophysics,282,789754,0.0-9.0-0.1-0.169,840,,f,,,,,,,,,,,,,key,f,16.6657394957983,720,446,./1_3_Stimuli/C_ambi40.png,他人,Image,他人,Match,j,false,Formal
,,,,,psychophysics,283,791528,0.0-9.0-0.1-0.170,615,,j,,,,,,,,,,,,,key,j,16.6635142857153,720,446,./1_3_Stimuli/S_ambi40.png,朋友,Word,朋友,Match,j,true,Formal
,,,,,psychophysics,284,793231,0.0-9.0-0.1-0.171,549,,f,,,,,,,,,,,,,key,f,16.6676138613862,720,446,./1_3_Stimuli/T_ambi40.png,自我,Image,自我,Match,j,false,Formal
,,,,,psychophysics,285,795212,0.0-9.0-0.1-0.172,830,,f,,,,,,,,,,,,,key,f,16.6648461538462,720,446,./1_3_Stimuli/S_ambi40.png,他人,Word,朋友,Mismatch,f,true,Formal
,,,,,psychophysics,286,797052,0.0-9.0-0.1-0.173,687,,f,,,,,,,,,,,,,key,f,16.6652909090912,720,446,./1_3_Stimuli/C_ambi40.png,他人,Word,他人,Match,j,false,Formal
,,,,,psychophysics,287,798787,0.0-9.0-0.1-0.174,580,,j,,,,,,,,,,,,,key,j,16.664611650485,720,446,./1_3_Stimuli/T_ambi40.png,自我,Word,自我,Match,j,true,Formal
,,,,,psychophysics,288,800602,0.0-9.0-0.1-0.175,653,,f,,,,,,,,,,,,,key,f,16.6650648148142,720,446,./1_3_Stimuli/S_ambi40.png,自我,Image,朋友,Mismatch,f,true,Formal
,,,,,psychophysics,289,802653,0.0-9.0-0.1-0.176,899,,f,,,,,,,,,,,,,key,f,16.6637213114758,720,446,./1_3_Stimuli/S_ambi40.png,他人,Image,朋友,Mismatch,f,true,Formal
,,,,,psychophysics,290,804407,0.0-9.0-0.1-0.177,595,,j,,,,,,,,,,,,,key,j,16.6630480769225,720,446,./1_3_Stimuli/T_ambi40.png,自我,Image,自我,Match,j,true,Formal
,,,,,psychophysics,291,806232,0.0-9.0-0.1-0.178,667,,f,,,,,,,,,,,,,key,f,16.6644537037042,720,446,./1_3_Stimuli/C_ambi40.png,自我,Word,他人,Mismatch,f,true,Formal
,,,,,psychophysics,292,808002,0.0-9.0-0.1-0.179,609,,j,,,,,,,,,,,,,key,j,16.664533333334,720,446,./1_3_Stimuli/S_ambi40.png,朋友,Image,朋友,Match,j,true,Formal
,,,,,psychophysics,293,809801,0.0-9.0-0.1-0.180,641,,f,,,,,,,,,,,,,key,f,16.6657476635513,720,446,./1_3_Stimuli/C_ambi40.png,朋友,Image,他人,Mismatch,f,true,Formal
,,,,,psychophysics,294,811615,0.0-9.0-0.1-0.181,659,,j,,,,,,,,,,,,,key,j,16.6634537037031,720,446,./1_3_Stimuli/C_ambi40.png,他人,Image,他人,Match,j,true,Formal
,,,,,psychophysics,295,813400,0.0-9.0-0.1-0.182,623,,j,,,,,,,,,,,,,key,j,16.6658301886791,720,446,./1_3_Stimuli/S_ambi40.png,朋友,Image,朋友,Match,j,true,Formal
,,,,,psychophysics,296,815149,0.0-9.0-0.1-0.183,589,,f,,,,,,,,,,,,,key,f,16.6657115384621,720,446,./1_3_Stimuli/T_ambi40.png,朋友,Image,自我,Mismatch,f,true,Formal
,,,,,psychophysics,297,816904,0.0-9.0-0.1-0.184,599,,j,,,,,,,,,,,,,key,j,16.6651249999995,720,446,./1_3_Stimuli/T_ambi40.png,自我,Word,自我,Match,j,true,Formal
,,,,,psychophysics,298,818994,0.0-9.0-0.1-0.185,940,,f,,,,,,,,,,,,,key,f,16.6627419354833,720,446,./1_3_Stimuli/C_ambi40.png,自我,Image,他人,Mismatch,f,true,Formal
,,,,,psychophysics,299,820859,0.0-9.0-0.1-0.186,713,,j,,,,,,,,,,,,,key,j,16.6653513513518,720,446,./1_3_Stimuli/C_ambi40.png,他人,Word,他人,Match,j,true,Formal
,,,,,psychophysics,300,822533,0.0-9.0-0.1-0.187,520,,f,,,,,,,,,,,,,key,f,16.6644200000004,720,446,./1_3_Stimuli/T_ambi40.png,他人,Word,自我,Mismatch,f,true,Formal
,,,,,psychophysics,301,824606,0.0-9.0-0.1-0.188,919,,f,,,,,,,,,,,,,key,f,16.6644715447153,720,446,./1_3_Stimuli/T_ambi40.png,他人,Image,自我,Mismatch,f,true,Formal
,,,,,psychophysics,302,826520,0.0-9.0-0.1-0.189,763,,f,,,,,,,,,,,,,key,f,16.6658245614033,720,446,./1_3_Stimuli/S_ambi40.png,自我,Word,朋友,Mismatch,f,true,Formal
,,,,,psychophysics,303,828329,0.0-9.0-0.1-0.190,654,,f,,,,,,,,,,,,,key,f,16.6645327102802,720,446,./1_3_Stimuli/C_ambi40.png,朋友,Word,他人,Mismatch,f,true,Formal
,,,,,psychophysics,304,830023,0.0-9.0-0.1-0.191,544,,f,,,,,,,,,,,,,key,f,16.66554,720,446,./1_3_Stimuli/T_ambi40.png,朋友,Word,自我,Mismatch,f,true,Formal
,,,,,psychophysics,305,831949,0.0-9.0-0.1-0.192,771,,f,,,,,,,,,,,,,key,f,16.6650260869565,720,446,./1_3_Stimuli/S_ambi40.png,他人,Word,朋友,Mismatch,f,true,Formal
,,,,,psychophysics,306,833994,0.0-9.0-0.1-0.193,882,,j,,,,,,,,,,,,,key,j,16.6670826446277,720,446,./1_3_Stimuli/C_ambi40.png,他人,Word,他人,Match,j,true,Formal
,,,,,psychophysics,307,835784,0.0-9.0-0.1-0.194,639,,f,,,,,,,,,,,,,key,f,16.6649811320756,720,446,./1_3_Stimuli/T_ambi40.png,朋友,Image,自我,Mismatch,f,true,Formal
,,,,,psychophysics,308,837715,0.0-9.0-0.1-0.195,779,,j,,,,,,,,,,,,,key,j,16.664434782609,720,446,./1_3_Stimuli/T_ambi40.png,自我,Image,自我,Match,j,true,Formal
,,,,,psychophysics,309,839544,0.0-9.0-0.1-0.196,665,,j,,,,,,,,,,,,,key,j,16.6644074074079,720,446,./1_3_Stimuli/S_ambi40.png,朋友,Image,朋友,Match,j,true,Formal
,,,,,psychophysics,310,841571,0.0-9.0-0.1-0.197,876,,f,,,,,,,,,,,,,key,f,16.6656333333328,720,446,./1_3_Stimuli/S_ambi40.png,他人,Image,朋友,Mismatch,f,true,Formal
,,,,,psychophysics,311,843541,0.0-9.0-0.1-0.198,812,,f,,,,,,,,,,,,,key,f,16.6656153846162,720,446,./1_3_Stimuli/C_ambi40.png,朋友,Image,他人,Mismatch,f,true,Formal
,,,,,psychophysics,312,845648,0.0-9.0-0.1-0.199,953,,j,,,,,,,,,,,,,key,j,16.6643492063491,720,446,./1_3_Stimuli/C_ambi40.png,他人,Image,他人,Match,j,true,Formal
,,,,,psychophysics,313,847442,0.0-9.0-0.1-0.200,643,,f,,,,,,,,,,,,,key,f,16.6667641509436,720,446,./1_3_Stimuli/S_ambi40.png,自我,Word,朋友,Mismatch,f,true,Formal
,,,,,psychophysics,314,849388,0.0-9.0-0.1-0.201,793,,f,,,,,,,,,,,,,key,f,16.6651810344835,720,446,./1_3_Stimuli/T_ambi40.png,朋友,Word,自我,Mismatch,f,true,Formal
,,,,,psychophysics,315,851203,0.0-9.0-0.1-0.202,660,,f,,,,,,,,,,,,,key,f,16.6653055555556,720,446,./1_3_Stimuli/S_ambi40.png,自我,Image,朋友,Mismatch,f,true,Formal
,,,,,psychophysics,316,853184,0.0-9.0-0.1-0.203,830,,j,,,,,,,,,,,,,key,j,16.6638220338984,720,446,./1_3_Stimuli/S_ambi40.png,朋友,Word,朋友,Match,j,true,Formal
,,,,,psychophysics,317,855098,0.0-9.0-0.1-0.204,754,,j,,,,,,,,,,,,,key,j,16.6650701754383,720,446,./1_3_Stimuli/C_ambi40.png,他人,Word,他人,Match,j,true,Formal
,,,,,psychophysics,318,856813,0.0-9.0-0.1-0.205,551,,j,,,,,,,,,,,,,key,j,16.6657254901959,720,446,./1_3_Stimuli/T_ambi40.png,自我,Word,自我,Match,j,true,Formal
,,,,,psychophysics,319,858416,0.0-9.0-0.1-0.206,448,,j,,,,,,,,,,,,,key,j,16.6639263157892,720,446,./1_3_Stimuli/S_ambi40.png,朋友,Image,朋友,Match,j,true,Formal
,,,,,psychophysics,320,860019,0.0-9.0-0.1-0.207,446,,f,,,,,,,,,,,,,key,f,16.665894736841,720,446,./1_3_Stimuli/C_ambi40.png,自我,Word,他人,Mismatch,f,true,Formal
,,,,,psychophysics,321,861643,0.0-9.0-0.1-0.208,466,,j,,,,,,,,,,,,,key,j,16.664770833333,720,446,./1_3_Stimuli/T_ambi40.png,自我,Word,自我,Match,j,true,Formal
,,,,,psychophysics,322,863493,0.0-9.0-0.1-0.209,700,,f,,,,,,,,,,,,,key,f,16.663935779816,720,446,./1_3_Stimuli/C_ambi40.png,自我,Image,他人,Mismatch,f,true,Formal
,,,,,psychophysics,323,865514,0.0-9.0-0.1-0.210,866,,j,,,,,,,,,,,,,key,j,16.66395,720,446,./1_3_Stimuli/C_ambi40.png,他人,Image,他人,Match,j,true,Formal
,,,,,psychophysics,324,867263,0.0-9.0-0.1-0.211,587,,j,,,,,,,,,,,,,key,j,16.6664711538458,720,446,./1_3_Stimuli/T_ambi40.png,自我,Image,自我,Match,j,true,Formal
,,,,,psychophysics,325,869008,0.0-9.0-0.1-0.212,588,,f,,,,,,,,,,,,,key,f,16.6640097087371,720,446,./1_3_Stimuli/T_ambi40.png,他人,Word,自我,Mismatch,f,true,Formal
,,,,,psychophysics,326,871411,0.0-9.0-0.1-0.213,1252,,f,,,,,,,,,,,,,key,f,16.6650069930071,720,446,./1_3_Stimuli/C_ambi40.png,朋友,Word,他人,Mismatch,f,true,Formal
,,,,,psychophysics,327,873311,0.0-9.0-0.1-0.214,743,,f,,,,,,,,,,,,,key,f,16.6655840707955,720,446,./1_3_Stimuli/T_ambi40.png,他人,Image,自我,Mismatch,f,true,Formal
,,,,,psychophysics,328,875216,0.0-9.0-0.1-0.215,743,,j,,,,,,,,,,,,,key,j,16.6651061946903,720,446,./1_3_Stimuli/S_ambi40.png,朋友,Word,朋友,Match,j,true,Formal
,,,,,psychophysics,329,876835,0.0-9.0-0.1-0.216,459,,j,,,,,,,,,,,,,key,j,16.6654583333329,720,446,./1_3_Stimuli/S_ambi40.png,朋友,Word,朋友,Match,j,true,Formal
,,,,,psychophysics,330,878574,0.0-9.0-0.1-0.217,582,,f,,,,,,,,,,,,,key,f,16.6649611650489,720,446,./1_3_Stimuli/T_ambi40.png,他人,Image,自我,Mismatch,f,true,Formal
,,,,,psychophysics,331,880323,0.0-9.0-0.1-0.218,598,,f,,,,,,,,,,,,,key,f,16.6658932038841,720,446,./1_3_Stimuli/C_ambi40.png,自我,Image,他人,Mismatch,f,true,Formal
,,,,,psychophysics,332,881987,0.0-9.0-0.1-0.219,512,,j,,,,,,,,,,,,,key,j,16.6634081632662,720,446,./1_3_Stimuli/T_ambi40.png,自我,Word,自我,Match,j,true,Formal
,,,,,psychophysics,333,883651,0.0-9.0-0.1-0.220,510,,f,,,,,,,,,,,,,key,f,16.6644949494941,720,446,./1_3_Stimuli/C_ambi40.png,自我,Word,他人,Mismatch,f,true,Formal
,,,,,psychophysics,334,885456,0.0-9.0-0.1-0.221,648,,j,,,,,,,,,,,,,key,j,16.665009345794,720,446,./1_3_Stimuli/C_ambi40.png,他人,Word,他人,Match,j,true,Formal
,,,,,psychophysics,335,887112,0.0-9.0-0.1-0.222,504,,f,,,,,,,,,,,,,key,f,16.6651414141419,720,446,./1_3_Stimuli/T_ambi40.png,自我,Image,自我,Match,j,false,Formal
,,,,,psychophysics,336,889085,0.0-9.0-0.1-0.223,810,,f,,,,,,,,,,,,,key,f,16.6648376068373,720,446,./1_3_Stimuli/C_ambi40.png,朋友,Word,他人,Mismatch,f,true,Formal
,,,,,psychophysics,337,891101,0.0-9.0-0.1-0.224,861,,f,,,,,,,,,,,,,key,f,16.6651583333335,720,446,./1_3_Stimuli/S_ambi40.png,他人,Word,朋友,Mismatch,f,true,Formal
,,,,,psychophysics,338,892941,0.0-9.0-0.1-0.225,684,,f,,,,,,,,,,,,,key,f,16.6646545454542,720,446,./1_3_Stimuli/T_ambi40.png,朋友,Image,自我,Mismatch,f,true,Formal
,,,,,psychophysics,339,895198,0.0-9.0-0.1-0.226,1091,,j,,,,,,,,,,,,,key,j,16.6659701492537,720,446,./1_3_Stimuli/S_ambi40.png,朋友,Image,朋友,Match,j,true,Formal
,,,,,psychophysics,340,897279,0.0-9.0-0.1-0.227,930,,f,,,,,,,,,,,,,key,f,16.665064516129,720,446,./1_3_Stimuli/S_ambi40.png,他人,Image,朋友,Mismatch,f,true,Formal
,,,,,psychophysics,341,899154,0.0-9.0-0.1-0.228,714,,j,,,,,,,,,,,,,key,j,16.6638828828828,720,446,./1_3_Stimuli/C_ambi40.png,他人,Word,他人,Match,j,true,Formal
,,,,,psychophysics,342,901346,0.0-9.0-0.1-0.229,1040,,f,,,,,,,,,,,,,key,f,16.6657000000007,720,446,./1_3_Stimuli/C_ambi40.png,他人,Image,他人,Match,j,false,Formal
,,,,,psychophysics,343,903140,0.0-9.0-0.1-0.230,639,,j,,,,,,,,,,,,,key,j,16.6657757009347,720,446,./1_3_Stimuli/T_ambi40.png,自我,Image,自我,Match,j,true,Formal
,,,,,psychophysics,344,904940,0.0-9.0-0.1-0.231,642,,f,,,,,,,,,,,,,key,f,16.6662990654205,720,446,./1_3_Stimuli/T_ambi40.png,他人,Word,自我,Mismatch,f,true,Formal
,,,,,psychophysics,345,906936,0.0-9.0-0.1-0.232,834,,f,,,,,,,,,,,,,key,f,16.6656610169487,720,446,./1_3_Stimuli/C_ambi40.png,他人,Image,他人,Match,j,false,Formal
,,,,,psychophysics,346,908566,0.0-9.0-0.1-0.233,477,,j,,,,,,,,,,,,,key,j,16.6669793814438,720,446,./1_3_Stimuli/S_ambi40.png,朋友,Image,朋友,Match,j,true,Formal
,,,,,psychophysics,347,910515,0.0-9.0-0.1-0.234,793,,f,,,,,,,,,,,,,key,f,16.6678275862068,720,446,./1_3_Stimuli/S_ambi40.png,自我,Image,朋友,Mismatch,f,true,Formal
,,,,,psychophysics,348,912435,0.0-9.0-0.1-0.235,763,,f,,,,,,,,,,,,,key,f,16.6660350877189,720,446,./1_3_Stimuli/S_ambi40.png,自我,Word,朋友,Mismatch,f,true,Formal
,,,,,psychophysics,349,914220,0.0-9.0-0.1-0.236,632,,j,,,,,,,,,,,,,key,j,16.667386792453,720,446,./1_3_Stimuli/T_ambi40.png,自我,Word,自我,Match,j,true,Formal
,,,,,psychophysics,350,916336,0.0-9.0-0.1-0.237,965,,f,,,,,,,,,,,,,key,f,16.6657936507938,720,446,./1_3_Stimuli/C_ambi40.png,朋友,Image,他人,Mismatch,f,true,Formal
,,,,,psychophysics,351,918080,0.0-9.0-0.1-0.238,593,,j,,,,,,,,,,,,,key,j,16.6658076923083,720,446,./1_3_Stimuli/S_ambi40.png,朋友,Word,朋友,Match,j,true,Formal
,,,,,psychophysics,352,919800,0.0-9.0-0.1-0.239,562,,f,,,,,,,,,,,,,key,f,16.6649607843137,720,446,./1_3_Stimuli/T_ambi40.png,朋友,Word,自我,Mismatch,f,true,Formal
,,,,,html-keyboard-response,353,923155,0.0-9.0-1.1,3354,<style>.context{color:white; font-size: 35px; line-height:40px}</style>                        <div><p class='context'>您正确回答了93% 的试次。</p><p class='context'>您的平均反应时为688毫秒。</p><p> <div style = 'color: green'><按任意键进入休息></div></p>, ,,,,,,,,,,,,,,,,,,,,,,,,,
,,,,,html-button-response,354,985370,0.0-9.0-2.1,62211,"
                  <p>您当前还剩余4组实验</p>
                  <p>现在是休息时间，当您结束休息后，您可以点击 结束休息 按钮 继续</p>
                  <p>建议休息时间还剩余<span id=""iii"">60</span>秒</p>",0,,,,,,,,,,,,,,,,,,,,,,,,,
,,,,,psychophysics,355,986950,0.0-9.0-0.2-0.240,427,,j,,,,,,,,,,,,,key,j,16.6667553191494,720,446,./1_3_Stimuli/T_ambi40.png,自我,Image,自我,Match,j,true,Formal
,,,,,psychophysics,356,988635,0.0-9.0-0.2-0.241,529,,j,,,,,,,,,,,,,key,j,16.6650399999996,720,446,./1_3_Stimuli/T_ambi40.png,自我,Word,自我,Match,j,true,Formal
,,,,,psychophysics,357,990177,0.0-9.0-0.2-0.242,384,,j,,,,,,,,,,,,,key,j,16.6644285714297,720,446,./1_3_Stimuli/T_ambi40.png,自我,Word,自我,Match,j,true,Formal
,,,,,psychophysics,358,992107,0.0-9.0-0.2-0.243,776,,j,,,,,,,,,,,,,key,j,16.6652608695653,720,446,./1_3_Stimuli/C_ambi40.png,他人,Image,他人,Match,j,true,Formal
,,,,,psychophysics,359,993715,0.0-9.0-0.2-0.244,450,,f,,,,,,,,,,,,,key,f,16.6634166666663,720,446,./1_3_Stimuli/T_ambi40.png,朋友,Image,自我,Mismatch,f,true,Formal
,,,,,psychophysics,360,995500,0.0-9.0-0.2-0.245,635,,j,,,,,,,,,,,,,key,j,16.6638679245283,720,446,./1_3_Stimuli/S_ambi40.png,朋友,Image,朋友,Match,j,true,Formal
,,,,,psychophysics,361,997334,0.0-9.0-0.2-0.246,670,,f,,,,,,,,,,,,,key,f,16.6668623853208,720,446,./1_3_Stimuli/C_ambi40.png,朋友,Image,他人,Mismatch,f,true,Formal
,,,,,psychophysics,362,998948,0.0-9.0-0.2-0.247,458,,f,,,,,,,,,,,,,key,f,16.6645833333338,720,446,./1_3_Stimuli/T_ambi40.png,他人,Image,自我,Mismatch,f,true,Formal
,,,,,psychophysics,363,1000631,0.0-9.0-0.2-0.248,524,,j,,,,,,,,,,,,,key,j,16.6645799999998,720,446,./1_3_Stimuli/C_ambi40.png,他人,Word,他人,Match,j,true,Formal
,,,,,psychophysics,364,1002295,0.0-9.0-0.2-0.249,503,,f,,,,,,,,,,,,,key,f,16.6642244897963,720,446,./1_3_Stimuli/C_ambi40.png,朋友,Word,他人,Mismatch,f,true,Formal
,,,,,psychophysics,365,1004044,0.0-9.0-0.2-0.250,597,,j,,,,,,,,,,,,,key,j,16.6652019230768,720,446,./1_3_Stimuli/S_ambi40.png,朋友,Word,朋友,Match,j,true,Formal
,,,,,psychophysics,366,1005904,0.0-9.0-0.2-0.251,708,,j,,,,,,,,,,,,,key,j,16.6660450450449,720,446,./1_3_Stimuli/C_ambi40.png,他人,Word,他人,Match,j,true,Formal
,,,,,psychophysics,367,1007512,0.0-9.0-0.2-0.252,449,,f,,,,,,,,,,,,,key,f,16.6647052631579,720,446,./1_3_Stimuli/T_ambi40.png,他人,Word,自我,Mismatch,f,true,Formal
,,,,,psychophysics,368,1009217,0.0-9.0-0.2-0.253,553,,j,,,,,,,,,,,,,key,j,16.6647029702971,720,446,./1_3_Stimuli/C_ambi40.png,自我,Image,他人,Mismatch,f,false,Formal
,,,,,psychophysics,369,1010842,0.0-9.0-0.2-0.254,472,,f,,,,,,,,,,,,,key,f,16.6654166666655,720,446,./1_3_Stimuli/C_ambi40.png,自我,Word,他人,Mismatch,f,true,Formal
,,,,,psychophysics,370,1012528,0.0-9.0-0.2-0.255,534,,j,,,,,,,,,,,,,key,j,16.6656400000001,720,446,./1_3_Stimuli/S_ambi40.png,朋友,Word,朋友,Match,j,true,Formal
,,,,,psychophysics,371,1014374,0.0-9.0-0.2-0.256,694,,j,,,,,,,,,,,,,key,j,16.6646238532112,720,446,./1_3_Stimuli/C_ambi40.png,他人,Image,他人,Match,j,true,Formal
,,,,,psychophysics,372,1016022,0.0-9.0-0.2-0.257,494,,f,,,,,,,,,,,,,key,f,16.6670612244907,720,446,./1_3_Stimuli/S_ambi40.png,他人,Word,朋友,Mismatch,f,true,Formal
,,,,,psychophysics,373,1017861,0.0-9.0-0.2-0.258,683,,f,,,,,,,,,,,,,key,f,16.6659449541283,720,446,./1_3_Stimuli/T_ambi40.png,朋友,Word,自我,Mismatch,f,true,Formal
,,,,,psychophysics,374,1019480,0.0-9.0-0.2-0.259,468,,f,,,,,,,,,,,,,key,f,16.6654479166658,720,446,./1_3_Stimuli/S_ambi40.png,自我,Word,朋友,Mismatch,f,true,Formal
,,,,,psychophysics,375,1021221,0.0-9.0-0.2-0.260,583,,j,,,,,,,,,,,,,key,j,16.6671067961159,720,446,./1_3_Stimuli/S_ambi40.png,朋友,Image,朋友,Match,j,true,Formal
,,,,,psychophysics,376,1022833,0.0-9.0-0.2-0.261,455,,j,,,,,,,,,,,,,key,j,16.6645624999995,720,446,./1_3_Stimuli/T_ambi40.png,自我,Image,自我,Match,j,true,Formal
,,,,,psychophysics,377,1024497,0.0-9.0-0.2-0.262,503,,f,,,,,,,,,,,,,key,f,16.664151515152,720,446,./1_3_Stimuli/S_ambi40.png,自我,Image,朋友,Mismatch,f,true,Formal
,,,,,psychophysics,378,1026708,0.0-9.0-0.2-0.263,1060,,f,,,,,,,,,,,,,key,f,16.6641908396944,720,446,./1_3_Stimuli/S_ambi40.png,他人,Image,朋友,Mismatch,f,true,Formal
,,,,,psychophysics,379,1028573,0.0-9.0-0.2-0.264,712,,j,,,,,,,,,,,,,key,j,16.6641261261261,720,446,./1_3_Stimuli/T_ambi40.png,自我,Image,自我,Match,j,true,Formal
,,,,,psychophysics,380,1030161,0.0-9.0-0.2-0.265,434,,f,,,,,,,,,,,,,key,f,16.6655368421055,720,446,./1_3_Stimuli/S_ambi40.png,自我,Word,朋友,Mismatch,f,true,Formal
,,,,,psychophysics,381,1031916,0.0-9.0-0.2-0.266,596,,j,,,,,,,,,,,,,key,j,16.6652884615379,720,446,./1_3_Stimuli/S_ambi40.png,自我,Image,朋友,Mismatch,f,false,Formal
,,,,,psychophysics,382,1033630,0.0-9.0-0.2-0.267,553,,f,,,,,,,,,,,,,key,f,16.6659117647065,720,446,./1_3_Stimuli/C_ambi40.png,自我,Image,他人,Mismatch,f,true,Formal
,,,,,psychophysics,383,1035505,0.0-9.0-0.2-0.268,722,,j,,,,,,,,,,,,,key,j,16.6639909909908,720,446,./1_3_Stimuli/C_ambi40.png,他人,Image,他人,Match,j,true,Formal
,,,,,psychophysics,384,1037219,0.0-9.0-0.2-0.269,559,,f,,,,,,,,,,,,,key,f,16.665303921569,720,446,./1_3_Stimuli/T_ambi40.png,朋友,Word,自我,Mismatch,f,true,Formal
,,,,,psychophysics,385,1039155,0.0-9.0-0.2-0.270,785,,j,,,,,,,,,,,,,key,j,16.6663739130427,720,446,./1_3_Stimuli/C_ambi40.png,他人,Word,他人,Match,j,true,Formal
,,,,,psychophysics,386,1040848,0.0-9.0-0.2-0.271,539,,j,,,,,,,,,,,,,key,j,16.6659306930689,720,446,./1_3_Stimuli/S_ambi40.png,朋友,Word,朋友,Match,j,true,Formal
,,,,,psychophysics,387,1042537,0.0-9.0-0.2-0.272,530,,f,,,,,,,,,,,,,key,f,16.6647600000002,720,446,./1_3_Stimuli/C_ambi40.png,朋友,Word,他人,Mismatch,f,true,Formal
,,,,,psychophysics,388,1044166,0.0-9.0-0.2-0.273,474,,j,,,,,,,,,,,,,key,j,16.6658247422677,720,446,./1_3_Stimuli/S_ambi40.png,朋友,Word,朋友,Match,j,true,Formal
,,,,,psychophysics,389,1045885,0.0-9.0-0.2-0.274,559,,f,,,,,,,,,,,,,key,f,16.6652745098029,720,446,./1_3_Stimuli/T_ambi40.png,他人,Image,自我,Mismatch,f,true,Formal
,,,,,psychophysics,390,1047574,0.0-9.0-0.2-0.275,532,,f,,,,,,,,,,,,,key,f,16.6653600000008,720,446,./1_3_Stimuli/C_ambi40.png,自我,Word,他人,Mismatch,f,true,Formal
,,,,,psychophysics,391,1049464,0.0-9.0-0.2-0.276,739,,j,,,,,,,,,,,,,key,j,16.6656106194704,720,446,./1_3_Stimuli/C_ambi40.png,他人,Word,他人,Match,j,true,Formal
,,,,,psychophysics,392,1051033,0.0-9.0-0.2-0.277,411,,j,,,,,,,,,,,,,key,j,16.66376344086,720,446,./1_3_Stimuli/T_ambi40.png,自我,Word,自我,Match,j,true,Formal
,,,,,psychophysics,393,1052782,0.0-9.0-0.2-0.278,590,,j,,,,,,,,,,,,,key,j,16.6635961538458,720,446,./1_3_Stimuli/S_ambi40.png,朋友,Image,朋友,Match,j,true,Formal
,,,,,psychophysics,394,1054600,0.0-9.0-0.2-0.279,658,,f,,,,,,,,,,,,,key,f,16.6637962962979,720,446,./1_3_Stimuli/S_ambi40.png,他人,Word,朋友,Mismatch,f,true,Formal
,,,,,psychophysics,395,1056844,0.0-9.0-0.2-0.280,1086,,f,,,,,,,,,,,,,key,f,16.6650149253729,720,446,./1_3_Stimuli/C_ambi40.png,朋友,Image,他人,Mismatch,f,true,Formal
,,,,,psychophysics,396,1058563,0.0-9.0-0.2-0.281,565,,f,,,,,,,,,,,,,key,f,16.6649901960776,720,446,./1_3_Stimuli/T_ambi40.png,朋友,Image,自我,Mismatch,f,true,Formal
,,,,,psychophysics,397,1060324,0.0-9.0-0.2-0.282,600,,j,,,,,,,,,,,,,key,j,16.6640285714286,720,446,./1_3_Stimuli/S_ambi40.png,他人,Image,朋友,Mismatch,f,false,Formal
,,,,,psychophysics,398,1061966,0.0-9.0-0.2-0.283,491,,j,,,,,,,,,,,,,key,j,16.6632577319577,720,446,./1_3_Stimuli/T_ambi40.png,自我,Image,自我,Match,j,true,Formal
,,,,,psychophysics,399,1063579,0.0-9.0-0.2-0.284,459,,j,,,,,,,,,,,,,key,j,16.6645833333338,720,446,./1_3_Stimuli/T_ambi40.png,自我,Word,自我,Match,j,true,Formal
,,,,,psychophysics,400,1065273,0.0-9.0-0.2-0.285,532,,f,,,,,,,,,,,,,key,f,16.66554,720,446,./1_3_Stimuli/C_ambi40.png,他人,Image,他人,Match,j,false,Formal
,,,,,psychophysics,401,1066967,0.0-9.0-0.2-0.286,543,,f,,,,,,,,,,,,,key,f,16.6645600000001,720,446,./1_3_Stimuli/T_ambi40.png,他人,Word,自我,Mismatch,f,true,Formal
,,,,,psychophysics,402,1068677,0.0-9.0-0.2-0.287,553,,j,,,,,,,,,,,,,key,j,16.6650490196098,720,446,./1_3_Stimuli/S_ambi40.png,朋友,Image,朋友,Match,j,true,Formal
,,,,,psychophysics,403,1070476,0.0-9.0-0.2-0.288,636,,j,,,,,,,,,,,,,key,j,16.6662242990662,720,446,./1_3_Stimuli/C_ambi40.png,他人,Image,他人,Match,j,true,Formal
,,,,,psychophysics,404,1072165,0.0-9.0-0.2-0.289,526,,j,,,,,,,,,,,,,key,j,16.6646200000006,720,446,./1_3_Stimuli/S_ambi40.png,朋友,Image,朋友,Match,j,true,Formal
,,,,,psychophysics,405,1073975,0.0-9.0-0.2-0.290,652,,j,,,,,,,,,,,,,key,j,16.6643518518519,720,446,./1_3_Stimuli/C_ambi40.png,他人,Image,他人,Match,j,true,Formal
,,,,,psychophysics,406,1075712,0.0-9.0-0.2-0.291,578,,f,,,,,,,,,,,,,key,f,16.6658640776702,720,446,./1_3_Stimuli/S_ambi40.png,自我,Image,朋友,Mismatch,f,true,Formal
,,,,,psychophysics,407,1077339,0.0-9.0-0.2-0.292,466,,j,,,,,,,,,,,,,key,j,16.6643854166687,720,446,./1_3_Stimuli/T_ambi40.png,自我,Word,自我,Match,j,true,Formal
,,,,,psychophysics,408,1078967,0.0-9.0-0.2-0.293,477,,f,,,,,,,,,,,,,key,f,16.6648750000022,720,446,./1_3_Stimuli/S_ambi40.png,他人,Word,朋友,Mismatch,f,true,Formal
,,,,,psychophysics,409,1080666,0.0-9.0-0.2-0.294,543,,f,,,,,,,,,,,,,key,f,16.6642673267328,720,446,./1_3_Stimuli/T_ambi40.png,朋友,Image,自我,Mismatch,f,true,Formal
,,,,,psychophysics,410,1082340,0.0-9.0-0.2-0.295,523,,j,,,,,,,,,,,,,key,j,16.6654600000009,720,446,./1_3_Stimuli/S_ambi40.png,朋友,Word,朋友,Match,j,true,Formal
,,,,,psychophysics,411,1083989,0.0-9.0-0.2-0.296,490,,f,,,,,,,,,,,,,key,f,16.6666907216494,720,446,./1_3_Stimuli/C_ambi40.png,朋友,Word,他人,Mismatch,f,true,Formal
,,,,,psychophysics,412,1085593,0.0-9.0-0.2-0.297,453,,j,,,,,,,,,,,,,key,j,16.6647473684218,720,446,./1_3_Stimuli/T_ambi40.png,自我,Image,自我,Match,j,true,Formal
,,,,,psychophysics,413,1087274,0.0-9.0-0.2-0.298,518,,j,,,,,,,,,,,,,key,j,16.6646299999999,720,446,./1_3_Stimuli/C_ambi40.png,他人,Word,他人,Match,j,true,Formal
,,,,,psychophysics,414,1088910,0.0-9.0-0.2-0.299,483,,f,,,,,,,,,,,,,key,f,16.6665360824728,720,446,./1_3_Stimuli/C_ambi40.png,朋友,Image,他人,Mismatch,f,true,Formal
,,,,,psychophysics,415,1090584,0.0-9.0-0.2-0.300,517,,f,,,,,,,,,,,,,key,f,16.6661111111094,720,446,./1_3_Stimuli/S_ambi40.png,朋友,Image,朋友,Match,j,false,Formal
,,,,,psychophysics,416,1092238,0.0-9.0-0.2-0.301,500,,f,,,,,,,,,,,,,key,f,16.6640808080803,720,446,./1_3_Stimuli/T_ambi40.png,他人,Word,自我,Mismatch,f,true,Formal
,,,,,psychophysics,417,1093857,0.0-9.0-0.2-0.302,468,,f,,,,,,,,,,,,,key,f,16.6645624999995,720,446,./1_3_Stimuli/C_ambi40.png,自我,Word,他人,Mismatch,f,true,Formal
,,,,,psychophysics,418,1095902,0.0-9.0-0.2-0.303,886,,f,,,,,,,,,,,,,key,f,16.664859504133,720,446,./1_3_Stimuli/S_ambi40.png,他人,Image,朋友,Mismatch,f,true,Formal
,,,,,psychophysics,419,1097833,0.0-9.0-0.2-0.304,778,,f,,,,,,,,,,,,,key,f,16.6657478260868,720,446,./1_3_Stimuli/C_ambi40.png,自我,Image,他人,Mismatch,f,true,Formal
,,,,,psychophysics,420,1099446,0.0-9.0-0.2-0.305,459,,j,,,,,,,,,,,,,key,j,16.6631354166675,720,446,./1_3_Stimuli/T_ambi40.png,自我,Image,自我,Match,j,true,Formal
,,,,,psychophysics,421,1101070,0.0-9.0-0.2-0.306,466,,j,,,,,,,,,,,,,key,j,16.6656770833336,720,446,./1_3_Stimuli/T_ambi40.png,自我,Word,自我,Match,j,true,Formal
,,,,,psychophysics,422,1102795,0.0-9.0-0.2-0.307,574,,j,,,,,,,,,,,,,key,j,16.6646372549026,720,446,./1_3_Stimuli/C_ambi40.png,他人,Word,他人,Match,j,true,Formal
,,,,,psychophysics,423,1104388,0.0-9.0-0.2-0.308,436,,j,,,,,,,,,,,,,key,j,16.6641684210541,720,446,./1_3_Stimuli/S_ambi40.png,朋友,Word,朋友,Match,j,true,Formal
,,,,,psychophysics,424,1106014,0.0-9.0-0.2-0.309,474,,f,,,,,,,,,,,,,key,f,16.666062499998,720,446,./1_3_Stimuli/S_ambi40.png,自我,Word,朋友,Mismatch,f,true,Formal
,,,,,psychophysics,425,1107746,0.0-9.0-0.2-0.310,576,,f,,,,,,,,,,,,,key,f,16.6660097087372,720,446,./1_3_Stimuli/T_ambi40.png,他人,Image,自我,Mismatch,f,true,Formal
,,,,,psychophysics,426,1109461,0.0-9.0-0.2-0.311,558,,f,,,,,,,,,,,,,key,f,16.6638137254905,720,446,./1_3_Stimuli/T_ambi40.png,朋友,Word,自我,Mismatch,f,true,Formal
,,,,,psychophysics,427,1111310,0.0-9.0-0.2-0.312,690,,f,,,,,,,,,,,,,key,f,16.6636909090914,720,446,./1_3_Stimuli/S_ambi40.png,他人,Word,朋友,Mismatch,f,true,Formal
,,,,,psychophysics,428,1112964,0.0-9.0-0.2-0.313,500,,j,,,,,,,,,,,,,key,j,16.6658775510209,720,446,./1_3_Stimuli/T_ambi40.png,自我,Image,自我,Match,j,true,Formal
,,,,,psychophysics,429,1114635,0.0-9.0-0.2-0.314,519,,f,,,,,,,,,,,,,key,f,16.666747474749,720,446,./1_3_Stimuli/T_ambi40.png,他人,Word,自我,Mismatch,f,true,Formal
,,,,,psychophysics,430,1116755,0.0-9.0-0.2-0.315,968,,f,,,,,,,,,,,,,key,f,16.6639841269842,720,446,./1_3_Stimuli/C_ambi40.png,朋友,Word,他人,Mismatch,f,true,Formal
,,,,,psychophysics,431,1118404,0.0-9.0-0.2-0.316,488,,j,,,,,,,,,,,,,key,j,16.6642551020391,720,446,./1_3_Stimuli/T_ambi40.png,自我,Word,自我,Match,j,true,Formal
,,,,,psychophysics,432,1120163,0.0-9.0-0.2-0.317,598,,f,,,,,,,,,,,,,key,f,18.0701684210523,720,446,./1_3_Stimuli/T_ambi40.png,朋友,Word,自我,Mismatch,f,true,Formal
,,,,,psychophysics,433,1122124,0.0-9.0-0.2-0.318,806,,j,,,,,,,,,,,,,key,j,19.3039603960391,720,446,./1_3_Stimuli/C_ambi40.png,他人,Word,他人,Match,j,true,Formal
,,,,,psychophysics,434,1123871,0.0-9.0-0.2-0.319,586,,f,,,,,,,,,,,,,key,f,17.1601386138625,720,446,./1_3_Stimuli/C_ambi40.png,他人,Image,他人,Match,j,false,Formal
,,,,,psychophysics,435,1125558,0.0-9.0-0.2-0.320,522,,j,,,,,,,,,,,,,key,j,16.6654399999999,720,446,./1_3_Stimuli/T_ambi40.png,自我,Word,自我,Match,j,true,Formal
,,,,,psychophysics,436,1127342,0.0-9.0-0.2-0.321,630,,j,,,,,,,,,,,,,key,j,16.986028846154,720,446,./1_3_Stimuli/T_ambi40.png,自我,Image,自我,Match,j,true,Formal
,,,,,psychophysics,437,1129122,0.0-9.0-0.2-0.322,620,,f,,,,,,,,,,,,,key,f,16.6649339622642,720,446,./1_3_Stimuli/S_ambi40.png,自我,Image,朋友,Mismatch,f,true,Formal
,,,,,psychophysics,438,1130966,0.0-9.0-0.2-0.323,682,,j,,,,,,,,,,,,,key,j,16.6647064220203,720,446,./1_3_Stimuli/S_ambi40.png,朋友,Word,朋友,Match,j,true,Formal
,,,,,psychophysics,439,1132907,0.0-9.0-0.2-0.324,790,,j,,,,,,,,,,,,,key,j,16.6663879310343,720,446,./1_3_Stimuli/S_ambi40.png,朋友,Image,朋友,Match,j,true,Formal
,,,,,psychophysics,440,1134758,0.0-9.0-0.2-0.325,690,,f,,,,,,,,,,,,,key,f,16.6668636363635,720,446,./1_3_Stimuli/S_ambi40.png,他人,Image,朋友,Mismatch,f,true,Formal
,,,,,psychophysics,441,1136481,0.0-9.0-0.2-0.326,566,,j,,,,,,,,,,,,,key,j,16.6659215686286,720,446,./1_3_Stimuli/C_ambi40.png,自我,Word,他人,Mismatch,f,false,Formal
,,,,,psychophysics,442,1138492,0.0-9.0-0.2-0.327,859,,j,,,,,,,,,,,,,key,j,16.6641932773118,720,446,./1_3_Stimuli/C_ambi40.png,他人,Word,他人,Match,j,true,Formal
,,,,,psychophysics,443,1140317,0.0-9.0-0.2-0.328,669,,f,,,,,,,,,,,,,key,f,16.6651559633015,720,446,./1_3_Stimuli/T_ambi40.png,他人,Image,自我,Mismatch,f,true,Formal
,,,,,psychophysics,444,1142594,0.0-9.0-0.2-0.329,1125,,f,,,,,,,,,,,,,key,f,16.6665925925925,720,446,./1_3_Stimuli/C_ambi40.png,朋友,Image,他人,Mismatch,f,true,Formal
,,,,,psychophysics,445,1144505,0.0-9.0-0.2-0.330,755,,j,,,,,,,,,,,,,key,j,16.6643070175451,720,446,./1_3_Stimuli/S_ambi40.png,朋友,Image,朋友,Match,j,true,Formal
,,,,,psychophysics,446,1146198,0.0-9.0-0.2-0.331,542,,f,,,,,,,,,,,,,key,f,16.6652000000002,720,446,./1_3_Stimuli/T_ambi40.png,朋友,Image,自我,Mismatch,f,true,Formal
,,,,,psychophysics,447,1148056,0.0-9.0-0.2-0.332,707,,f,,,,,,,,,,,,,key,f,16.664729729729,720,446,./1_3_Stimuli/C_ambi40.png,自我,Image,他人,Mismatch,f,true,Formal
,,,,,psychophysics,448,1149893,0.0-9.0-0.2-0.333,683,,f,,,,,,,,,,,,,key,f,16.6655045871563,720,446,./1_3_Stimuli/S_ambi40.png,自我,Word,朋友,Mismatch,f,true,Formal
,,,,,psychophysics,449,1151713,0.0-9.0-0.2-0.334,664,,j,,,,,,,,,,,,,key,j,16.6641759259251,720,446,./1_3_Stimuli/S_ambi40.png,朋友,Word,朋友,Match,j,true,Formal
,,,,,psychophysics,450,1153588,0.0-9.0-0.2-0.335,723,,j,,,,,,,,,,,,,key,j,16.6653513513518,720,446,./1_3_Stimuli/C_ambi40.png,他人,Image,他人,Match,j,true,Formal
,,,,,psychophysics,451,1155212,0.0-9.0-0.2-0.336,464,,f,,,,,,,,,,,,,key,f,16.6655833333328,720,446,./1_3_Stimuli/S_ambi40.png,自我,Word,朋友,Mismatch,f,true,Formal
,,,,,psychophysics,452,1157027,0.0-9.0-0.2-0.337,662,,j,,,,,,,,,,,,,key,j,16.6658981481472,720,446,./1_3_Stimuli/S_ambi40.png,朋友,Word,朋友,Match,j,true,Formal
,,,,,psychophysics,453,1158681,0.0-9.0-0.2-0.338,499,,j,,,,,,,,,,,,,key,j,16.6652142857154,720,446,./1_3_Stimuli/T_ambi40.png,自我,Image,自我,Match,j,true,Formal
,,,,,psychophysics,454,1160669,0.0-9.0-0.2-0.339,838,,j,,,,,,,,,,,,,key,j,16.6659576271175,720,446,./1_3_Stimuli/S_ambi40.png,朋友,Image,朋友,Match,j,true,Formal
,,,,,psychophysics,455,1162401,0.0-9.0-0.2-0.340,575,,f,,,,,,,,,,,,,key,f,16.6652233009701,720,446,./1_3_Stimuli/C_ambi40.png,自我,Word,他人,Mismatch,f,true,Formal
,,,,,psychophysics,456,1164155,0.0-9.0-0.2-0.341,599,,j,,,,,,,,,,,,,key,j,16.663653846154,720,446,./1_3_Stimuli/C_ambi40.png,他人,Word,他人,Match,j,true,Formal
,,,,,psychophysics,457,1165990,0.0-9.0-0.2-0.342,676,,j,,,,,,,,,,,,,key,j,16.6657706422031,720,446,./1_3_Stimuli/C_ambi40.png,他人,Word,他人,Match,j,true,Formal
,,,,,psychophysics,458,1167599,0.0-9.0-0.2-0.343,452,,j,,,,,,,,,,,,,key,j,16.6659791666655,720,446,./1_3_Stimuli/C_ambi40.png,他人,Image,他人,Match,j,true,Formal
,,,,,psychophysics,459,1169343,0.0-9.0-0.2-0.344,585,,f,,,,,,,,,,,,,key,f,16.6658349514564,720,446,./1_3_Stimuli/C_ambi40.png,朋友,Image,他人,Mismatch,f,true,Formal
,,,,,psychophysics,460,1170997,0.0-9.0-0.2-0.345,501,,j,,,,,,,,,,,,,key,j,16.6651212121219,720,446,./1_3_Stimuli/T_ambi40.png,自我,Word,自我,Match,j,true,Formal
,,,,,psychophysics,461,1172762,0.0-9.0-0.2-0.346,606,,f,,,,,,,,,,,,,key,f,16.6634519230753,720,446,./1_3_Stimuli/T_ambi40.png,朋友,Image,自我,Mismatch,f,true,Formal
,,,,,psychophysics,462,1174848,0.0-9.0-0.2-0.347,934,,j,,,,,,,,,,,,,key,j,16.6651612903224,720,446,./1_3_Stimuli/S_ambi40.png,朋友,Word,朋友,Match,j,true,Formal
,,,,,psychophysics,463,1176688,0.0-9.0-0.2-0.348,683,,f,,,,,,,,,,,,,key,f,16.663743119266,720,446,./1_3_Stimuli/T_ambi40.png,他人,Word,自我,Mismatch,f,true,Formal
,,,,,psychophysics,464,1178839,0.0-9.0-0.2-0.349,996,,f,,,,,,,,,,,,,key,f,16.6654296875004,720,446,./1_3_Stimuli/S_ambi40.png,他人,Image,朋友,Mismatch,f,true,Formal
,,,,,psychophysics,465,1180499,0.0-9.0-0.2-0.350,503,,j,,,,,,,,,,,,,key,j,16.6664040404033,720,446,./1_3_Stimuli/T_ambi40.png,自我,Word,自我,Match,j,true,Formal
,,,,,psychophysics,466,1182303,0.0-9.0-0.2-0.351,651,,f,,,,,,,,,,,,,key,f,16.6641682243001,720,446,./1_3_Stimuli/T_ambi40.png,他人,Image,自我,Mismatch,f,true,Formal
,,,,,psychophysics,467,1184033,0.0-9.0-0.2-0.352,572,,j,,,,,,,,,,,,,key,j,16.6638058252425,720,446,./1_3_Stimuli/S_ambi40.png,他人,Word,朋友,Mismatch,f,false,Formal
,,,,,psychophysics,468,1185722,0.0-9.0-0.2-0.353,529,,j,,,,,,,,,,,,,key,j,16.6654700000002,720,446,./1_3_Stimuli/S_ambi40.png,朋友,Image,朋友,Match,j,true,Formal
,,,,,psychophysics,469,1187647,0.0-9.0-0.2-0.354,769,,f,,,,,,,,,,,,,key,f,16.664913043479,720,446,./1_3_Stimuli/C_ambi40.png,朋友,Word,他人,Mismatch,f,true,Formal
,,,,,psychophysics,470,1189382,0.0-9.0-0.2-0.355,571,,j,,,,,,,,,,,,,key,j,16.6655048543691,720,446,./1_3_Stimuli/T_ambi40.png,自我,Image,自我,Match,j,true,Formal
,,,,,psychophysics,471,1191261,0.0-9.0-0.2-0.356,721,,j,,,,,,,,,,,,,key,j,16.6651891891882,720,446,./1_3_Stimuli/C_ambi40.png,他人,Image,他人,Match,j,true,Formal
,,,,,psychophysics,472,1193046,0.0-9.0-0.2-0.357,634,,f,,,,,,,,,,,,,key,f,16.6655471698109,720,446,./1_3_Stimuli/T_ambi40.png,朋友,Word,自我,Mismatch,f,true,Formal
,,,,,psychophysics,473,1194936,0.0-9.0-0.2-0.358,725,,f,,,,,,,,,,,,,key,f,16.6657678571438,720,446,./1_3_Stimuli/S_ambi40.png,自我,Image,朋友,Mismatch,f,true,Formal
,,,,,psychophysics,474,1196687,0.0-9.0-0.2-0.359,594,,f,,,,,,,,,,,,,key,f,16.6655192307685,720,446,./1_3_Stimuli/C_ambi40.png,自我,Image,他人,Mismatch,f,true,Formal
,,,,,html-keyboard-response,475,1201870,0.0-9.0-1.2,5182,<style>.context{color:white; font-size: 35px; line-height:40px}</style>                        <div><p class='context'>您正确回答了93% 的试次。</p><p class='context'>您的平均反应时为608毫秒。</p><p> <div style = 'color: green'><按任意键进入休息></div></p>, ,,,,,,,,,,,,,,,,,,,,,,,,,
,,,,,html-button-response,476,1264069,0.0-9.0-2.2,62196,"
                  <p>您当前还剩余3组实验</p>
                  <p>现在是休息时间，当您结束休息后，您可以点击 结束休息 按钮 继续</p>
                  <p>建议休息时间还剩余<span id=""iii"">60</span>秒</p>",0,,,,,,,,,,,,,,,,,,,,,,,,,
,,,,,psychophysics,477,1265689,0.0-9.0-0.3-0.360,467,,j,,,,,,,,,,,,,key,j,16.6665360824752,720,446,./1_3_Stimuli/T_ambi40.png,自我,Image,自我,Match,j,true,Formal
,,,,,psychophysics,478,1267408,0.0-9.0-0.3-0.361,566,,j,,,,,,,,,,,,,key,j,16.6653235294107,720,446,./1_3_Stimuli/C_ambi40.png,他人,Word,他人,Match,j,true,Formal
,,,,,psychophysics,479,1269049,0.0-9.0-0.3-0.362,477,,f,,,,,,,,,,,,,key,f,16.663855670104,720,446,./1_3_Stimuli/T_ambi40.png,朋友,Image,自我,Mismatch,f,true,Formal
,,,,,psychophysics,480,1270801,0.0-9.0-0.3-0.363,596,,j,,,,,,,,,,,,,key,j,16.6649711538473,720,446,./1_3_Stimuli/S_ambi40.png,朋友,Image,朋友,Match,j,true,Formal
,,,,,psychophysics,481,1272384,0.0-9.0-0.3-0.364,429,,j,,,,,,,,,,,,,key,j,16.6640319148936,720,446,./1_3_Stimuli/T_ambi40.png,自我,Word,自我,Match,j,true,Formal
,,,,,psychophysics,482,1274068,0.0-9.0-0.3-0.365,530,,j,,,,,,,,,,,,,key,j,16.6650600000005,720,446,./1_3_Stimuli/S_ambi40.png,朋友,Word,朋友,Match,j,true,Formal
,,,,,psychophysics,483,1275747,0.0-9.0-0.3-0.366,525,,j,,,,,,,,,,,,,key,j,16.6648300000001,720,446,./1_3_Stimuli/C_ambi40.png,他人,Word,他人,Match,j,true,Formal
,,,,,psychophysics,484,1277636,0.0-9.0-0.3-0.367,738,,j,,,,,,,,,,,,,key,j,16.664008928571,720,446,./1_3_Stimuli/S_ambi40.png,他人,Image,朋友,Mismatch,f,false,Formal
,,,,,psychophysics,485,1279376,0.0-9.0-0.3-0.368,588,,f,,,,,,,,,,,,,key,f,16.6645922330095,720,446,./1_3_Stimuli/C_ambi40.png,自我,Image,他人,Mismatch,f,true,Formal
,,,,,psychophysics,486,1280959,0.0-9.0-0.3-0.369,422,,j,,,,,,,,,,,,,key,j,16.6646914893608,720,446,./1_3_Stimuli/T_ambi40.png,自我,Word,自我,Match,j,true,Formal
,,,,,psychophysics,487,1282763,0.0-9.0-0.3-0.370,643,,f,,,,,,,,,,,,,key,f,16.6649345794397,720,446,./1_3_Stimuli/S_ambi40.png,他人,Word,朋友,Mismatch,f,true,Formal
,,,,,psychophysics,488,1284412,0.0-9.0-0.3-0.371,497,,f,,,,,,,,,,,,,key,f,16.6650408163253,720,446,./1_3_Stimuli/C_ambi40.png,自我,Word,他人,Mismatch,f,true,Formal
,,,,,psychophysics,489,1286312,0.0-9.0-0.3-0.372,742,,j,,,,,,,,,,,,,key,j,16.6668761061933,720,446,./1_3_Stimuli/S_ambi40.png,朋友,Image,朋友,Match,j,true,Formal
,,,,,psychophysics,490,1287971,0.0-9.0-0.3-0.373,503,,j,,,,,,,,,,,,,key,j,16.6647777777763,720,446,./1_3_Stimuli/S_ambi40.png,朋友,Word,朋友,Match,j,true,Formal
,,,,,psychophysics,491,1289584,0.0-9.0-0.3-0.374,459,,f,,,,,,,,,,,,,key,f,16.6647789473694,720,446,./1_3_Stimuli/T_ambi40.png,朋友,Word,自我,Mismatch,f,true,Formal
,,,,,psychophysics,492,1291359,0.0-9.0-0.3-0.375,622,,f,,,,,,,,,,,,,key,f,16.6633809523812,720,446,./1_3_Stimuli/S_ambi40.png,自我,Image,朋友,Mismatch,f,true,Formal
,,,,,psychophysics,493,1293022,0.0-9.0-0.3-0.376,505,,f,,,,,,,,,,,,,key,f,16.6649494949502,720,446,./1_3_Stimuli/S_ambi40.png,自我,Word,朋友,Mismatch,f,true,Formal
,,,,,psychophysics,494,1295083,0.0-9.0-0.3-0.377,903,,f,,,,,,,,,,,,,key,f,16.6660245901649,720,446,./1_3_Stimuli/C_ambi40.png,朋友,Image,他人,Mismatch,f,true,Formal
,,,,,psychophysics,495,1296843,0.0-9.0-0.3-0.378,607,,f,,,,,,,,,,,,,key,f,16.6648952380954,720,446,./1_3_Stimuli/T_ambi40.png,他人,Word,自我,Mismatch,f,true,Formal
,,,,,psychophysics,496,1298632,0.0-9.0-0.3-0.379,629,,j,,,,,,,,,,,,,key,j,16.6658773584893,720,446,./1_3_Stimuli/T_ambi40.png,他人,Image,自我,Mismatch,f,false,Formal
,,,,,psychophysics,497,1300306,0.0-9.0-0.3-0.380,520,,j,,,,,,,,,,,,,key,j,16.6654799999995,720,446,./1_3_Stimuli/T_ambi40.png,自我,Image,自我,Match,j,true,Formal
,,,,,psychophysics,498,1301960,0.0-9.0-0.3-0.381,501,,f,,,,,,,,,,,,,key,f,16.6643673469389,720,446,./1_3_Stimuli/C_ambi40.png,朋友,Word,他人,Mismatch,f,true,Formal
,,,,,psychophysics,499,1303849,0.0-9.0-0.3-0.382,734,,j,,,,,,,,,,,,,key,j,16.6650803571434,720,446,./1_3_Stimuli/C_ambi40.png,他人,Image,他人,Match,j,true,Formal
,,,,,psychophysics,500,1305670,0.0-9.0-0.3-0.383,668,,j,,,,,,,,,,,,,key,j,16.6627314814811,720,446,./1_3_Stimuli/C_ambi40.png,他人,Image,他人,Match,j,true,Formal
,,,,,psychophysics,501,1307630,0.0-9.0-0.3-0.384,803,,j,,,,,,,,,,,,,key,j,16.6654913793097,720,446,./1_3_Stimuli/C_ambi40.png,他人,Image,他人,Match,j,true,Formal
,,,,,psychophysics,502,1309330,0.0-9.0-0.3-0.385,545,,f,,,,,,,,,,,,,key,f,16.6643069306928,720,446,./1_3_Stimuli/C_ambi40.png,自我,Word,他人,Mismatch,f,true,Formal
,,,,,psychophysics,503,1311184,0.0-9.0-0.3-0.386,699,,f,,,,,,,,,,,,,key,f,16.6672272727274,720,446,./1_3_Stimuli/S_ambi40.png,他人,Image,朋友,Mismatch,f,true,Formal
,,,,,psychophysics,504,1312780,0.0-9.0-0.3-0.387,445,,j,,,,,,,,,,,,,key,j,16.66514893617,720,446,./1_3_Stimuli/T_ambi40.png,自我,Word,自我,Match,j,true,Formal
,,,,,psychophysics,505,1315326,0.0-9.0-0.3-0.388,1392,,f,,,,,,,,,,,,,key,f,16.6644999999997,720,446,./1_3_Stimuli/C_ambi40.png,朋友,Image,他人,Mismatch,f,true,Formal
,,,,,psychophysics,506,1317221,0.0-9.0-0.3-0.389,739,,j,,,,,,,,,,,,,key,j,16.6652212389374,720,446,./1_3_Stimuli/C_ambi40.png,他人,Word,他人,Match,j,true,Formal
,,,,,psychophysics,507,1319066,0.0-9.0-0.3-0.390,682,,j,,,,,,,,,,,,,key,j,16.6666605504584,720,446,./1_3_Stimuli/C_ambi40.png,他人,Word,他人,Match,j,true,Formal
,,,,,psychophysics,508,1320745,0.0-9.0-0.3-0.391,529,,f,,,,,,,,,,,,,key,f,16.6655454545451,720,446,./1_3_Stimuli/T_ambi40.png,朋友,Image,自我,Mismatch,f,true,Formal
,,,,,psychophysics,509,1322549,0.0-9.0-0.3-0.392,649,,j,,,,,,,,,,,,,key,j,16.6633364485999,720,446,./1_3_Stimuli/S_ambi40.png,自我,Image,朋友,Mismatch,f,false,Formal
,,,,,psychophysics,510,1324208,0.0-9.0-0.3-0.393,508,,f,,,,,,,,,,,,,key,f,16.6652551020415,720,446,./1_3_Stimuli/C_ambi40.png,朋友,Word,他人,Mismatch,f,true,Formal
,,,,,psychophysics,511,1325943,0.0-9.0-0.3-0.394,576,,f,,,,,,,,,,,,,key,f,16.6654563106809,720,446,./1_3_Stimuli/C_ambi40.png,自我,Image,他人,Mismatch,f,true,Formal
,,,,,psychophysics,512,1327732,0.0-9.0-0.3-0.395,632,,j,,,,,,,,,,,,,key,j,16.6637264150942,720,446,./1_3_Stimuli/C_ambi40.png,他人,Image,他人,Match,j,true,Formal
,,,,,psychophysics,513,1329582,0.0-9.0-0.3-0.396,699,,f,,,,,,,,,,,,,key,f,16.6657522935783,720,446,./1_3_Stimuli/S_ambi40.png,他人,Word,朋友,Mismatch,f,true,Formal
,,,,,psychophysics,514,1331225,0.0-9.0-0.3-0.397,493,,j,,,,,,,,,,,,,key,j,16.663855670104,720,446,./1_3_Stimuli/T_ambi40.png,自我,Word,自我,Match,j,true,Formal
,,,,,psychophysics,515,1332911,0.0-9.0-0.3-0.398,534,,f,,,,,,,,,,,,,key,f,16.6657700000005,720,446,./1_3_Stimuli/T_ambi40.png,朋友,Word,自我,Mismatch,f,true,Formal
,,,,,psychophysics,516,1334478,0.0-9.0-0.3-0.399,414,,j,,,,,,,,,,,,,key,j,16.6666344086019,720,446,./1_3_Stimuli/T_ambi40.png,自我,Image,自我,Match,j,true,Formal
,,,,,psychophysics,517,1336188,0.0-9.0-0.3-0.400,556,,j,,,,,,,,,,,,,key,j,16.663156862745,720,446,./1_3_Stimuli/S_ambi40.png,朋友,Image,朋友,Match,j,true,Formal
,,,,,psychophysics,518,1337845,0.0-9.0-0.3-0.401,504,,f,,,,,,,,,,,,,key,f,16.6640918367348,720,446,./1_3_Stimuli/T_ambi40.png,他人,Word,自我,Mismatch,f,true,Formal
,,,,,psychophysics,519,1339676,0.0-9.0-0.3-0.402,677,,j,,,,,,,,,,,,,key,j,16.6664587155971,720,446,./1_3_Stimuli/S_ambi40.png,朋友,Word,朋友,Match,j,true,Formal
,,,,,psychophysics,520,1341364,0.0-9.0-0.3-0.403,533,,f,,,,,,,,,,,,,key,f,16.6645999999996,720,446,./1_3_Stimuli/T_ambi40.png,他人,Image,自我,Mismatch,f,true,Formal
,,,,,psychophysics,521,1343028,0.0-9.0-0.3-0.404,513,,f,,,,,,,,,,,,,key,f,16.6662755102033,720,446,./1_3_Stimuli/S_ambi40.png,自我,Word,朋友,Mismatch,f,true,Formal
,,,,,psychophysics,522,1344707,0.0-9.0-0.3-0.405,526,,j,,,,,,,,,,,,,key,j,16.6637676767676,720,446,./1_3_Stimuli/T_ambi40.png,自我,Image,自我,Match,j,true,Formal
,,,,,psychophysics,523,1346426,0.0-9.0-0.3-0.406,563,,j,,,,,,,,,,,,,key,j,16.6647647058833,720,446,./1_3_Stimuli/S_ambi40.png,朋友,Image,朋友,Match,j,true,Formal
,,,,,psychophysics,524,1348075,0.0-9.0-0.3-0.407,495,,j,,,,,,,,,,,,,key,j,16.6656122448978,720,446,./1_3_Stimuli/S_ambi40.png,朋友,Word,朋友,Match,j,true,Formal
,,,,,psychophysics,525,1349794,0.0-9.0-0.3-0.408,564,,f,,,,,,,,,,,,,key,f,16.6650098039216,720,446,./1_3_Stimuli/C_ambi40.png,朋友,Image,他人,Mismatch,f,true,Formal
,,,,,psychophysics,526,1351604,0.0-9.0-0.3-0.409,657,,f,,,,,,,,,,,,,key,f,16.6650277777786,720,446,./1_3_Stimuli/S_ambi40.png,他人,Word,朋友,Mismatch,f,true,Formal
,,,,,psychophysics,527,1353364,0.0-9.0-0.3-0.410,600,,f,,,,,,,,,,,,,key,f,16.6651333333348,720,446,./1_3_Stimuli/C_ambi40.png,自我,Word,他人,Mismatch,f,true,Formal
,,,,,psychophysics,528,1355173,0.0-9.0-0.3-0.411,659,,f,,,,,,,,,,,,,key,f,16.6675981308429,720,446,./1_3_Stimuli/C_ambi40.png,自我,Image,他人,Mismatch,f,true,Formal
,,,,,psychophysics,529,1357029,0.0-9.0-0.3-0.412,702,,f,,,,,,,,,,,,,key,f,16.6642181818183,720,446,./1_3_Stimuli/C_ambi40.png,他人,Image,他人,Match,j,false,Formal
,,,,,psychophysics,530,1358682,0.0-9.0-0.3-0.413,503,,j,,,,,,,,,,,,,key,j,16.664112244899,720,446,./1_3_Stimuli/T_ambi40.png,自我,Word,自我,Match,j,true,Formal
,,,,,psychophysics,531,1360482,0.0-9.0-0.3-0.414,640,,j,,,,,,,,,,,,,key,j,16.6656728971958,720,446,./1_3_Stimuli/S_ambi40.png,朋友,Image,朋友,Match,j,true,Formal
,,,,,psychophysics,532,1362256,0.0-9.0-0.3-0.415,613,,j,,,,,,,,,,,,,key,j,16.6666285714268,720,446,./1_3_Stimuli/S_ambi40.png,朋友,Word,朋友,Match,j,true,Formal
,,,,,psychophysics,533,1363895,0.0-9.0-0.3-0.416,483,,f,,,,,,,,,,,,,key,f,16.664360824742,720,446,./1_3_Stimuli/S_ambi40.png,他人,Image,朋友,Mismatch,f,true,Formal
,,,,,psychophysics,534,1365503,0.0-9.0-0.3-0.417,457,,j,,,,,,,,,,,,,key,j,16.6628526315779,720,446,./1_3_Stimuli/T_ambi40.png,自我,Image,自我,Match,j,true,Formal
,,,,,psychophysics,535,1367097,0.0-9.0-0.3-0.418,439,,f,,,,,,,,,,,,,key,f,16.6651052631585,720,446,./1_3_Stimuli/T_ambi40.png,他人,Image,自我,Mismatch,f,true,Formal
,,,,,psychophysics,536,1368821,0.0-9.0-0.3-0.419,572,,f,,,,,,,,,,,,,key,f,16.6670196078439,720,446,./1_3_Stimuli/C_ambi40.png,朋友,Word,他人,Mismatch,f,true,Formal
,,,,,psychophysics,537,1370571,0.0-9.0-0.3-0.420,592,,f,,,,,,,,,,,,,key,f,16.6658557692314,720,446,./1_3_Stimuli/T_ambi40.png,朋友,Word,自我,Mismatch,f,true,Formal
,,,,,psychophysics,538,1372405,0.0-9.0-0.3-0.421,676,,j,,,,,,,,,,,,,key,j,16.6656697247703,720,446,./1_3_Stimuli/C_ambi40.png,他人,Image,他人,Match,j,true,Formal
,,,,,psychophysics,539,1374094,0.0-9.0-0.3-0.422,533,,j,,,,,,,,,,,,,key,j,16.6629600000009,720,446,./1_3_Stimuli/C_ambi40.png,他人,Word,他人,Match,j,true,Formal
,,,,,psychophysics,540,1375854,0.0-9.0-0.3-0.423,609,,f,,,,,,,,,,,,,key,f,16.6634326923074,720,446,./1_3_Stimuli/T_ambi40.png,朋友,Image,自我,Mismatch,f,true,Formal
,,,,,psychophysics,541,1378561,0.0-9.0-0.3-0.424,null,,null,,,,,,,,,,,,,key,null,16.6641739130437,720,446,./1_3_Stimuli/C_ambi40.png,他人,Word,他人,Match,j,false,Formal
,,,,,psychophysics,542,1380308,0.0-9.0-0.3-0.425,596,,f,,,,,,,,,,,,,key,f,16.6634368932042,720,446,./1_3_Stimuli/T_ambi40.png,他人,Word,自我,Mismatch,f,true,Formal
,,,,,psychophysics,543,1381876,0.0-9.0-0.3-0.426,415,,j,,,,,,,,,,,,,key,j,16.6641827956999,720,446,./1_3_Stimuli/T_ambi40.png,自我,Word,自我,Match,j,true,Formal
,,,,,psychophysics,544,1383636,0.0-9.0-0.3-0.427,609,,j,,,,,,,,,,,,,key,j,16.6652980769241,720,446,./1_3_Stimuli/T_ambi40.png,自我,Image,自我,Match,j,true,Formal
,,,,,psychophysics,545,1385345,0.0-9.0-0.3-0.428,551,,f,,,,,,,,,,,,,key,f,16.6647843137251,720,446,./1_3_Stimuli/S_ambi40.png,朋友,Word,朋友,Match,j,false,Formal
,,,,,psychophysics,546,1387115,0.0-9.0-0.3-0.429,615,,f,,,,,,,,,,,,,key,f,16.6659619047617,720,446,./1_3_Stimuli/S_ambi40.png,自我,Image,朋友,Mismatch,f,true,Formal
,,,,,psychophysics,547,1388808,0.0-9.0-0.3-0.430,534,,j,,,,,,,,,,,,,key,j,16.663729999999,720,446,./1_3_Stimuli/S_ambi40.png,朋友,Image,朋友,Match,j,true,Formal
,,,,,psychophysics,548,1390454,0.0-9.0-0.3-0.431,493,,f,,,,,,,,,,,,,key,f,16.6656391752581,720,446,./1_3_Stimuli/S_ambi40.png,自我,Word,朋友,Mismatch,f,true,Formal
,,,,,psychophysics,549,1392283,0.0-9.0-0.3-0.432,677,,j,,,,,,,,,,,,,key,j,16.6654587155977,720,446,./1_3_Stimuli/S_ambi40.png,朋友,Image,朋友,Match,j,true,Formal
,,,,,psychophysics,550,1394017,0.0-9.0-0.3-0.433,577,,f,,,,,,,,,,,,,key,f,16.6642038834946,720,446,./1_3_Stimuli/T_ambi40.png,他人,Image,自我,Mismatch,f,true,Formal
,,,,,psychophysics,551,1395771,0.0-9.0-0.3-0.434,599,,f,,,,,,,,,,,,,key,f,16.6644423076919,720,446,./1_3_Stimuli/C_ambi40.png,朋友,Word,他人,Mismatch,f,true,Formal
,,,,,psychophysics,552,1397600,0.0-9.0-0.3-0.435,674,,j,,,,,,,,,,,,,key,j,16.6627706422005,720,446,./1_3_Stimuli/T_ambi40.png,自我,Word,自我,Match,j,true,Formal
,,,,,psychophysics,553,1399436,0.0-9.0-0.3-0.436,680,,f,,,,,,,,,,,,,key,f,16.6651926605488,720,446,./1_3_Stimuli/C_ambi40.png,他人,Image,他人,Match,j,false,Formal
,,,,,psychophysics,554,1401029,0.0-9.0-0.3-0.437,436,,j,,,,,,,,,,,,,key,j,16.6674105263168,720,446,./1_3_Stimuli/T_ambi40.png,自我,Word,自我,Match,j,true,Formal
,,,,,psychophysics,555,1402862,0.0-9.0-0.3-0.438,676,,f,,,,,,,,,,,,,key,f,16.6644862385321,720,446,./1_3_Stimuli/S_ambi40.png,他人,Word,朋友,Mismatch,f,true,Formal
,,,,,psychophysics,556,1404548,0.0-9.0-0.3-0.439,524,,f,,,,,,,,,,,,,key,f,16.6635000000009,720,446,./1_3_Stimuli/S_ambi40.png,他人,Image,朋友,Mismatch,f,true,Formal
,,,,,psychophysics,557,1406599,0.0-9.0-0.3-0.440,892,,j,,,,,,,,,,,,,key,j,16.6652622950821,720,446,./1_3_Stimuli/C_ambi40.png,他人,Word,他人,Match,j,true,Formal
,,,,,psychophysics,558,1408309,0.0-9.0-0.3-0.441,557,,j,,,,,,,,,,,,,key,j,16.6636568627448,720,446,./1_3_Stimuli/S_ambi40.png,朋友,Image,朋友,Match,j,true,Formal
,,,,,psychophysics,559,1410022,0.0-9.0-0.3-0.442,556,,f,,,,,,,,,,,,,key,f,16.6634455445536,720,446,./1_3_Stimuli/T_ambi40.png,朋友,Image,自我,Mismatch,f,true,Formal
,,,,,psychophysics,560,1411701,0.0-9.0-0.3-0.443,526,,f,,,,,,,,,,,,,key,f,16.6649696969691,720,446,./1_3_Stimuli/T_ambi40.png,他人,Word,自我,Mismatch,f,true,Formal
,,,,,psychophysics,561,1413722,0.0-9.0-0.3-0.444,864,,f,,,,,,,,,,,,,key,f,16.6667166666671,720,446,./1_3_Stimuli/C_ambi40.png,朋友,Image,他人,Mismatch,f,true,Formal
,,,,,psychophysics,562,1415512,0.0-9.0-0.3-0.445,638,,j,,,,,,,,,,,,,key,j,16.6639245283034,720,446,./1_3_Stimuli/S_ambi40.png,朋友,Word,朋友,Match,j,true,Formal
,,,,,psychophysics,563,1417166,0.0-9.0-0.3-0.446,492,,j,,,,,,,,,,,,,key,j,16.6649183673471,720,446,./1_3_Stimuli/T_ambi40.png,自我,Image,自我,Match,j,true,Formal
,,,,,psychophysics,564,1418830,0.0-9.0-0.3-0.447,506,,f,,,,,,,,,,,,,key,f,16.6658080808085,720,446,./1_3_Stimuli/C_ambi40.png,自我,Image,他人,Mismatch,f,true,Formal
,,,,,psychophysics,565,1420569,0.0-9.0-0.3-0.448,579,,f,,,,,,,,,,,,,key,f,16.6623689320404,720,446,./1_3_Stimuli/T_ambi40.png,朋友,Word,自我,Mismatch,f,true,Formal
,,,,,psychophysics,566,1422319,0.0-9.0-0.3-0.449,595,,f,,,,,,,,,,,,,key,f,16.6668461538457,720,446,./1_3_Stimuli/C_ambi40.png,他人,Image,他人,Match,j,false,Formal
,,,,,psychophysics,567,1423982,0.0-9.0-0.3-0.450,512,,f,,,,,,,,,,,,,key,f,16.6630606060622,720,446,./1_3_Stimuli/C_ambi40.png,自我,Word,他人,Mismatch,f,true,Formal
,,,,,psychophysics,568,1425587,0.0-9.0-0.3-0.451,452,,j,,,,,,,,,,,,,key,j,16.6653578947372,720,446,./1_3_Stimuli/S_ambi40.png,朋友,Word,朋友,Match,j,true,Formal
,,,,,psychophysics,569,1427189,0.0-9.0-0.3-0.452,449,,f,,,,,,,,,,,,,key,f,16.6641157894738,720,446,./1_3_Stimuli/S_ambi40.png,自我,Word,朋友,Mismatch,f,true,Formal
,,,,,psychophysics,570,1428849,0.0-9.0-0.3-0.453,509,,j,,,,,,,,,,,,,key,j,16.6647755102045,720,446,./1_3_Stimuli/T_ambi40.png,自我,Image,自我,Match,j,true,Formal
,,,,,psychophysics,571,1430563,0.0-9.0-0.3-0.454,557,,j,,,,,,,,,,,,,key,j,16.6657843137247,720,446,./1_3_Stimuli/C_ambi40.png,他人,Word,他人,Match,j,true,Formal
,,,,,psychophysics,572,1432267,0.0-9.0-0.3-0.455,552,,f,,,,,,,,,,,,,key,f,16.6630891089116,720,446,./1_3_Stimuli/S_ambi40.png,自我,Image,朋友,Mismatch,f,true,Formal
,,,,,psychophysics,573,1434238,0.0-9.0-0.3-0.456,818,,f,,,,,,,,,,,,,key,f,16.6660683760678,720,446,./1_3_Stimuli/C_ambi40.png,自我,Image,他人,Mismatch,f,true,Formal
,,,,,psychophysics,574,1435932,0.0-9.0-0.3-0.457,542,,j,,,,,,,,,,,,,key,j,16.6659999999986,720,446,./1_3_Stimuli/S_ambi40.png,他人,Image,朋友,Mismatch,f,false,Formal
,,,,,psychophysics,575,1437656,0.0-9.0-0.3-0.458,567,,f,,,,,,,,,,,,,key,f,16.6629417475733,720,446,./1_3_Stimuli/C_ambi40.png,朋友,Image,他人,Mismatch,f,true,Formal
,,,,,psychophysics,576,1439320,0.0-9.0-0.3-0.459,508,,f,,,,,,,,,,,,,key,f,16.6642857142843,720,446,./1_3_Stimuli/T_ambi40.png,朋友,Image,自我,Mismatch,f,true,Formal
,,,,,psychophysics,577,1441024,0.0-9.0-0.3-0.460,554,,f,,,,,,,,,,,,,key,f,16.6649117647058,720,446,./1_3_Stimuli/T_ambi40.png,他人,Word,自我,Mismatch,f,true,Formal
,,,,,psychophysics,578,1442803,0.0-9.0-0.3-0.461,622,,f,,,,,,,,,,,,,key,f,16.6632380952393,720,446,./1_3_Stimuli/S_ambi40.png,自我,Image,朋友,Mismatch,f,true,Formal
,,,,,psychophysics,579,1444687,0.0-9.0-0.3-0.462,732,,j,,,,,,,,,,,,,key,j,16.6650900900918,720,446,./1_3_Stimuli/C_ambi40.png,他人,Word,他人,Match,j,true,Formal
,,,,,psychophysics,580,1446358,0.0-9.0-0.3-0.463,520,,j,,,,,,,,,,,,,key,j,16.666272727274,720,446,./1_3_Stimuli/S_ambi40.png,朋友,Image,朋友,Match,j,true,Formal
,,,,,psychophysics,581,1448017,0.0-9.0-0.3-0.464,501,,f,,,,,,,,,,,,,key,f,16.6657244897975,720,446,./1_3_Stimuli/T_ambi40.png,朋友,Word,自我,Mismatch,f,true,Formal
,,,,,psychophysics,582,1449656,0.0-9.0-0.3-0.465,485,,j,,,,,,,,,,,,,key,j,16.6639999999993,720,446,./1_3_Stimuli/T_ambi40.png,自我,Word,自我,Match,j,true,Formal
,,,,,psychophysics,583,1451239,0.0-9.0-0.3-0.466,431,,f,,,,,,,,,,,,,key,f,16.6637978723416,720,446,./1_3_Stimuli/T_ambi40.png,自我,Image,自我,Match,j,false,Formal
,,,,,psychophysics,584,1452958,0.0-9.0-0.3-0.467,560,,j,,,,,,,,,,,,,key,j,16.6646666666675,720,446,./1_3_Stimuli/S_ambi40.png,朋友,Word,朋友,Match,j,true,Formal
,,,,,psychophysics,585,1454597,0.0-9.0-0.3-0.468,485,,f,,,,,,,,,,,,,key,f,16.6653711340203,720,446,./1_3_Stimuli/C_ambi40.png,自我,Word,他人,Mismatch,f,true,Formal
,,,,,psychophysics,586,1456367,0.0-9.0-0.3-0.469,613,,f,,,,,,,,,,,,,key,f,16.6650190476195,720,446,./1_3_Stimuli/T_ambi40.png,他人,Image,自我,Mismatch,f,true,Formal
,,,,,psychophysics,587,1458166,0.0-9.0-0.3-0.470,648,,j,,,,,,,,,,,,,key,j,16.6654672897203,720,446,./1_3_Stimuli/S_ambi40.png,朋友,Word,朋友,Match,j,true,Formal
,,,,,psychophysics,588,1459820,0.0-9.0-0.3-0.471,500,,f,,,,,,,,,,,,,key,f,16.6654343434346,720,446,./1_3_Stimuli/S_ambi40.png,自我,Word,朋友,Mismatch,f,true,Formal
,,,,,psychophysics,589,1461510,0.0-9.0-0.3-0.472,526,,j,,,,,,,,,,,,,key,j,16.6648499999987,720,446,./1_3_Stimuli/S_ambi40.png,朋友,Image,朋友,Match,j,true,Formal
,,,,,psychophysics,590,1463394,0.0-9.0-0.3-0.473,728,,j,,,,,,,,,,,,,key,j,16.6657589285709,720,446,./1_3_Stimuli/C_ambi40.png,他人,Word,他人,Match,j,true,Formal
,,,,,psychophysics,591,1464953,0.0-9.0-0.3-0.474,399,,j,,,,,,,,,,,,,key,j,16.6655760869566,720,446,./1_3_Stimuli/T_ambi40.png,自我,Image,自我,Match,j,true,Formal
,,,,,psychophysics,592,1466929,0.0-9.0-0.3-0.475,826,,j,,,,,,,,,,,,,key,j,16.6659658119664,720,446,./1_3_Stimuli/C_ambi40.png,他人,Image,他人,Match,j,true,Formal
,,,,,psychophysics,593,1469636,0.0-9.0-0.3-0.476,null,,null,,,,,,,,,,,,,key,null,16.6644567901234,720,446,./1_3_Stimuli/T_ambi40.png,自我,Word,自我,Match,j,false,Formal
,,,,,psychophysics,594,1471558,0.0-9.0-0.3-0.477,764,,f,,,,,,,,,,,,,key,f,16.6645614035089,720,446,./1_3_Stimuli/C_ambi40.png,朋友,Word,他人,Mismatch,f,true,Formal
,,,,,psychophysics,595,1473534,0.0-9.0-0.3-0.478,819,,j,,,,,,,,,,,,,key,j,16.665076923077,720,446,./1_3_Stimuli/C_ambi40.png,他人,Image,他人,Match,j,true,Formal
,,,,,psychophysics,596,1475335,0.0-9.0-0.3-0.479,650,,f,,,,,,,,,,,,,key,f,16.6646603773598,720,446,./1_3_Stimuli/S_ambi40.png,他人,Word,朋友,Mismatch,f,true,Formal
,,,,,html-keyboard-response,597,1480170,0.0-9.0-1.3,4834,<style>.context{color:white; font-size: 35px; line-height:40px}</style>                        <div><p class='context'>您正确回答了91% 的试次。</p><p class='context'>您的平均反应时为588毫秒。</p><p> <div style = 'color: green'><按任意键进入休息></div></p>, ,,,,,,,,,,,,,,,,,,,,,,,,,
,,,,,html-button-response,598,1541440,0.0-9.0-2.3,61266,"
                  <p>您当前还剩余2组实验</p>
                  <p>现在是休息时间，当您结束休息后，您可以点击 结束休息 按钮 继续</p>
                  <p>建议休息时间还剩余<span id=""iii"">60</span>秒</p>",0,,,,,,,,,,,,,,,,,,,,,,,,,
,,,,,psychophysics,599,1543356,0.0-9.0-0.4-0.480,760,,f,,,,,,,,,,,,,key,f,16.6659824561405,720,446,./1_3_Stimuli/C_ambi40.png,他人,Image,他人,Match,j,false,Formal
,,,,,psychophysics,600,1545122,0.0-9.0-0.4-0.481,611,,f,,,,,,,,,,,,,key,f,16.6651047619038,720,446,./1_3_Stimuli/S_ambi40.png,他人,Word,朋友,Mismatch,f,true,Formal
,,,,,psychophysics,601,1546708,0.0-9.0-0.4-0.482,429,,j,,,,,,,,,,,,,key,j,16.6632021276597,720,446,./1_3_Stimuli/T_ambi40.png,自我,Image,自我,Match,j,true,Formal
,,,,,psychophysics,602,1548367,0.0-9.0-0.4-0.483,505,,j,,,,,,,,,,,,,key,j,16.6645757575764,720,446,./1_3_Stimuli/S_ambi40.png,自我,Image,朋友,Mismatch,f,false,Formal
,,,,,psychophysics,603,1550136,0.0-9.0-0.4-0.484,612,,f,,,,,,,,,,,,,key,f,16.6668285714285,720,446,./1_3_Stimuli/C_ambi40.png,自我,Image,他人,Mismatch,f,true,Formal
,,,,,psychophysics,604,1551719,0.0-9.0-0.4-0.485,432,,j,,,,,,,,,,,,,key,j,16.6659361702127,720,446,./1_3_Stimuli/S_ambi40.png,朋友,Word,朋友,Match,j,true,Formal
,,,,,psychophysics,605,1553349,0.0-9.0-0.4-0.486,470,,f,,,,,,,,,,,,,key,f,16.6653814433003,720,446,./1_3_Stimuli/T_ambi40.png,他人,Image,自我,Mismatch,f,true,Formal
,,,,,psychophysics,606,1555716,0.0-9.0-0.4-0.487,1212,,j,,,,,,,,,,,,,key,j,16.6657517730483,720,446,./1_3_Stimuli/C_ambi40.png,他人,Word,他人,Match,j,true,Formal
,,,,,psychophysics,607,1557544,0.0-9.0-0.4-0.488,672,,j,,,,,,,,,,,,,key,j,16.6647798165128,720,446,./1_3_Stimuli/C_ambi40.png,他人,Image,他人,Match,j,true,Formal
,,,,,psychophysics,608,1559208,0.0-9.0-0.4-0.489,509,,j,,,,,,,,,,,,,key,j,16.6657755102045,720,446,./1_3_Stimuli/S_ambi40.png,朋友,Word,朋友,Match,j,true,Formal
,,,,,psychophysics,609,1560862,0.0-9.0-0.4-0.490,501,,f,,,,,,,,,,,,,key,f,16.6661414141423,720,446,./1_3_Stimuli/S_ambi40.png,自我,Word,朋友,Mismatch,f,true,Formal
,,,,,psychophysics,610,1562531,0.0-9.0-0.4-0.491,513,,j,,,,,,,,,,,,,key,j,16.6655050505051,720,446,./1_3_Stimuli/T_ambi40.png,自我,Word,自我,Match,j,true,Formal
,,,,,psychophysics,611,1564235,0.0-9.0-0.4-0.492,546,,f,,,,,,,,,,,,,key,f,16.663801980198,720,446,./1_3_Stimuli/T_ambi40.png,朋友,Word,自我,Mismatch,f,true,Formal
,,,,,psychophysics,612,1566592,0.0-9.0-0.4-0.493,1205,,f,,,,,,,,,,,,,key,f,16.6665500000003,720,446,./1_3_Stimuli/C_ambi40.png,朋友,Image,他人,Mismatch,f,true,Formal
,,,,,psychophysics,613,1568316,0.0-9.0-0.4-0.494,572,,j,,,,,,,,,,,,,key,j,16.6667745098033,720,446,./1_3_Stimuli/C_ambi40.png,他人,Word,他人,Match,j,true,Formal
,,,,,psychophysics,614,1569954,0.0-9.0-0.4-0.495,487,,j,,,,,,,,,,,,,key,j,16.6662371134021,720,446,./1_3_Stimuli/S_ambi40.png,朋友,Image,朋友,Match,j,true,Formal
,,,,,psychophysics,615,1571749,0.0-9.0-0.4-0.496,639,,f,,,,,,,,,,,,,key,f,16.6641588785042,720,446,./1_3_Stimuli/T_ambi40.png,他人,Word,自我,Mismatch,f,true,Formal
,,,,,psychophysics,616,1573671,0.0-9.0-0.4-0.497,761,,j,,,,,,,,,,,,,key,j,16.6650877192968,720,446,./1_3_Stimuli/T_ambi40.png,自我,Image,自我,Match,j,true,Formal
,,,,,psychophysics,617,1575262,0.0-9.0-0.4-0.498,436,,j,,,,,,,,,,,,,key,j,16.6624736842111,720,446,./1_3_Stimuli/T_ambi40.png,自我,Word,自我,Match,j,true,Formal
,,,,,psychophysics,618,1576906,0.0-9.0-0.4-0.499,483,,f,,,,,,,,,,,,,key,f,16.6646082474221,720,446,./1_3_Stimuli/C_ambi40.png,朋友,Word,他人,Mismatch,f,true,Formal
,,,,,psychophysics,619,1578977,0.0-9.0-0.4-0.500,918,,f,,,,,,,,,,,,,key,f,16.6655967741934,720,446,./1_3_Stimuli/S_ambi40.png,他人,Image,朋友,Mismatch,f,true,Formal
