"success","timeout","failed_images","failed_audio","failed_video","trial_type","trial_index","time_elapsed","internal_node_id","rt","stimulus","response","value","item_width_mm","item_height_mm","item_width_px","px2mm","view_dist_mm","item_width_deg","px2deg","scale_factor","win_width_deg","win_height_deg","view_history","response_type","key_press","avg_frame_time","center_x","center_y","image","word","target","valence","matchness","correct_response","correct","exp_condition","question_order"
"true","false","[]","[]","[]","preload","0","1","0.0-0.0","","","","","","","","","","","","","","","","","","","","","","","","","","","","",""
"","","","","","html-keyboard-response","1","1694","0.0-1.0","1692","
     <p>您好，欢迎参加本次实验。</p>
     <p>为充分保障您的权利，请确保您已经知晓并同意《参与实验同意书》以及《数据公开知情同意书》。</p>
     <p>如果您未见过上述内容，请咨询实验员。</p>
     <p>如果您选择继续实验，则表示您已经清楚两份知情同意书的内容并同意。</p>
     <p> <div style = ""color: green""><按任意键至下页></div> </p>
     "," ","","","","","","","","","","","","","","","","","","","","","","","","","",""
"","","","","","html-keyboard-response","2","2200","0.0-2.0-0.0","505","
      <p>本实验首先需要您填写一些基本个人信息。</p>
      <p> <div style = ""color: green""><按任意键至下页></div></p>
      "," ","","","","","","","","","","","","","","","","","","","","","","","","","",""
"","","","","","call-function","3","2200","0.0-2.0-1.0","","","","","","","","","","","","","","","","","","","","","","","","","","","","",""
"","","","","","survey-html-form","4","7687","0.0-2.0-2.0","5485","","{""Q0"":""1038""}","","","","","","","","","","","","","","","","","","","","","","","","","",""
"","","","","","html-button-response","5","8585","0.0-2.0-3.0","897","<p style = 'color : white'>您的性别</p>","1","","","","","","","","","","","","","","","","","","","","","","","","","",""
"","","","","","survey-html-form","6","17384","0.0-2.0-4.0","8798","","{""Q0"":""2003""}","","","","","","","","","","","","","","","","","","","","","","","","","",""
"","","","","","survey-html-form","7","21327","0.0-2.0-5.0","3941","","{""Q0"":""5""}","","","","","","","","","","","","","","","","","","","","","","","","","",""
"","","","","","virtual-chinrest","8","276445","0.0-3.0","255116","","","","85.6","53.98","463.56091520582663","5.420282576234796","527.85","9.271218304116532","50","0.8283700963647882","25.6","12.62","","","","","","","","","","","","","","",""
"true","","","","","fullscreen","9","291391","0.0-4.0","","","","","","","","","","","","","","","","","","","","","","","","","","","","",""
"","","","","","instructions","10","410460","0.0-5.0","119068","","","","","","","","","","","","","","[{""page_index"":0,""viewing_time"":12636},{""page_index"":1,""viewing_time"":90999},{""page_index"":2,""viewing_time"":12406},{""page_index"":3,""viewing_time"":3027}]","","","","","","","","","","","","","",""
"","","","","","html-keyboard-response","11","414114","0.0-6.0","null","<count-down title=""""></count-down>","null","","","","","","","","","","","","","","","","","","","","","","","","","",""
"","","","","","psychophysics","12","416825","0.0-7.0-0.0-0.0","null","","null","","","","","","","","","","","","","key","null","16.66583850931648","640","396","./1_3_Stimuli/T_ambi40.png","自我","Word","他人","Mismatch","j","false","Practice",""
"","","","","","html-keyboard-response","13","417128","0.0-7.0-0.0-1.0","null","<span class='add_' style='color:yellow; font-size: 70px;'> 太慢! </span>","null","","","","","","","","","","","","","","","","","","","","","","","","","feedback",""
"","","","","","psychophysics","14","419087","0.0-7.0-0.0-0.1","802","","j","","","","","","","","","","","","","key","j","16.665517241378907","640","396","./1_3_Stimuli/S_ambi40.png","自我","Word","朋友","Mismatch","j","true","Practice",""
"","","","","","html-keyboard-response","15","419393","0.0-7.0-0.0-1.1","null","<span style='color:GreenYellow; font-size: 70px;'>正确! </span>","null","","","","","","","","","","","","","","","","","","","","","","","","","feedback",""
"","","","","","psychophysics","16","421191","0.0-7.0-0.0-0.2","638","","f","","","","","","","","","","","","","key","f","16.665420560747773","640","396","./1_3_Stimuli/C_ambi40.png","自我","Word","自我","Match","f","true","Practice",""
"","","","","","html-keyboard-response","17","421493","0.0-7.0-0.0-1.2","null","<span style='color:GreenYellow; font-size: 70px;'>正确! </span>","null","","","","","","","","","","","","","","","","","","","","","","","","","feedback",""
"","","","","","psychophysics","18","423614","0.0-7.0-0.0-0.3","965","","j","","","","","","","","","","","","","key","j","16.666666666666668","640","396","./1_3_Stimuli/C_ambi40.png","他人","Word","自我","Mismatch","j","true","Practice",""
"","","","","","html-keyboard-response","19","423916","0.0-7.0-0.0-1.3","null","<span style='color:GreenYellow; font-size: 70px;'>正确! </span>","null","","","","","","","","","","","","","","","","","","","","","","","","","feedback",""
"","","","","","psychophysics","20","425759","0.0-7.0-0.0-0.4","685","","f","","","","","","","","","","","","","key","f","16.66636363636353","640","396","./1_3_Stimuli/C_ambi40.png","自我","Word","自我","Match","f","true","Practice",""
"","","","","","html-keyboard-response","21","426073","0.0-7.0-0.0-1.4","null","<span style='color:GreenYellow; font-size: 70px;'>正确! </span>","null","","","","","","","","","","","","","","","","","","","","","","","","","feedback",""
"","","","","","psychophysics","22","428782","0.0-7.0-0.0-0.5","null","","null","","","","","","","","","","","","","key","null","16.659006211179978","640","396","./1_3_Stimuli/T_ambi40.png","朋友","Image","他人","Mismatch","j","false","Practice",""
"","","","","","html-keyboard-response","23","429094","0.0-7.0-0.0-1.5","null","<span class='add_' style='color:yellow; font-size: 70px;'> 太慢! </span>","null","","","","","","","","","","","","","","","","","","","","","","","","","feedback",""
"","","","","","psychophysics","24","431183","0.0-7.0-0.0-0.6","932","","j","","","","","","","","","","","","","key","j","16.666129032257878","640","396","./1_3_Stimuli/T_ambi40.png","自我","Image","他人","Mismatch","j","true","Practice",""
"","","","","","html-keyboard-response","25","431484","0.0-7.0-0.0-1.6","null","<span style='color:GreenYellow; font-size: 70px;'>正确! </span>","null","","","","","","","","","","","","","","","","","","","","","","","","","feedback",""
"","","","","","psychophysics","26","433555","0.0-7.0-0.0-0.7","917","","j","","","","","","","","","","","","","key","j","16.665853658536303","640","396","./1_3_Stimuli/S_ambi40.png","朋友","Word","朋友","Match","f","false","Practice",""
"","","","","","html-keyboard-response","27","433868","0.0-7.0-0.0-1.7","null","<span style='color:red; font-size: 70px;'>错误! </span>","null","","","","","","","","","","","","","","","","","","","","","","","","","feedback",""
"","","","","","psychophysics","28","436546","0.0-7.0-0.0-0.8","1522","","f","","","","","","","","","","","","","key","f","16.665625","640","396","./1_3_Stimuli/T_ambi40.png","他人","Image","他人","Match","f","true","Practice",""
"","","","","","html-keyboard-response","29","436860","0.0-7.0-0.0-1.8","null","<span class='add_' style='color:yellow; font-size: 70px;'> 太慢! </span>","null","","","","","","","","","","","","","","","","","","","","","","","","","feedback",""
"","","","","","psychophysics","30","438792","0.0-7.0-0.0-0.9","779","","j","","","","","","","","","","","","","key","j","16.666086956522044","640","396","./1_3_Stimuli/S_ambi40.png","自我","Image","朋友","Mismatch","j","true","Practice",""
"","","","","","html-keyboard-response","31","439103","0.0-7.0-0.0-1.9","null","<span style='color:GreenYellow; font-size: 70px;'>正确! </span>","null","","","","","","","","","","","","","","","","","","","","","","","","","feedback",""
"","","","","","psychophysics","32","441181","0.0-7.0-0.0-0.10","924","","f","","","","","","","","","","","","","key","f","16.666129032258347","640","396","./1_3_Stimuli/C_ambi40.png","自我","Image","自我","Match","f","true","Practice",""
"","","","","","html-keyboard-response","33","441485","0.0-7.0-0.0-1.10","null","<span style='color:GreenYellow; font-size: 70px;'>正确! </span>","null","","","","","","","","","","","","","","","","","","","","","","","","","feedback",""
"","","","","","psychophysics","34","443702","0.0-7.0-0.0-0.11","1062","","f","","","","","","","","","","","","","key","f","16.666666666666668","640","396","./1_3_Stimuli/S_ambi40.png","朋友","Image","朋友","Match","f","true","Practice",""
"","","","","","html-keyboard-response","35","444009","0.0-7.0-0.0-1.11","null","<span style='color:GreenYellow; font-size: 70px;'>正确! </span>","null","","","","","","","","","","","","","","","","","","","","","","","","","feedback",""
"","","","","","psychophysics","36","446031","0.0-7.0-0.0-0.12","869","","j","","","","","","","","","","","","","key","j","16.665833333333044","640","396","./1_3_Stimuli/C_ambi40.png","朋友","Word","自我","Mismatch","j","true","Practice",""
"","","","","","html-keyboard-response","37","446343","0.0-7.0-0.0-1.12","null","<span style='color:GreenYellow; font-size: 70px;'>正确! </span>","null","","","","","","","","","","","","","","","","","","","","","","","","","feedback",""
"","","","","","psychophysics","38","449054","0.0-7.0-0.0-0.13","null","","null","","","","","","","","","","","","","key","null","16.665838509316842","640","396","./1_3_Stimuli/S_ambi40.png","他人","Image","朋友","Mismatch","j","false","Practice",""
"","","","","","html-keyboard-response","39","449366","0.0-7.0-0.0-1.13","null","<span class='add_' style='color:yellow; font-size: 70px;'> 太慢! </span>","null","","","","","","","","","","","","","","","","","","","","","","","","","feedback",""
"","","","","","psychophysics","40","451169","0.0-7.0-0.0-0.14","648","","j","","","","","","","","","","","","","key","j","16.665420560747773","640","396","./1_3_Stimuli/C_ambi40.png","他人","Image","自我","Mismatch","j","true","Practice",""
"","","","","","html-keyboard-response","41","451474","0.0-7.0-0.0-1.14","null","<span style='color:GreenYellow; font-size: 70px;'>正确! </span>","null","","","","","","","","","","","","","","","","","","","","","","","","","feedback",""
"","","","","","psychophysics","42","454186","0.0-7.0-0.0-0.15","null","","null","","","","","","","","","","","","","key","null","16.665838509316842","640","396","./1_3_Stimuli/S_ambi40.png","朋友","Image","朋友","Match","f","false","Practice",""
"","","","","","html-keyboard-response","43","454499","0.0-7.0-0.0-1.15","null","<span class='add_' style='color:yellow; font-size: 70px;'> 太慢! </span>","null","","","","","","","","","","","","","","","","","","","","","","","","","feedback",""
"","","","","","psychophysics","44","456905","0.0-7.0-0.0-0.16","1248","","j","","","","","","","","","","","","","key","j","16.66573426573394","640","396","./1_3_Stimuli/S_ambi40.png","他人","Word","朋友","Mismatch","j","true","Practice",""
"","","","","","html-keyboard-response","45","457207","0.0-7.0-0.0-1.16","null","<span style='color:GreenYellow; font-size: 70px;'>正确! </span>","null","","","","","","","","","","","","","","","","","","","","","","","","","feedback",""
"","","","","","psychophysics","46","459359","0.0-7.0-0.0-0.17","1001","","f","","","","","","","","","","","","","key","f","16.66640624999991","640","396","./1_3_Stimuli/C_ambi40.png","自我","Image","自我","Match","f","true","Practice",""
"","","","","","html-keyboard-response","47","459661","0.0-7.0-0.0-1.17","null","<span style='color:GreenYellow; font-size: 70px;'>正确! </span>","null","","","","","","","","","","","","","","","","","","","","","","","","","feedback",""
"","","","","","psychophysics","48","462274","0.0-7.0-0.0-0.18","1459","","f","","","","","","","","","","","","","key","f","16.66538461538454","640","396","./1_3_Stimuli/S_ambi40.png","朋友","Word","朋友","Match","f","true","Practice",""
"","","","","","html-keyboard-response","49","462575","0.0-7.0-0.0-1.18","null","<span style='color:GreenYellow; font-size: 70px;'>正确! </span>","null","","","","","","","","","","","","","","","","","","","","","","","","","feedback",""
"","","","","","psychophysics","50","464373","0.0-7.0-0.0-0.19","634","","j","","","","","","","","","","","","","key","j","16.666355140186806","640","396","./1_3_Stimuli/T_ambi40.png","他人","Word","他人","Match","f","false","Practice",""
"","","","","","html-keyboard-response","51","464680","0.0-7.0-0.0-1.19","null","<span style='color:red; font-size: 70px;'>错误! </span>","null","","","","","","","","","","","","","","","","","","","","","","","","","feedback",""
"","","","","","psychophysics","52","467358","0.0-7.0-0.0-0.20","1518","","j","","","","","","","","","","","","","key","j","16.665625","640","396","./1_3_Stimuli/T_ambi40.png","他人","Image","他人","Match","f","false","Practice",""
"","","","","","html-keyboard-response","53","467673","0.0-7.0-0.0-1.20","null","<span class='add_' style='color:yellow; font-size: 70px;'> 太慢! </span>","null","","","","","","","","","","","","","","","","","","","","","","","","","feedback",""
"","","","","","psychophysics","54","470389","0.0-7.0-0.0-0.21","null","","null","","","","","","","","","","","","","key","null","16.665838509316842","640","396","./1_3_Stimuli/T_ambi40.png","朋友","Word","他人","Mismatch","j","false","Practice",""
"","","","","","html-keyboard-response","55","470701","0.0-7.0-0.0-1.21","null","<span class='add_' style='color:yellow; font-size: 70px;'> 太慢! </span>","null","","","","","","","","","","","","","","","","","","","","","","","","","feedback",""
"","","","","","psychophysics","56","472592","0.0-7.0-0.0-0.22","736","","f","","","","","","","","","","","","","key","f","16.666371681415825","640","396","./1_3_Stimuli/T_ambi40.png","他人","Word","他人","Match","f","true","Practice",""
"","","","","","html-keyboard-response","57","472902","0.0-7.0-0.0-1.22","null","<span style='color:GreenYellow; font-size: 70px;'>正确! </span>","null","","","","","","","","","","","","","","","","","","","","","","","","","feedback",""
"","","","","","psychophysics","58","474627","0.0-7.0-0.0-0.23","571","","j","","","","","","","","","","","","","key","j","16.666019417475503","640","396","./1_3_Stimuli/C_ambi40.png","朋友","Image","自我","Mismatch","j","true","Practice",""
"","","","","","html-keyboard-response","59","474931","0.0-7.0-0.0-1.23","null","<span style='color:GreenYellow; font-size: 70px;'>正确! </span>","null","","","","","","","","","","","","","","","","","","","","","","","","","feedback",""
"","","","","","html-keyboard-response","60","483173","0.0-7.0-1.0-0.0","8237","<style>.context{color:white; font-size: 35px; line-height:40px}</style>                        <div><p class='context'>您正确回答了67% 的试次。</p><p class='context'>您的平均反应时为928毫秒。</p><p> <div style = 'color: green'><按空格键至下页></div></p>"," ","","","","","","","","","","","","","","","","","","","","","","","","","",""
"","","","","","instructions","61","491139","0.0-7.0-1.0-1.0","7964","","","","","","","","","","","","","","[{""page_index"":0,""viewing_time"":4718},{""page_index"":1,""viewing_time"":2244},{""page_index"":2,""viewing_time"":1001}]","","","","","","","","","","","","","",""
"","","","","","psychophysics","62","493846","0.0-7.1-0.1-0.24","null","","null","","","","","","","","","","","","","key","null","16.665838509316842","640","396","./1_3_Stimuli/T_ambi40.png","他人","Image","他人","Match","f","false","Practice",""
"","","","","","html-keyboard-response","63","494156","0.0-7.1-0.1-1.24","null","<span class='add_' style='color:yellow; font-size: 70px;'> 太慢! </span>","null","","","","","","","","","","","","","","","","","","","","","","","","","feedback",""
"","","","","","psychophysics","64","495968","0.0-7.1-0.1-0.25","662","","j","","","","","","","","","","","","","key","j","16.666355140186806","640","396","./1_3_Stimuli/S_ambi40.png","自我","Word","朋友","Mismatch","j","true","Practice",""
"","","","","","html-keyboard-response","65","496277","0.0-7.1-0.1-1.25","null","<span style='color:GreenYellow; font-size: 70px;'>正确! </span>","null","","","","","","","","","","","","","","","","","","","","","","","","","feedback",""
"","","","","","psychophysics","66","498152","0.0-7.1-0.1-0.26","719","","j","","","","","","","","","","","","","key","j","16.66576576576545","640","396","./1_3_Stimuli/S_ambi40.png","自我","Image","朋友","Mismatch","j","true","Practice",""
"","","","","","html-keyboard-response","67","498462","0.0-7.1-0.1-1.26","null","<span style='color:GreenYellow; font-size: 70px;'>正确! </span>","null","","","","","","","","","","","","","","","","","","","","","","","","","feedback",""
"","","","","","psychophysics","68","500369","0.0-7.1-0.1-0.27","752","","j","","","","","","","","","","","","","key","j","16.667256637168347","640","396","./1_3_Stimuli/T_ambi40.png","自我","Word","他人","Mismatch","j","true","Practice",""
"","","","","","html-keyboard-response","69","500677","0.0-7.1-0.1-1.27","null","<span style='color:GreenYellow; font-size: 70px;'>正确! </span>","null","","","","","","","","","","","","","","","","","","","","","","","","","feedback",""
"","","","","","psychophysics","70","502449","0.0-7.1-0.1-0.28","616","","f","","","","","","","","","","","","","key","f","16.666666666666668","640","396","./1_3_Stimuli/S_ambi40.png","朋友","Image","朋友","Match","f","true","Practice",""
"","","","","","html-keyboard-response","71","502764","0.0-7.1-0.1-1.28","null","<span style='color:GreenYellow; font-size: 70px;'>正确! </span>","null","","","","","","","","","","","","","","","","","","","","","","","","","feedback",""
"","","","","","psychophysics","72","504700","0.0-7.1-0.1-0.29","780","","j","","","","","","","","","","","","","key","j","16.666086956521536","640","396","./1_3_Stimuli/C_ambi40.png","他人","Image","自我","Mismatch","j","true","Practice",""
"","","","","","html-keyboard-response","73","505005","0.0-7.1-0.1-1.29","null","<span style='color:GreenYellow; font-size: 70px;'>正确! </span>","null","","","","","","","","","","","","","","","","","","","","","","","","","feedback",""
"","","","","","psychophysics","74","506921","0.0-7.1-0.1-0.30","762","","f","","","","","","","","","","","","","key","f","16.664601769911812","640","396","./1_3_Stimuli/S_ambi40.png","朋友","Word","朋友","Match","f","true","Practice",""
"","","","","","html-keyboard-response","75","507233","0.0-7.1-0.1-1.30","null","<span style='color:GreenYellow; font-size: 70px;'>正确! </span>","null","","","","","","","","","","","","","","","","","","","","","","","","","feedback",""
"","","","","","psychophysics","76","509304","0.0-7.1-0.1-0.31","918","","j","","","","","","","","","","","","","key","j","16.66532258064516","640","396","./1_3_Stimuli/C_ambi40.png","朋友","Word","自我","Mismatch","j","true","Practice",""
"","","","","","html-keyboard-response","77","509616","0.0-7.1-0.1-1.31","null","<span style='color:GreenYellow; font-size: 70px;'>正确! </span>","null","","","","","","","","","","","","","","","","","","","","","","","","","feedback",""
"","","","","","psychophysics","78","511371","0.0-7.1-0.1-0.32","602","","j","","","","","","","","","","","","","key","j","16.666346153846042","640","396","./1_3_Stimuli/C_ambi40.png","朋友","Image","自我","Mismatch","j","true","Practice",""
"","","","","","html-keyboard-response","79","511677","0.0-7.1-0.1-1.32","null","<span style='color:GreenYellow; font-size: 70px;'>正确! </span>","null","","","","","","","","","","","","","","","","","","","","","","","","","feedback",""
"","","","","","psychophysics","80","513968","0.0-7.1-0.1-0.33","1140","","f","","","","","","","","","","","","","key","f","16.666176470588063","640","396","./1_3_Stimuli/S_ambi40.png","他人","Word","朋友","Mismatch","j","false","Practice",""
"","","","","","html-keyboard-response","81","514278","0.0-7.1-0.1-1.33","null","<span style='color:red; font-size: 70px;'>错误! </span>","null","","","","","","","","","","","","","","","","","","","","","","","","","feedback",""
"","","","","","psychophysics","82","516367","0.0-7.1-0.1-0.34","932","","j","","","","","","","","","","","","","key","j","16.66532258064516","640","396","./1_3_Stimuli/T_ambi40.png","朋友","Image","他人","Mismatch","j","true","Practice",""
"","","","","","html-keyboard-response","83","516669","0.0-7.1-0.1-1.34","null","<span style='color:GreenYellow; font-size: 70px;'>正确! </span>","null","","","","","","","","","","","","","","","","","","","","","","","","","feedback",""
"","","","","","psychophysics","84","518606","0.0-7.1-0.1-0.35","785","","j","","","","","","","","","","","","","key","j","16.65478260869555","640","396","./1_3_Stimuli/T_ambi40.png","他人","Word","他人","Match","f","false","Practice",""
"","","","","","html-keyboard-response","85","518916","0.0-7.1-0.1-1.35","null","<span style='color:red; font-size: 70px;'>错误! </span>","null","","","","","","","","","","","","","","","","","","","","","","","","","feedback",""
"","","","","","psychophysics","86","520965","0.0-7.1-0.1-0.36","895","","f","","","","","","","","","","","","","key","f","16.666393442622855","640","396","./1_3_Stimuli/S_ambi40.png","朋友","Image","朋友","Match","f","true","Practice",""
"","","","","","html-keyboard-response","87","521274","0.0-7.1-0.1-1.36","null","<span style='color:GreenYellow; font-size: 70px;'>正确! </span>","null","","","","","","","","","","","","","","","","","","","","","","","","","feedback",""
"","","","","","psychophysics","88","522939","0.0-7.1-0.1-0.37","513","","f","","","","","","","","","","","","","key","f","16.6656565656568","640","396","./1_3_Stimuli/T_ambi40.png","他人","Word","他人","Match","f","true","Practice",""
"","","","","","html-keyboard-response","89","523255","0.0-7.1-0.1-1.37","null","<span style='color:GreenYellow; font-size: 70px;'>正确! </span>","null","","","","","","","","","","","","","","","","","","","","","","","","","feedback",""
"","","","","","psychophysics","90","524839","0.0-7.1-0.1-0.38","432","","j","","","","","","","","","","","","","key","j","16.665957446808264","640","396","./1_3_Stimuli/C_ambi40.png","他人","Word","自我","Mismatch","j","true","Practice",""
"","","","","","html-keyboard-response","91","525154","0.0-7.1-0.1-1.38","null","<span style='color:GreenYellow; font-size: 70px;'>正确! </span>","null","","","","","","","","","","","","","","","","","","","","","","","","","feedback",""
"","","","","","psychophysics","92","526907","0.0-7.1-0.1-0.39","599","","f","","","","","","","","","","","","","key","f","16.66634615384548","640","396","./1_3_Stimuli/C_ambi40.png","自我","Image","自我","Match","f","true","Practice",""
"","","","","","html-keyboard-response","93","527211","0.0-7.1-0.1-1.39","null","<span style='color:GreenYellow; font-size: 70px;'>正确! </span>","null","","","","","","","","","","","","","","","","","","","","","","","","","feedback",""
"","","","","","psychophysics","94","529497","0.0-7.1-0.1-0.40","1132","","j","","","","","","","","","","","","","key","j","16.666911764706395","640","396","./1_3_Stimuli/T_ambi40.png","朋友","Word","他人","Mismatch","j","true","Practice",""
"","","","","","html-keyboard-response","95","529801","0.0-7.1-0.1-1.40","null","<span style='color:GreenYellow; font-size: 70px;'>正确! </span>","null","","","","","","","","","","","","","","","","","","","","","","","","","feedback",""
"","","","","","psychophysics","96","532037","0.0-7.1-0.1-0.41","1084","","j","","","","","","","","","","","","","key","j","16.666417910448107","640","396","./1_3_Stimuli/T_ambi40.png","他人","Image","他人","Match","f","false","Practice",""
"","","","","","html-keyboard-response","97","532345","0.0-7.1-0.1-1.41","null","<span style='color:red; font-size: 70px;'>错误! </span>","null","","","","","","","","","","","","","","","","","","","","","","","","","feedback",""
"","","","","","psychophysics","98","534104","0.0-7.1-0.1-0.42","601","","j","","","","","","","","","","","","","key","j","16.6663461538466","640","396","./1_3_Stimuli/S_ambi40.png","他人","Image","朋友","Mismatch","j","true","Practice",""
"","","","","","html-keyboard-response","99","534411","0.0-7.1-0.1-1.42","null","<span style='color:GreenYellow; font-size: 70px;'>正确! </span>","null","","","","","","","","","","","","","","","","","","","","","","","","","feedback",""
"","","","","","psychophysics","100","536131","0.0-7.1-0.1-0.43","562","","f","","","","","","","","","","","","","key","f","16.665686274510033","640","396","./1_3_Stimuli/C_ambi40.png","自我","Image","自我","Match","f","true","Practice",""
"","","","","","html-keyboard-response","101","536443","0.0-7.1-0.1-1.43","null","<span style='color:GreenYellow; font-size: 70px;'>正确! </span>","null","","","","","","","","","","","","","","","","","","","","","","","","","feedback",""
"","","","","","psychophysics","102","538349","0.0-7.1-0.1-0.44","748","","f","","","","","","","","","","","","","key","f","16.667256637168347","640","396","./1_3_Stimuli/C_ambi40.png","自我","Word","自我","Match","f","true","Practice",""
"","","","","","html-keyboard-response","103","538650","0.0-7.1-0.1-1.44","null","<span style='color:GreenYellow; font-size: 70px;'>正确! </span>","null","","","","","","","","","","","","","","","","","","","","","","","","","feedback",""
"","","","","","psychophysics","104","540480","0.0-7.1-0.1-0.45","678","","f","","","","","","","","","","","","","key","f","16.666055045872415","640","396","./1_3_Stimuli/C_ambi40.png","自我","Word","自我","Match","f","true","Practice",""
"","","","","","html-keyboard-response","105","540783","0.0-7.1-0.1-1.45","null","<span style='color:GreenYellow; font-size: 70px;'>正确! </span>","null","","","","","","","","","","","","","","","","","","","","","","","","","feedback",""
"","","","","","psychophysics","106","542650","0.0-7.1-0.1-0.46","714","","j","","","","","","","","","","","","","key","j","16.666666666666668","640","396","./1_3_Stimuli/T_ambi40.png","自我","Image","他人","Mismatch","j","true","Practice",""
"","","","","","html-keyboard-response","107","542952","0.0-7.1-0.1-1.46","null","<span style='color:GreenYellow; font-size: 70px;'>正确! </span>","null","","","","","","","","","","","","","","","","","","","","","","","","","feedback",""
"","","","","","psychophysics","108","544861","0.0-7.1-0.1-0.47","758","","f","","","","","","","","","","","","","key","f","16.665486725664334","640","396","./1_3_Stimuli/S_ambi40.png","朋友","Word","朋友","Match","f","true","Practice",""
"","","","","","html-keyboard-response","109","545164","0.0-7.1-0.1-1.47","null","<span style='color:GreenYellow; font-size: 70px;'>正确! </span>","null","","","","","","","","","","","","","","","","","","","","","","","","","feedback",""
"","","","","","html-keyboard-response","110","548410","0.0-7.1-1.1-0.1","3244","<style>.context{color:white; font-size: 35px; line-height:40px}</style>                        <div><p class='context'>您正确回答了83% 的试次。</p><p class='context'>您的平均反应时为719毫秒。</p><p> <div style = 'color: green'><按空格键至下页></div></p>"," ","","","","","","","","","","","","","","","","","","","","","","","","","",""
"","","","","","instructions","111","559151","0.0-7.1-1.1-1.1","10739","","","","","","","","","","","","","","[{""page_index"":0,""viewing_time"":5097},{""page_index"":1,""viewing_time"":4058},{""page_index"":2,""viewing_time"":1583}]","","","","","","","","","","","","","",""
"","","","","","psychophysics","112","561172","0.0-7.2-0.2-0.48","857","","j","","","","","","","","","","","","","key","j","16.665833333333527","640","396","./1_3_Stimuli/T_ambi40.png","他人","Image","他人","Match","f","false","Practice",""
"","","","","","html-keyboard-response","113","561486","0.0-7.2-0.2-1.48","null","<span style='color:red; font-size: 70px;'>错误! </span>","null","","","","","","","","","","","","","","","","","","","","","","","","","feedback",""
"","","","","","psychophysics","114","563704","0.0-7.2-0.2-0.49","1067","","j","","","","","","","","","","","","","key","j","16.667424242424065","640","396","./1_3_Stimuli/T_ambi40.png","他人","Word","他人","Match","f","false","Practice",""
"","","","","","html-keyboard-response","115","564011","0.0-7.2-0.2-1.49","null","<span style='color:red; font-size: 70px;'>错误! </span>","null","","","","","","","","","","","","","","","","","","","","","","","","","feedback",""
"","","","","","psychophysics","116","566054","0.0-7.2-0.2-0.50","889","","f","","","","","","","","","","","","","key","f","16.665289256198346","640","396","./1_3_Stimuli/S_ambi40.png","朋友","Image","朋友","Match","f","true","Practice",""
"","","","","","html-keyboard-response","117","566362","0.0-7.2-0.2-1.50","null","<span style='color:GreenYellow; font-size: 70px;'>正确! </span>","null","","","","","","","","","","","","","","","","","","","","","","","","","feedback",""
"","","","","","psychophysics","118","568169","0.0-7.2-0.2-0.51","650","","j","","","","","","","","","","","","","key","j","16.66542056074723","640","396","./1_3_Stimuli/T_ambi40.png","他人","Image","他人","Match","f","false","Practice",""
"","","","","","html-keyboard-response","119","568481","0.0-7.2-0.2-1.51","null","<span style='color:red; font-size: 70px;'>错误! </span>","null","","","","","","","","","","","","","","","","","","","","","","","","","feedback",""
"","","","","","psychophysics","120","570348","0.0-7.2-0.2-0.52","713","","j","","","","","","","","","","","","","key","j","16.665765765765975","640","396","./1_3_Stimuli/T_ambi40.png","朋友","Image","他人","Mismatch","j","true","Practice",""
"","","","","","html-keyboard-response","121","570656","0.0-7.2-0.2-1.52","null","<span style='color:GreenYellow; font-size: 70px;'>正确! </span>","null","","","","","","","","","","","","","","","","","","","","","","","","","feedback",""
"","","","","","psychophysics","122","572301","0.0-7.2-0.2-0.53","489","","f","","","","","","","","","","","","","key","f","16.66597938144306","640","396","./1_3_Stimuli/C_ambi40.png","自我","Word","自我","Match","f","true","Practice",""
"","","","","","html-keyboard-response","123","572614","0.0-7.2-0.2-1.53","null","<span style='color:GreenYellow; font-size: 70px;'>正确! </span>","null","","","","","","","","","","","","","","","","","","","","","","","","","feedback",""
"","","","","","psychophysics","124","574715","0.0-7.2-0.2-0.54","946","","f","","","","","","","","","","","","","key","f","16.66559999999963","640","396","./1_3_Stimuli/C_ambi40.png","朋友","Image","自我","Mismatch","j","false","Practice",""
"","","","","","html-keyboard-response","125","575022","0.0-7.2-0.2-1.54","null","<span style='color:red; font-size: 70px;'>错误! </span>","null","","","","","","","","","","","","","","","","","","","","","","","","","feedback",""
"","","","","","psychophysics","126","577060","0.0-7.2-0.2-0.55","883","","f","","","","","","","","","","","","","key","f","16.666942148759947","640","396","./1_3_Stimuli/S_ambi40.png","朋友","Word","朋友","Match","f","true","Practice",""
"","","","","","html-keyboard-response","127","577362","0.0-7.2-0.2-1.55","null","<span style='color:GreenYellow; font-size: 70px;'>正确! </span>","null","","","","","","","","","","","","","","","","","","","","","","","","","feedback",""
"","","","","","psychophysics","128","579164","0.0-7.2-0.2-0.56","650","","f","","","","","","","","","","","","","key","f","16.665420560748316","640","396","./1_3_Stimuli/C_ambi40.png","自我","Image","自我","Match","f","true","Practice",""
"","","","","","html-keyboard-response","129","579467","0.0-7.2-0.2-1.56","null","<span style='color:GreenYellow; font-size: 70px;'>正确! </span>","null","","","","","","","","","","","","","","","","","","","","","","","","","feedback",""
"","","","","","psychophysics","130","581339","0.0-7.2-0.2-0.57","720","","j","","","","","","","","","","","","","key","j","16.660360360359732","640","396","./1_3_Stimuli/C_ambi40.png","朋友","Word","自我","Mismatch","j","true","Practice",""
"","","","","","html-keyboard-response","131","581649","0.0-7.2-0.2-1.57","null","<span style='color:GreenYellow; font-size: 70px;'>正确! </span>","null","","","","","","","","","","","","","","","","","","","","","","","","","feedback",""
"","","","","","psychophysics","132","583558","0.0-7.2-0.2-0.58","757","","j","","","","","","","","","","","","","key","j","16.665789473683393","640","396","./1_3_Stimuli/T_ambi40.png","自我","Word","他人","Mismatch","j","true","Practice",""
"","","","","","html-keyboard-response","133","583865","0.0-7.2-0.2-1.58","null","<span style='color:GreenYellow; font-size: 70px;'>正确! </span>","null","","","","","","","","","","","","","","","","","","","","","","","","","feedback",""
"","","","","","psychophysics","134","585671","0.0-7.2-0.2-0.59","652","","j","","","","","","","","","","","","","key","j","16.665740740740958","640","396","./1_3_Stimuli/S_ambi40.png","他人","Image","朋友","Mismatch","j","true","Practice",""
"","","","","","html-keyboard-response","135","585973","0.0-7.2-0.2-1.59","null","<span style='color:GreenYellow; font-size: 70px;'>正确! </span>","null","","","","","","","","","","","","","","","","","","","","","","","","","feedback",""
"","","","","","psychophysics","136","587692","0.0-7.2-0.2-0.60","565","","f","","","","","","","","","","","","","key","f","16.666666666666668","640","396","./1_3_Stimuli/C_ambi40.png","自我","Word","自我","Match","f","true","Practice",""
"","","","","","html-keyboard-response","137","587999","0.0-7.2-0.2-1.60","null","<span style='color:GreenYellow; font-size: 70px;'>正确! </span>","null","","","","","","","","","","","","","","","","","","","","","","","","","feedback",""
"","","","","","psychophysics","138","589749","0.0-7.2-0.2-0.61","597","","j","","","","","","","","","","","","","key","j","16.6663461538466","640","396","./1_3_Stimuli/C_ambi40.png","他人","Word","自我","Mismatch","j","true","Practice",""
"","","","","","html-keyboard-response","139","590059","0.0-7.2-0.2-1.61","null","<span style='color:GreenYellow; font-size: 70px;'>正确! </span>","null","","","","","","","","","","","","","","","","","","","","","","","","","feedback",""
"","","","","","psychophysics","140","592325","0.0-7.2-0.2-0.62","1106","","j","","","","","","","","","","","","","key","j","16.6659259259261","640","396","./1_3_Stimuli/C_ambi40.png","他人","Image","自我","Mismatch","j","true","Practice",""
"","","","","","html-keyboard-response","141","592629","0.0-7.2-0.2-1.62","null","<span style='color:GreenYellow; font-size: 70px;'>正确! </span>","null","","","","","","","","","","","","","","","","","","","","","","","","","feedback",""
"","","","","","psychophysics","142","594674","0.0-7.2-0.2-0.63","892","","f","","","","","","","","","","","","","key","f","16.66639344262238","640","396","./1_3_Stimuli/S_ambi40.png","朋友","Word","朋友","Match","f","true","Practice",""
"","","","","","html-keyboard-response","143","594983","0.0-7.2-0.2-1.63","null","<span style='color:GreenYellow; font-size: 70px;'>正确! </span>","null","","","","","","","","","","","","","","","","","","","","","","","","","feedback",""
"","","","","","psychophysics","144","596648","0.0-7.2-0.2-0.64","513","","f","","","","","","","","","","","","","key","f","16.6656565656568","640","396","./1_3_Stimuli/C_ambi40.png","自我","Image","自我","Match","f","true","Practice",""
"","","","","","html-keyboard-response","145","596964","0.0-7.2-0.2-1.64","null","<span style='color:GreenYellow; font-size: 70px;'>正确! </span>","null","","","","","","","","","","","","","","","","","","","","","","","","","feedback",""
"","","","","","psychophysics","146","598627","0.0-7.2-0.2-0.65","509","","j","","","","","","","","","","","","","key","j","16.666666666666668","640","396","./1_3_Stimuli/S_ambi40.png","自我","Image","朋友","Mismatch","j","true","Practice",""
"","","","","","html-keyboard-response","147","598935","0.0-7.2-0.2-1.65","null","<span style='color:GreenYellow; font-size: 70px;'>正确! </span>","null","","","","","","","","","","","","","","","","","","","","","","","","","feedback",""
"","","","","","psychophysics","148","600835","0.0-7.2-0.2-0.66","748","","f","","","","","","","","","","","","","key","f","16.666964285714908","640","396","./1_3_Stimuli/S_ambi40.png","朋友","Image","朋友","Match","f","true","Practice",""
"","","","","","html-keyboard-response","149","601150","0.0-7.2-0.2-1.66","null","<span style='color:GreenYellow; font-size: 70px;'>正确! </span>","null","","","","","","","","","","","","","","","","","","","","","","","","","feedback",""
"","","","","","psychophysics","150","603068","0.0-7.2-0.2-0.67","759","","f","","","","","","","","","","","","","key","f","16.65964912280763","640","396","./1_3_Stimuli/T_ambi40.png","他人","Word","他人","Match","f","true","Practice",""
"","","","","","html-keyboard-response","151","603371","0.0-7.2-0.2-1.67","null","<span style='color:GreenYellow; font-size: 70px;'>正确! </span>","null","","","","","","","","","","","","","","","","","","","","","","","","","feedback",""
"","","","","","psychophysics","152","605094","0.0-7.2-0.2-0.68","567","","j","","","","","","","","","","","","","key","j","16.665686274510033","640","396","./1_3_Stimuli/S_ambi40.png","他人","Word","朋友","Mismatch","j","true","Practice",""
"","","","","","html-keyboard-response","153","605397","0.0-7.2-0.2-1.68","null","<span style='color:GreenYellow; font-size: 70px;'>正确! </span>","null","","","","","","","","","","","","","","","","","","","","","","","","","feedback",""
"","","","","","psychophysics","154","607192","0.0-7.2-0.2-0.69","641","","j","","","","","","","","","","","","","key","j","16.665420560748316","640","396","./1_3_Stimuli/S_ambi40.png","自我","Word","朋友","Mismatch","j","true","Practice",""
"","","","","","html-keyboard-response","155","607494","0.0-7.2-0.2-1.69","null","<span style='color:GreenYellow; font-size: 70px;'>正确! </span>","null","","","","","","","","","","","","","","","","","","","","","","","","","feedback",""
"","","","","","psychophysics","156","609320","0.0-7.2-0.2-0.70","671","","j","","","","","","","","","","","","","key","j","16.666972477063794","640","396","./1_3_Stimuli/T_ambi40.png","自我","Image","他人","Mismatch","j","true","Practice",""
"","","","","","html-keyboard-response","157","609632","0.0-7.2-0.2-1.70","null","<span style='color:GreenYellow; font-size: 70px;'>正确! </span>","null","","","","","","","","","","","","","","","","","","","","","","","","","feedback",""
"","","","","","psychophysics","158","611656","0.0-7.2-0.2-0.71","871","","j","","","","","","","","","","","","","key","j","16.66611570248011","640","396","./1_3_Stimuli/T_ambi40.png","朋友","Word","他人","Mismatch","j","true","Practice",""
"","","","","","html-keyboard-response","159","611972","0.0-7.2-0.2-1.71","null","<span style='color:GreenYellow; font-size: 70px;'>正确! </span>","null","","","","","","","","","","","","","","","","","","","","","","","","","feedback",""
"","","","","","html-keyboard-response","160","629128","0.0-7.2-1.2-0.2","17161","<style>.context{color:white; font-size: 35px; line-height:40px}</style>                        <div><p class='context'>您正确回答了83% 的试次。</p><p class='context'>您的平均反应时为710毫秒。</p><p> <div style = 'color: green'><按空格键至下页></div></p>"," ","","","","","","","","","","","","","","","","","","","","","","","","","",""
"","","","","","instructions","161","662631","0.0-7.2-1.2-1.2","33497","","","","","","","","","","","","","","[{""page_index"":0,""viewing_time"":1221},{""page_index"":1,""viewing_time"":30086},{""page_index"":2,""viewing_time"":2190}]","","","","","","","","","","","","","",""
"","","","","","psychophysics","162","664350","0.0-7.3-0.3-0.72","557","","f","","","","","","","","","","","","","key","f","16.664705882352255","640","396","./1_3_Stimuli/C_ambi40.png","自我","Image","自我","Match","f","true","Practice",""
"","","","","","html-keyboard-response","163","664665","0.0-7.3-0.3-1.72","null","<span style='color:GreenYellow; font-size: 70px;'>正确! </span>","null","","","","","","","","","","","","","","","","","","","","","","","","","feedback",""
"","","","","","psychophysics","164","666584","0.0-7.3-0.3-0.73","765","","j","","","","","","","","","","","","","key","j","16.665789473684416","640","396","./1_3_Stimuli/S_ambi40.png","他人","Word","朋友","Mismatch","j","true","Practice",""
"","","","","","html-keyboard-response","165","666885","0.0-7.3-0.3-1.73","null","<span style='color:GreenYellow; font-size: 70px;'>正确! </span>","null","","","","","","","","","","","","","","","","","","","","","","","","","feedback",""
"","","","","","psychophysics","166","668624","0.0-7.3-0.3-0.74","587","","j","","","","","","","","","","","","","key","j","16.66504854368932","640","396","./1_3_Stimuli/T_ambi40.png","自我","Image","他人","Mismatch","j","true","Practice",""
"","","","","","html-keyboard-response","167","668929","0.0-7.3-0.3-1.74","null","<span style='color:GreenYellow; font-size: 70px;'>正确! </span>","null","","","","","","","","","","","","","","","","","","","","","","","","","feedback",""
"","","","","","psychophysics","168","671244","0.0-7.3-0.3-0.75","1160","","f","","","","","","","","","","","","","key","f","16.665217391304687","640","396","./1_3_Stimuli/S_ambi40.png","他人","Image","朋友","Mismatch","j","false","Practice",""
"","","","","","html-keyboard-response","169","671550","0.0-7.3-0.3-1.75","null","<span style='color:red; font-size: 70px;'>错误! </span>","null","","","","","","","","","","","","","","","","","","","","","","","","","feedback",""
"","","","","","psychophysics","170","673425","0.0-7.3-0.3-0.76","717","","j","","","","","","","","","","","","","key","j","16.663963963963546","640","396","./1_3_Stimuli/C_ambi40.png","朋友","Word","自我","Mismatch","j","true","Practice",""
"","","","","","html-keyboard-response","171","673732","0.0-7.3-0.3-1.76","null","<span style='color:GreenYellow; font-size: 70px;'>正确! </span>","null","","","","","","","","","","","","","","","","","","","","","","","","","feedback",""
"","","","","","psychophysics","172","675490","0.0-7.3-0.3-0.77","599","","j","","","","","","","","","","","","","key","j","16.665384615384166","640","396","./1_3_Stimuli/C_ambi40.png","朋友","Image","自我","Mismatch","j","true","Practice",""
"","","","","","html-keyboard-response","173","675796","0.0-7.3-0.3-1.77","null","<span style='color:GreenYellow; font-size: 70px;'>正确! </span>","null","","","","","","","","","","","","","","","","","","","","","","","","","feedback",""
"","","","","","psychophysics","174","677488","0.0-7.3-0.3-0.78","538","","f","","","","","","","","","","","","","key","f","16.665999999999766","640","396","./1_3_Stimuli/C_ambi40.png","自我","Word","自我","Match","f","true","Practice",""
"","","","","","html-keyboard-response","175","677804","0.0-7.3-0.3-1.78","null","<span style='color:GreenYellow; font-size: 70px;'>正确! </span>","null","","","","","","","","","","","","","","","","","","","","","","","","","feedback",""
"","","","","","psychophysics","176","679610","0.0-7.3-0.3-0.79","651","","j","","","","","","","","","","","","","key","j","16.667289719626385","640","396","./1_3_Stimuli/C_ambi40.png","他人","Word","自我","Mismatch","j","true","Practice",""
"","","","","","html-keyboard-response","177","679925","0.0-7.3-0.3-1.79","null","<span style='color:GreenYellow; font-size: 70px;'>正确! </span>","null","","","","","","","","","","","","","","","","","","","","","","","","","feedback",""
"","","","","","psychophysics","178","681837","0.0-7.3-0.3-0.80","761","","j","","","","","","","","","","","","","key","j","16.66637168141634","640","396","./1_3_Stimuli/T_ambi40.png","朋友","Image","他人","Mismatch","j","true","Practice",""
"","","","","","html-keyboard-response","179","682140","0.0-7.3-0.3-1.80","null","<span style='color:GreenYellow; font-size: 70px;'>正确! </span>","null","","","","","","","","","","","","","","","","","","","","","","","","","feedback",""
"","","","","","psychophysics","180","683878","0.0-7.3-0.3-0.81","602","","j","","","","","","","","","","","","","key","j","16.653846153846153","640","396","./1_3_Stimuli/T_ambi40.png","自我","Word","他人","Mismatch","j","true","Practice",""
"","","","","","html-keyboard-response","181","684187","0.0-7.3-0.3-1.81","null","<span style='color:GreenYellow; font-size: 70px;'>正确! </span>","null","","","","","","","","","","","","","","","","","","","","","","","","","feedback",""
"","","","","","psychophysics","182","685953","0.0-7.3-0.3-0.82","613","","j","","","","","","","","","","","","","key","j","16.6657142857134","640","396","./1_3_Stimuli/C_ambi40.png","他人","Image","自我","Mismatch","j","true","Practice",""
"","","","","","html-keyboard-response","183","686260","0.0-7.3-0.3-1.82","null","<span style='color:GreenYellow; font-size: 70px;'>正确! </span>","null","","","","","","","","","","","","","","","","","","","","","","","","","feedback",""
"","","","","","psychophysics","184","688038","0.0-7.3-0.3-0.83","618","","j","","","","","","","","","","","","","key","j","16.666666666666668","640","396","./1_3_Stimuli/S_ambi40.png","自我","Word","朋友","Mismatch","j","true","Practice",""
"","","","","","html-keyboard-response","185","688343","0.0-7.3-0.3-1.83","null","<span style='color:GreenYellow; font-size: 70px;'>正确! </span>","null","","","","","","","","","","","","","","","","","","","","","","","","","feedback",""
"","","","","","psychophysics","186","690222","0.0-7.3-0.3-0.84","724","","f","","","","","","","","","","","","","key","f","16.664864864864235","640","396","./1_3_Stimuli/T_ambi40.png","他人","Word","他人","Match","f","true","Practice",""
"","","","","","html-keyboard-response","187","690526","0.0-7.3-0.3-1.84","null","<span style='color:GreenYellow; font-size: 70px;'>正确! </span>","null","","","","","","","","","","","","","","","","","","","","","","","","","feedback",""
"","","","","","psychophysics","188","692547","0.0-7.3-0.3-0.85","870","","f","","","","","","","","","","","","","key","f","16.666666666666668","640","396","./1_3_Stimuli/S_ambi40.png","朋友","Word","朋友","Match","f","true","Practice",""
"","","","","","html-keyboard-response","189","692861","0.0-7.3-0.3-1.85","null","<span style='color:GreenYellow; font-size: 70px;'>正确! </span>","null","","","","","","","","","","","","","","","","","","","","","","","","","feedback",""
"","","","","","psychophysics","190","694554","0.0-7.3-0.3-0.86","541","","j","","","","","","","","","","","","","key","j","16.666999999999533","640","396","./1_3_Stimuli/T_ambi40.png","他人","Image","他人","Match","f","false","Practice",""
"","","","","","html-keyboard-response","191","694867","0.0-7.3-0.3-1.86","null","<span style='color:red; font-size: 70px;'>错误! </span>","null","","","","","","","","","","","","","","","","","","","","","","","","","feedback",""
"","","","","","psychophysics","192","696489","0.0-7.3-0.3-0.87","465","","f","","","","","","","","","","","","","key","f","16.66562499999903","640","396","./1_3_Stimuli/C_ambi40.png","自我","Word","自我","Match","f","true","Practice",""
"","","","","","html-keyboard-response","193","696804","0.0-7.3-0.3-1.87","null","<span style='color:GreenYellow; font-size: 70px;'>正确! </span>","null","","","","","","","","","","","","","","","","","","","","","","","","","feedback",""
"","","","","","psychophysics","194","698811","0.0-7.3-0.3-0.88","855","","f","","","","","","","","","","","","","key","f","16.665833333333527","640","396","./1_3_Stimuli/S_ambi40.png","朋友","Word","朋友","Match","f","true","Practice",""
"","","","","","html-keyboard-response","195","699128","0.0-7.3-0.3-1.88","null","<span style='color:GreenYellow; font-size: 70px;'>正确! </span>","null","","","","","","","","","","","","","","","","","","","","","","","","","feedback",""
"","","","","","psychophysics","196","700985","0.0-7.3-0.3-0.89","698","","f","","","","","","","","","","","","","key","f","16.66636363636406","640","396","./1_3_Stimuli/S_ambi40.png","朋友","Image","朋友","Match","f","true","Practice",""
"","","","","","html-keyboard-response","197","701300","0.0-7.3-0.3-1.89","null","<span style='color:GreenYellow; font-size: 70px;'>正确! </span>","null","","","","","","","","","","","","","","","","","","","","","","","","","feedback",""
"","","","","","psychophysics","198","703072","0.0-7.3-0.3-0.90","616","","f","","","","","","","","","","","","","key","f","16.665714285714508","640","396","./1_3_Stimuli/T_ambi40.png","他人","Image","他人","Match","f","true","Practice",""
"","","","","","html-keyboard-response","199","703376","0.0-7.3-0.3-1.90","null","<span style='color:GreenYellow; font-size: 70px;'>正确! </span>","null","","","","","","","","","","","","","","","","","","","","","","","","","feedback",""
"","","","","","psychophysics","200","705166","0.0-7.3-0.3-0.91","634","","j","","","","","","","","","","","","","key","j","16.66698113207613","640","396","./1_3_Stimuli/T_ambi40.png","朋友","Word","他人","Mismatch","j","true","Practice",""
"","","","","","html-keyboard-response","201","705481","0.0-7.3-0.3-1.91","null","<span style='color:GreenYellow; font-size: 70px;'>正确! </span>","null","","","","","","","","","","","","","","","","","","","","","","","","","feedback",""
"","","","","","psychophysics","202","707247","0.0-7.3-0.3-0.92","604","","j","","","","","","","","","","","","","key","j","16.665714285714508","640","396","./1_3_Stimuli/S_ambi40.png","自我","Image","朋友","Mismatch","j","true","Practice",""
"","","","","","html-keyboard-response","203","707553","0.0-7.3-0.3-1.92","null","<span style='color:GreenYellow; font-size: 70px;'>正确! </span>","null","","","","","","","","","","","","","","","","","","","","","","","","","feedback",""
"","","","","","psychophysics","204","709407","0.0-7.3-0.3-0.93","699","","j","","","","","","","","","","","","","key","j","16.667272727272938","640","396","./1_3_Stimuli/T_ambi40.png","他人","Word","他人","Match","f","false","Practice",""
"","","","","","html-keyboard-response","205","709720","0.0-7.3-0.3-1.93","null","<span style='color:red; font-size: 70px;'>错误! </span>","null","","","","","","","","","","","","","","","","","","","","","","","","","feedback",""
"","","","","","psychophysics","206","711642","0.0-7.3-0.3-0.94","771","","f","","","","","","","","","","","","","key","f","16.666666666666668","640","396","./1_3_Stimuli/S_ambi40.png","朋友","Image","朋友","Match","f","true","Practice",""
"","","","","","html-keyboard-response","207","711955","0.0-7.3-0.3-1.94","null","<span style='color:GreenYellow; font-size: 70px;'>正确! </span>","null","","","","","","","","","","","","","","","","","","","","","","","","","feedback",""
"","","","","","psychophysics","208","713605","0.0-7.3-0.3-0.95","499","","f","","","","","","","","","","","","","key","f","16.665306122449692","640","396","./1_3_Stimuli/C_ambi40.png","自我","Image","自我","Match","f","true","Practice",""
"","","","","","html-keyboard-response","209","713914","0.0-7.3-0.3-1.95","null","<span style='color:GreenYellow; font-size: 70px;'>正确! </span>","null","","","","","","","","","","","","","","","","","","","","","","","","","feedback",""
"","","","","","html-keyboard-response","210","1000429","0.0-8.0","286592","<style>.context{color:white; font-size: 35px; line-height:40px}</style>                          <div><p class='context'>您正确回答了88% 的试次。</p><p class='context'>您的平均反应时为654毫秒。</p><p class='context'>恭喜您完成练习。现在请休息3~5分钟。</p><p class='context'>之后，按任意键进入正式实验。需要注意的是，正式实验将不再提供反应是否正确的反馈。</p><p class='footer' style='font-size: 35px; line-height:40px;'>请在进入正式实验实验之前将您的<span style='color: lightgreen;'>食指</span>放在电脑键盘的相应键位上进行按键。</p>"," ","","","","","","","","","","","","","","","","","","","","","","","","","",""
"","","","","","psychophysics","211","1002473","0.0-9.0-0.0-0.0","885","","f","","","","","","","","","","","","","key","f","16.66721311475429","640","396","./1_3_Stimuli/T_ambi40.png","他人","Image","他人","Match","f","true","Formal",""
"","","","","","psychophysics","212","1004505","0.0-9.0-0.0-0.1","870","","j","","","","","","","","","","","","","key","j","16.666115702479146","640","396","./1_3_Stimuli/C_ambi40.png","他人","Word","自我","Mismatch","j","true","Formal",""
"","","","","","psychophysics","213","1006525","0.0-9.0-0.0-0.2","850","","f","","","","","","","","","","","","","key","f","16.665833333333527","640","396","./1_3_Stimuli/S_ambi40.png","朋友","Word","朋友","Match","f","true","Formal",""
"","","","","","psychophysics","214","1008512","0.0-9.0-0.0-0.3","830","","j","","","","","","","","","","","","","key","j","16.665254237288135","640","396","./1_3_Stimuli/C_ambi40.png","他人","Image","自我","Mismatch","j","true","Formal",""
"","","","","","psychophysics","215","1010467","0.0-9.0-0.0-0.4","802","","f","","","","","","","","","","","","","key","f","16.666379310345228","640","396","./1_3_Stimuli/S_ambi40.png","朋友","Word","朋友","Match","f","true","Formal",""
"","","","","","psychophysics","216","1012100","0.0-9.0-0.0-0.5","481","","f","","","","","","","","","","","","","key","f","16.66597938144306","640","396","./1_3_Stimuli/C_ambi40.png","自我","Image","自我","Match","f","true","Formal",""
"","","","","","psychophysics","217","1013730","0.0-9.0-0.0-0.6","477","","f","","","","","","","","","","","","","key","f","16.666666666666668","640","396","./1_3_Stimuli/C_ambi40.png","自我","Word","自我","Match","f","true","Formal",""
"","","","","","psychophysics","218","1015677","0.0-9.0-0.0-0.7","791","","j","","","","","","","","","","","","","key","j","16.666379310345228","640","396","./1_3_Stimuli/T_ambi40.png","他人","Image","他人","Match","f","false","Formal",""
"","","","","","psychophysics","219","1017665","0.0-9.0-0.0-0.8","829","","j","","","","","","","","","","","","","key","j","16.665254237288135","640","396","./1_3_Stimuli/T_ambi40.png","朋友","Image","他人","Mismatch","j","true","Formal",""
"","","","","","psychophysics","220","1019399","0.0-9.0-0.0-0.9","580","","j","","","","","","","","","","","","","key","j","16.666990291261683","640","396","./1_3_Stimuli/C_ambi40.png","朋友","Image","自我","Mismatch","j","true","Formal",""
"","","","","","psychophysics","221","1021668","0.0-9.0-0.0-0.10","1115","","j","","","","","","","","","","","","","key","j","16.666417910448107","640","396","./1_3_Stimuli/T_ambi40.png","他人","Word","他人","Match","f","false","Formal",""
"","","","","","psychophysics","222","1023331","0.0-9.0-0.0-0.11","512","","f","","","","","","","","","","","","","key","f","16.66632653061153","640","396","./1_3_Stimuli/S_ambi40.png","自我","Word","朋友","Mismatch","j","false","Formal",""
"","","","","","psychophysics","223","1025081","0.0-9.0-0.0-0.12","595","","j","","","","","","","","","","","","","key","j","16.66634615384548","640","396","./1_3_Stimuli/T_ambi40.png","自我","Word","他人","Mismatch","j","true","Formal",""
"","","","","","psychophysics","224","1026888","0.0-9.0-0.0-0.13","652","","j","","","","","","","","","","","","","key","j","16.667592592593454","640","396","./1_3_Stimuli/S_ambi40.png","自我","Image","朋友","Mismatch","j","true","Formal",""
"","","","","","psychophysics","225","1028857","0.0-9.0-0.0-0.14","806","","j","","","","","","","","","","","","","key","j","16.665811965812164","640","396","./1_3_Stimuli/S_ambi40.png","他人","Word","朋友","Mismatch","j","true","Formal",""
"","","","","","psychophysics","226","1030568","0.0-9.0-0.0-0.15","552","","f","","","","","","","","","","","","","key","f","16.665346534653004","640","396","./1_3_Stimuli/T_ambi40.png","他人","Word","他人","Match","f","true","Formal",""
"","","","","","psychophysics","227","1032476","0.0-9.0-0.0-0.16","757","","f","","","","","","","","","","","","","key","f","16.66637168141634","640","396","./1_3_Stimuli/S_ambi40.png","朋友","Image","朋友","Match","f","true","Formal",""
"","","","","","psychophysics","228","1034190","0.0-9.0-0.0-0.17","555","","f","","","","","","","","","","","","","key","f","16.665686274510033","640","396","./1_3_Stimuli/C_ambi40.png","自我","Word","自我","Match","f","true","Formal",""
"","","","","","psychophysics","229","1036081","0.0-9.0-0.0-0.18","729","","j","","","","","","","","","","","","","key","j","16.666964285714908","640","396","./1_3_Stimuli/S_ambi40.png","他人","Image","朋友","Mismatch","j","true","Formal",""
"","","","","","psychophysics","230","1037934","0.0-9.0-0.0-0.19","698","","f","","","","","","","","","","","","","key","f","16.666363636363002","640","396","./1_3_Stimuli/S_ambi40.png","朋友","Image","朋友","Match","f","true","Formal",""
"","","","","","psychophysics","231","1039730","0.0-9.0-0.0-0.20","645","","j","","","","","","","","","","","","","key","j","16.666037735848835","640","396","./1_3_Stimuli/T_ambi40.png","朋友","Word","他人","Mismatch","j","true","Formal",""
"","","","","","psychophysics","232","1041529","0.0-9.0-0.0-0.21","644","","j","","","","","","","","","","","","","key","j","16.667289719626385","640","396","./1_3_Stimuli/C_ambi40.png","朋友","Word","自我","Mismatch","j","true","Formal",""
"","","","","","psychophysics","233","1043369","0.0-9.0-0.0-0.22","684","","j","","","","","","","","","","","","","key","j","16.667592592592378","640","396","./1_3_Stimuli/T_ambi40.png","自我","Image","他人","Mismatch","j","true","Formal",""
"","","","","","psychophysics","234","1045023","0.0-9.0-0.0-0.23","495","","f","","","","","","","","","","","","","key","f","16.665306122449692","640","396","./1_3_Stimuli/C_ambi40.png","自我","Image","自我","Match","f","true","Formal",""
"","","","","","psychophysics","235","1046633","0.0-9.0-0.0-0.24","457","","f","","","","","","","","","","","","","key","f","16.666315789474176","640","396","./1_3_Stimuli/C_ambi40.png","自我","Word","自我","Match","f","true","Formal",""
"","","","","","psychophysics","236","1048539","0.0-9.0-0.0-0.25","754","","f","","","","","","","","","","","","","key","f","16.66637168141634","640","396","./1_3_Stimuli/S_ambi40.png","朋友","Image","朋友","Match","f","true","Formal",""
"","","","","","psychophysics","237","1050331","0.0-9.0-0.0-0.26","632","","j","","","","","","","","","","","","","key","j","16.666037735849937","640","396","./1_3_Stimuli/S_ambi40.png","他人","Image","朋友","Mismatch","j","true","Formal",""
"","","","","","psychophysics","238","1052047","0.0-9.0-0.0-0.27","563","","j","","","","","","","","","","","","","key","j","16.666666666666668","640","396","./1_3_Stimuli/C_ambi40.png","他人","Image","自我","Mismatch","j","true","Formal",""
"","","","","","psychophysics","239","1053727","0.0-9.0-0.0-0.28","525","","f","","","","","","","","","","","","","key","f","16.665656565657976","640","396","./1_3_Stimuli/C_ambi40.png","自我","Word","自我","Match","f","true","Formal",""
"","","","","","psychophysics","240","1055749","0.0-9.0-0.0-0.29","864","","f","","","","","","","","","","","","","key","f","16.665833333332557","640","396","./1_3_Stimuli/C_ambi40.png","自我","Image","自我","Match","f","true","Formal",""
"","","","","","psychophysics","241","1057585","0.0-9.0-0.0-0.30","684","","j","","","","","","","","","","","","","key","j","16.666972477063794","640","396","./1_3_Stimuli/T_ambi40.png","自我","Image","他人","Mismatch","j","true","Formal",""
"","","","","","psychophysics","242","1059540","0.0-9.0-0.0-0.31","790","","j","","","","","","","","","","","","","key","j","16.664655172414594","640","396","./1_3_Stimuli/T_ambi40.png","朋友","Image","他人","Mismatch","j","true","Formal",""
"","","","","","psychophysics","243","1061264","0.0-9.0-0.0-0.32","583","","f","","","","","","","","","","","","","key","f","16.66601941747437","640","396","./1_3_Stimuli/C_ambi40.png","自我","Image","自我","Match","f","true","Formal",""
"","","","","","psychophysics","244","1063112","0.0-9.0-0.0-0.33","693","","j","","","","","","","","","","","","","key","j","16.66545454545412","640","396","./1_3_Stimuli/C_ambi40.png","他人","Word","自我","Mismatch","j","true","Formal",""
"","","","","","psychophysics","245","1064935","0.0-9.0-0.0-0.34","666","","j","","","","","","","","","","","","","key","j","16.667592592593454","640","396","./1_3_Stimuli/C_ambi40.png","朋友","Word","自我","Mismatch","j","true","Formal",""
"","","","","","psychophysics","246","1066775","0.0-9.0-0.0-0.35","678","","j","","","","","","","","","","","","","key","j","16.666972477063794","640","396","./1_3_Stimuli/S_ambi40.png","自我","Word","朋友","Mismatch","j","true","Formal",""
"","","","","","psychophysics","247","1068640","0.0-9.0-0.0-0.36","704","","j","","","","","","","","","","","","","key","j","16.665765765764927","640","396","./1_3_Stimuli/S_ambi40.png","自我","Image","朋友","Mismatch","j","true","Formal",""
"","","","","","psychophysics","248","1070673","0.0-9.0-0.0-0.37","877","","f","","","","","","","","","","","","","key","f","16.66611570248011","640","396","./1_3_Stimuli/T_ambi40.png","他人","Image","他人","Match","f","true","Formal",""
"","","","","","psychophysics","249","1072316","0.0-9.0-0.0-0.38","479","","f","","","","","","","","","","","","","key","f","16.668041237113883","640","396","./1_3_Stimuli/T_ambi40.png","他人","Word","他人","Match","f","true","Formal",""
"","","","","","psychophysics","250","1074171","0.0-9.0-0.0-0.39","702","","j","","","","","","","","","","","","","key","j","16.666666666666668","640","396","./1_3_Stimuli/C_ambi40.png","朋友","Image","自我","Mismatch","j","true","Formal",""
"","","","","","psychophysics","251","1076004","0.0-9.0-0.0-0.40","669","","j","","","","","","","","","","","","","key","j","16.666055045870277","640","396","./1_3_Stimuli/S_ambi40.png","他人","Word","朋友","Mismatch","j","true","Formal",""
"","","","","","psychophysics","252","1077933","0.0-9.0-0.0-0.41","773","","f","","","","","","","","","","","","","key","f","16.665789473683393","640","396","./1_3_Stimuli/T_ambi40.png","他人","Image","他人","Match","f","true","Formal",""
"","","","","","psychophysics","253","1079644","0.0-9.0-0.0-0.42","558","","f","","","","","","","","","","","","","key","f","16.66633663366383","640","396","./1_3_Stimuli/T_ambi40.png","他人","Word","他人","Match","f","true","Formal",""
"","","","","","psychophysics","254","1081525","0.0-9.0-0.0-0.43","726","","f","","","","","","","","","","","","","key","f","16.66607142857018","640","396","./1_3_Stimuli/S_ambi40.png","朋友","Word","朋友","Match","f","true","Formal",""
"","","","","","psychophysics","255","1083327","0.0-9.0-0.0-0.44","641","","j","","","","","","","","","","","","","key","j","16.666355140185175","640","396","./1_3_Stimuli/T_ambi40.png","朋友","Word","他人","Mismatch","j","true","Formal",""
"","","","","","psychophysics","256","1085114","0.0-9.0-0.0-0.45","629","","f","","","","","","","","","","","","","key","f","16.66509433962264","640","396","./1_3_Stimuli/S_ambi40.png","朋友","Word","朋友","Match","f","true","Formal",""
"","","","","","psychophysics","257","1086937","0.0-9.0-0.0-0.46","669","","j","","","","","","","","","","","","","key","j","16.666666666666668","640","396","./1_3_Stimuli/T_ambi40.png","自我","Word","他人","Mismatch","j","true","Formal",""
"","","","","","psychophysics","258","1089177","0.0-9.0-0.0-0.47","1077","","f","","","","","","","","","","","","","key","f","16.666917293232732","640","396","./1_3_Stimuli/S_ambi40.png","朋友","Image","朋友","Match","f","true","Formal",""
"","","","","","psychophysics","259","1091051","0.0-9.0-0.0-0.48","720","","f","","","","","","","","","","","","","key","f","16.666363636361943","640","396","./1_3_Stimuli/S_ambi40.png","朋友","Image","朋友","Match","f","true","Formal",""
"","","","","","psychophysics","260","1092864","0.0-9.0-0.0-0.49","656","","j","","","","","","","","","","","","","key","j","16.666355140185175","640","396","./1_3_Stimuli/C_ambi40.png","朋友","Word","自我","Mismatch","j","true","Formal",""
"","","","","","psychophysics","261","1094627","0.0-9.0-0.0-0.50","611","","j","","","","","","","","","","","","","key","j","16.666666666666668","640","396","./1_3_Stimuli/C_ambi40.png","朋友","Image","自我","Mismatch","j","true","Formal",""
"","","","","","psychophysics","262","1096680","0.0-9.0-0.0-0.51","899","","j","","","","","","","","","","","","","key","j","16.66639344262333","640","396","./1_3_Stimuli/S_ambi40.png","他人","Image","朋友","Mismatch","j","true","Formal",""
"","","","","","psychophysics","263","1098462","0.0-9.0-0.0-0.52","627","","j","","","","","","","","","","","","","key","j","16.6657142857134","640","396","./1_3_Stimuli/C_ambi40.png","他人","Word","自我","Mismatch","j","true","Formal",""
"","","","","","psychophysics","264","1100147","0.0-9.0-0.0-0.53","529","","j","","","","","","","","","","","","","key","j","16.66600000000093","640","396","./1_3_Stimuli/S_ambi40.png","他人","Word","朋友","Mismatch","j","true","Formal",""
"","","","","","psychophysics","265","1102085","0.0-9.0-0.0-0.54","784","","f","","","","","","","","","","","","","key","f","16.66608695652255","640","396","./1_3_Stimuli/T_ambi40.png","他人","Image","他人","Match","f","true","Formal",""
"","","","","","psychophysics","266","1103864","0.0-9.0-0.0-0.55","624","","f","","","","","","","","","","","","","key","f","16.666666666666668","640","396","./1_3_Stimuli/T_ambi40.png","他人","Image","他人","Match","f","true","Formal",""
"","","","","","psychophysics","267","1105621","0.0-9.0-0.0-0.56","603","","f","","","","","","","","","","","","","key","f","16.664423076923974","640","396","./1_3_Stimuli/C_ambi40.png","自我","Word","自我","Match","f","true","Formal",""
"","","","","","psychophysics","268","1107164","0.0-9.0-0.0-0.57","384","","f","","","","","","","","","","","","","key","f","16.664835164835164","640","396","./1_3_Stimuli/S_ambi40.png","自我","Word","朋友","Mismatch","j","false","Formal",""
"","","","","","psychophysics","269","1108814","0.0-9.0-0.0-0.58","496","","f","","","","","","","","","","","","","key","f","16.66734693877456","640","396","./1_3_Stimuli/C_ambi40.png","自我","Image","自我","Match","f","true","Formal",""
"","","","","","psychophysics","270","1110611","0.0-9.0-0.0-0.59","643","","f","","","","","","","","","","","","","key","f","16.66822429906542","640","396","./1_3_Stimuli/S_ambi40.png","朋友","Word","朋友","Match","f","true","Formal",""
"","","","","","psychophysics","271","1112769","0.0-9.0-0.0-0.60","1002","","f","","","","","","","","","","","","","key","f","16.666406250000364","640","396","./1_3_Stimuli/T_ambi40.png","他人","Word","他人","Match","f","true","Formal",""
"","","","","","psychophysics","272","1114549","0.0-9.0-0.0-0.61","628","","j","","","","","","","","","","","","","key","j","16.667619047619933","640","396","./1_3_Stimuli/T_ambi40.png","朋友","Word","他人","Mismatch","j","true","Formal",""
"","","","","","psychophysics","273","1116708","0.0-9.0-0.0-0.62","1007","","j","","","","","","","","","","","","","key","j","16.66796875","640","396","./1_3_Stimuli/T_ambi40.png","朋友","Image","他人","Mismatch","j","true","Formal",""
"","","","","","psychophysics","274","1118770","0.0-9.0-0.0-0.63","903","","j","","","","","","","","","","","","","key","j","16.665853658535827","640","396","./1_3_Stimuli/C_ambi40.png","他人","Image","自我","Mismatch","j","true","Formal",""
"","","","","","psychophysics","275","1120412","0.0-9.0-0.0-0.64","485","","f","","","","","","","","","","","","","key","f","16.66701030927787","640","396","./1_3_Stimuli/C_ambi40.png","自我","Image","自我","Match","f","true","Formal",""
"","","","","","psychophysics","276","1122164","0.0-9.0-0.0-0.65","614","","j","","","","","","","","","","","","","key","j","16.665714285715616","640","396","./1_3_Stimuli/S_ambi40.png","自我","Image","朋友","Mismatch","j","true","Formal",""
"","","","","","psychophysics","277","1124001","0.0-9.0-0.0-0.66","686","","j","","","","","","","","","","","","","key","j","16.668518518520244","640","396","./1_3_Stimuli/S_ambi40.png","朋友","Image","朋友","Match","f","false","Formal",""
"","","","","","psychophysics","278","1126048","0.0-9.0-0.0-0.67","887","","j","","","","","","","","","","","","","key","j","16.666115702478184","640","396","./1_3_Stimuli/T_ambi40.png","自我","Word","他人","Mismatch","j","true","Formal",""
"","","","","","psychophysics","279","1127960","0.0-9.0-0.0-0.68","759","","f","","","","","","","","","","","","","key","f","16.665486725663303","640","396","./1_3_Stimuli/T_ambi40.png","他人","Word","他人","Match","f","true","Formal",""
"","","","","","psychophysics","280","1129602","0.0-9.0-0.0-0.69","489","","f","","","","","","","","","","","","","key","f","16.66597938144426","640","396","./1_3_Stimuli/C_ambi40.png","自我","Word","自我","Match","f","true","Formal",""
"","","","","","psychophysics","281","1131321","0.0-9.0-0.0-0.70","555","","f","","","","","","","","","","","","","key","f","16.66568627450889","640","396","./1_3_Stimuli/S_ambi40.png","朋友","Word","朋友","Match","f","true","Formal",""
"","","","","","psychophysics","282","1133096","0.0-9.0-0.0-0.71","616","","j","","","","","","","","","","","","","key","j","16.665714285715616","640","396","./1_3_Stimuli/T_ambi40.png","自我","Image","他人","Mismatch","j","true","Formal",""
"","","","","","psychophysics","283","1135358","0.0-9.0-0.0-0.72","1107","","j","","","","","","","","","","","","","key","j","16.6656716417907","640","396","./1_3_Stimuli/T_ambi40.png","朋友","Image","他人","Mismatch","j","true","Formal",""
"","","","","","psychophysics","284","1137024","0.0-9.0-0.0-0.73","505","","f","","","","","","","","","","","","","key","f","16.665656565657976","640","396","./1_3_Stimuli/T_ambi40.png","他人","Word","他人","Match","f","true","Formal",""
"","","","","","psychophysics","285","1138937","0.0-9.0-0.0-0.74","752","","f","","","","","","","","","","","","","key","f","16.666666666666668","640","396","./1_3_Stimuli/C_ambi40.png","朋友","Image","自我","Mismatch","j","false","Formal",""
"","","","","","psychophysics","286","1140603","0.0-9.0-0.0-0.75","514","","f","","","","","","","","","","","","","key","f","16.665656565657976","640","396","./1_3_Stimuli/S_ambi40.png","自我","Image","朋友","Mismatch","j","false","Formal",""
"","","","","","psychophysics","287","1142501","0.0-9.0-0.0-0.76","738","","j","","","","","","","","","","","","","key","j","16.66696428571387","640","396","./1_3_Stimuli/S_ambi40.png","他人","Word","朋友","Mismatch","j","true","Formal",""
"","","","","","psychophysics","288","1144158","0.0-9.0-0.0-0.77","505","","f","","","","","","","","","","","","","key","f","16.665306122448506","640","396","./1_3_Stimuli/C_ambi40.png","自我","Word","自我","Match","f","true","Formal",""
"","","","","","psychophysics","289","1145970","0.0-9.0-0.0-0.78","654","","j","","","","","","","","","","","","","key","j","16.666666666666668","640","396","./1_3_Stimuli/C_ambi40.png","他人","Word","自我","Mismatch","j","true","Formal",""
"","","","","","psychophysics","290","1147977","0.0-9.0-0.0-0.79","852","","f","","","","","","","","","","","","","key","f","16.665546218487005","640","396","./1_3_Stimuli/S_ambi40.png","朋友","Image","朋友","Match","f","true","Formal",""
"","","","","","psychophysics","291","1149647","0.0-9.0-0.0-0.80","513","","j","","","","","","","","","","","","","key","j","16.66734693877456","640","396","./1_3_Stimuli/C_ambi40.png","朋友","Word","自我","Mismatch","j","true","Formal",""
"","","","","","psychophysics","292","1151398","0.0-9.0-0.0-0.81","597","","f","","","","","","","","","","","","","key","f","16.6663461538466","640","396","./1_3_Stimuli/T_ambi40.png","他人","Image","他人","Match","f","true","Formal",""
"","","","","","psychophysics","293","1153201","0.0-9.0-0.0-0.82","649","","j","","","","","","","","","","","","","key","j","16.666037735849937","640","396","./1_3_Stimuli/S_ambi40.png","他人","Image","朋友","Mismatch","j","true","Formal",""
"","","","","","psychophysics","294","1155162","0.0-9.0-0.0-0.83","802","","f","","","","","","","","","","","","","key","f","16.666379310345228","640","396","./1_3_Stimuli/T_ambi40.png","他人","Image","他人","Match","f","true","Formal",""
"","","","","","psychophysics","295","1157253","0.0-9.0-0.0-0.84","934","","f","","","","","","","","","","","","","key","f","16.66559999999963","640","396","./1_3_Stimuli/S_ambi40.png","朋友","Word","朋友","Match","f","true","Formal",""
"","","","","","psychophysics","296","1158934","0.0-9.0-0.0-0.85","528","","f","","","","","","","","","","","","","key","f","16.665","640","396","./1_3_Stimuli/C_ambi40.png","自我","Image","自我","Match","f","true","Formal",""
"","","","","","psychophysics","297","1160727","0.0-9.0-0.0-0.86","630","","j","","","","","","","","","","","","","key","j","16.666037735849937","640","396","./1_3_Stimuli/C_ambi40.png","他人","Image","自我","Mismatch","j","true","Formal",""
"","","","","","psychophysics","298","1162582","0.0-9.0-0.0-0.87","699","","f","","","","","","","","","","","","","key","f","16.66545454545412","640","396","./1_3_Stimuli/T_ambi40.png","他人","Word","他人","Match","f","true","Formal",""
"","","","","","psychophysics","299","1164389","0.0-9.0-0.0-0.88","655","","f","","","","","","","","","","","","","key","f","16.666355140187353","640","396","./1_3_Stimuli/S_ambi40.png","朋友","Word","朋友","Match","f","true","Formal",""
"","","","","","psychophysics","300","1166335","0.0-9.0-0.0-0.89","784","","j","","","","","","","","","","","","","key","j","16.665517241378907","640","396","./1_3_Stimuli/T_ambi40.png","自我","Image","他人","Mismatch","j","true","Formal",""
"","","","","","psychophysics","301","1168522","0.0-9.0-0.0-0.90","1030","","j","","","","","","","","","","","","","key","j","16.666923076922718","640","396","./1_3_Stimuli/S_ambi40.png","朋友","Image","朋友","Match","f","false","Formal",""
"","","","","","psychophysics","302","1170350","0.0-9.0-0.0-0.91","674","","j","","","","","","","","","","","","","key","j","16.665740740739878","640","396","./1_3_Stimuli/T_ambi40.png","自我","Word","他人","Mismatch","j","true","Formal",""
"","","","","","psychophysics","303","1172053","0.0-9.0-0.0-0.92","551","","f","","","","","","","","","","","","","key","f","16.66633663366383","640","396","./1_3_Stimuli/C_ambi40.png","自我","Image","自我","Match","f","true","Formal",""
"","","","","","psychophysics","304","1173977","0.0-9.0-0.0-0.93","760","","j","","","","","","","","","","","","","key","j","16.665789473683393","640","396","./1_3_Stimuli/T_ambi40.png","朋友","Word","他人","Mismatch","j","true","Formal",""
"","","","","","psychophysics","305","1175712","0.0-9.0-0.0-0.94","579","","f","","","","","","","","","","","","","key","f","16.66504854368932","640","396","./1_3_Stimuli/C_ambi40.png","自我","Word","自我","Match","f","true","Formal",""
"","","","","","psychophysics","306","1177397","0.0-9.0-0.0-0.95","531","","j","","","","","","","","","","","","","key","j","16.666999999999533","640","396","./1_3_Stimuli/S_ambi40.png","自我","Word","朋友","Mismatch","j","true","Formal",""
"","","","","","psychophysics","307","1179515","0.0-9.0-0.0-0.96","959","","j","","","","","","","","","","","","","key","j","16.66559999999963","640","396","./1_3_Stimuli/S_ambi40.png","他人","Image","朋友","Mismatch","j","true","Formal",""
"","","","","","psychophysics","308","1181150","0.0-9.0-0.0-0.97","498","","f","","","","","","","","","","","","","key","f","16.66632653061272","640","396","./1_3_Stimuli/T_ambi40.png","他人","Image","他人","Match","f","true","Formal",""
"","","","","","psychophysics","309","1183096","0.0-9.0-0.0-0.98","794","","j","","","","","","","","","","","","","key","j","16.666086956520523","640","396","./1_3_Stimuli/S_ambi40.png","朋友","Image","朋友","Match","f","false","Formal",""
"","","","","","psychophysics","310","1184881","0.0-9.0-0.0-0.99","629","","j","","","","","","","","","","","","","key","j","16.666037735849937","640","396","./1_3_Stimuli/C_ambi40.png","朋友","Word","自我","Mismatch","j","true","Formal",""
"","","","","","psychophysics","311","1186821","0.0-9.0-0.0-0.100","785","","j","","","","","","","","","","","","","key","j","16.66724137930954","640","396","./1_3_Stimuli/S_ambi40.png","自我","Image","朋友","Mismatch","j","true","Formal",""
"","","","","","psychophysics","312","1188628","0.0-9.0-0.0-0.101","648","","j","","","","","","","","","","","","","key","j","16.666355140185175","640","396","./1_3_Stimuli/C_ambi40.png","他人","Word","自我","Mismatch","j","true","Formal",""
"","","","","","psychophysics","313","1190281","0.0-9.0-0.0-0.102","496","","f","","","","","","","","","","","","","key","f","16.665306122448506","640","396","./1_3_Stimuli/C_ambi40.png","自我","Image","自我","Match","f","true","Formal",""
"","","","","","psychophysics","314","1192238","0.0-9.0-0.0-0.103","802","","f","","","","","","","","","","","","","key","f","16.664957264955675","640","396","./1_3_Stimuli/S_ambi40.png","朋友","Word","朋友","Match","f","true","Formal",""
"","","","","","psychophysics","315","1193884","0.0-9.0-0.0-0.104","483","","f","","","","","","","","","","","","","key","f","16.663917525774636","640","396","./1_3_Stimuli/C_ambi40.png","自我","Word","自我","Match","f","true","Formal",""
"","","","","","psychophysics","316","1195550","0.0-9.0-0.0-0.105","515","","j","","","","","","","","","","","","","key","j","16.66632653061272","640","396","./1_3_Stimuli/T_ambi40.png","他人","Word","他人","Match","f","false","Formal",""
"","","","","","psychophysics","317","1197292","0.0-9.0-0.0-0.106","590","","f","","","","","","","","","","","","","key","f","16.667961165046734","640","396","./1_3_Stimuli/T_ambi40.png","他人","Word","他人","Match","f","true","Formal",""
"","","","","","psychophysics","318","1199037","0.0-9.0-0.0-0.107","585","","j","","","","","","","","","","","","","key","j","16.6663461538466","640","396","./1_3_Stimuli/C_ambi40.png","他人","Image","自我","Mismatch","j","true","Formal",""
"","","","","","psychophysics","319","1201300","0.0-9.0-0.0-0.108","1110","","j","","","","","","","","","","","","","key","j","16.6656716417907","640","396","./1_3_Stimuli/S_ambi40.png","他人","Word","朋友","Mismatch","j","true","Formal",""
"","","","","","psychophysics","320","1203022","0.0-9.0-0.0-0.109","571","","j","","","","","","","","","","","","","key","j","16.666666666666668","640","396","./1_3_Stimuli/S_ambi40.png","自我","Word","朋友","Mismatch","j","true","Formal",""
"","","","","","psychophysics","321","1204772","0.0-9.0-0.0-0.110","589","","f","","","","","","","","","","","","","key","f","16.666990291261683","640","396","./1_3_Stimuli/C_ambi40.png","自我","Image","自我","Match","f","true","Formal",""
"","","","","","psychophysics","322","1207067","0.0-9.0-0.0-0.111","1140","","f","","","","","","","","","","","","","key","f","16.66617647058892","640","396","./1_3_Stimuli/T_ambi40.png","他人","Image","他人","Match","f","true","Formal",""
"","","","","","psychophysics","323","1208817","0.0-9.0-0.0-0.112","595","","j","","","","","","","","","","","","","key","j","16.666019417476633","640","396","./1_3_Stimuli/T_ambi40.png","自我","Word","他人","Mismatch","j","true","Formal",""
"","","","","","psychophysics","324","1210695","0.0-9.0-0.0-0.113","725","","j","","","","","","","","","","","","","key","j","16.665765765767024","640","396","./1_3_Stimuli/T_ambi40.png","自我","Image","他人","Mismatch","j","true","Formal",""
"","","","","","psychophysics","325","1212682","0.0-9.0-0.0-0.114","830","","f","","","","","","","","","","","","","key","f","16.666101694916044","640","396","./1_3_Stimuli/S_ambi40.png","朋友","Image","朋友","Match","f","true","Formal",""
"","","","","","psychophysics","326","1214282","0.0-9.0-0.0-0.115","448","","f","","","","","","","","","","","","","key","f","16.667368421054103","640","396","./1_3_Stimuli/S_ambi40.png","朋友","Word","朋友","Match","f","true","Formal",""
"","","","","","psychophysics","327","1215998","0.0-9.0-0.0-0.116","564","","j","","","","","","","","","","","","","key","j","16.66633663366383","640","396","./1_3_Stimuli/C_ambi40.png","朋友","Image","自我","Mismatch","j","true","Formal",""
"","","","","","psychophysics","328","1217897","0.0-9.0-0.0-0.117","746","","j","","","","","","","","","","","","","key","j","16.665486725665364","640","396","./1_3_Stimuli/T_ambi40.png","朋友","Word","他人","Mismatch","j","true","Formal",""
"","","","","","psychophysics","329","1219492","0.0-9.0-0.0-0.118","443","","f","","","","","","","","","","","","","key","f","16.667021276597726","640","396","./1_3_Stimuli/C_ambi40.png","自我","Word","自我","Match","f","true","Formal",""
"","","","","","psychophysics","330","1221484","0.0-9.0-0.0-0.119","833","","j","","","","","","","","","","","","","key","j","16.665254237288135","640","396","./1_3_Stimuli/T_ambi40.png","朋友","Image","他人","Mismatch","j","true","Formal",""
"","","","","","html-keyboard-response","331","1227612","0.0-9.0-1.0","6125","<style>.context{color:white; font-size: 35px; line-height:40px}</style>                        <div><p class='context'>您正确回答了92% 的试次。</p><p class='context'>您的平均反应时为684毫秒。</p><p> <div style = 'color: green'><按任意键进入休息></div></p>"," ","","","","","","","","","","","","","","","","","","","","","","","","","",""
"","","","","","html-button-response","332","1312485","0.0-9.0-2.0","84901","
                  <p>您当前还剩余5组实验</p>
                  <p>现在是休息时间，当您结束休息后，您可以点击 结束休息 按钮 继续</p>
                  <p>建议休息时间还剩余<span id=""iii"">60</span>秒</p>","0","","","","","","","","","","","","","","","","","","","","","","","","","",""
"","","","","","psychophysics","333","1314320","0.0-9.0-0.1-0.120","677","","j","","","","","","","","","","","","","key","j","16.665137614678898","640","396","./1_3_Stimuli/C_ambi40.png","朋友","Image","自我","Mismatch","j","true","Formal",""
"","","","","","psychophysics","334","1316372","0.0-9.0-0.1-0.121","900","","j","","","","","","","","","","","","","key","j","16.66639344262333","640","396","./1_3_Stimuli/T_ambi40.png","朋友","Image","他人","Mismatch","j","true","Formal",""
"","","","","","psychophysics","335","1318052","0.0-9.0-0.1-0.122","529","","f","","","","","","","","","","","","","key","f","16.665","640","396","./1_3_Stimuli/S_ambi40.png","朋友","Word","朋友","Match","f","true","Formal",""
"","","","","","psychophysics","336","1319671","0.0-9.0-0.1-0.123","462","","f","","","","","","","","","","","","","key","f","16.66562499999903","640","396","./1_3_Stimuli/C_ambi40.png","自我","Word","自我","Match","f","true","Formal",""
"","","","","","psychophysics","337","1321580","0.0-9.0-0.1-0.124","748","","f","","","","","","","","","","","","","key","f","16.66637168141634","640","396","./1_3_Stimuli/T_ambi40.png","他人","Image","他人","Match","f","true","Formal",""
"","","","","","psychophysics","338","1323082","0.0-9.0-0.1-0.125","351","","f","","","","","","","","","","","","","key","f","16.667045454544926","640","396","./1_3_Stimuli/T_ambi40.png","他人","Word","他人","Match","f","true","Formal",""
"","","","","","psychophysics","339","1324813","0.0-9.0-0.1-0.126","578","","j","","","","","","","","","","","","","key","j","16.6647058823534","640","396","./1_3_Stimuli/T_ambi40.png","朋友","Word","他人","Mismatch","j","true","Formal",""
"","","","","","psychophysics","340","1326467","0.0-9.0-0.1-0.127","502","","f","","","","","","","","","","","","","key","f","16.66632653061272","640","396","./1_3_Stimuli/C_ambi40.png","自我","Word","自我","Match","f","true","Formal",""
"","","","","","psychophysics","341","1328185","0.0-9.0-0.1-0.128","560","","f","","","","","","","","","","","","","key","f","16.66568627450889","640","396","./1_3_Stimuli/C_ambi40.png","自我","Image","自我","Match","f","true","Formal",""
"","","","","","psychophysics","342","1330067","0.0-9.0-0.1-0.129","727","","j","","","","","","","","","","","","","key","j","16.66607142857226","640","396","./1_3_Stimuli/S_ambi40.png","他人","Image","朋友","Mismatch","j","true","Formal",""
"","","","","","psychophysics","343","1331851","0.0-9.0-0.1-0.130","632","","f","","","","","","","","","","","","","key","f","16.667924528302326","640","396","./1_3_Stimuli/S_ambi40.png","朋友","Image","朋友","Match","f","true","Formal",""
"","","","","","psychophysics","344","1333499","0.0-9.0-0.1-0.131","484","","f","","","","","","","","","","","","","key","f","16.665306122448506","640","396","./1_3_Stimuli/C_ambi40.png","自我","Image","自我","Match","f","true","Formal",""
"","","","","","psychophysics","345","1335261","0.0-9.0-0.1-0.132","597","","f","","","","","","","","","","","","","key","f","16.666346153844362","640","396","./1_3_Stimuli/T_ambi40.png","他人","Image","他人","Match","f","true","Formal",""
"","","","","","psychophysics","346","1337016","0.0-9.0-0.1-0.133","602","","j","","","","","","","","","","","","","key","j","16.6657142857134","640","396","./1_3_Stimuli/S_ambi40.png","他人","Word","朋友","Mismatch","j","true","Formal",""
"","","","","","psychophysics","347","1338960","0.0-9.0-0.1-0.134","779","","j","","","","","","","","","","","","","key","j","16.666956521738726","640","396","./1_3_Stimuli/T_ambi40.png","自我","Image","他人","Mismatch","j","true","Formal",""
"","","","","","psychophysics","348","1340835","0.0-9.0-0.1-0.135","721","","j","","","","","","","","","","","","","key","j","16.66607142857226","640","396","./1_3_Stimuli/C_ambi40.png","朋友","Word","自我","Mismatch","j","true","Formal",""
"","","","","","psychophysics","349","1342737","0.0-9.0-0.1-0.136","739","","j","","","","","","","","","","","","","key","j","16.66637168141634","640","396","./1_3_Stimuli/C_ambi40.png","他人","Word","自我","Mismatch","j","true","Formal",""
"","","","","","psychophysics","350","1344574","0.0-9.0-0.1-0.137","683","","j","","","","","","","","","","","","","key","j","16.666055045870277","640","396","./1_3_Stimuli/S_ambi40.png","自我","Image","朋友","Mismatch","j","true","Formal",""
"","","","","","psychophysics","351","1346750","0.0-9.0-0.1-0.138","1019","","f","","","","","","","","","","","","","key","f","16.66615384615456","640","396","./1_3_Stimuli/S_ambi40.png","朋友","Image","朋友","Match","f","true","Formal",""
"","","","","","psychophysics","352","1348455","0.0-9.0-0.1-0.139","546","","j","","","","","","","","","","","","","key","j","16.665346534653004","640","396","./1_3_Stimuli/S_ambi40.png","自我","Word","朋友","Mismatch","j","true","Formal",""
"","","","","","psychophysics","353","1350220","0.0-9.0-0.1-0.140","611","","j","","","","","","","","","","","","","key","j","16.6657142857134","640","396","./1_3_Stimuli/T_ambi40.png","自我","Word","他人","Mismatch","j","true","Formal",""
"","","","","","psychophysics","354","1352555","0.0-9.0-0.1-0.141","1175","","j","","","","","","","","","","","","","key","j","16.66618705036038","640","396","./1_3_Stimuli/T_ambi40.png","他人","Word","他人","Match","f","false","Formal",""
"","","","","","psychophysics","355","1354722","0.0-9.0-0.1-0.142","1013","","f","","","","","","","","","","","","","key","f","16.665891472867497","640","396","./1_3_Stimuli/S_ambi40.png","朋友","Word","朋友","Match","f","true","Formal",""
"","","","","","psychophysics","356","1356477","0.0-9.0-0.1-0.143","596","","j","","","","","","","","","","","","","key","j","16.665384615384166","640","396","./1_3_Stimuli/C_ambi40.png","他人","Image","自我","Mismatch","j","true","Formal",""
"","","","","","psychophysics","357","1358249","0.0-9.0-0.1-0.144","619","","j","","","","","","","","","","","","","key","j","16.665714285715616","640","396","./1_3_Stimuli/C_ambi40.png","朋友","Word","自我","Mismatch","j","true","Formal",""
"","","","","","psychophysics","358","1360184","0.0-9.0-0.1-0.145","771","","j","","","","","","","","","","","","","key","j","16.666956521738726","640","396","./1_3_Stimuli/C_ambi40.png","朋友","Image","自我","Mismatch","j","true","Formal",""
"","","","","","psychophysics","359","1361907","0.0-9.0-0.1-0.146","568","","f","","","","","","","","","","","","","key","f","16.66568627450889","640","396","./1_3_Stimuli/C_ambi40.png","自我","Image","自我","Match","f","true","Formal",""
"","","","","","psychophysics","360","1363585","0.0-9.0-0.1-0.147","524","","f","","","","","","","","","","","","","key","f","16.66600000000093","640","396","./1_3_Stimuli/S_ambi40.png","朋友","Image","朋友","Match","f","true","Formal",""
"","","","","","psychophysics","361","1365371","0.0-9.0-0.1-0.148","625","","f","","","","","","","","","","","","","key","f","16.666037735849937","640","396","./1_3_Stimuli/T_ambi40.png","他人","Word","他人","Match","f","true","Formal",""
"","","","","","psychophysics","362","1367242","0.0-9.0-0.1-0.149","712","","j","","","","","","","","","","","","","key","j","16.665765765764927","640","396","./1_3_Stimuli/T_ambi40.png","朋友","Word","他人","Mismatch","j","true","Formal",""
"","","","","","psychophysics","363","1368855","0.0-9.0-0.1-0.150","459","","f","","","","","","","","","","","","","key","f","16.666315789474176","640","396","./1_3_Stimuli/C_ambi40.png","自我","Word","自我","Match","f","true","Formal",""
"","","","","","psychophysics","364","1370575","0.0-9.0-0.1-0.151","568","","j","","","","","","","","","","","","","key","j","16.667647058824443","640","396","./1_3_Stimuli/S_ambi40.png","自我","Word","朋友","Mismatch","j","true","Formal",""
"","","","","","psychophysics","365","1372584","0.0-9.0-0.1-0.152","869","","j","","","","","","","","","","","","","key","j","16.665833333332557","640","396","./1_3_Stimuli/C_ambi40.png","他人","Image","自我","Mismatch","j","true","Formal",""
"","","","","","psychophysics","366","1374240","0.0-9.0-0.1-0.153","494","","f","","","","","","","","","","","","","key","f","16.66632653061272","640","396","./1_3_Stimuli/C_ambi40.png","自我","Image","自我","Match","f","true","Formal",""
"","","","","","psychophysics","367","1376065","0.0-9.0-0.1-0.154","667","","f","","","","","","","","","","","","","key","f","16.665740740739878","640","396","./1_3_Stimuli/T_ambi40.png","他人","Word","他人","Match","f","true","Formal",""
"","","","","","psychophysics","368","1377758","0.0-9.0-0.1-0.155","541","","j","","","","","","","","","","","","","key","j","16.666999999999533","640","396","./1_3_Stimuli/T_ambi40.png","朋友","Image","他人","Mismatch","j","true","Formal",""
"","","","","","psychophysics","369","1379573","0.0-9.0-0.1-0.156","657","","f","","","","","","","","","","","","","key","f","16.6672897196253","640","396","./1_3_Stimuli/S_ambi40.png","朋友","Word","朋友","Match","f","true","Formal",""
"","","","","","psychophysics","370","1381570","0.0-9.0-0.1-0.157","843","","j","","","","","","","","","","","","","key","j","16.66638655462224","640","396","./1_3_Stimuli/T_ambi40.png","他人","Image","他人","Match","f","false","Formal",""
"","","","","","psychophysics","371","1383470","0.0-9.0-0.1-0.158","738","","f","","","","","","","","","","","","","key","f","16.667256637169377","640","396","./1_3_Stimuli/S_ambi40.png","朋友","Word","朋友","Match","f","true","Formal",""
"","","","","","psychophysics","372","1385251","0.0-9.0-0.1-0.159","625","","j","","","","","","","","","","","","","key","j","16.666037735849937","640","396","./1_3_Stimuli/T_ambi40.png","自我","Image","他人","Mismatch","j","true","Formal",""
"","","","","","psychophysics","373","1387028","0.0-9.0-0.1-0.160","623","","j","","","","","","","","","","","","","key","j","16.665714285715616","640","396","./1_3_Stimuli/S_ambi40.png","自我","Image","朋友","Mismatch","j","true","Formal",""
"","","","","","psychophysics","374","1389040","0.0-9.0-0.1-0.161","859","","f","","","","","","","","","","","","","key","f","16.666666666666668","640","396","./1_3_Stimuli/S_ambi40.png","他人","Image","朋友","Mismatch","j","false","Formal",""
"","","","","","psychophysics","375","1390805","0.0-9.0-0.1-0.162","608","","j","","","","","","","","","","","","","key","j","16.6663461538466","640","396","./1_3_Stimuli/T_ambi40.png","自我","Word","他人","Mismatch","j","true","Formal",""
"","","","","","psychophysics","376","1392629","0.0-9.0-0.1-0.163","668","","f","","","","","","","","","","","","","key","f","16.665740740739878","640","396","./1_3_Stimuli/C_ambi40.png","自我","Word","自我","Match","f","true","Formal",""
"","","","","","psychophysics","377","1394427","0.0-9.0-0.1-0.164","646","","j","","","","","","","","","","","","","key","j","16.666037735849937","640","396","./1_3_Stimuli/C_ambi40.png","他人","Word","自我","Mismatch","j","true","Formal",""
"","","","","","psychophysics","378","1396443","0.0-9.0-0.1-0.165","863","","f","","","","","","","","","","","","","key","f","16.664999999998447","640","396","./1_3_Stimuli/T_ambi40.png","他人","Image","他人","Match","f","true","Formal",""
"","","","","","psychophysics","379","1398203","0.0-9.0-0.1-0.166","603","","f","","","","","","","","","","","","","key","f","16.665384615386408","640","396","./1_3_Stimuli/S_ambi40.png","朋友","Image","朋友","Match","f","true","Formal",""
"","","","","","psychophysics","380","1400016","0.0-9.0-0.1-0.167","657","","j","","","","","","","","","","","","","key","j","16.666666666666668","640","396","./1_3_Stimuli/S_ambi40.png","他人","Word","朋友","Mismatch","j","true","Formal",""
"","","","","","psychophysics","381","1401735","0.0-9.0-0.1-0.168","554","","f","","","","","","","","","","","","","key","f","16.66764705882216","640","396","./1_3_Stimuli/C_ambi40.png","自我","Word","自我","Match","f","true","Formal",""
"","","","","","psychophysics","382","1403770","0.0-9.0-0.1-0.169","873","","j","","","","","","","","","","","","","key","j","16.66694214876187","640","396","./1_3_Stimuli/S_ambi40.png","朋友","Word","朋友","Match","f","false","Formal",""
"","","","","","psychophysics","383","1405341","0.0-9.0-0.1-0.170","418","","f","","","","","","","","","","","","","key","f","16.666666666666668","640","396","./1_3_Stimuli/C_ambi40.png","自我","Image","自我","Match","f","true","Formal",""
"","","","","","psychophysics","384","1407015","0.0-9.0-0.1-0.171","518","","j","","","","","","","","","","","","","key","j","16.665999999998604","640","396","./1_3_Stimuli/T_ambi40.png","朋友","Word","他人","Mismatch","j","true","Formal",""
"","","","","","psychophysics","385","1408883","0.0-9.0-0.1-0.172","715","","j","","","","","","","","","","","","","key","j","16.665765765764927","640","396","./1_3_Stimuli/S_ambi40.png","他人","Image","朋友","Mismatch","j","true","Formal",""
"","","","","","psychophysics","386","1410532","0.0-9.0-0.1-0.173","491","","f","","","","","","","","","","","","","key","f","16.665306122448506","640","396","./1_3_Stimuli/C_ambi40.png","自我","Word","自我","Match","f","true","Formal",""
"","","","","","psychophysics","387","1412253","0.0-9.0-0.1-0.174","557","","f","","","","","","","","","","","","","key","f","16.66764705882216","640","396","./1_3_Stimuli/S_ambi40.png","朋友","Image","朋友","Match","f","true","Formal",""
"","","","","","psychophysics","388","1414117","0.0-9.0-0.1-0.175","704","","j","","","","","","","","","","","","","key","j","16.666666666666668","640","396","./1_3_Stimuli/C_ambi40.png","他人","Image","自我","Mismatch","j","true","Formal",""
"","","","","","psychophysics","389","1415924","0.0-9.0-0.1-0.176","645","","j","","","","","","","","","","","","","key","j","16.6672897196253","640","396","./1_3_Stimuli/S_ambi40.png","自我","Word","朋友","Mismatch","j","true","Formal",""
"","","","","","psychophysics","390","1417768","0.0-9.0-0.1-0.177","688","","j","","","","","","","","","","","","","key","j","16.66636363636406","640","396","./1_3_Stimuli/T_ambi40.png","自我","Image","他人","Mismatch","j","true","Formal",""
"","","","","","psychophysics","391","1419643","0.0-9.0-0.1-0.178","722","","j","","","","","","","","","","","","","key","j","16.666666666666668","640","396","./1_3_Stimuli/T_ambi40.png","朋友","Image","他人","Mismatch","j","true","Formal",""
"","","","","","psychophysics","392","1421308","0.0-9.0-0.1-0.179","512","","f","","","","","","","","","","","","","key","f","16.665656565657976","640","396","./1_3_Stimuli/T_ambi40.png","他人","Word","他人","Match","f","true","Formal",""
"","","","","","psychophysics","393","1422969","0.0-9.0-0.1-0.180","506","","f","","","","","","","","","","","","","key","f","16.665656565655624","640","396","./1_3_Stimuli/T_ambi40.png","他人","Image","他人","Match","f","true","Formal",""
"","","","","","psychophysics","394","1424488","0.0-9.0-0.1-0.181","359","","f","","","","","","","","","","","","","key","f","16.666666666666668","640","396","./1_3_Stimuli/S_ambi40.png","他人","Word","朋友","Mismatch","j","false","Formal",""
"","","","","","psychophysics","395","1426387","0.0-9.0-0.1-0.182","746","","j","","","","","","","","","","","","","key","j","16.665486725663303","640","396","./1_3_Stimuli/C_ambi40.png","朋友","Word","自我","Mismatch","j","true","Formal",""
"","","","","","psychophysics","396","1428169","0.0-9.0-0.1-0.183","630","","j","","","","","","","","","","","","","key","j","16.666981132075033","640","396","./1_3_Stimuli/S_ambi40.png","朋友","Image","朋友","Match","f","false","Formal",""
"","","","","","psychophysics","397","1430457","0.0-9.0-0.1-0.184","1129","","f","","","","","","","","","","","","","key","f","16.66691176470725","640","396","./1_3_Stimuli/T_ambi40.png","他人","Image","他人","Match","f","true","Formal",""
"","","","","","psychophysics","398","1432157","0.0-9.0-0.1-0.185","543","","j","","","","","","","","","","","","","key","j","16.66633663366383","640","396","./1_3_Stimuli/T_ambi40.png","自我","Word","他人","Mismatch","j","true","Formal",""
"","","","","","psychophysics","399","1433922","0.0-9.0-0.1-0.186","625","","f","","","","","","","","","","","","","key","f","16.666037735847738","640","396","./1_3_Stimuli/C_ambi40.png","自我","Image","自我","Match","f","true","Formal",""
"","","","","","psychophysics","400","1435606","0.0-9.0-0.1-0.187","526","","j","","","","","","","","","","","","","key","j","16.66600000000093","640","396","./1_3_Stimuli/C_ambi40.png","朋友","Image","自我","Mismatch","j","true","Formal",""
"","","","","","psychophysics","401","1437360","0.0-9.0-0.1-0.188","602","","f","","","","","","","","","","","","","key","f","16.6663461538466","640","396","./1_3_Stimuli/T_ambi40.png","他人","Word","他人","Match","f","true","Formal",""
"","","","","","psychophysics","402","1439216","0.0-9.0-0.1-0.189","703","","j","","","","","","","","","","","","","key","j","16.666666666666668","640","396","./1_3_Stimuli/S_ambi40.png","自我","Image","朋友","Mismatch","j","true","Formal",""
"","","","","","psychophysics","403","1441036","0.0-9.0-0.1-0.190","663","","j","","","","","","","","","","","","","key","j","16.665740740739878","640","396","./1_3_Stimuli/C_ambi40.png","他人","Word","自我","Mismatch","j","true","Formal",""
"","","","","","psychophysics","404","1442782","0.0-9.0-0.1-0.191","592","","f","","","","","","","","","","","","","key","f","16.665384615386408","640","396","./1_3_Stimuli/S_ambi40.png","朋友","Word","朋友","Match","f","true","Formal",""
"","","","","","psychophysics","405","1444906","0.0-9.0-0.1-0.192","969","","j","","","","","","","","","","","","","key","j","16.666666666666668","640","396","./1_3_Stimuli/T_ambi40.png","他人","Word","他人","Match","f","false","Formal",""
"","","","","","psychophysics","406","1446594","0.0-9.0-0.1-0.193","530","","f","","","","","","","","","","","","","key","f","16.667000000001863","640","396","./1_3_Stimuli/C_ambi40.png","自我","Word","自我","Match","f","true","Formal",""
"","","","","","psychophysics","407","1448239","0.0-9.0-0.1-0.194","493","","f","","","","","","","","","","","","","key","f","16.66597938144426","640","396","./1_3_Stimuli/C_ambi40.png","自我","Image","自我","Match","f","true","Formal",""
"","","","","","psychophysics","408","1450010","0.0-9.0-0.1-0.195","615","","j","","","","","","","","","","","","","key","j","16.6657142857134","640","396","./1_3_Stimuli/S_ambi40.png","自我","Word","朋友","Mismatch","j","true","Formal",""
"","","","","","psychophysics","409","1451824","0.0-9.0-0.1-0.196","662","","f","","","","","","","","","","","","","key","f","16.667592592593454","640","396","./1_3_Stimuli/C_ambi40.png","自我","Word","自我","Match","f","true","Formal",""
"","","","","","psychophysics","410","1454002","0.0-9.0-0.1-0.197","1021","","f","","","","","","","","","","","","","key","f","16.665384615384614","640","396","./1_3_Stimuli/S_ambi40.png","他人","Image","朋友","Mismatch","j","false","Formal",""
"","","","","","psychophysics","411","1455767","0.0-9.0-0.1-0.198","612","","f","","","","","","","","","","","","","key","f","16.6657142857134","640","396","./1_3_Stimuli/S_ambi40.png","朋友","Word","朋友","Match","f","true","Formal",""
"","","","","","psychophysics","412","1457567","0.0-9.0-0.1-0.199","637","","j","","","","","","","","","","","","","key","j","16.6672897196253","640","396","./1_3_Stimuli/S_ambi40.png","他人","Word","朋友","Mismatch","j","true","Formal",""
"","","","","","psychophysics","413","1459375","0.0-9.0-0.1-0.200","645","","j","","","","","","","","","","","","","key","j","16.66542056074723","640","396","./1_3_Stimuli/T_ambi40.png","自我","Word","他人","Mismatch","j","true","Formal",""
"","","","","","psychophysics","414","1461405","0.0-9.0-0.1-0.201","877","","f","","","","","","","","","","","","","key","f","16.666115702478184","640","396","./1_3_Stimuli/S_ambi40.png","朋友","Image","朋友","Match","f","true","Formal",""
"","","","","","psychophysics","415","1463035","0.0-9.0-0.1-0.202","471","","f","","","","","","","","","","","","","key","f","16.66701030927787","640","396","./1_3_Stimuli/S_ambi40.png","朋友","Image","朋友","Match","f","true","Formal",""
