"success","timeout","failed_images","failed_audio","failed_video","trial_type","trial_index","time_elapsed","internal_node_id","rt","stimulus","response","value","item_width_mm","item_height_mm","item_width_px","px2mm","view_dist_mm","item_width_deg","px2deg","scale_factor","win_width_deg","win_height_deg","view_history","response_type","key_press","avg_frame_time","center_x","center_y","image","word","target","valence","matchness","correct_response","correct","exp_condition","question_order"
"true","false","[]","[]","[]","preload","0","566","0.0-0.0","","","","","","","","","","","","","","","","","","","","","","","","","","","","",""
"","","","","","html-keyboard-response","1","7306","0.0-1.0","6739","
     <p>您好，欢迎参加本次实验。</p>
     <p>为充分保障您的权利，请确保您已经知晓并同意《参与实验同意书》以及《数据公开知情同意书》。</p>
     <p>如果您未见过上述内容，请咨询实验员。</p>
     <p>如果您选择继续实验，则表示您已经清楚两份知情同意书的内容并同意。</p>
     <p> <div style = ""color: green""><按任意键至下页></div> </p>
     "," ","","","","","","","","","","","","","","","","","","","","","","","","","",""
"","","","","","html-keyboard-response","2","8683","0.0-2.0-0.0","1377","
      <p>本实验首先需要您填写一些基本个人信息。</p>
      <p> <div style = ""color: green""><按任意键至下页></div></p>
      "," ","","","","","","","","","","","","","","","","","","","","","","","","","",""
"","","","","","call-function","3","8685","0.0-2.0-1.0","","","","","","","","","","","","","","","","","","","","","","","","","","","","",""
"","","","","","survey-html-form","4","18486","0.0-2.0-2.0","9799","","{""Q0"":""1035""}","","","","","","","","","","","","","","","","","","","","","","","","","",""
"","","","","","html-button-response","5","20030","0.0-2.0-3.0","1543","<p style = 'color : white'>您的性别</p>","1","","","","","","","","","","","","","","","","","","","","","","","","","",""
"","","","","","survey-html-form","6","26548","0.0-2.0-4.0","6517","","{""Q0"":""2003""}","","","","","","","","","","","","","","","","","","","","","","","","","",""
"","","","","","survey-html-form","7","30870","0.0-2.0-5.0","4322","","{""Q0"":""5""}","","","","","","","","","","","","","","","","","","","","","","","","","",""
"","","","","","virtual-chinrest","8","156047","0.0-3.0","125176","","","","85.6","53.98","473.9574936818218","5.536886608432497","516.22","9.479149873636436","50","0.9030345668240999","33.18","18.9","","","","","","","","","","","","","","",""
"true","","","","","fullscreen","9","159348","0.0-4.0","","","","","","","","","","","","","","","","","","","","","","","","","","","","",""
"","","","","","instructions","10","214350","0.0-5.0","55001","","","","","","","","","","","","","","[{""page_index"":0,""viewing_time"":4482},{""page_index"":1,""viewing_time"":33790},{""page_index"":2,""viewing_time"":12747},{""page_index"":3,""viewing_time"":3982}]","","","","","","","","","","","","","",""
"","","","","","html-keyboard-response","11","218009","0.0-6.0","null","<count-down title=""""></count-down>","null","","","","","","","","","","","","","","","","","","","","","","","","","",""
"","","","","","psychophysics","12","220742","0.0-7.0-0.0-0.0","null","","null","","","","","","","","","","","","","key","null","16.667654320987676","853.3333333333334","529.3333333333334","./1_3_Stimuli/T_ambi40.png","自我","Image","自我","Match","j","false","Practice",""
"","","","","","html-keyboard-response","13","221076","0.0-7.0-0.0-1.0","null","<span class='add_' style='color:yellow; font-size: 70px;'> 太慢! </span>","null","","","","","","","","","","","","","","","","","","","","","","","","","feedback",""
"","","","","","psychophysics","14","222971","0.0-7.0-0.0-0.1","729","","f","","","","","","","","","","","","","key","f","16.665937499999927","853.3333333333334","529.3333333333334","./1_3_Stimuli/S_ambi40.png","自我","Word","他人","Mismatch","f","true","Practice",""
"","","","","","html-keyboard-response","15","223281","0.0-7.0-0.0-1.1","null","<span style='color:GreenYellow; font-size: 70px;'>正确! </span>","null","","","","","","","","","","","","","","","","","","","","","","","","","feedback",""
"","","","","","psychophysics","16","225206","0.0-7.0-0.0-0.2","765","","j","","","","","","","","","","","","","key","j","16.664166666666635","853.3333333333334","529.3333333333334","./1_3_Stimuli/C_ambi40.png","他人","Image","朋友","Mismatch","f","false","Practice",""
"","","","","","html-keyboard-response","17","225514","0.0-7.0-0.0-1.2","null","<span style='color:red; font-size: 70px;'>错误! </span>","null","","","","","","","","","","","","","","","","","","","","","","","","","feedback",""
"","","","","","psychophysics","18","227091","0.0-7.0-0.0-0.3","422","","f","","","","","","","","","","","","","key","f","16.666516129032306","853.3333333333334","529.3333333333334","./1_3_Stimuli/T_ambi40.png","朋友","Word","自我","Mismatch","f","true","Practice",""
"","","","","","html-keyboard-response","19","227400","0.0-7.0-0.0-1.3","null","<span style='color:GreenYellow; font-size: 70px;'>正确! </span>","null","","","","","","","","","","","","","","","","","","","","","","","","","feedback",""
"","","","","","psychophysics","20","229090","0.0-7.0-0.0-0.4","520","","j","","","","","","","","","","","","","key","j","16.667589999999908","853.3333333333334","529.3333333333334","./1_3_Stimuli/S_ambi40.png","他人","Word","他人","Match","j","true","Practice",""
"","","","","","html-keyboard-response","21","229399","0.0-7.0-0.0-1.4","null","<span style='color:GreenYellow; font-size: 70px;'>正确! </span>","null","","","","","","","","","","","","","","","","","","","","","","","","","feedback",""
"","","","","","psychophysics","22","231023","0.0-7.0-0.0-0.5","464","","f","","","","","","","","","","","","","key","f","16.663437500000025","853.3333333333334","529.3333333333334","./1_3_Stimuli/T_ambi40.png","他人","Word","自我","Mismatch","f","true","Practice",""
"","","","","","html-keyboard-response","23","231327","0.0-7.0-0.0-1.5","null","<span style='color:GreenYellow; font-size: 70px;'>正确! </span>","null","","","","","","","","","","","","","","","","","","","","","","","","","feedback",""
"","","","","","psychophysics","24","232888","0.0-7.0-0.0-0.6","394","","j","","","","","","","","","","","","","key","j","16.665793478260838","853.3333333333334","529.3333333333334","./1_3_Stimuli/C_ambi40.png","他人","Word","朋友","Mismatch","f","false","Practice",""
"","","","","","html-keyboard-response","25","233192","0.0-7.0-0.0-1.6","null","<span style='color:red; font-size: 70px;'>错误! </span>","null","","","","","","","","","","","","","","","","","","","","","","","","","feedback",""
"","","","","","psychophysics","26","234675","0.0-7.0-0.0-0.7","320","","f","","","","","","","","","","","","","key","f","16.667620689654992","853.3333333333334","529.3333333333334","./1_3_Stimuli/T_ambi40.png","自我","Word","自我","Match","j","false","Practice",""
"","","","","","html-keyboard-response","27","234978","0.0-7.0-0.0-1.7","null","<span style='color:red; font-size: 70px;'>错误! </span>","null","","","","","","","","","","","","","","","","","","","","","","","","","feedback",""
"","","","","","psychophysics","28","236682","0.0-7.0-0.0-0.8","553","","f","","","","","","","","","","","","","key","f","16.663940594059596","853.3333333333334","529.3333333333334","./1_3_Stimuli/S_ambi40.png","他人","Image","他人","Match","j","false","Practice",""
"","","","","","html-keyboard-response","29","236984","0.0-7.0-0.0-1.8","null","<span style='color:red; font-size: 70px;'>错误! </span>","null","","","","","","","","","","","","","","","","","","","","","","","","","feedback",""
"","","","","","psychophysics","30","238473","0.0-7.0-0.0-0.9","330","","f","","","","","","","","","","","","","key","f","16.66479545454554","853.3333333333334","529.3333333333334","./1_3_Stimuli/S_ambi40.png","朋友","Word","他人","Mismatch","f","true","Practice",""
"","","","","","html-keyboard-response","31","238783","0.0-7.0-0.0-1.9","null","<span style='color:GreenYellow; font-size: 70px;'>正确! </span>","null","","","","","","","","","","","","","","","","","","","","","","","","","feedback",""
"","","","","","psychophysics","32","240318","0.0-7.0-0.0-0.10","375","","j","","","","","","","","","","","","","key","j","16.666307692307594","853.3333333333334","529.3333333333334","./1_3_Stimuli/T_ambi40.png","自我","Word","自我","Match","j","true","Practice",""
"","","","","","html-keyboard-response","33","240631","0.0-7.0-0.0-1.10","null","<span style='color:GreenYellow; font-size: 70px;'>正确! </span>","null","","","","","","","","","","","","","","","","","","","","","","","","","feedback",""
"","","","","","psychophysics","34","242052","0.0-7.0-0.0-0.11","268","","f","","","","","","","","","","","","","key","f","16.663880952380644","853.3333333333334","529.3333333333334","./1_3_Stimuli/C_ambi40.png","自我","Image","朋友","Mismatch","f","true","Practice",""
"","","","","","html-keyboard-response","35","242360","0.0-7.0-0.0-1.11","null","<span style='color:GreenYellow; font-size: 70px;'>正确! </span>","null","","","","","","","","","","","","","","","","","","","","","","","","","feedback",""
"","","","","","psychophysics","36","243883","0.0-7.0-0.0-0.12","373","","j","","","","","","","","","","","","","key","j","16.6643666666664","853.3333333333334","529.3333333333334","./1_3_Stimuli/T_ambi40.png","朋友","Image","自我","Mismatch","f","false","Practice",""
"","","","","","html-keyboard-response","37","244197","0.0-7.0-0.0-1.12","null","<span style='color:red; font-size: 70px;'>错误! </span>","null","","","","","","","","","","","","","","","","","","","","","","","","","feedback",""
"","","","","","psychophysics","38","245941","0.0-7.0-0.0-0.13","574","","f","","","","","","","","","","","","","key","f","16.665825242718324","853.3333333333334","529.3333333333334","./1_3_Stimuli/C_ambi40.png","朋友","Word","朋友","Match","j","false","Practice",""
"","","","","","html-keyboard-response","39","246243","0.0-7.0-0.0-1.13","null","<span style='color:red; font-size: 70px;'>错误! </span>","null","","","","","","","","","","","","","","","","","","","","","","","","","feedback",""
"","","","","","psychophysics","40","247935","0.0-7.0-0.0-0.14","529","","f","","","","","","","","","","","","","key","f","16.667060000000056","853.3333333333334","529.3333333333334","./1_3_Stimuli/S_ambi40.png","他人","Word","他人","Match","j","false","Practice",""
"","","","","","html-keyboard-response","41","248246","0.0-7.0-0.0-1.14","null","<span style='color:red; font-size: 70px;'>错误! </span>","null","","","","","","","","","","","","","","","","","","","","","","","","","feedback",""
"","","","","","psychophysics","42","249734","0.0-7.0-0.0-0.15","334","","j","","","","","","","","","","","","","key","j","16.66587499999977","853.3333333333334","529.3333333333334","./1_3_Stimuli/T_ambi40.png","他人","Image","自我","Mismatch","f","false","Practice",""
"","","","","","html-keyboard-response","43","250036","0.0-7.0-0.0-1.15","null","<span style='color:red; font-size: 70px;'>错误! </span>","null","","","","","","","","","","","","","","","","","","","","","","","","","feedback",""
"","","","","","psychophysics","44","252753","0.0-7.0-0.0-0.16","null","","null","","","","","","","","","","","","","key","null","16.665740740740596","853.3333333333334","529.3333333333334","./1_3_Stimuli/C_ambi40.png","朋友","Image","朋友","Match","j","false","Practice",""
"","","","","","html-keyboard-response","45","253078","0.0-7.0-0.0-1.16","null","<span class='add_' style='color:yellow; font-size: 70px;'> 太慢! </span>","null","","","","","","","","","","","","","","","","","","","","","","","","","feedback",""
"","","","","","psychophysics","46","254843","0.0-7.0-0.0-0.17","598","","f","","","","","","","","","","","","","key","f","16.66631428571418","853.3333333333334","529.3333333333334","./1_3_Stimuli/S_ambi40.png","自我","Image","他人","Mismatch","f","true","Practice",""
"","","","","","html-keyboard-response","47","255149","0.0-7.0-0.0-1.17","null","<span style='color:GreenYellow; font-size: 70px;'>正确! </span>","null","","","","","","","","","","","","","","","","","","","","","","","","","feedback",""
"","","","","","psychophysics","48","256920","0.0-7.0-0.0-0.18","619","","j","","","","","","","","","","","","","key","j","16.663638095238102","853.3333333333334","529.3333333333334","./1_3_Stimuli/C_ambi40.png","朋友","Image","朋友","Match","j","true","Practice",""
"","","","","","html-keyboard-response","49","257235","0.0-7.0-0.0-1.18","null","<span style='color:GreenYellow; font-size: 70px;'>正确! </span>","null","","","","","","","","","","","","","","","","","","","","","","","","","feedback",""
"","","","","","psychophysics","50","258778","0.0-7.0-0.0-0.19","385","","f","","","","","","","","","","","","","key","f","16.66776086956531","853.3333333333334","529.3333333333334","./1_3_Stimuli/T_ambi40.png","自我","Image","自我","Match","j","false","Practice",""
"","","","","","html-keyboard-response","51","259082","0.0-7.0-0.0-1.19","null","<span style='color:red; font-size: 70px;'>错误! </span>","null","","","","","","","","","","","","","","","","","","","","","","","","","feedback",""
"","","","","","psychophysics","52","260875","0.0-7.0-0.0-0.20","616","","j","","","","","","","","","","","","","key","j","16.66595283018882","853.3333333333334","529.3333333333334","./1_3_Stimuli/S_ambi40.png","他人","Image","他人","Match","j","true","Practice",""
"","","","","","html-keyboard-response","53","261189","0.0-7.0-0.0-1.20","null","<span style='color:GreenYellow; font-size: 70px;'>正确! </span>","null","","","","","","","","","","","","","","","","","","","","","","","","","feedback",""
"","","","","","psychophysics","54","262746","0.0-7.0-0.0-0.21","404","","f","","","","","","","","","","","","","key","f","16.669741935484105","853.3333333333334","529.3333333333334","./1_3_Stimuli/C_ambi40.png","朋友","Word","朋友","Match","j","false","Practice",""
"","","","","","html-keyboard-response","55","263057","0.0-7.0-0.0-1.21","null","<span style='color:red; font-size: 70px;'>错误! </span>","null","","","","","","","","","","","","","","","","","","","","","","","","","feedback",""
"","","","","","psychophysics","56","264852","0.0-7.0-0.0-0.22","643","","j","","","","","","","","","","","","","key","j","16.666822429906325","853.3333333333334","529.3333333333334","./1_3_Stimuli/S_ambi40.png","朋友","Image","他人","Mismatch","f","false","Practice",""
"","","","","","html-keyboard-response","57","265161","0.0-7.0-0.0-1.22","null","<span style='color:red; font-size: 70px;'>错误! </span>","null","","","","","","","","","","","","","","","","","","","","","","","","","feedback",""
"","","","","","psychophysics","58","266841","0.0-7.0-0.0-0.23","498","","f","","","","","","","","","","","","","key","f","16.664474747474706","853.3333333333334","529.3333333333334","./1_3_Stimuli/C_ambi40.png","自我","Word","朋友","Mismatch","f","true","Practice",""
"","","","","","html-keyboard-response","59","267154","0.0-7.0-0.0-1.23","null","<span style='color:GreenYellow; font-size: 70px;'>正确! </span>","null","","","","","","","","","","","","","","","","","","","","","","","","","feedback",""
"","","","","","html-keyboard-response","60","273124","0.0-7.0-1.0-0.0","5969","<style>.context{color:white; font-size: 35px; line-height:40px}</style>                        <div><p class='context'>您正确回答了46% 的试次。</p><p class='context'>您的平均反应时为494毫秒。</p><p> <div style = 'color: green'><按空格键至下页></div></p>"," ","","","","","","","","","","","","","","","","","","","","","","","","","",""
"","","","","","instructions","61","286093","0.0-7.0-1.0-1.0","12966","","","","","","","","","","","","","","[{""page_index"":0,""viewing_time"":2888},{""page_index"":1,""viewing_time"":8683},{""page_index"":2,""viewing_time"":1395}]","","","","","","","","","","","","","",""
"","","","","","psychophysics","62","288803","0.0-7.1-0.1-0.24","null","","null","","","","","","","","","","","","","key","null","16.667888198757936","853.3333333333334","529.3333333333334","./1_3_Stimuli/T_ambi40.png","他人","Word","自我","Mismatch","f","false","Practice",""
"","","","","","html-keyboard-response","63","289116","0.0-7.1-0.1-1.24","null","<span class='add_' style='color:yellow; font-size: 70px;'> 太慢! </span>","null","","","","","","","","","","","","","","","","","","","","","","","","","feedback",""
"","","","","","psychophysics","64","290618","0.0-7.1-0.1-0.25","342","","f","","","","","","","","","","","","","key","f","16.662494382022466","853.3333333333334","529.3333333333334","./1_3_Stimuli/S_ambi40.png","自我","Word","他人","Mismatch","f","true","Practice",""
"","","","","","html-keyboard-response","65","290921","0.0-7.1-0.1-1.25","null","<span style='color:GreenYellow; font-size: 70px;'>正确! </span>","null","","","","","","","","","","","","","","","","","","","","","","","","","feedback",""
"","","","","","psychophysics","66","292442","0.0-7.1-0.1-0.26","367","","j","","","","","","","","","","","","","key","j","16.667388888888915","853.3333333333334","529.3333333333334","./1_3_Stimuli/C_ambi40.png","朋友","Image","朋友","Match","j","true","Practice",""
"","","","","","html-keyboard-response","67","292745","0.0-7.1-0.1-1.26","null","<span style='color:GreenYellow; font-size: 70px;'>正确! </span>","null","","","","","","","","","","","","","","","","","","","","","","","","","feedback",""
"","","","","","psychophysics","68","294285","0.0-7.1-0.1-0.27","386","","j","","","","","","","","","","","","","key","j","16.666417582417264","853.3333333333334","529.3333333333334","./1_3_Stimuli/C_ambi40.png","朋友","Word","朋友","Match","j","true","Practice",""
"","","","","","html-keyboard-response","69","294599","0.0-7.1-0.1-1.27","null","<span style='color:GreenYellow; font-size: 70px;'>正确! </span>","null","","","","","","","","","","","","","","","","","","","","","","","","","feedback",""
"","","","","","psychophysics","70","296053","0.0-7.1-0.1-0.28","284","","j","","","","","","","","","","","","","key","j","16.66587209302274","853.3333333333334","529.3333333333334","./1_3_Stimuli/S_ambi40.png","朋友","Word","他人","Mismatch","f","false","Practice",""
"","","","","","html-keyboard-response","71","296362","0.0-7.1-0.1-1.28","null","<span style='color:red; font-size: 70px;'>错误! </span>","null","","","","","","","","","","","","","","","","","","","","","","","","","feedback",""
"","","","","","psychophysics","72","297817","0.0-7.1-0.1-0.29","292","","f","","","","","","","","","","","","","key","f","16.666290697674835","853.3333333333334","529.3333333333334","./1_3_Stimuli/S_ambi40.png","朋友","Image","他人","Mismatch","f","true","Practice",""
"","","","","","html-keyboard-response","73","298131","0.0-7.1-0.1-1.29","null","<span style='color:GreenYellow; font-size: 70px;'>正确! </span>","null","","","","","","","","","","","","","","","","","","","","","","","","","feedback",""
"","","","","","psychophysics","74","299711","0.0-7.1-0.1-0.30","426","","f","","","","","","","","","","","","","key","f","16.669042553191638","853.3333333333334","529.3333333333334","./1_3_Stimuli/C_ambi40.png","朋友","Word","朋友","Match","j","false","Practice",""
"","","","","","html-keyboard-response","75","300012","0.0-7.1-0.1-1.30","null","<span style='color:red; font-size: 70px;'>错误! </span>","null","","","","","","","","","","","","","","","","","","","","","","","","","feedback",""
"","","","","","psychophysics","76","301906","0.0-7.1-0.1-0.31","740","","j","","","","","","","","","","","","","key","j","16.668714285714355","853.3333333333334","529.3333333333334","./1_3_Stimuli/S_ambi40.png","他人","Image","他人","Match","j","true","Practice",""
"","","","","","html-keyboard-response","77","302209","0.0-7.1-0.1-1.31","null","<span style='color:GreenYellow; font-size: 70px;'>正确! </span>","null","","","","","","","","","","","","","","","","","","","","","","","","","feedback",""
"","","","","","psychophysics","78","303749","0.0-7.1-0.1-0.32","383","","j","","","","","","","","","","","","","key","j","16.667725274725026","853.3333333333334","529.3333333333334","./1_3_Stimuli/T_ambi40.png","自我","Word","自我","Match","j","true","Practice",""
"","","","","","html-keyboard-response","79","304065","0.0-7.1-0.1-1.32","null","<span style='color:GreenYellow; font-size: 70px;'>正确! </span>","null","","","","","","","","","","","","","","","","","","","","","","","","","feedback",""
"","","","","","psychophysics","80","305690","0.0-7.1-0.1-0.33","474","","f","","","","","","","","","","","","","key","f","16.665302083333398","853.3333333333334","529.3333333333334","./1_3_Stimuli/T_ambi40.png","自我","Image","自我","Match","j","false","Practice",""
"","","","","","html-keyboard-response","81","305991","0.0-7.1-0.1-1.33","null","<span style='color:red; font-size: 70px;'>错误! </span>","null","","","","","","","","","","","","","","","","","","","","","","","","","feedback",""
"","","","","","psychophysics","82","307418","0.0-7.1-0.1-0.34","243","","j","","","","","","","","","","","","","key","j","16.666642857143113","853.3333333333334","529.3333333333334","./1_3_Stimuli/T_ambi40.png","朋友","Image","自我","Mismatch","f","false","Practice",""
"","","","","","html-keyboard-response","83","307725","0.0-7.1-0.1-1.34","null","<span style='color:red; font-size: 70px;'>错误! </span>","null","","","","","","","","","","","","","","","","","","","","","","","","","feedback",""
"","","","","","psychophysics","84","309603","0.0-7.1-0.1-0.35","727","","f","","","","","","","","","","","","","key","f","16.66742342342371","853.3333333333334","529.3333333333334","./1_3_Stimuli/S_ambi40.png","他人","Word","他人","Match","j","false","Practice",""
"","","","","","html-keyboard-response","85","309909","0.0-7.1-0.1-1.35","null","<span style='color:red; font-size: 70px;'>错误! </span>","null","","","","","","","","","","","","","","","","","","","","","","","","","feedback",""
"","","","","","psychophysics","86","311574","0.0-7.1-0.1-0.36","514","","j","","","","","","","","","","","","","key","j","16.665989795918293","853.3333333333334","529.3333333333334","./1_3_Stimuli/T_ambi40.png","自我","Word","自我","Match","j","true","Practice",""
"","","","","","html-keyboard-response","87","311885","0.0-7.1-0.1-1.36","null","<span style='color:GreenYellow; font-size: 70px;'>正确! </span>","null","","","","","","","","","","","","","","","","","","","","","","","","","feedback",""
"","","","","","psychophysics","88","313460","0.0-7.1-0.1-0.37","405","","j","","","","","","","","","","","","","key","j","16.666989361701972","853.3333333333334","529.3333333333334","./1_3_Stimuli/T_ambi40.png","自我","Image","自我","Match","j","true","Practice",""
"","","","","","html-keyboard-response","89","313770","0.0-7.1-0.1-1.37","null","<span style='color:GreenYellow; font-size: 70px;'>正确! </span>","null","","","","","","","","","","","","","","","","","","","","","","","","","feedback",""
"","","","","","psychophysics","90","315334","0.0-7.1-0.1-0.38","412","","j","","","","","","","","","","","","","key","j","16.666849462365512","853.3333333333334","529.3333333333334","./1_3_Stimuli/C_ambi40.png","他人","Word","朋友","Mismatch","f","false","Practice",""
"","","","","","html-keyboard-response","91","315637","0.0-7.1-0.1-1.38","null","<span style='color:red; font-size: 70px;'>错误! </span>","null","","","","","","","","","","","","","","","","","","","","","","","","","feedback",""
"","","","","","psychophysics","92","317191","0.0-7.1-0.1-0.39","401","","j","","","","","","","","","","","","","key","j","16.66650000000031","853.3333333333334","529.3333333333334","./1_3_Stimuli/C_ambi40.png","朋友","Image","朋友","Match","j","true","Practice",""
"","","","","","html-keyboard-response","93","317504","0.0-7.1-0.1-1.39","null","<span style='color:GreenYellow; font-size: 70px;'>正确! </span>","null","","","","","","","","","","","","","","","","","","","","","","","","","feedback",""
"","","","","","psychophysics","94","319146","0.0-7.1-0.1-0.40","457","","j","","","","","","","","","","","","","key","j","16.667295918367536","853.3333333333334","529.3333333333334","./1_3_Stimuli/S_ambi40.png","他人","Image","他人","Match","j","true","Practice",""
"","","","","","html-keyboard-response","95","319454","0.0-7.1-0.1-1.40","null","<span style='color:GreenYellow; font-size: 70px;'>正确! </span>","null","","","","","","","","","","","","","","","","","","","","","","","","","feedback",""
"","","","","","psychophysics","96","321067","0.0-7.1-0.1-0.41","458","","f","","","","","","","","","","","","","key","f","16.667177083333325","853.3333333333334","529.3333333333334","./1_3_Stimuli/T_ambi40.png","他人","Image","自我","Mismatch","f","true","Practice",""
"","","","","","html-keyboard-response","97","321371","0.0-7.1-0.1-1.41","null","<span style='color:GreenYellow; font-size: 70px;'>正确! </span>","null","","","","","","","","","","","","","","","","","","","","","","","","","feedback",""
"","","","","","psychophysics","98","322951","0.0-7.1-0.1-0.42","428","","j","","","","","","","","","","","","","key","j","16.666819148935982","853.3333333333334","529.3333333333334","./1_3_Stimuli/T_ambi40.png","朋友","Word","自我","Mismatch","f","false","Practice",""
"","","","","","html-keyboard-response","99","323256","0.0-7.1-0.1-1.42","null","<span style='color:red; font-size: 70px;'>错误! </span>","null","","","","","","","","","","","","","","","","","","","","","","","","","feedback",""
"","","","","","psychophysics","100","324938","0.0-7.1-0.1-0.43","513","","f","","","","","","","","","","","","","key","f","16.666449999999603","853.3333333333334","529.3333333333334","./1_3_Stimuli/C_ambi40.png","自我","Word","朋友","Mismatch","f","true","Practice",""
"","","","","","html-keyboard-response","101","325248","0.0-7.1-0.1-1.43","null","<span style='color:GreenYellow; font-size: 70px;'>正确! </span>","null","","","","","","","","","","","","","","","","","","","","","","","","","feedback",""
"","","","","","psychophysics","102","326981","0.0-7.1-0.1-0.44","581","","f","","","","","","","","","","","","","key","f","16.66527184466006","853.3333333333334","529.3333333333334","./1_3_Stimuli/S_ambi40.png","自我","Image","他人","Mismatch","f","true","Practice",""
"","","","","","html-keyboard-response","103","327285","0.0-7.1-0.1-1.44","null","<span style='color:GreenYellow; font-size: 70px;'>正确! </span>","null","","","","","","","","","","","","","","","","","","","","","","","","","feedback",""
"","","","","","psychophysics","104","328964","0.0-7.1-0.1-0.45","524","","f","","","","","","","","","","","","","key","f","16.667020000000484","853.3333333333334","529.3333333333334","./1_3_Stimuli/C_ambi40.png","自我","Image","朋友","Mismatch","f","true","Practice",""
"","","","","","html-keyboard-response","105","329266","0.0-7.1-0.1-1.45","null","<span style='color:GreenYellow; font-size: 70px;'>正确! </span>","null","","","","","","","","","","","","","","","","","","","","","","","","","feedback",""
"","","","","","psychophysics","106","331073","0.0-7.1-0.1-0.46","626","","j","","","","","","","","","","","","","key","j","16.666850467289745","853.3333333333334","529.3333333333334","./1_3_Stimuli/C_ambi40.png","他人","Image","朋友","Mismatch","f","false","Practice",""
"","","","","","html-keyboard-response","107","331382","0.0-7.1-0.1-1.46","null","<span style='color:red; font-size: 70px;'>错误! </span>","null","","","","","","","","","","","","","","","","","","","","","","","","","feedback",""
"","","","","","psychophysics","108","332992","0.0-7.1-0.1-0.47","449","","j","","","","","","","","","","","","","key","j","16.665842105263206","853.3333333333334","529.3333333333334","./1_3_Stimuli/S_ambi40.png","他人","Word","他人","Match","j","true","Practice",""
"","","","","","html-keyboard-response","109","333304","0.0-7.1-0.1-1.47","null","<span style='color:GreenYellow; font-size: 70px;'>正确! </span>","null","","","","","","","","","","","","","","","","","","","","","","","","","feedback",""
"","","","","","html-keyboard-response","110","335325","0.0-7.1-1.1-0.1","2020","<style>.context{color:white; font-size: 35px; line-height:40px}</style>                        <div><p class='context'>您正确回答了63% 的试次。</p><p class='context'>您的平均反应时为454毫秒。</p><p> <div style = 'color: green'><按空格键至下页></div></p>"," ","","","","","","","","","","","","","","","","","","","","","","","","","",""
"","","","","","instructions","111","344937","0.0-7.1-1.1-1.1","9610","","","","","","","","","","","","","","[{""page_index"":0,""viewing_time"":1349},{""page_index"":1,""viewing_time"":5109},{""page_index"":2,""viewing_time"":3153}]","","","","","","","","","","","","","",""
"","","","","","psychophysics","112","347174","0.0-7.2-0.2-0.48","1082","","f","","","","","","","","","","","","","key","f","16.667278195488446","853.3333333333334","529.3333333333334","./1_3_Stimuli/C_ambi40.png","朋友","Image","朋友","Match","j","false","Practice",""
"","","","","","html-keyboard-response","113","347477","0.0-7.2-0.2-1.48","null","<span style='color:red; font-size: 70px;'>错误! </span>","null","","","","","","","","","","","","","","","","","","","","","","","","","feedback",""
"","","","","","psychophysics","114","349072","0.0-7.2-0.2-0.49","431","","j","","","","","","","","","","","","","key","j","16.66470212765977","853.3333333333334","529.3333333333334","./1_3_Stimuli/T_ambi40.png","自我","Image","自我","Match","j","true","Practice",""
"","","","","","html-keyboard-response","115","349376","0.0-7.2-0.2-1.49","null","<span style='color:GreenYellow; font-size: 70px;'>正确! </span>","null","","","","","","","","","","","","","","","","","","","","","","","","","feedback",""
"","","","","","psychophysics","116","350974","0.0-7.2-0.2-0.50","433","","f","","","","","","","","","","","","","key","f","16.663457446808412","853.3333333333334","529.3333333333334","./1_3_Stimuli/C_ambi40.png","自我","Word","朋友","Mismatch","f","true","Practice",""
"","","","","","html-keyboard-response","117","351286","0.0-7.2-0.2-1.50","null","<span style='color:GreenYellow; font-size: 70px;'>正确! </span>","null","","","","","","","","","","","","","","","","","","","","","","","","","feedback",""
"","","","","","psychophysics","118","353069","0.0-7.2-0.2-0.51","599","","j","","","","","","","","","","","","","key","j","16.667952830188266","853.3333333333334","529.3333333333334","./1_3_Stimuli/S_ambi40.png","他人","Word","他人","Match","j","true","Practice",""
"","","","","","html-keyboard-response","119","353372","0.0-7.2-0.2-1.51","null","<span style='color:GreenYellow; font-size: 70px;'>正确! </span>","null","","","","","","","","","","","","","","","","","","","","","","","","","feedback",""
"","","","","","psychophysics","120","354926","0.0-7.2-0.2-0.52","402","","f","","","","","","","","","","","","","key","f","16.666935483871217","853.3333333333334","529.3333333333334","./1_3_Stimuli/T_ambi40.png","他人","Image","自我","Mismatch","f","true","Practice",""
"","","","","","html-keyboard-response","121","355237","0.0-7.2-0.2-1.52","null","<span style='color:GreenYellow; font-size: 70px;'>正确! </span>","null","","","","","","","","","","","","","","","","","","","","","","","","","feedback",""
"","","","","","psychophysics","122","356989","0.0-7.2-0.2-0.53","596","","f","","","","","","","","","","","","","key","f","16.66691346153843","853.3333333333334","529.3333333333334","./1_3_Stimuli/T_ambi40.png","朋友","Word","自我","Mismatch","f","true","Practice",""
"","","","","","html-keyboard-response","123","357297","0.0-7.2-0.2-1.53","null","<span style='color:GreenYellow; font-size: 70px;'>正确! </span>","null","","","","","","","","","","","","","","","","","","","","","","","","","feedback",""
"","","","","","psychophysics","124","358899","0.0-7.2-0.2-0.54","423","","f","","","","","","","","","","","","","key","f","16.665799999999887","853.3333333333334","529.3333333333334","./1_3_Stimuli/S_ambi40.png","自我","Word","他人","Mismatch","f","true","Practice",""
"","","","","","html-keyboard-response","125","359214","0.0-7.2-0.2-1.54","null","<span style='color:GreenYellow; font-size: 70px;'>正确! </span>","null","","","","","","","","","","","","","","","","","","","","","","","","","feedback",""
"","","","","","psychophysics","126","360782","0.0-7.2-0.2-0.55","413","","j","","","","","","","","","","","","","key","j","16.663924731182746","853.3333333333334","529.3333333333334","./1_3_Stimuli/C_ambi40.png","他人","Word","朋友","Mismatch","f","false","Practice",""
"","","","","","html-keyboard-response","127","361084","0.0-7.2-0.2-1.55","null","<span style='color:red; font-size: 70px;'>错误! </span>","null","","","","","","","","","","","","","","","","","","","","","","","","","feedback",""
"","","","","","psychophysics","128","362702","0.0-7.2-0.2-0.56","461","","f","","","","","","","","","","","","","key","f","16.668927083333376","853.3333333333334","529.3333333333334","./1_3_Stimuli/T_ambi40.png","自我","Image","自我","Match","j","false","Practice",""
"","","","","","html-keyboard-response","129","363019","0.0-7.2-0.2-1.56","null","<span style='color:red; font-size: 70px;'>错误! </span>","null","","","","","","","","","","","","","","","","","","","","","","","","","feedback",""
"","","","","","psychophysics","130","364637","0.0-7.2-0.2-0.57","438","","f","","","","","","","","","","","","","key","f","16.667031249999734","853.3333333333334","529.3333333333334","./1_3_Stimuli/T_ambi40.png","朋友","Image","自我","Mismatch","f","true","Practice",""
"","","","","","html-keyboard-response","131","364943","0.0-7.2-0.2-1.57","null","<span style='color:GreenYellow; font-size: 70px;'>正确! </span>","null","","","","","","","","","","","","","","","","","","","","","","","","","feedback",""
"","","","","","psychophysics","132","366659","0.0-7.2-0.2-0.58","563","","f","","","","","","","","","","","","","key","f","16.66662745098024","853.3333333333334","529.3333333333334","./1_3_Stimuli/C_ambi40.png","他人","Image","朋友","Mismatch","f","true","Practice",""
"","","","","","html-keyboard-response","133","366965","0.0-7.2-0.2-1.58","null","<span style='color:GreenYellow; font-size: 70px;'>正确! </span>","null","","","","","","","","","","","","","","","","","","","","","","","","","feedback",""
"","","","","","psychophysics","134","368719","0.0-7.2-0.2-0.59","599","","j","","","","","","","","","","","","","key","j","16.66412500000017","853.3333333333334","529.3333333333334","./1_3_Stimuli/S_ambi40.png","他人","Image","他人","Match","j","true","Practice",""
"","","","","","html-keyboard-response","135","369023","0.0-7.2-0.2-1.59","null","<span style='color:GreenYellow; font-size: 70px;'>正确! </span>","null","","","","","","","","","","","","","","","","","","","","","","","","","feedback",""
"","","","","","psychophysics","136","370849","0.0-7.2-0.2-0.60","641","","f","","","","","","","","","","","","","key","f","16.667119266054648","853.3333333333334","529.3333333333334","./1_3_Stimuli/S_ambi40.png","自我","Image","他人","Mismatch","f","true","Practice",""
"","","","","","html-keyboard-response","137","371157","0.0-7.2-0.2-1.60","null","<span style='color:GreenYellow; font-size: 70px;'>正确! </span>","null","","","","","","","","","","","","","","","","","","","","","","","","","feedback",""
"","","","","","psychophysics","138","372907","0.0-7.2-0.2-0.61","599","","j","","","","","","","","","","","","","key","j","16.657320388349778","853.3333333333334","529.3333333333334","./1_3_Stimuli/C_ambi40.png","朋友","Word","朋友","Match","j","true","Practice",""
"","","","","","html-keyboard-response","139","373214","0.0-7.2-0.2-1.61","null","<span style='color:GreenYellow; font-size: 70px;'>正确! </span>","null","","","","","","","","","","","","","","","","","","","","","","","","","feedback",""
"","","","","","psychophysics","140","374902","0.0-7.2-0.2-0.62","533","","f","","","","","","","","","","","","","key","f","16.66865000000049","853.3333333333334","529.3333333333334","./1_3_Stimuli/C_ambi40.png","自我","Image","朋友","Mismatch","f","true","Practice",""
"","","","","","html-keyboard-response","141","375205","0.0-7.2-0.2-1.62","null","<span style='color:GreenYellow; font-size: 70px;'>正确! </span>","null","","","","","","","","","","","","","","","","","","","","","","","","","feedback",""
"","","","","","psychophysics","142","376907","0.0-7.2-0.2-0.63","532","","j","","","","","","","","","","","","","key","j","16.668772277227454","853.3333333333334","529.3333333333334","./1_3_Stimuli/S_ambi40.png","他人","Word","他人","Match","j","true","Practice",""
"","","","","","html-keyboard-response","143","377221","0.0-7.2-0.2-1.63","null","<span style='color:GreenYellow; font-size: 70px;'>正确! </span>","null","","","","","","","","","","","","","","","","","","","","","","","","","feedback",""
"","","","","","psychophysics","144","379017","0.0-7.2-0.2-0.64","642","","j","","","","","","","","","","","","","key","j","16.66823364485971","853.3333333333334","529.3333333333334","./1_3_Stimuli/C_ambi40.png","朋友","Image","朋友","Match","j","true","Practice",""
"","","","","","html-keyboard-response","145","379321","0.0-7.2-0.2-1.64","null","<span style='color:GreenYellow; font-size: 70px;'>正确! </span>","null","","","","","","","","","","","","","","","","","","","","","","","","","feedback",""
"","","","","","psychophysics","146","380997","0.0-7.2-0.2-0.65","521","","f","","","","","","","","","","","","","key","f","16.667029999999794","853.3333333333334","529.3333333333334","./1_3_Stimuli/T_ambi40.png","他人","Word","自我","Mismatch","f","true","Practice",""
"","","","","","html-keyboard-response","147","381302","0.0-7.2-0.2-1.65","null","<span style='color:GreenYellow; font-size: 70px;'>正确! </span>","null","","","","","","","","","","","","","","","","","","","","","","","","","feedback",""
"","","","","","psychophysics","148","382904","0.0-7.2-0.2-0.66","429","","j","","","","","","","","","","","","","key","j","16.668052631578604","853.3333333333334","529.3333333333334","./1_3_Stimuli/C_ambi40.png","朋友","Word","朋友","Match","j","true","Practice",""
"","","","","","html-keyboard-response","149","383221","0.0-7.2-0.2-1.66","null","<span style='color:GreenYellow; font-size: 70px;'>正确! </span>","null","","","","","","","","","","","","","","","","","","","","","","","","","feedback",""
"","","","","","psychophysics","150","384800","0.0-7.2-0.2-0.67","426","","f","","","","","","","","","","","","","key","f","16.668074468085095","853.3333333333334","529.3333333333334","./1_3_Stimuli/S_ambi40.png","朋友","Image","他人","Mismatch","f","true","Practice",""
"","","","","","html-keyboard-response","151","385109","0.0-7.2-0.2-1.67","null","<span style='color:GreenYellow; font-size: 70px;'>正确! </span>","null","","","","","","","","","","","","","","","","","","","","","","","","","feedback",""
"","","","","","psychophysics","152","386907","0.0-7.2-0.2-0.68","645","","j","","","","","","","","","","","","","key","j","16.668660377358737","853.3333333333334","529.3333333333334","./1_3_Stimuli/S_ambi40.png","他人","Image","他人","Match","j","true","Practice",""
"","","","","","html-keyboard-response","153","387209","0.0-7.2-0.2-1.68","null","<span style='color:GreenYellow; font-size: 70px;'>正确! </span>","null","","","","","","","","","","","","","","","","","","","","","","","","","feedback",""
"","","","","","psychophysics","154","388916","0.0-7.2-0.2-0.69","541","","f","","","","","","","","","","","","","key","f","16.66537623762356","853.3333333333334","529.3333333333334","./1_3_Stimuli/S_ambi40.png","朋友","Word","他人","Mismatch","f","true","Practice",""
"","","","","","html-keyboard-response","155","389223","0.0-7.2-0.2-1.69","null","<span style='color:GreenYellow; font-size: 70px;'>正确! </span>","null","","","","","","","","","","","","","","","","","","","","","","","","","feedback",""
"","","","","","psychophysics","156","390764","0.0-7.2-0.2-0.70","389","","j","","","","","","","","","","","","","key","j","16.64995604395613","853.3333333333334","529.3333333333334","./1_3_Stimuli/T_ambi40.png","自我","Word","自我","Match","j","true","Practice",""
"","","","","","html-keyboard-response","157","391076","0.0-7.2-0.2-1.70","null","<span style='color:GreenYellow; font-size: 70px;'>正确! </span>","null","","","","","","","","","","","","","","","","","","","","","","","","","feedback",""
"","","","","","psychophysics","158","392839","0.0-7.2-0.2-0.71","597","","j","","","","","","","","","","","","","key","j","16.663403846153344","853.3333333333334","529.3333333333334","./1_3_Stimuli/T_ambi40.png","自我","Word","自我","Match","j","true","Practice",""
"","","","","","html-keyboard-response","159","393143","0.0-7.2-0.2-1.71","null","<span style='color:GreenYellow; font-size: 70px;'>正确! </span>","null","","","","","","","","","","","","","","","","","","","","","","","","","feedback",""
"","","","","","html-keyboard-response","160","418015","0.0-8.0","24871","<style>.context{color:white; font-size: 35px; line-height:40px}</style>                          <div><p class='context'>您正确回答了88% 的试次。</p><p class='context'>您的平均反应时为523毫秒。</p><p class='context'>恭喜您完成练习。现在请休息3~5分钟。</p><p class='context'>之后，按任意键进入正式实验。需要注意的是，正式实验将不再提供反应是否正确的反馈。</p><p class='footer' style='font-size: 35px; line-height:40px;'>请在进入正式实验实验之前将您的<span style='color: lightgreen;'>食指</span>放在电脑键盘的相应键位上进行按键。</p>"," ","","","","","","","","","","","","","","","","","","","","","","","","","",""
"","","","","","psychophysics","161","419818","0.0-9.0-0.0-0.0","644","","f","","","","","","","","","","","","","key","f","16.6657663551404","853.3333333333334","529.3333333333334","./1_3_Stimuli/T_ambi40.png","他人","Image","自我","Mismatch","f","true","Formal",""
"","","","","","psychophysics","162","421416","0.0-9.0-0.0-0.1","441","","f","","","","","","","","","","","","","key","f","16.66681052631588","853.3333333333334","529.3333333333334","./1_3_Stimuli/S_ambi40.png","自我","Word","他人","Mismatch","f","true","Formal",""
"","","","","","psychophysics","163","423012","0.0-9.0-0.0-0.2","437","","f","","","","","","","","","","","","","key","f","16.66747368421087","853.3333333333334","529.3333333333334","./1_3_Stimuli/C_ambi40.png","自我","Word","朋友","Mismatch","f","true","Formal",""
"","","","","","psychophysics","164","424652","0.0-9.0-0.0-0.3","483","","f","","","","","","","","","","","","","key","f","16.66612371134022","853.3333333333334","529.3333333333334","./1_3_Stimuli/C_ambi40.png","他人","Word","朋友","Mismatch","f","true","Formal",""
"","","","","","psychophysics","165","426430","0.0-9.0-0.0-0.4","622","","j","","","","","","","","","","","","","key","j","16.665257142856717","853.3333333333334","529.3333333333334","./1_3_Stimuli/S_ambi40.png","他人","Image","他人","Match","j","true","Formal",""
"","","","","","psychophysics","166","428053","0.0-9.0-0.0-0.5","462","","j","","","","","","","","","","","","","key","j","16.66658947368422","853.3333333333334","529.3333333333334","./1_3_Stimuli/T_ambi40.png","自我","Image","自我","Match","j","true","Formal",""
"","","","","","psychophysics","167","429651","0.0-9.0-0.0-0.6","447","","j","","","","","","","","","","","","","key","j","16.665308510638187","853.3333333333334","529.3333333333334","./1_3_Stimuli/C_ambi40.png","朋友","Image","朋友","Match","j","true","Formal",""
"","","","","","psychophysics","168","431266","0.0-9.0-0.0-0.7","459","","j","","","","","","","","","","","","","key","j","17.205064516128992","853.3333333333334","529.3333333333334","./1_3_Stimuli/C_ambi40.png","朋友","Word","朋友","Match","j","true","Formal",""
"","","","","","psychophysics","169","432999","0.0-9.0-0.0-0.8","575","","f","","","","","","","","","","","","","key","f","16.666980582524488","853.3333333333334","529.3333333333334","./1_3_Stimuli/S_ambi40.png","自我","Image","他人","Mismatch","f","true","Formal",""
"","","","","","psychophysics","170","434754","0.0-9.0-0.0-0.9","597","","f","","","","","","","","","","","","","key","f","16.666769230769066","853.3333333333334","529.3333333333334","./1_3_Stimuli/T_ambi40.png","他人","Word","自我","Mismatch","f","true","Formal",""
"","","","","","psychophysics","171","436438","0.0-9.0-0.0-0.10","531","","f","","","","","","","","","","","","","key","f","16.667939393939285","853.3333333333334","529.3333333333334","./1_3_Stimuli/C_ambi40.png","自我","Image","朋友","Mismatch","f","true","Formal",""
"","","","","","psychophysics","172","438182","0.0-9.0-0.0-0.11","592","","f","","","","","","","","","","","","","key","f","16.66693203883456","853.3333333333334","529.3333333333334","./1_3_Stimuli/T_ambi40.png","朋友","Image","自我","Mismatch","f","true","Formal",""
"","","","","","psychophysics","173","439732","0.0-9.0-0.0-0.12","395","","f","","","","","","","","","","","","","key","f","16.66666304347809","853.3333333333334","529.3333333333334","./1_3_Stimuli/C_ambi40.png","朋友","Word","朋友","Match","j","false","Formal",""
"","","","","","psychophysics","174","441506","0.0-9.0-0.0-0.13","616","","f","","","","","","","","","","","","","key","f","16.668628571428624","853.3333333333334","529.3333333333334","./1_3_Stimuli/S_ambi40.png","朋友","Image","他人","Mismatch","f","true","Formal",""
"","","","","","psychophysics","175","443115","0.0-9.0-0.0-0.14","457","","f","","","","","","","","","","","","","key","f","16.666326315789238","853.3333333333334","529.3333333333334","./1_3_Stimuli/S_ambi40.png","他人","Word","他人","Match","j","false","Formal",""
"","","","","","psychophysics","176","444905","0.0-9.0-0.0-0.15","631","","f","","","","","","","","","","","","","key","f","16.66762264150926","853.3333333333334","529.3333333333334","./1_3_Stimuli/S_ambi40.png","朋友","Word","他人","Mismatch","f","true","Formal",""
"","","","","","psychophysics","177","446673","0.0-9.0-0.0-0.16","616","","f","","","","","","","","","","","","","key","f","16.666240384615847","853.3333333333334","529.3333333333334","./1_3_Stimuli/C_ambi40.png","他人","Image","朋友","Mismatch","f","true","Formal",""
"","","","","","psychophysics","178","448246","0.0-9.0-0.0-0.17","422","","j","","","","","","","","","","","","","key","j","16.666139784946246","853.3333333333334","529.3333333333334","./1_3_Stimuli/S_ambi40.png","他人","Word","他人","Match","j","true","Formal",""
"","","","","","psychophysics","179","449833","0.0-9.0-0.0-0.18","425","","j","","","","","","","","","","","","","key","j","16.66560638297852","853.3333333333334","529.3333333333334","./1_3_Stimuli/S_ambi40.png","他人","Image","他人","Match","j","true","Formal",""
"","","","","","psychophysics","180","451418","0.0-9.0-0.0-0.19","432","","j","","","","","","","","","","","","","key","j","16.664978494623586","853.3333333333334","529.3333333333334","./1_3_Stimuli/T_ambi40.png","自我","Word","自我","Match","j","true","Formal",""
"","","","","","psychophysics","181","453019","0.0-9.0-0.0-0.20","445","","j","","","","","","","","","","","","","key","j","16.668138297872265","853.3333333333334","529.3333333333334","./1_3_Stimuli/T_ambi40.png","自我","Image","自我","Match","j","true","Formal",""
"","","","","","psychophysics","182","454617","0.0-9.0-0.0-0.21","416","","j","","","","","","","","","","","","","key","j","16.66675531914943","853.3333333333334","529.3333333333334","./1_3_Stimuli/T_ambi40.png","朋友","Word","自我","Mismatch","f","false","Formal",""
"","","","","","psychophysics","183","456156","0.0-9.0-0.0-0.22","382","","j","","","","","","","","","","","","","key","j","16.668076923076743","853.3333333333334","529.3333333333334","./1_3_Stimuli/T_ambi40.png","自我","Word","自我","Match","j","true","Formal",""
"","","","","","psychophysics","184","457738","0.0-9.0-0.0-0.23","431","","j","","","","","","","","","","","","","key","j","16.668903225806282","853.3333333333334","529.3333333333334","./1_3_Stimuli/C_ambi40.png","朋友","Image","朋友","Match","j","true","Formal",""
"","","","","","psychophysics","185","459461","0.0-9.0-0.0-0.24","569","","f","","","","","","","","","","","","","key","f","16.665196078431144","853.3333333333334","529.3333333333334","./1_3_Stimuli/T_ambi40.png","朋友","Image","自我","Mismatch","f","true","Formal",""
"","","","","","psychophysics","186","461179","0.0-9.0-0.0-0.25","555","","j","","","","","","","","","","","","","key","j","16.666323529412015","853.3333333333334","529.3333333333334","./1_3_Stimuli/S_ambi40.png","他人","Image","他人","Match","j","true","Formal",""
"","","","","","psychophysics","187","462917","0.0-9.0-0.0-0.26","580","","f","","","","","","","","","","","","","key","f","16.996653465346647","853.3333333333334","529.3333333333334","./1_3_Stimuli/T_ambi40.png","他人","Image","自我","Mismatch","f","true","Formal",""
"","","","","","psychophysics","188","464722","0.0-9.0-0.0-0.27","653","","j","","","","","","","","","","","","","key","j","16.665728971962686","853.3333333333334","529.3333333333334","./1_3_Stimuli/C_ambi40.png","他人","Image","朋友","Mismatch","f","false","Formal",""
"","","","","","psychophysics","189","466419","0.0-9.0-0.0-0.28","545","","j","","","","","","","","","","","","","key","j","16.667429999999584","853.3333333333334","529.3333333333334","./1_3_Stimuli/T_ambi40.png","自我","Image","自我","Match","j","true","Formal",""
"","","","","","psychophysics","190","468123","0.0-9.0-0.0-0.29","550","","j","","","","","","","","","","","","","key","j","16.665840000000316","853.3333333333334","529.3333333333334","./1_3_Stimuli/C_ambi40.png","朋友","Word","朋友","Match","j","true","Formal",""
"","","","","","psychophysics","191","469748","0.0-9.0-0.0-0.30","473","","j","","","","","","","","","","","","","key","j","16.665812500000055","853.3333333333334","529.3333333333334","./1_3_Stimuli/S_ambi40.png","他人","Image","他人","Match","j","true","Formal",""
"","","","","","psychophysics","192","471389","0.0-9.0-0.0-0.31","482","","f","","","","","","","","","","","","","key","f","16.666697916666333","853.3333333333334","529.3333333333334","./1_3_Stimuli/S_ambi40.png","自我","Word","他人","Mismatch","f","true","Formal",""
"","","","","","psychophysics","193","473335","0.0-9.0-0.0-0.32","794","","f","","","","","","","","","","","","","key","f","16.668747826087106","853.3333333333334","529.3333333333334","./1_3_Stimuli/S_ambi40.png","朋友","Image","他人","Mismatch","f","true","Formal",""
"","","","","","psychophysics","194","475068","0.0-9.0-0.0-0.33","577","","j","","","","","","","","","","","","","key","j","16.665382352941236","853.3333333333334","529.3333333333334","./1_3_Stimuli/C_ambi40.png","朋友","Word","朋友","Match","j","true","Formal",""
"","","","","","psychophysics","195","476650","0.0-9.0-0.0-0.34","426","","j","","","","","","","","","","","","","key","j","16.667063829787523","853.3333333333334","529.3333333333334","./1_3_Stimuli/T_ambi40.png","自我","Word","自我","Match","j","true","Formal",""
"","","","","","psychophysics","196","478584","0.0-9.0-0.0-0.35","777","","f","","","","","","","","","","","","","key","f","16.66688695652208","853.3333333333334","529.3333333333334","./1_3_Stimuli/C_ambi40.png","他人","Word","朋友","Mismatch","f","true","Formal",""
"","","","","","psychophysics","197","480218","0.0-9.0-0.0-0.36","478","","j","","","","","","","","","","","","","key","j","16.667268041236873","853.3333333333334","529.3333333333334","./1_3_Stimuli/T_ambi40.png","自我","Image","自我","Match","j","true","Formal",""
"","","","","","psychophysics","198","481884","0.0-9.0-0.0-0.37","513","","f","","","","","","","","","","","","","key","f","16.667826530612096","853.3333333333334","529.3333333333334","./1_3_Stimuli/S_ambi40.png","自我","Image","他人","Mismatch","f","true","Formal",""
"","","","","","psychophysics","199","483733","0.0-9.0-0.0-0.38","693","","j","","","","","","","","","","","","","key","j","16.66842727272676","853.3333333333334","529.3333333333334","./1_3_Stimuli/S_ambi40.png","他人","Word","他人","Match","j","true","Formal",""
"","","","","","psychophysics","200","485359","0.0-9.0-0.0-0.39","469","","f","","","","","","","","","","","","","key","f","16.669154639175215","853.3333333333334","529.3333333333334","./1_3_Stimuli/C_ambi40.png","自我","Word","朋友","Mismatch","f","true","Formal",""
"","","","","","psychophysics","201","487176","0.0-9.0-0.0-0.40","656","","f","","","","","","","","","","","","","key","f","16.66728703703686","853.3333333333334","529.3333333333334","./1_3_Stimuli/T_ambi40.png","朋友","Word","自我","Mismatch","f","true","Formal",""
"","","","","","psychophysics","202","488800","0.0-9.0-0.0-0.41","468","","j","","","","","","","","","","","","","key","j","16.666687500000382","853.3333333333334","529.3333333333334","./1_3_Stimuli/C_ambi40.png","朋友","Image","朋友","Match","j","true","Formal",""
"","","","","","psychophysics","203","490390","0.0-9.0-0.0-0.42","438","","f","","","","","","","","","","","","","key","f","16.667117021276933","853.3333333333334","529.3333333333334","./1_3_Stimuli/S_ambi40.png","他人","Word","他人","Match","j","false","Formal",""
"","","","","","psychophysics","204","492008","0.0-9.0-0.0-0.43","468","","j","","","","","","","","","","","","","key","j","16.664687499999975","853.3333333333334","529.3333333333334","./1_3_Stimuli/T_ambi40.png","自我","Word","自我","Match","j","true","Formal",""
"","","","","","psychophysics","205","494034","0.0-9.0-0.0-0.44","859","","f","","","","","","","","","","","","","key","f","16.665983333333376","853.3333333333334","529.3333333333334","./1_3_Stimuli/T_ambi40.png","他人","Word","自我","Mismatch","f","true","Formal",""
"","","","","","psychophysics","206","496102","0.0-9.0-0.0-0.45","914","","f","","","","","","","","","","","","","key","f","16.942297520661008","853.3333333333334","529.3333333333334","./1_3_Stimuli/S_ambi40.png","朋友","Word","他人","Mismatch","f","true","Formal",""
"","","","","","psychophysics","207","498082","0.0-9.0-0.0-0.46","826","","j","","","","","","","","","","","","","key","j","16.666068376068317","853.3333333333334","529.3333333333334","./1_3_Stimuli/C_ambi40.png","朋友","Image","朋友","Match","j","true","Formal",""
"","","","","","psychophysics","208","499985","0.0-9.0-0.0-0.47","729","","f","","","","","","","","","","","","","key","f","16.666230088495443","853.3333333333334","529.3333333333334","./1_3_Stimuli/C_ambi40.png","自我","Image","朋友","Mismatch","f","true","Formal",""
"","","","","","psychophysics","209","501814","0.0-9.0-0.0-0.48","674","","f","","","","","","","","","","","","","key","f","16.66561467889878","853.3333333333334","529.3333333333334","./1_3_Stimuli/S_ambi40.png","朋友","Image","他人","Mismatch","f","true","Formal",""
"","","","","","psychophysics","210","503721","0.0-9.0-0.0-0.49","748","","f","","","","","","","","","","","","","key","f","16.668428571428585","853.3333333333334","529.3333333333334","./1_3_Stimuli/T_ambi40.png","朋友","Word","自我","Mismatch","f","true","Formal",""
"","","","","","psychophysics","211","505546","0.0-9.0-0.0-0.50","673","","f","","","","","","","","","","","","","key","f","16.664888888889067","853.3333333333334","529.3333333333334","./1_3_Stimuli/T_ambi40.png","他人","Word","自我","Mismatch","f","true","Formal",""
"","","","","","psychophysics","212","507214","0.0-9.0-0.0-0.51","507","","f","","","","","","","","","","","","","key","f","16.66651515151501","853.3333333333334","529.3333333333334","./1_3_Stimuli/S_ambi40.png","自我","Word","他人","Mismatch","f","true","Formal",""
"","","","","","psychophysics","213","508922","0.0-9.0-0.0-0.52","549","","f","","","","","","","","","","","","","key","f","16.665831683168424","853.3333333333334","529.3333333333334","./1_3_Stimuli/T_ambi40.png","他人","Image","自我","Mismatch","f","true","Formal",""
"","","","","","psychophysics","214","510758","0.0-9.0-0.0-0.53","685","","j","","","","","","","","","","","","","key","j","16.666018348624032","853.3333333333334","529.3333333333334","./1_3_Stimuli/S_ambi40.png","他人","Word","他人","Match","j","true","Formal",""
"","","","","","psychophysics","215","512567","0.0-9.0-0.0-0.54","655","","f","","","","","","","","","","","","","key","f","16.665745283019035","853.3333333333334","529.3333333333334","./1_3_Stimuli/S_ambi40.png","自我","Image","他人","Mismatch","f","true","Formal",""
"","","","","","psychophysics","216","514263","0.0-9.0-0.0-0.55","540","","j","","","","","","","","","","","","","key","j","16.66530000000028","853.3333333333334","529.3333333333334","./1_3_Stimuli/T_ambi40.png","自我","Image","自我","Match","j","true","Formal",""
"","","","","","psychophysics","217","516242","0.0-9.0-0.0-0.56","818","","j","","","","","","","","","","","","","key","j","16.66611016949173","853.3333333333334","529.3333333333334","./1_3_Stimuli/T_ambi40.png","自我","Word","自我","Match","j","true","Formal",""
"","","","","","psychophysics","218","517933","0.0-9.0-0.0-0.57","527","","j","","","","","","","","","","","","","key","j","16.665929999999936","853.3333333333334","529.3333333333334","./1_3_Stimuli/C_ambi40.png","朋友","Word","朋友","Match","j","true","Formal",""
"","","","","","psychophysics","219","519944","0.0-9.0-0.0-0.58","855","","j","","","","","","","","","","","","","key","j","16.667008403361436","853.3333333333334","529.3333333333334","./1_3_Stimuli/C_ambi40.png","朋友","Image","朋友","Match","j","true","Formal",""
"","","","","","psychophysics","220","521579","0.0-9.0-0.0-0.59","472","","j","","","","","","","","","","","","","key","j","16.665298969072012","853.3333333333334","529.3333333333334","./1_3_Stimuli/S_ambi40.png","他人","Image","他人","Match","j","true","Formal",""
"","","","","","psychophysics","221","523127","0.0-9.0-0.0-0.60","395","","f","","","","","","","","","","","","","key","f","16.66517391304344","853.3333333333334","529.3333333333334","./1_3_Stimuli/C_ambi40.png","自我","Word","朋友","Mismatch","f","true","Formal",""
"","","","","","psychophysics","222","524721","0.0-9.0-0.0-0.61","431","","j","","","","","","","","","","","","","key","j","16.665691489362445","853.3333333333334","529.3333333333334","./1_3_Stimuli/T_ambi40.png","自我","Word","自我","Match","j","true","Formal",""
"","","","","","psychophysics","223","526429","0.0-9.0-0.0-0.62","555","","f","","","","","","","","","","","","","key","f","16.667108910890196","853.3333333333334","529.3333333333334","./1_3_Stimuli/T_ambi40.png","自我","Image","自我","Match","j","false","Formal",""
"","","","","","psychophysics","224","528200","0.0-9.0-0.0-0.63","593","","f","","","","","","","","","","","","","key","f","16.667057692307235","853.3333333333334","529.3333333333334","./1_3_Stimuli/C_ambi40.png","自我","Image","朋友","Mismatch","f","true","Formal",""
"","","","","","psychophysics","225","529988","0.0-9.0-0.0-0.64","632","","f","","","","","","","","","","","","","key","f","16.665915094340168","853.3333333333334","529.3333333333334","./1_3_Stimuli/S_ambi40.png","朋友","Word","他人","Mismatch","f","true","Formal",""
"","","","","","psychophysics","226","531659","0.0-9.0-0.0-0.65","519","","j","","","","","","","","","","","","","key","j","16.665171717171265","853.3333333333334","529.3333333333334","./1_3_Stimuli/C_ambi40.png","朋友","Word","朋友","Match","j","true","Formal",""
"","","","","","psychophysics","227","533434","0.0-9.0-0.0-0.66","611","","f","","","","","","","","","","","","","key","f","16.667885714285962","853.3333333333334","529.3333333333334","./1_3_Stimuli/C_ambi40.png","他人","Image","朋友","Mismatch","f","true","Formal",""
"","","","","","psychophysics","228","535147","0.0-9.0-0.0-0.67","557","","f","","","","","","","","","","","","","key","f","16.665079207920314","853.3333333333334","529.3333333333334","./1_3_Stimuli/C_ambi40.png","他人","Word","朋友","Mismatch","f","true","Formal",""
"","","","","","psychophysics","229","536882","0.0-9.0-0.0-0.68","578","","f","","","","","","","","","","","","","key","f","16.66666019417445","853.3333333333334","529.3333333333334","./1_3_Stimuli/T_ambi40.png","朋友","Image","自我","Mismatch","f","true","Formal",""
"","","","","","psychophysics","230","538783","0.0-9.0-0.0-0.69","744","","j","","","","","","","","","","","","","key","j","16.666265486725152","853.3333333333334","529.3333333333334","./1_3_Stimuli/C_ambi40.png","朋友","Image","朋友","Match","j","true","Formal",""
"","","","","","psychophysics","231","540472","0.0-9.0-0.0-0.70","533","","j","","","","","","","","","","","","","key","j","16.667999999999303","853.3333333333334","529.3333333333334","./1_3_Stimuli/S_ambi40.png","他人","Image","他人","Match","j","true","Formal",""
"","","","","","psychophysics","232","542215","0.0-9.0-0.0-0.71","591","","j","","","","","","","","","","","","","key","j","16.66673786407766","853.3333333333334","529.3333333333334","./1_3_Stimuli/S_ambi40.png","他人","Word","他人","Match","j","true","Formal",""
"","","","","","psychophysics","233","543799","0.0-9.0-0.0-0.72","431","","j","","","","","","","","","","","","","key","j","16.666085106382603","853.3333333333334","529.3333333333334","./1_3_Stimuli/S_ambi40.png","他人","Image","他人","Match","j","true","Formal",""
"","","","","","psychophysics","234","545321","0.0-9.0-0.0-0.73","365","","j","","","","","","","","","","","","","key","j","16.66502222222302","853.3333333333334","529.3333333333334","./1_3_Stimuli/S_ambi40.png","他人","Word","他人","Match","j","true","Formal",""
"","","","","","psychophysics","235","547038","0.0-9.0-0.0-0.74","565","","j","","","","","","","","","","","","","key","j","16.666178217821635","853.3333333333334","529.3333333333334","./1_3_Stimuli/C_ambi40.png","朋友","Word","朋友","Match","j","true","Formal",""
"","","","","","psychophysics","236","548750","0.0-9.0-0.0-0.75","561","","j","","","","","","","","","","","","","key","j","16.66484158415933","853.3333333333334","529.3333333333334","./1_3_Stimuli/T_ambi40.png","自我","Image","自我","Match","j","true","Formal",""
"","","","","","psychophysics","237","550525","0.0-9.0-0.0-0.76","620","","f","","","","","","","","","","","","","key","f","16.66719811320753","853.3333333333334","529.3333333333334","./1_3_Stimuli/S_ambi40.png","朋友","Word","他人","Mismatch","f","true","Formal",""
"","","","","","psychophysics","238","552315","0.0-9.0-0.0-0.77","633","","f","","","","","","","","","","","","","key","f","16.66642452830137","853.3333333333334","529.3333333333334","./1_3_Stimuli/T_ambi40.png","他人","Word","自我","Mismatch","f","true","Formal",""
"","","","","","psychophysics","239","554595","0.0-9.0-0.0-0.78","1123","","f","","","","","","","","","","","","","key","f","16.66587500000006","853.3333333333334","529.3333333333334","./1_3_Stimuli/C_ambi40.png","他人","Word","朋友","Mismatch","f","true","Formal",""
"","","","","","psychophysics","240","556300","0.0-9.0-0.0-0.79","551","","j","","","","","","","","","","","","","key","j","17.178622448979638","853.3333333333334","529.3333333333334","./1_3_Stimuli/T_ambi40.png","自我","Image","自我","Match","j","true","Formal",""
"","","","","","psychophysics","241","558065","0.0-9.0-0.0-0.80","609","","j","","","","","","","","","","","","","key","j","16.665711538460947","853.3333333333334","529.3333333333334","./1_3_Stimuli/T_ambi40.png","自我","Word","自我","Match","j","true","Formal",""
"","","","","","psychophysics","242","559731","0.0-9.0-0.0-0.81","514","","f","","","","","","","","","","","","","key","f","16.667242424242726","853.3333333333334","529.3333333333334","./1_3_Stimuli/T_ambi40.png","朋友","Image","自我","Mismatch","f","true","Formal",""
"","","","","","psychophysics","243","561262","0.0-9.0-0.0-0.82","372","","j","","","","","","","","","","","","","key","j","16.666945054945487","853.3333333333334","529.3333333333334","./1_3_Stimuli/C_ambi40.png","朋友","Image","朋友","Match","j","true","Formal",""
"","","","","","psychophysics","244","563073","0.0-9.0-0.0-0.83","650","","f","","","","","","","","","","","","","key","f","16.666336448598766","853.3333333333334","529.3333333333334","./1_3_Stimuli/T_ambi40.png","他人","Image","自我","Mismatch","f","true","Formal",""
"","","","","","psychophysics","245","564864","0.0-9.0-0.0-0.84","639","","f","","","","","","","","","","","","","key","f","16.665933962264493","853.3333333333334","529.3333333333334","./1_3_Stimuli/S_ambi40.png","他人","Image","他人","Match","j","false","Formal",""
"","","","","","psychophysics","246","566572","0.0-9.0-0.0-0.85","548","","f","","","","","","","","","","","","","key","f","16.66713861386075","853.3333333333334","529.3333333333334","./1_3_Stimuli/C_ambi40.png","他人","Image","朋友","Mismatch","f","true","Formal",""
"","","","","","psychophysics","247","568666","0.0-9.0-0.0-0.86","943","","f","","","","","","","","","","","","","key","f","16.66765322580637","853.3333333333334","529.3333333333334","./1_3_Stimuli/T_ambi40.png","朋友","Word","自我","Mismatch","f","true","Formal",""
"","","","","","psychophysics","248","570648","0.0-9.0-0.0-0.87","826","","f","","","","","","","","","","","","","key","f","16.665999999999904","853.3333333333334","529.3333333333334","./1_3_Stimuli/S_ambi40.png","朋友","Image","他人","Mismatch","f","true","Formal",""
"","","","","","psychophysics","249","572556","0.0-9.0-0.0-0.88","749","","f","","","","","","","","","","","","","key","f","16.666469026548558","853.3333333333334","529.3333333333334","./1_3_Stimuli/S_ambi40.png","自我","Image","他人","Mismatch","f","true","Formal",""
"","","","","","psychophysics","250","574184","0.0-9.0-0.0-0.89","476","","j","","","","","","","","","","","","","key","j","16.667124999999942","853.3333333333334","529.3333333333334","./1_3_Stimuli/T_ambi40.png","自我","Word","自我","Match","j","true","Formal",""
"","","","","","psychophysics","251","575714","0.0-9.0-0.0-0.90","374","","j","","","","","","","","","","","","","key","j","16.66626666666707","853.3333333333334","529.3333333333334","./1_3_Stimuli/C_ambi40.png","朋友","Image","朋友","Match","j","true","Formal",""
"","","","","","psychophysics","252","577346","0.0-9.0-0.0-0.91","479","","j","","","","","","","","","","","","","key","j","16.665855670102978","853.3333333333334","529.3333333333334","./1_3_Stimuli/C_ambi40.png","朋友","Word","朋友","Match","j","true","Formal",""
"","","","","","psychophysics","253","578963","0.0-9.0-0.0-0.92","460","","f","","","","","","","","","","","","","key","f","16.667093750000884","853.3333333333334","529.3333333333334","./1_3_Stimuli/C_ambi40.png","自我","Word","朋友","Mismatch","f","true","Formal",""
"","","","","","psychophysics","254","580716","0.0-9.0-0.0-0.93","597","","f","","","","","","","","","","","","","key","f","16.665708737864918","853.3333333333334","529.3333333333334","./1_3_Stimuli/C_ambi40.png","自我","Image","朋友","Mismatch","f","true","Formal",""
"","","","","","psychophysics","255","582374","0.0-9.0-0.0-0.94","501","","f","","","","","","","","","","","","","key","f","16.666163265305972","853.3333333333334","529.3333333333334","./1_3_Stimuli/S_ambi40.png","自我","Word","他人","Mismatch","f","true","Formal",""
"","","","","","psychophysics","256","584114","0.0-9.0-0.0-0.95","578","","j","","","","","","","","","","","","","key","j","16.664844660194664","853.3333333333334","529.3333333333334","./1_3_Stimuli/S_ambi40.png","他人","Word","他人","Match","j","true","Formal",""
"","","","","","psychophysics","257","585735","0.0-9.0-0.0-0.96","462","","f","","","","","","","","","","","","","key","f","16.667218750000757","853.3333333333334","529.3333333333334","./1_3_Stimuli/S_ambi40.png","朋友","Word","他人","Mismatch","f","true","Formal",""
"","","","","","psychophysics","258","587382","0.0-9.0-0.0-0.97","492","","f","","","","","","","","","","","","","key","f","16.66489690721645","853.3333333333334","529.3333333333334","./1_3_Stimuli/C_ambi40.png","自我","Word","朋友","Mismatch","f","true","Formal",""
"","","","","","psychophysics","259","589138","0.0-9.0-0.0-0.98","599","","j","","","","","","","","","","","","","key","j","16.665173076923775","853.3333333333334","529.3333333333334","./1_3_Stimuli/S_ambi40.png","他人","Image","他人","Match","j","true","Formal",""
"","","","","","psychophysics","260","590928","0.0-9.0-0.0-0.99","638","","f","","","","","","","","","","","","","key","f","16.666792452829572","853.3333333333334","529.3333333333334","./1_3_Stimuli/T_ambi40.png","他人","Word","自我","Mismatch","f","true","Formal",""
"","","","","","psychophysics","261","592615","0.0-9.0-0.0-0.100","532","","j","","","","","","","","","","","","","key","j","16.6677099999995","853.3333333333334","529.3333333333334","./1_3_Stimuli/S_ambi40.png","他人","Word","他人","Match","j","true","Formal",""
"","","","","","psychophysics","262","594251","0.0-9.0-0.0-0.101","478","","f","","","","","","","","","","","","","key","f","16.66601030927838","853.3333333333334","529.3333333333334","./1_3_Stimuli/C_ambi40.png","他人","Word","朋友","Mismatch","f","true","Formal",""
"","","","","","psychophysics","263","595948","0.0-9.0-0.0-0.102","542","","j","","","","","","","","","","","","","key","j","16.66548999999999","853.3333333333334","529.3333333333334","./1_3_Stimuli/T_ambi40.png","自我","Word","自我","Match","j","true","Formal",""
"","","","","","psychophysics","264","597665","0.0-9.0-0.0-0.103","560","","j","","","","","","","","","","","","","key","j","16.667558823529557","853.3333333333334","529.3333333333334","./1_3_Stimuli/C_ambi40.png","朋友","Word","朋友","Match","j","true","Formal",""
"","","","","","psychophysics","265","599458","0.0-9.0-0.0-0.104","640","","f","","","","","","","","","","","","","key","f","16.668682242990645","853.3333333333334","529.3333333333334","./1_3_Stimuli/S_ambi40.png","自我","Image","他人","Mismatch","f","true","Formal",""
"","","","","","psychophysics","266","601200","0.0-9.0-0.0-0.105","582","","j","","","","","","","","","","","","","key","j","16.66723300970964","853.3333333333334","529.3333333333334","./1_3_Stimuli/C_ambi40.png","朋友","Word","朋友","Match","j","true","Formal",""
"","","","","","psychophysics","267","602818","0.0-9.0-0.0-0.106","462","","j","","","","","","","","","","","","","key","j","16.667708333333092","853.3333333333334","529.3333333333334","./1_3_Stimuli/S_ambi40.png","他人","Word","他人","Match","j","true","Formal",""
"","","","","","psychophysics","268","604672","0.0-9.0-0.0-0.107","699","","j","","","","","","","","","","","","","key","j","16.667100917431526","853.3333333333334","529.3333333333334","./1_3_Stimuli/T_ambi40.png","自我","Word","自我","Match","j","true","Formal",""
"","","","","","psychophysics","269","606415","0.0-9.0-0.0-0.108","593","","f","","","","","","","","","","","","","key","f","16.666378640776582","853.3333333333334","529.3333333333334","./1_3_Stimuli/C_ambi40.png","他人","Image","朋友","Mismatch","f","true","Formal",""
"","","","","","psychophysics","270","607998","0.0-9.0-0.0-0.109","426","","j","","","","","","","","","","","","","key","j","16.66732978723458","853.3333333333334","529.3333333333334","./1_3_Stimuli/C_ambi40.png","朋友","Image","朋友","Match","j","true","Formal",""
"","","","","","psychophysics","271","609709","0.0-9.0-0.0-0.110","559","","f","","","","","","","","","","","","","key","f","16.666500000000074","853.3333333333334","529.3333333333334","./1_3_Stimuli/T_ambi40.png","他人","Image","自我","Mismatch","f","true","Formal",""
"","","","","","psychophysics","272","611287","0.0-9.0-0.0-0.111","419","","j","","","","","","","","","","","","","key","j","16.665591397849713","853.3333333333334","529.3333333333334","./1_3_Stimuli/T_ambi40.png","朋友","Word","自我","Mismatch","f","false","Formal",""
"","","","","","psychophysics","273","612877","0.0-9.0-0.0-0.112","438","","j","","","","","","","","","","","","","key","j","16.6687978723401","853.3333333333334","529.3333333333334","./1_3_Stimuli/T_ambi40.png","自我","Image","自我","Match","j","true","Formal",""
"","","","","","psychophysics","274","614753","0.0-9.0-0.0-0.113","714","","f","","","","","","","","","","","","","key","f","16.66603603603545","853.3333333333334","529.3333333333334","./1_3_Stimuli/S_ambi40.png","朋友","Image","他人","Mismatch","f","true","Formal",""
"","","","","","psychophysics","275","616466","0.0-9.0-0.0-0.114","560","","j","","","","","","","","","","","","","key","j","16.667514851485095","853.3333333333334","529.3333333333334","./1_3_Stimuli/T_ambi40.png","自我","Image","自我","Match","j","true","Formal",""
"","","","","","psychophysics","276","618249","0.0-9.0-0.0-0.115","627","","j","","","","","","","","","","","","","key","j","17.492029702970942","853.3333333333334","529.3333333333334","./1_3_Stimuli/S_ambi40.png","他人","Image","他人","Match","j","true","Formal",""
"","","","","","psychophysics","277","620000","0.0-9.0-0.0-0.116","600","","j","","","","","","","","","","","","","key","j","16.667990384614452","853.3333333333334","529.3333333333334","./1_3_Stimuli/C_ambi40.png","朋友","Image","朋友","Match","j","true","Formal",""
"","","","","","psychophysics","278","621745","0.0-9.0-0.0-0.117","588","","f","","","","","","","","","","","","","key","f","16.666605769230117","853.3333333333334","529.3333333333334","./1_3_Stimuli/C_ambi40.png","自我","Image","朋友","Mismatch","f","true","Formal",""
"","","","","","psychophysics","279","623557","0.0-9.0-0.0-0.118","651","","f","","","","","","","","","","","","","key","f","16.666287037036252","853.3333333333334","529.3333333333334","./1_3_Stimuli/S_ambi40.png","自我","Word","他人","Mismatch","f","true","Formal",""
"","","","","","psychophysics","280","625307","0.0-9.0-0.0-0.119","592","","f","","","","","","","","","","","","","key","f","16.662759615384857","853.3333333333334","529.3333333333334","./1_3_Stimuli/T_ambi40.png","朋友","Image","自我","Mismatch","f","true","Formal",""
"","","","","","html-keyboard-response","281","629571","0.0-9.0-1.0","4261","<style>.context{color:white; font-size: 35px; line-height:40px}</style>                        <div><p class='context'>您正确回答了93% 的试次。</p><p class='context'>您的平均反应时为576毫秒。</p><p> <div style = 'color: green'><按任意键进入休息></div></p>"," ","","","","","","","","","","","","","","","","","","","","","","","","","",""
"","","","","","html-button-response","282","663585","0.0-9.0-2.0","34010","
                  <p>您当前还剩余5组实验</p>
                  <p>现在是休息时间，当您结束休息后，您可以点击 结束休息 按钮 继续</p>
                  <p>建议休息时间还剩余<span id=""iii"">60</span>秒</p>","0","","","","","","","","","","","","","","","","","","","","","","","","","",""
"","","","","","psychophysics","283","665264","0.0-9.0-0.1-0.120","490","","j","","","","","","","","","","","","","key","j","16.666060606060043","853.3333333333334","529.3333333333334","./1_3_Stimuli/T_ambi40.png","自我","Image","自我","Match","j","true","Formal",""
"","","","","","psychophysics","284","666845","0.0-9.0-0.1-0.121","423","","j","","","","","","","","","","","","","key","j","16.664861702127382","853.3333333333334","529.3333333333334","./1_3_Stimuli/S_ambi40.png","朋友","Word","他人","Mismatch","f","false","Formal",""
"","","","","","psychophysics","285","668721","0.0-9.0-0.1-0.122","716","","j","","","","","","","","","","","","","key","j","16.66682882882919","853.3333333333334","529.3333333333334","./1_3_Stimuli/S_ambi40.png","他人","Image","他人","Match","j","true","Formal",""
"","","","","","psychophysics","286","670305","0.0-9.0-0.1-0.123","433","","j","","","","","","","","","","","","","key","j","16.668247311827926","853.3333333333334","529.3333333333334","./1_3_Stimuli/T_ambi40.png","自我","Word","自我","Match","j","true","Formal",""
"","","","","","psychophysics","287","672083","0.0-9.0-0.1-0.124","627","","f","","","","","","","","","","","","","key","f","16.66755238095232","853.3333333333334","529.3333333333334","./1_3_Stimuli/C_ambi40.png","自我","Word","朋友","Mismatch","f","true","Formal",""
"","","","","","psychophysics","288","674032","0.0-9.0-0.1-0.125","797","","j","","","","","","","","","","","","","key","j","16.667843478261087","853.3333333333334","529.3333333333334","./1_3_Stimuli/C_ambi40.png","他人","Image","朋友","Mismatch","f","false","Formal",""
"","","","","","psychophysics","289","675913","0.0-9.0-0.1-0.126","724","","f","","","","","","","","","","","","","key","f","16.66609009009102","853.3333333333334","529.3333333333334","./1_3_Stimuli/T_ambi40.png","朋友","Word","自我","Mismatch","f","true","Formal",""
"","","","","","psychophysics","290","677551","0.0-9.0-0.1-0.127","482","","j","","","","","","","","","","","","","key","j","16.66601030927838","853.3333333333334","529.3333333333334","./1_3_Stimuli/C_ambi40.png","朋友","Image","朋友","Match","j","true","Formal",""
"","","","","","psychophysics","291","679279","0.0-9.0-0.1-0.128","573","","j","","","","","","","","","","","","","key","j","16.667892156862745","853.3333333333334","529.3333333333334","./1_3_Stimuli/C_ambi40.png","朋友","Word","朋友","Match","j","true","Formal",""
"","","","","","psychophysics","292","681014","0.0-9.0-0.1-0.129","576","","j","","","","","","","","","","","","","key","j","16.66447572815526","853.3333333333334","529.3333333333334","./1_3_Stimuli/S_ambi40.png","他人","Word","他人","Match","j","true","Formal",""
"","","","","","psychophysics","293","682644","0.0-9.0-0.1-0.130","475","","f","","","","","","","","","","","","","key","f","16.666309278350344","853.3333333333334","529.3333333333334","./1_3_Stimuli/S_ambi40.png","自我","Word","他人","Mismatch","f","true","Formal",""
"","","","","","psychophysics","294","684803","0.0-9.0-0.1-0.131","997","","f","","","","","","","","","","","","","key","f","16.667820312500226","853.3333333333334","529.3333333333334","./1_3_Stimuli/T_ambi40.png","朋友","Image","自我","Mismatch","f","true","Formal",""
"","","","","","psychophysics","295","686650","0.0-9.0-0.1-0.132","695","","f","","","","","","","","","","","","","key","f","16.66340366972465","853.3333333333334","529.3333333333334","./1_3_Stimuli/S_ambi40.png","自我","Image","他人","Mismatch","f","true","Formal",""
"","","","","","psychophysics","296","688518","0.0-9.0-0.1-0.133","713","","f","","","","","","","","","","","","","key","f","16.66555454545464","853.3333333333334","529.3333333333334","./1_3_Stimuli/S_ambi40.png","朋友","Image","他人","Mismatch","f","true","Formal",""
"","","","","","psychophysics","297","690248","0.0-9.0-0.1-0.134","576","","f","","","","","","","","","","","","","key","f","16.666941176471074","853.3333333333334","529.3333333333334","./1_3_Stimuli/T_ambi40.png","他人","Word","自我","Mismatch","f","true","Formal",""
"","","","","","psychophysics","298","692235","0.0-9.0-0.1-0.135","828","","f","","","","","","","","","","","","","key","f","16.66650847457665","853.3333333333334","529.3333333333334","./1_3_Stimuli/C_ambi40.png","自我","Image","朋友","Mismatch","f","true","Formal",""
"","","","","","psychophysics","299","693854","0.0-9.0-0.1-0.136","465","","j","","","","","","","","","","","","","key","j","16.66559999999958","853.3333333333334","529.3333333333334","./1_3_Stimuli/S_ambi40.png","他人","Image","他人","Match","j","true","Formal",""
"","","","","","psychophysics","300","695514","0.0-9.0-0.1-0.137","508","","j","","","","","","","","","","","","","key","j","16.66648979591828","853.3333333333334","529.3333333333334","./1_3_Stimuli/T_ambi40.png","自我","Image","自我","Match","j","true","Formal",""
"","","","","","psychophysics","301","697037","0.0-9.0-0.1-0.138","366","","j","","","","","","","","","","","","","key","j","16.66523333333381","853.3333333333334","529.3333333333334","./1_3_Stimuli/C_ambi40.png","朋友","Word","朋友","Match","j","true","Formal",""
"","","","","","psychophysics","302","698597","0.0-9.0-0.1-0.139","374","","j","","","","","","","","","","","","","key","j","16.666608695651952","853.3333333333334","529.3333333333334","./1_3_Stimuli/T_ambi40.png","自我","Word","自我","Match","j","true","Formal",""
"","","","","","psychophysics","303","700247","0.0-9.0-0.1-0.140","495","","j","","","","","","","","","","","","","key","j","16.665785714285448","853.3333333333334","529.3333333333334","./1_3_Stimuli/S_ambi40.png","他人","Word","他人","Match","j","true","Formal",""
"","","","","","psychophysics","304","701915","0.0-9.0-0.1-0.141","509","","f","","","","","","","","","","","","","key","f","16.666787878787755","853.3333333333334","529.3333333333334","./1_3_Stimuli/T_ambi40.png","他人","Image","自我","Mismatch","f","true","Formal",""
"","","","","","psychophysics","305","703630","0.0-9.0-0.1-0.142","558","","f","","","","","","","","","","","","","key","f","16.66680392156944","853.3333333333334","529.3333333333334","./1_3_Stimuli/C_ambi40.png","他人","Word","朋友","Mismatch","f","true","Formal",""
"","","","","","psychophysics","306","705234","0.0-9.0-0.1-0.143","450","","j","","","","","","","","","","","","","key","j","16.66720212766024","853.3333333333334","529.3333333333334","./1_3_Stimuli/C_ambi40.png","朋友","Image","朋友","Match","j","true","Formal",""
"","","","","","psychophysics","307","706805","0.0-9.0-0.1-0.144","417","","j","","","","","","","","","","","","","key","j","16.6663695652172","853.3333333333334","529.3333333333334","./1_3_Stimuli/C_ambi40.png","朋友","Image","朋友","Match","j","true","Formal",""
"","","","","","psychophysics","308","708423","0.0-9.0-0.1-0.145","467","","f","","","","","","","","","","","","","key","f","16.66792708333378","853.3333333333334","529.3333333333334","./1_3_Stimuli/S_ambi40.png","自我","Word","他人","Mismatch","f","true","Formal",""
"","","","","","psychophysics","309","709998","0.0-9.0-0.1-0.146","412","","j","","","","","","","","","","","","","key","j","17.026384615385393","853.3333333333334","529.3333333333334","./1_3_Stimuli/T_ambi40.png","自我","Word","自我","Match","j","true","Formal",""
"","","","","","psychophysics","310","711707","0.0-9.0-0.1-0.147","551","","f","","","","","","","","","","","","","key","f","16.66644117647129","853.3333333333334","529.3333333333334","./1_3_Stimuli/T_ambi40.png","他人","Word","自我","Mismatch","f","true","Formal",""
"","","","","","psychophysics","311","713451","0.0-9.0-0.1-0.148","587","","f","","","","","","","","","","","","","key","f","16.664097087378657","853.3333333333334","529.3333333333334","./1_3_Stimuli/T_ambi40.png","朋友","Image","自我","Mismatch","f","true","Formal",""
"","","","","","psychophysics","312","715695","0.0-9.0-0.1-0.149","1080","","j","","","","","","","","","","","","","key","j","16.667894736842666","853.3333333333334","529.3333333333334","./1_3_Stimuli/S_ambi40.png","他人","Image","他人","Match","j","true","Formal",""
"","","","","","psychophysics","313","717531","0.0-9.0-0.1-0.150","676","","j","","","","","","","","","","","","","key","j","16.666657407408046","853.3333333333334","529.3333333333334","./1_3_Stimuli/C_ambi40.png","朋友","Word","朋友","Match","j","true","Formal",""
"","","","","","psychophysics","314","719397","0.0-9.0-0.1-0.151","709","","f","","","","","","","","","","","","","key","f","16.666990990990662","853.3333333333334","529.3333333333334","./1_3_Stimuli/C_ambi40.png","自我","Image","朋友","Mismatch","f","true","Formal",""
"","","","","","psychophysics","315","721603","0.0-9.0-0.1-0.152","1050","","j","","","","","","","","","","","","","key","j","16.666862595420266","853.3333333333334","529.3333333333334","./1_3_Stimuli/C_ambi40.png","朋友","Image","朋友","Match","j","true","Formal",""
"","","","","","psychophysics","316","723150","0.0-9.0-0.1-0.153","395","","j","","","","","","","","","","","","","key","j","16.665000000000152","853.3333333333334","529.3333333333334","./1_3_Stimuli/T_ambi40.png","自我","Image","自我","Match","j","true","Formal",""
"","","","","","psychophysics","317","724913","0.0-9.0-0.1-0.154","607","","f","","","","","","","","","","","","","key","f","16.666432692307772","853.3333333333334","529.3333333333334","./1_3_Stimuli/S_ambi40.png","自我","Image","他人","Mismatch","f","true","Formal",""
"","","","","","psychophysics","318","726837","0.0-9.0-0.1-0.155","765","","j","","","","","","","","","","","","","key","j","16.666008771930233","853.3333333333334","529.3333333333334","./1_3_Stimuli/S_ambi40.png","他人","Word","他人","Match","j","true","Formal",""
"","","","","","psychophysics","319","728449","0.0-9.0-0.1-0.156","461","","f","","","","","","","","","","","","","key","f","16.666894736843133","853.3333333333334","529.3333333333334","./1_3_Stimuli/C_ambi40.png","他人","Word","朋友","Mismatch","f","true","Formal",""
"","","","","","psychophysics","320","730113","0.0-9.0-0.1-0.157","509","","j","","","","","","","","","","","","","key","j","16.66646464646446","853.3333333333334","529.3333333333334","./1_3_Stimuli/T_ambi40.png","自我","Image","自我","Match","j","true","Formal",""
"","","","","","psychophysics","321","731863","0.0-9.0-0.1-0.158","596","","f","","","","","","","","","","","","","key","f","16.66699038461509","853.3333333333334","529.3333333333334","./1_3_Stimuli/C_ambi40.png","他人","Image","朋友","Mismatch","f","true","Formal",""
"","","","","","psychophysics","322","733749","0.0-9.0-0.1-0.159","732","","f","","","","","","","","","","","","","key","f","16.665830357143673","853.3333333333334","529.3333333333334","./1_3_Stimuli/S_ambi40.png","朋友","Image","他人","Mismatch","f","true","Formal",""
"","","","","","psychophysics","323","735452","0.0-9.0-0.1-0.160","548","","j","","","","","","","","","","","","","key","j","16.667108910891347","853.3333333333334","529.3333333333334","./1_3_Stimuli/S_ambi40.png","他人","Image","他人","Match","j","true","Formal",""
"","","","","","psychophysics","324","737113","0.0-9.0-0.1-0.161","507","","f","","","","","","","","","","","","","key","f","16.665816326530614","853.3333333333334","529.3333333333334","./1_3_Stimuli/T_ambi40.png","他人","Image","自我","Mismatch","f","true","Formal",""
"","","","","","psychophysics","325","738810","0.0-9.0-0.1-0.162","538","","j","","","","","","","","","","","","","key","j","16.664841584158175","853.3333333333334","529.3333333333334","./1_3_Stimuli/C_ambi40.png","朋友","Word","朋友","Match","j","true","Formal",""
"","","","","","psychophysics","326","740531","0.0-9.0-0.1-0.163","559","","f","","","","","","","","","","","","","key","f","16.666509803922107","853.3333333333334","529.3333333333334","./1_3_Stimuli/S_ambi40.png","朋友","Word","他人","Mismatch","f","true","Formal",""
"","","","","","psychophysics","327","742260","0.0-9.0-0.1-0.164","576","","j","","","","","","","","","","","","","key","j","16.996772277227713","853.3333333333334","529.3333333333334","./1_3_Stimuli/S_ambi40.png","他人","Word","他人","Match","j","true","Formal",""
"","","","","","psychophysics","328","743877","0.0-9.0-0.1-0.165","462","","j","","","","","","","","","","","","","key","j","16.667864583333238","853.3333333333334","529.3333333333334","./1_3_Stimuli/T_ambi40.png","自我","Word","自我","Match","j","true","Formal",""
"","","","","","psychophysics","329","745687","0.0-9.0-0.1-0.166","656","","f","","","","","","","","","","","","","key","f","16.667794392522527","853.3333333333334","529.3333333333334","./1_3_Stimuli/T_ambi40.png","朋友","Word","自我","Mismatch","f","true","Formal",""
"","","","","","psychophysics","330","747560","0.0-9.0-0.1-0.167","720","","f","","","","","","","","","","","","","key","f","16.666630630631015","853.3333333333334","529.3333333333334","./1_3_Stimuli/C_ambi40.png","自我","Word","朋友","Mismatch","f","true","Formal",""
"","","","","","psychophysics","331","749246","0.0-9.0-0.1-0.168","524","","j","","","","","","","","","","","","","key","j","16.665101010101903","853.3333333333334","529.3333333333334","./1_3_Stimuli/C_ambi40.png","朋友","Word","朋友","Match","j","true","Formal",""
"","","","","","psychophysics","332","750903","0.0-9.0-0.1-0.169","504","","j","","","","","","","","","","","","","key","j","16.666367346938813","853.3333333333334","529.3333333333334","./1_3_Stimuli/T_ambi40.png","自我","Word","自我","Match","j","true","Formal",""
"","","","","","psychophysics","333","752740","0.0-9.0-0.1-0.170","684","","j","","","","","","","","","","","","","key","j","16.666045871558985","853.3333333333334","529.3333333333334","./1_3_Stimuli/S_ambi40.png","他人","Image","他人","Match","j","true","Formal",""
"","","","","","psychophysics","334","754532","0.0-9.0-0.1-0.171","627","","j","","","","","","","","","","","","","key","j","16.66905660377398","853.3333333333334","529.3333333333334","./1_3_Stimuli/T_ambi40.png","自我","Word","自我","Match","j","true","Formal",""
"","","","","","psychophysics","335","756199","0.0-9.0-0.1-0.172","516","","f","","","","","","","","","","","","","key","f","16.666797979798336","853.3333333333334","529.3333333333334","./1_3_Stimuli/T_ambi40.png","他人","Image","自我","Mismatch","f","true","Formal",""
"","","","","","psychophysics","336","757931","0.0-9.0-0.1-0.173","581","","f","","","","","","","","","","","","","key","f","16.666446601941466","853.3333333333334","529.3333333333334","./1_3_Stimuli/S_ambi40.png","朋友","Image","他人","Mismatch","f","true","Formal",""
"","","","","","psychophysics","337","759983","0.0-9.0-0.1-0.174","898","","f","","","","","","","","","","","","","key","f","16.666754098360993","853.3333333333334","529.3333333333334","./1_3_Stimuli/T_ambi40.png","朋友","Image","自我","Mismatch","f","true","Formal",""
"","","","","","psychophysics","338","761647","0.0-9.0-0.1-0.175","509","","j","","","","","","","","","","","","","key","j","16.666626262626696","853.3333333333334","529.3333333333334","./1_3_Stimuli/S_ambi40.png","他人","Word","他人","Match","j","true","Formal",""
"","","","","","psychophysics","339","763294","0.0-9.0-0.1-0.176","494","","f","","","","","","","","","","","","","key","f","16.667061224490716","853.3333333333334","529.3333333333334","./1_3_Stimuli/S_ambi40.png","朋友","Word","他人","Mismatch","f","true","Formal",""
"","","","","","psychophysics","340","765202","0.0-9.0-0.1-0.177","750","","f","","","","","","","","","","","","","key","f","16.66421428571422","853.3333333333334","529.3333333333334","./1_3_Stimuli/C_ambi40.png","自我","Image","朋友","Mismatch","f","true","Formal",""
"","","","","","psychophysics","341","766930","0.0-9.0-0.1-0.178","574","","j","","","","","","","","","","","","","key","j","16.669088235293863","853.3333333333334","529.3333333333334","./1_3_Stimuli/T_ambi40.png","自我","Image","自我","Match","j","true","Formal",""
"","","","","","psychophysics","342","768611","0.0-9.0-0.1-0.179","522","","j","","","","","","","","","","","","","key","j","16.665360000000803","853.3333333333334","529.3333333333334","./1_3_Stimuli/C_ambi40.png","朋友","Word","朋友","Match","j","true","Formal",""
"","","","","","psychophysics","343","770251","0.0-9.0-0.1-0.180","479","","f","","","","","","","","","","","","","key","f","16.66719587628859","853.3333333333334","529.3333333333334","./1_3_Stimuli/C_ambi40.png","他人","Word","朋友","Mismatch","f","true","Formal",""
"","","","","","psychophysics","344","771919","0.0-9.0-0.1-0.181","514","","f","","","","","","","","","","","","","key","f","16.664663265306","853.3333333333334","529.3333333333334","./1_3_Stimuli/S_ambi40.png","自我","Word","他人","Mismatch","f","true","Formal",""
"","","","","","psychophysics","345","773767","0.0-9.0-0.1-0.182","695","","j","","","","","","","","","","","","","key","j","16.668321100916977","853.3333333333334","529.3333333333334","./1_3_Stimuli/S_ambi40.png","他人","Word","他人","Match","j","true","Formal",""
"","","","","","psychophysics","346","775481","0.0-9.0-0.1-0.183","560","","j","","","","","","","","","","","","","key","j","16.666722772277588","853.3333333333334","529.3333333333334","./1_3_Stimuli/T_ambi40.png","自我","Image","自我","Match","j","true","Formal",""
"","","","","","psychophysics","347","777172","0.0-9.0-0.1-0.184","533","","f","","","","","","","","","","","","","key","f","16.66852000000072","853.3333333333334","529.3333333333334","./1_3_Stimuli/T_ambi40.png","朋友","Word","自我","Mismatch","f","true","Formal",""
"","","","","","psychophysics","348","778929","0.0-9.0-0.1-0.185","599","","f","","","","","","","","","","","","","key","f","16.667134615384455","853.3333333333334","529.3333333333334","./1_3_Stimuli/C_ambi40.png","自我","Word","朋友","Mismatch","f","true","Formal",""
"","","","","","psychophysics","349","780731","0.0-9.0-0.1-0.186","646","","j","","","","","","","","","","","","","key","j","16.667831775700787","853.3333333333334","529.3333333333334","./1_3_Stimuli/C_ambi40.png","朋友","Image","朋友","Match","j","true","Formal",""
"","","","","","psychophysics","350","782465","0.0-9.0-0.1-0.187","577","","j","","","","","","","","","","","","","key","j","16.66765048543728","853.3333333333334","529.3333333333334","./1_3_Stimuli/C_ambi40.png","朋友","Image","朋友","Match","j","true","Formal",""
"","","","","","psychophysics","351","784159","0.0-9.0-0.1-0.188","542","","f","","","","","","","","","","","","","key","f","16.666851485149223","853.3333333333334","529.3333333333334","./1_3_Stimuli/S_ambi40.png","自我","Image","他人","Mismatch","f","true","Formal",""
"","","","","","psychophysics","352","786168","0.0-9.0-0.1-0.189","850","","f","","","","","","","","","","","","","key","f","16.66949152542373","853.3333333333334","529.3333333333334","./1_3_Stimuli/C_ambi40.png","他人","Image","朋友","Mismatch","f","true","Formal",""
"","","","","","psychophysics","353","788206","0.0-9.0-0.1-0.190","884","","f","","","","","","","","","","","","","key","f","16.66597520661144","853.3333333333334","529.3333333333334","./1_3_Stimuli/S_ambi40.png","他人","Image","他人","Match","j","false","Formal",""
"","","","","","psychophysics","354","789987","0.0-9.0-0.1-0.191","599","","f","","","","","","","","","","","","","key","f","16.663514285714232","853.3333333333334","529.3333333333334","./1_3_Stimuli/T_ambi40.png","他人","Word","自我","Mismatch","f","true","Formal",""
"","","","","","psychophysics","355","791655","0.0-9.0-0.1-0.192","516","","f","","","","","","","","","","","","","key","f","16.66671428571417","853.3333333333334","529.3333333333334","./1_3_Stimuli/S_ambi40.png","自我","Word","他人","Mismatch","f","true","Formal",""
"","","","","","psychophysics","356","793452","0.0-9.0-0.1-0.193","647","","f","","","","","","","","","","","","","key","f","16.666094339622912","853.3333333333334","529.3333333333334","./1_3_Stimuli/C_ambi40.png","他人","Word","朋友","Mismatch","f","true","Formal",""
"","","","","","psychophysics","357","795044","0.0-9.0-0.1-0.194","439","","j","","","","","","","","","","","","","key","j","16.664308510637753","853.3333333333334","529.3333333333334","./1_3_Stimuli/S_ambi40.png","他人","Image","他人","Match","j","true","Formal",""
"","","","","","psychophysics","358","796704","0.0-9.0-0.1-0.195","503","","j","","","","","","","","","","","","","key","j","17.37591489361713","853.3333333333334","529.3333333333334","./1_3_Stimuli/T_ambi40.png","自我","Image","自我","Match","j","true","Formal",""
"","","","","","psychophysics","359","798381","0.0-9.0-0.1-0.196","527","","j","","","","","","","","","","","","","key","j","16.665484848483985","853.3333333333334","529.3333333333334","./1_3_Stimuli/S_ambi40.png","他人","Word","他人","Match","j","true","Formal",""
"","","","","","psychophysics","360","800069","0.0-9.0-0.1-0.197","532","","j","","","","","","","","","","","","","key","j","16.664640000000364","853.3333333333334","529.3333333333334","./1_3_Stimuli/S_ambi40.png","他人","Image","他人","Match","j","true","Formal",""
"","","","","","psychophysics","361","801748","0.0-9.0-0.1-0.198","527","","j","","","","","","","","","","","","","key","j","16.668313131313724","853.3333333333334","529.3333333333334","./1_3_Stimuli/T_ambi40.png","朋友","Image","自我","Mismatch","f","false","Formal",""
"","","","","","psychophysics","362","803369","0.0-9.0-0.1-0.199","464","","j","","","","","","","","","","","","","key","j","16.669552083333354","853.3333333333334","529.3333333333334","./1_3_Stimuli/S_ambi40.png","朋友","Word","他人","Mismatch","f","false","Formal",""
"","","","","","psychophysics","363","805177","0.0-9.0-0.1-0.200","655","","f","","","","","","","","","","","","","key","f","16.665009345794008","853.3333333333334","529.3333333333334","./1_3_Stimuli/S_ambi40.png","朋友","Image","他人","Mismatch","f","true","Formal",""
"","","","","","psychophysics","364","806865","0.0-9.0-0.1-0.201","528","","j","","","","","","","","","","","","","key","j","16.66883999999962","853.3333333333334","529.3333333333334","./1_3_Stimuli/T_ambi40.png","自我","Word","自我","Match","j","true","Formal",""
"","","","","","psychophysics","365","808589","0.0-9.0-0.1-0.202","568","","j","","","","","","","","","","","","","key","j","16.663676470588875","853.3333333333334","529.3333333333334","./1_3_Stimuli/T_ambi40.png","朋友","Word","自我","Mismatch","f","false","Formal",""
"","","","","","psychophysics","366","810184","0.0-9.0-0.1-0.203","443","","j","","","","","","","","","","","","","key","j","16.663914893617594","853.3333333333334","529.3333333333334","./1_3_Stimuli/T_ambi40.png","自我","Word","自我","Match","j","true","Formal",""
"","","","","","psychophysics","367","812032","0.0-9.0-0.1-0.204","695","","f","","","","","","","","","","","","","key","f","16.66673394495412","853.3333333333334","529.3333333333334","./1_3_Stimuli/T_ambi40.png","他人","Word","自我","Mismatch","f","true","Formal",""
"","","","","","psychophysics","368","813818","0.0-9.0-0.1-0.205","633","","f","","","","","","","","","","","","","key","f","16.667603773584386","853.3333333333334","529.3333333333334","./1_3_Stimuli/S_ambi40.png","自我","Image","他人","Mismatch","f","true","Formal",""
"","","","","","psychophysics","369","815609","0.0-9.0-0.1-0.206","638","","j","","","","","","","","","","","","","key","j","16.667160377357778","853.3333333333334","529.3333333333334","./1_3_Stimuli/C_ambi40.png","朋友","Word","朋友","Match","j","true","Formal",""
"","","","","","psychophysics","370","817366","0.0-9.0-0.1-0.207","595","","f","","","","","","","","","","","","","key","f","16.667346153845966","853.3333333333334","529.3333333333334","./1_3_Stimuli/T_ambi40.png","他人","Image","自我","Mismatch","f","true","Formal",""
"","","","","","psychophysics","371","819073","0.0-9.0-0.1-0.208","551","","j","","","","","","","","","","","","","key","j","16.663693069307467","853.3333333333334","529.3333333333334","./1_3_Stimuli/C_ambi40.png","朋友","Image","朋友","Match","j","true","Formal",""
"","","","","","psychophysics","372","820651","0.0-9.0-0.1-0.209","413","","j","","","","","","","","","","","","","key","j","16.664548387097554","853.3333333333334","529.3333333333334","./1_3_Stimuli/S_ambi40.png","他人","Word","他人","Match","j","true","Formal",""
"","","","","","psychophysics","373","822476","0.0-9.0-0.1-0.210","671","","j","","","","","","","","","","","","","key","j","16.664240740739775","853.3333333333334","529.3333333333334","./1_3_Stimuli/C_ambi40.png","朋友","Word","朋友","Match","j","true","Formal",""
"","","","","","psychophysics","374","824283","0.0-9.0-0.1-0.211","645","","f","","","","","","","","","","","","","key","f","16.66595327102788","853.3333333333334","529.3333333333334","./1_3_Stimuli/C_ambi40.png","自我","Image","朋友","Mismatch","f","true","Formal",""
"","","","","","psychophysics","375","825864","0.0-9.0-0.1-0.212","426","","j","","","","","","","","","","","","","key","j","16.668086021506447","853.3333333333334","529.3333333333334","./1_3_Stimuli/C_ambi40.png","朋友","Image","朋友","Match","j","true","Formal",""
"","","","","","psychophysics","376","827585","0.0-9.0-0.1-0.213","563","","f","","","","","","","","","","","","","key","f","16.831386138614736","853.3333333333334","529.3333333333334","./1_3_Stimuli/C_ambi40.png","他人","Image","朋友","Mismatch","f","true","Formal",""
"","","","","","psychophysics","377","829130","0.0-9.0-0.1-0.214","393","","j","","","","","","","","","","","","","key","j","16.666608695651952","853.3333333333334","529.3333333333334","./1_3_Stimuli/T_ambi40.png","自我","Image","自我","Match","j","true","Formal",""
"","","","","","psychophysics","378","830851","0.0-9.0-0.1-0.215","565","","f","","","","","","","","","","","","","key","f","16.664519607842735","853.3333333333334","529.3333333333334","./1_3_Stimuli/C_ambi40.png","自我","Word","朋友","Mismatch","f","true","Formal",""
"","","","","","psychophysics","379","832509","0.0-9.0-0.1-0.216","504","","f","","","","","","","","","","","","","key","f","16.665030612244404","853.3333333333334","529.3333333333334","./1_3_Stimuli/T_ambi40.png","他人","Image","自我","Mismatch","f","true","Formal",""
"","","","","","psychophysics","380","834198","0.0-9.0-0.1-0.217","532","","j","","","","","","","","","","","","","key","j","16.665200000000187","853.3333333333334","529.3333333333334","./1_3_Stimuli/S_ambi40.png","朋友","Word","他人","Mismatch","f","false","Formal",""
"","","","","","psychophysics","381","835856","0.0-9.0-0.1-0.218","501","","j","","","","","","","","","","","","","key","j","16.665797979797876","853.3333333333334","529.3333333333334","./1_3_Stimuli/S_ambi40.png","他人","Word","他人","Match","j","true","Formal",""
"","","","","","psychophysics","382","837539","0.0-9.0-0.1-0.219","510","","f","","","","","","","","","","","","","key","f","16.665279999999328","853.3333333333334","529.3333333333334","./1_3_Stimuli/S_ambi40.png","朋友","Image","他人","Mismatch","f","true","Formal",""
