"success","timeout","failed_images","failed_audio","failed_video","trial_type","trial_index","time_elapsed","internal_node_id","rt","stimulus","response","value","item_width_mm","item_height_mm","item_width_px","px2mm","view_dist_mm","item_width_deg","px2deg","scale_factor","win_width_deg","win_height_deg","view_history","response_type","key_press","avg_frame_time","center_x","center_y","image","word","target","valence","matchness","correct_response","correct","exp_condition","question_order"
"true","false","[]","[]","[]","preload","0","410","0.0-0.0","","","","","","","","","","","","","","","","","","","","","","","","","","","","",""
"","","","","","html-keyboard-response","1","57291","0.0-1.0","56879","
     <p>您好，欢迎参加本次实验。</p>
     <p>为充分保障您的权利，请确保您已经知晓并同意《参与实验同意书》以及《数据公开知情同意书》。</p>
     <p>如果您未见过上述内容，请咨询实验员。</p>
     <p>如果您选择继续实验，则表示您已经清楚两份知情同意书的内容并同意。</p>
     <p> <div style = ""color: green""><按任意键至下页></div> </p>
     "," ","","","","","","","","","","","","","","","","","","","","","","","","","",""
"","","","","","html-keyboard-response","2","58080","0.0-2.0-0.0","788","
      <p>本实验首先需要您填写一些基本个人信息。</p>
      <p> <div style = ""color: green""><按任意键至下页></div></p>
      "," ","","","","","","","","","","","","","","","","","","","","","","","","","",""
"","","","","","call-function","3","58082","0.0-2.0-1.0","","","","","","","","","","","","","","","","","","","","","","","","","","","","",""
"","","","","","survey-html-form","4","65863","0.0-2.0-2.0","7778","","{""Q0"":""1040""}","","","","","","","","","","","","","","","","","","","","","","","","","",""
"","","","","","html-button-response","5","66696","0.0-2.0-3.0","831","<p style = 'color : white'>您的性别</p>","1","","","","","","","","","","","","","","","","","","","","","","","","","",""
"","","","","","survey-html-form","6","74777","0.0-2.0-4.0","8079","","{""Q0"":""2003""}","","","","","","","","","","","","","","","","","","","","","","","","","",""
"","","","","","survey-html-form","7","79031","0.0-2.0-5.0","4252","","{""Q0"":""5""}","","","","","","","","","","","","","","","","","","","","","","","","","",""
"","","","","","virtual-chinrest","8","174216","0.0-3.0","95181","","","","85.6","53.98","533.3447388728002","6.230662837299068","458.46","10.666894777456005","50","0.8024828385943367","29.4","16.64","","","","","","","","","","","","","","",""
"true","","","","","fullscreen","9","179801","0.0-4.0","","","","","","","","","","","","","","","","","","","","","","","","","","","","",""
"","","","","","instructions","10","450562","0.0-5.0","270757","","","","","","","","","","","","","","[{""page_index"":0,""viewing_time"":93238},{""page_index"":1,""viewing_time"":149915},{""page_index"":2,""viewing_time"":4724},{""page_index"":3,""viewing_time"":22879}]","","","","","","","","","","","","","",""
"","","","","","html-keyboard-response","11","454215","0.0-6.0","null","<count-down title=""""></count-down>","null","","","","","","","","","","","","","","","","","","","","","","","","","",""
"","","","","","psychophysics","12","456935","0.0-7.0-0.0-0.0","null","","null","","","","","","","","","","","","","key","null","16.66645962732912","735","456","./1_3_Stimuli/S_ambi40.png","他人","Word","自我","Mismatch","j","false","Practice",""
"","","","","","html-keyboard-response","13","457239","0.0-7.0-0.0-1.0","null","<span class='add_' style='color:yellow; font-size: 70px;'> 太慢! </span>","null","","","","","","","","","","","","","","","","","","","","","","","","","feedback",""
"","","","","","psychophysics","14","458894","0.0-7.0-0.0-0.1","501","","f","","","","","","","","","","","","","key","f","16.666326530612125","735","456","./1_3_Stimuli/T_ambi40.png","自我","Image","他人","Mismatch","j","false","Practice",""
"","","","","","html-keyboard-response","15","459197","0.0-7.0-0.0-1.1","null","<span style='color:red; font-size: 70px;'>错误! </span>","null","","","","","","","","","","","","","","","","","","","","","","","","","feedback",""
"","","","","","psychophysics","16","460643","0.0-7.0-0.0-0.2","294","","j","","","","","","","","","","","","","key","j","16.669767441860195","735","456","./1_3_Stimuli/C_ambi40.png","他人","Image","朋友","Mismatch","j","true","Practice",""
"","","","","","html-keyboard-response","17","460946","0.0-7.0-0.0-1.2","null","<span style='color:GreenYellow; font-size: 70px;'>正确! </span>","null","","","","","","","","","","","","","","","","","","","","","","","","","feedback",""
"","","","","","psychophysics","18","462409","0.0-7.0-0.0-0.3","310","","j","","","","","","","","","","","","","key","j","16.66551724137958","735","456","./1_3_Stimuli/C_ambi40.png","朋友","Word","朋友","Match","f","false","Practice",""
"","","","","","html-keyboard-response","19","462711","0.0-7.0-0.0-1.3","null","<span style='color:red; font-size: 70px;'>错误! </span>","null","","","","","","","","","","","","","","","","","","","","","","","","","feedback",""
"","","","","","psychophysics","20","464333","0.0-7.0-0.0-0.4","468","","j","","","","","","","","","","","","","key","j","16.665625000000244","735","456","./1_3_Stimuli/T_ambi40.png","他人","Image","他人","Match","f","false","Practice",""
"","","","","","html-keyboard-response","21","464635","0.0-7.0-0.0-1.4","null","<span style='color:red; font-size: 70px;'>错误! </span>","null","","","","","","","","","","","","","","","","","","","","","","","","","feedback",""
"","","","","","psychophysics","22","466397","0.0-7.0-0.0-0.5","609","","f","","","","","","","","","","","","","key","f","16.665384615384166","735","456","./1_3_Stimuli/S_ambi40.png","自我","Word","自我","Match","f","true","Practice",""
"","","","","","html-keyboard-response","23","466700","0.0-7.0-0.0-1.5","null","<span style='color:GreenYellow; font-size: 70px;'>正确! </span>","null","","","","","","","","","","","","","","","","","","","","","","","","","feedback",""
"","","","","","psychophysics","24","468512","0.0-7.0-0.0-0.6","659","","j","","","","","","","","","","","","","key","j","16.666355140186806","735","456","./1_3_Stimuli/C_ambi40.png","他人","Word","朋友","Mismatch","j","true","Practice",""
"","","","","","html-keyboard-response","25","468815","0.0-7.0-0.0-1.6","null","<span style='color:GreenYellow; font-size: 70px;'>正确! </span>","null","","","","","","","","","","","","","","","","","","","","","","","","","feedback",""
"","","","","","psychophysics","26","470560","0.0-7.0-0.0-0.7","592","","f","","","","","","","","","","","","","key","f","16.67019230769242","735","456","./1_3_Stimuli/S_ambi40.png","自我","Word","自我","Match","f","true","Practice",""
"","","","","","html-keyboard-response","27","470862","0.0-7.0-0.0-1.7","null","<span style='color:GreenYellow; font-size: 70px;'>正确! </span>","null","","","","","","","","","","","","","","","","","","","","","","","","","feedback",""
"","","","","","psychophysics","28","472474","0.0-7.0-0.0-0.8","459","","j","","","","","","","","","","","","","key","j","16.666666666666668","735","456","./1_3_Stimuli/C_ambi40.png","朋友","Image","朋友","Match","f","false","Practice",""
"","","","","","html-keyboard-response","29","472777","0.0-7.0-0.0-1.8","null","<span style='color:red; font-size: 70px;'>错误! </span>","null","","","","","","","","","","","","","","","","","","","","","","","","","feedback",""
"","","","","","psychophysics","30","474461","0.0-7.0-0.0-0.9","530","","j","","","","","","","","","","","","","key","j","16.665999999999766","735","456","./1_3_Stimuli/S_ambi40.png","朋友","Word","自我","Mismatch","j","true","Practice",""
"","","","","","html-keyboard-response","31","474764","0.0-7.0-0.0-1.9","null","<span style='color:GreenYellow; font-size: 70px;'>正确! </span>","null","","","","","","","","","","","","","","","","","","","","","","","","","feedback",""
"","","","","","psychophysics","32","476525","0.0-7.0-0.0-0.10","608","","f","","","","","","","","","","","","","key","f","16.665714285714508","735","456","./1_3_Stimuli/T_ambi40.png","他人","Image","他人","Match","f","true","Practice",""
"","","","","","html-keyboard-response","33","476828","0.0-7.0-0.0-1.10","null","<span style='color:GreenYellow; font-size: 70px;'>正确! </span>","null","","","","","","","","","","","","","","","","","","","","","","","","","feedback",""
"","","","","","psychophysics","34","478498","0.0-7.0-0.0-0.11","517","","j","","","","","","","","","","","","","key","j","16.6656565656568","735","456","./1_3_Stimuli/T_ambi40.png","朋友","Image","他人","Mismatch","j","true","Practice",""
"","","","","","html-keyboard-response","35","478801","0.0-7.0-0.0-1.11","null","<span style='color:GreenYellow; font-size: 70px;'>正确! </span>","null","","","","","","","","","","","","","","","","","","","","","","","","","feedback",""
"","","","","","psychophysics","36","480428","0.0-7.0-0.0-0.12","474","","j","","","","","","","","","","","","","key","j","16.665625000000244","735","456","./1_3_Stimuli/T_ambi40.png","他人","Word","他人","Match","f","false","Practice",""
"","","","","","html-keyboard-response","37","480730","0.0-7.0-0.0-1.12","null","<span style='color:red; font-size: 70px;'>错误! </span>","null","","","","","","","","","","","","","","","","","","","","","","","","","feedback",""
"","","","","","psychophysics","38","482299","0.0-7.0-0.0-0.13","416","","f","","","","","","","","","","","","","key","f","16.665591397849713","735","456","./1_3_Stimuli/T_ambi40.png","自我","Word","他人","Mismatch","j","false","Practice",""
"","","","","","html-keyboard-response","39","482602","0.0-7.0-0.0-1.13","null","<span style='color:red; font-size: 70px;'>错误! </span>","null","","","","","","","","","","","","","","","","","","","","","","","","","feedback",""
"","","","","","psychophysics","40","484159","0.0-7.0-0.0-0.14","404","","j","","","","","","","","","","","","","key","j","16.66630434782596","735","456","./1_3_Stimuli/C_ambi40.png","朋友","Image","朋友","Match","f","false","Practice",""
"","","","","","html-keyboard-response","41","484461","0.0-7.0-0.0-1.14","null","<span style='color:red; font-size: 70px;'>错误! </span>","null","","","","","","","","","","","","","","","","","","","","","","","","","feedback",""
"","","","","","psychophysics","42","486045","0.0-7.0-0.0-0.15","432","","f","","","","","","","","","","","","","key","f","16.665957446808264","735","456","./1_3_Stimuli/C_ambi40.png","自我","Word","朋友","Mismatch","j","false","Practice",""
"","","","","","html-keyboard-response","43","486347","0.0-7.0-0.0-1.15","null","<span style='color:red; font-size: 70px;'>错误! </span>","null","","","","","","","","","","","","","","","","","","","","","","","","","feedback",""
"","","","","","psychophysics","44","487912","0.0-7.0-0.0-0.16","412","","j","","","","","","","","","","","","","key","j","16.665591397849713","735","456","./1_3_Stimuli/T_ambi40.png","他人","Word","他人","Match","f","false","Practice",""
"","","","","","html-keyboard-response","45","488215","0.0-7.0-0.0-1.16","null","<span style='color:red; font-size: 70px;'>错误! </span>","null","","","","","","","","","","","","","","","","","","","","","","","","","feedback",""
"","","","","","psychophysics","46","489743","0.0-7.0-0.0-0.17","376","","j","","","","","","","","","","","","","key","j","16.664835164835164","735","456","./1_3_Stimuli/S_ambi40.png","自我","Image","自我","Match","f","false","Practice",""
"","","","","","html-keyboard-response","47","490045","0.0-7.0-0.0-1.17","null","<span style='color:red; font-size: 70px;'>错误! </span>","null","","","","","","","","","","","","","","","","","","","","","","","","","feedback",""
"","","","","","psychophysics","48","491592","0.0-7.0-0.0-0.18","394","","f","","","","","","","","","","","","","key","f","16.671739130434656","735","456","./1_3_Stimuli/T_ambi40.png","朋友","Word","他人","Mismatch","j","false","Practice",""
"","","","","","html-keyboard-response","49","491895","0.0-7.0-0.0-1.18","null","<span style='color:red; font-size: 70px;'>错误! </span>","null","","","","","","","","","","","","","","","","","","","","","","","","","feedback",""
"","","","","","psychophysics","50","493352","0.0-7.0-0.0-0.19","304","","j","","","","","","","","","","","","","key","j","16.665116279069903","735","456","./1_3_Stimuli/S_ambi40.png","他人","Image","自我","Mismatch","j","true","Practice",""
"","","","","","html-keyboard-response","51","493655","0.0-7.0-0.0-1.19","null","<span style='color:GreenYellow; font-size: 70px;'>正确! </span>","null","","","","","","","","","","","","","","","","","","","","","","","","","feedback",""
"","","","","","psychophysics","52","495031","0.0-7.0-0.0-0.20","223","","j","","","","","","","","","","","","","key","j","16.66543209876572","735","456","./1_3_Stimuli/C_ambi40.png","自我","Image","朋友","Mismatch","j","true","Practice",""
"","","","","","html-keyboard-response","53","495333","0.0-7.0-0.0-1.20","null","<span style='color:GreenYellow; font-size: 70px;'>正确! </span>","null","","","","","","","","","","","","","","","","","","","","","","","","","feedback",""
"","","","","","psychophysics","54","496694","0.0-7.0-0.0-0.21","209","","j","","","","","","","","","","","","","key","j","16.665000000000145","735","456","./1_3_Stimuli/C_ambi40.png","朋友","Word","朋友","Match","f","false","Practice",""
"","","","","","html-keyboard-response","55","496996","0.0-7.0-0.0-1.21","null","<span style='color:red; font-size: 70px;'>错误! </span>","null","","","","","","","","","","","","","","","","","","","","","","","","","feedback",""
"","","","","","psychophysics","56","498410","0.0-7.0-0.0-0.22","260","","f","","","","","","","","","","","","","key","f","16.665476190475776","735","456","./1_3_Stimuli/S_ambi40.png","自我","Image","自我","Match","f","true","Practice",""
"","","","","","html-keyboard-response","57","498712","0.0-7.0-0.0-1.22","null","<span style='color:GreenYellow; font-size: 70px;'>正确! </span>","null","","","","","","","","","","","","","","","","","","","","","","","","","feedback",""
"","","","","","psychophysics","58","500196","0.0-7.0-0.0-0.23","331","","j","","","","","","","","","","","","","key","j","16.665909090909487","735","456","./1_3_Stimuli/S_ambi40.png","朋友","Image","自我","Mismatch","j","true","Practice",""
"","","","","","html-keyboard-response","59","500499","0.0-7.0-0.0-1.23","null","<span style='color:GreenYellow; font-size: 70px;'>正确! </span>","null","","","","","","","","","","","","","","","","","","","","","","","","","feedback",""
"","","","","","html-keyboard-response","60","504732","0.0-7.0-1.0-0.0","4229","<style>.context{color:white; font-size: 35px; line-height:40px}</style>                        <div><p class='context'>您正确回答了46% 的试次。</p><p class='context'>您的平均反应时为448毫秒。</p><p> <div style = 'color: green'><按空格键至下页></div></p>"," ","","","","","","","","","","","","","","","","","","","","","","","","","",""
"","","","","","instructions","61","521793","0.0-7.0-1.0-1.0","17057","","","","","","","","","","","","","","[{""page_index"":0,""viewing_time"":10145},{""page_index"":1,""viewing_time"":5208},{""page_index"":2,""viewing_time"":1704}]","","","","","","","","","","","","","",""
"","","","","","psychophysics","62","523539","0.0-7.1-0.1-0.24","592","","j","","","","","","","","","","","","","key","j","16.6663461538466","735","456","./1_3_Stimuli/T_ambi40.png","他人","Word","他人","Match","f","false","Practice",""
"","","","","","html-keyboard-response","63","523840","0.0-7.1-0.1-1.24","null","<span style='color:red; font-size: 70px;'>错误! </span>","null","","","","","","","","","","","","","","","","","","","","","","","","","feedback",""
"","","","","","psychophysics","64","525628","0.0-7.1-0.1-0.25","636","","f","","","","","","","","","","","","","key","f","16.669811320754718","735","456","./1_3_Stimuli/S_ambi40.png","自我","Word","自我","Match","f","true","Practice",""
"","","","","","html-keyboard-response","65","525931","0.0-7.1-0.1-1.25","null","<span style='color:GreenYellow; font-size: 70px;'>正确! </span>","null","","","","","","","","","","","","","","","","","","","","","","","","","feedback",""
"","","","","","psychophysics","66","527543","0.0-7.1-0.1-0.26","459","","j","","","","","","","","","","","","","key","j","16.665625000000244","735","456","./1_3_Stimuli/C_ambi40.png","朋友","Word","朋友","Match","f","false","Practice",""
"","","","","","html-keyboard-response","67","527845","0.0-7.1-0.1-1.26","null","<span style='color:red; font-size: 70px;'>错误! </span>","null","","","","","","","","","","","","","","","","","","","","","","","","","feedback",""
"","","","","","psychophysics","68","529402","0.0-7.1-0.1-0.27","404","","f","","","","","","","","","","","","","key","f","16.66521739130384","735","456","./1_3_Stimuli/T_ambi40.png","他人","Image","他人","Match","f","true","Practice",""
"","","","","","html-keyboard-response","69","529704","0.0-7.1-0.1-1.27","null","<span style='color:GreenYellow; font-size: 70px;'>正确! </span>","null","","","","","","","","","","","","","","","","","","","","","","","","","feedback",""
"","","","","","psychophysics","70","531396","0.0-7.1-0.1-0.28","538","","j","","","","","","","","","","","","","key","j","16.665","735","456","./1_3_Stimuli/C_ambi40.png","自我","Image","朋友","Mismatch","j","true","Practice",""
"","","","","","html-keyboard-response","71","531698","0.0-7.1-0.1-1.28","null","<span style='color:GreenYellow; font-size: 70px;'>正确! </span>","null","","","","","","","","","","","","","","","","","","","","","","","","","feedback",""
"","","","","","psychophysics","72","533228","0.0-7.1-0.1-0.29","377","","j","","","","","","","","","","","","","key","j","16.66593406593381","735","456","./1_3_Stimuli/C_ambi40.png","朋友","Image","朋友","Match","f","false","Practice",""
"","","","","","html-keyboard-response","73","533531","0.0-7.1-0.1-1.29","null","<span style='color:red; font-size: 70px;'>错误! </span>","null","","","","","","","","","","","","","","","","","","","","","","","","","feedback",""
"","","","","","psychophysics","74","535310","0.0-7.1-0.1-0.30","627","","f","","","","","","","","","","","","","key","f","16.669811320754718","735","456","./1_3_Stimuli/C_ambi40.png","他人","Image","朋友","Mismatch","j","false","Practice",""
"","","","","","html-keyboard-response","75","535612","0.0-7.1-0.1-1.30","null","<span style='color:red; font-size: 70px;'>错误! </span>","null","","","","","","","","","","","","","","","","","","","","","","","","","feedback",""
"","","","","","psychophysics","76","537326","0.0-7.1-0.1-0.31","561","","j","","","","","","","","","","","","","key","j","16.666666666666668","735","456","./1_3_Stimuli/C_ambi40.png","朋友","Image","朋友","Match","f","false","Practice",""
"","","","","","html-keyboard-response","77","537629","0.0-7.1-0.1-1.31","null","<span style='color:red; font-size: 70px;'>错误! </span>","null","","","","","","","","","","","","","","","","","","","","","","","","","feedback",""
"","","","","","psychophysics","78","539098","0.0-7.1-0.1-0.32","316","","f","","","","","","","","","","","","","key","f","16.66551724137958","735","456","./1_3_Stimuli/S_ambi40.png","他人","Word","自我","Mismatch","j","false","Practice",""
"","","","","","html-keyboard-response","79","539400","0.0-7.1-0.1-1.32","null","<span style='color:red; font-size: 70px;'>错误! </span>","null","","","","","","","","","","","","","","","","","","","","","","","","","feedback",""
"","","","","","psychophysics","80","540827","0.0-7.1-0.1-0.33","275","","j","","","","","","","","","","","","","key","j","16.66547619047647","735","456","./1_3_Stimuli/S_ambi40.png","自我","Word","自我","Match","f","false","Practice",""
"","","","","","html-keyboard-response","81","541130","0.0-7.1-0.1-1.33","null","<span style='color:red; font-size: 70px;'>错误! </span>","null","","","","","","","","","","","","","","","","","","","","","","","","","feedback",""
"","","","","","psychophysics","82","542612","0.0-7.1-0.1-0.34","328","","f","","","","","","","","","","","","","key","f","16.665909090908826","735","456","./1_3_Stimuli/T_ambi40.png","朋友","Image","他人","Mismatch","j","false","Practice",""
"","","","","","html-keyboard-response","83","542915","0.0-7.1-0.1-1.34","null","<span style='color:red; font-size: 70px;'>错误! </span>","null","","","","","","","","","","","","","","","","","","","","","","","","","feedback",""
"","","","","","psychophysics","84","544310","0.0-7.1-0.1-0.35","241","","j","","","","","","","","","","","","","key","j","16.67108433735024","735","456","./1_3_Stimuli/T_ambi40.png","自我","Image","他人","Mismatch","j","true","Practice",""
"","","","","","html-keyboard-response","85","544612","0.0-7.1-0.1-1.35","null","<span style='color:GreenYellow; font-size: 70px;'>正确! </span>","null","","","","","","","","","","","","","","","","","","","","","","","","","feedback",""
"","","","","","psychophysics","86","546179","0.0-7.1-0.1-0.36","414","","f","","","","","","","","","","","","","key","f","16.665591397849713","735","456","./1_3_Stimuli/T_ambi40.png","他人","Word","他人","Match","f","true","Practice",""
"","","","","","html-keyboard-response","87","546482","0.0-7.1-0.1-1.36","null","<span style='color:GreenYellow; font-size: 70px;'>正确! </span>","null","","","","","","","","","","","","","","","","","","","","","","","","","feedback",""
"","","","","","psychophysics","88","547910","0.0-7.1-0.1-0.37","274","","j","","","","","","","","","","","","","key","j","16.6658823529409","735","456","./1_3_Stimuli/T_ambi40.png","自我","Word","他人","Mismatch","j","true","Practice",""
"","","","","","html-keyboard-response","89","548212","0.0-7.1-0.1-1.37","null","<span style='color:GreenYellow; font-size: 70px;'>正确! </span>","null","","","","","","","","","","","","","","","","","","","","","","","","","feedback",""
"","","","","","psychophysics","90","549776","0.0-7.1-0.1-0.38","411","","f","","","","","","","","","","","","","key","f","16.665591397849713","735","456","./1_3_Stimuli/C_ambi40.png","他人","Word","朋友","Mismatch","j","false","Practice",""
"","","","","","html-keyboard-response","91","550078","0.0-7.1-0.1-1.38","null","<span style='color:red; font-size: 70px;'>错误! </span>","null","","","","","","","","","","","","","","","","","","","","","","","","","feedback",""
"","","","","","psychophysics","92","551440","0.0-7.1-0.1-0.39","208","","j","","","","","","","","","","","","","key","j","16.66543209876572","735","456","./1_3_Stimuli/T_ambi40.png","他人","Image","他人","Match","f","false","Practice",""
"","","","","","html-keyboard-response","93","551741","0.0-7.1-0.1-1.39","null","<span style='color:red; font-size: 70px;'>错误! </span>","null","","","","","","","","","","","","","","","","","","","","","","","","","feedback",""
"","","","","","psychophysics","94","553261","0.0-7.1-0.1-0.40","367","","f","","","","","","","","","","","","","key","f","16.666666666666668","735","456","./1_3_Stimuli/C_ambi40.png","自我","Word","朋友","Mismatch","j","false","Practice",""
"","","","","","html-keyboard-response","95","553564","0.0-7.1-0.1-1.40","null","<span style='color:red; font-size: 70px;'>错误! </span>","null","","","","","","","","","","","","","","","","","","","","","","","","","feedback",""
"","","","","","psychophysics","96","554966","0.0-7.1-0.1-0.41","249","","j","","","","","","","","","","","","","key","j","16.66987951807341","735","456","./1_3_Stimuli/S_ambi40.png","自我","Image","自我","Match","f","false","Practice",""
"","","","","","html-keyboard-response","97","555269","0.0-7.1-0.1-1.41","null","<span style='color:red; font-size: 70px;'>错误! </span>","null","","","","","","","","","","","","","","","","","","","","","","","","","feedback",""
"","","","","","psychophysics","98","556679","0.0-7.1-0.1-0.42","258","","j","","","","","","","","","","","","","key","j","16.666265060241525","735","456","./1_3_Stimuli/S_ambi40.png","自我","Image","自我","Match","f","false","Practice",""
"","","","","","html-keyboard-response","99","556982","0.0-7.1-0.1-1.42","null","<span style='color:red; font-size: 70px;'>错误! </span>","null","","","","","","","","","","","","","","","","","","","","","","","","","feedback",""
"","","","","","psychophysics","100","558594","0.0-7.1-0.1-0.43","459","","f","","","","","","","","","","","","","key","f","16.66458333333382","735","456","./1_3_Stimuli/T_ambi40.png","朋友","Word","他人","Mismatch","j","false","Practice",""
"","","","","","html-keyboard-response","101","558897","0.0-7.1-0.1-1.43","null","<span style='color:red; font-size: 70px;'>错误! </span>","null","","","","","","","","","","","","","","","","","","","","","","","","","feedback",""
"","","","","","psychophysics","102","560361","0.0-7.1-0.1-0.44","312","","j","","","","","","","","","","","","","key","j","16.666666666666668","735","456","./1_3_Stimuli/S_ambi40.png","朋友","Word","自我","Mismatch","j","true","Practice",""
"","","","","","html-keyboard-response","103","560664","0.0-7.1-0.1-1.44","null","<span style='color:GreenYellow; font-size: 70px;'>正确! </span>","null","","","","","","","","","","","","","","","","","","","","","","","","","feedback",""
"","","","","","psychophysics","104","562309","0.0-7.1-0.1-0.45","491","","f","","","","","","","","","","","","","key","f","16.665306122448506","735","456","./1_3_Stimuli/S_ambi40.png","他人","Image","自我","Mismatch","j","false","Practice",""
"","","","","","html-keyboard-response","105","562610","0.0-7.1-0.1-1.45","null","<span style='color:red; font-size: 70px;'>错误! </span>","null","","","","","","","","","","","","","","","","","","","","","","","","","feedback",""
"","","","","","psychophysics","106","564128","0.0-7.1-0.1-0.46","364","","j","","","","","","","","","","","","","key","j","16.665555555555816","735","456","./1_3_Stimuli/S_ambi40.png","朋友","Image","自我","Mismatch","j","true","Practice",""
"","","","","","html-keyboard-response","107","564430","0.0-7.1-0.1-1.46","null","<span style='color:GreenYellow; font-size: 70px;'>正确! </span>","null","","","","","","","","","","","","","","","","","","","","","","","","","feedback",""
"","","","","","psychophysics","108","566218","0.0-7.1-0.1-0.47","636","","j","","","","","","","","","","","","","key","j","16.666037735849937","735","456","./1_3_Stimuli/C_ambi40.png","朋友","Word","朋友","Match","f","false","Practice",""
"","","","","","html-keyboard-response","109","566521","0.0-7.1-0.1-1.47","null","<span style='color:red; font-size: 70px;'>错误! </span>","null","","","","","","","","","","","","","","","","","","","","","","","","","feedback",""
"","","","","","html-keyboard-response","110","568508","0.0-7.1-1.1-0.1","1984","<style>.context{color:white; font-size: 35px; line-height:40px}</style>                        <div><p class='context'>您正确回答了33% 的试次。</p><p class='context'>您的平均反应时为398毫秒。</p><p> <div style = 'color: green'><按空格键至下页></div></p>"," ","","","","","","","","","","","","","","","","","","","","","","","","","",""
"","","","","","instructions","111","573584","0.0-7.1-1.1-1.1","5070","","","","","","","","","","","","","","[{""page_index"":0,""viewing_time"":1550},{""page_index"":1,""viewing_time"":1631},{""page_index"":2,""viewing_time"":1889}]","","","","","","","","","","","","","",""
"","","","","","psychophysics","112","575313","0.0-7.2-0.2-0.48","574","","f","","","","","","","","","","","","","key","f","16.668627450981077","735","456","./1_3_Stimuli/S_ambi40.png","自我","Word","自我","Match","f","true","Practice",""
"","","","","","html-keyboard-response","113","575616","0.0-7.2-0.2-1.48","null","<span style='color:GreenYellow; font-size: 70px;'>正确! </span>","null","","","","","","","","","","","","","","","","","","","","","","","","","feedback",""
"","","","","","psychophysics","114","577097","0.0-7.2-0.2-0.49","327","","j","","","","","","","","","","","","","key","j","16.665909090908826","735","456","./1_3_Stimuli/C_ambi40.png","他人","Image","朋友","Mismatch","j","true","Practice",""
"","","","","","html-keyboard-response","115","577400","0.0-7.2-0.2-1.49","null","<span style='color:GreenYellow; font-size: 70px;'>正确! </span>","null","","","","","","","","","","","","","","","","","","","","","","","","","feedback",""
"","","","","","psychophysics","116","578993","0.0-7.2-0.2-0.50","441","","j","","","","","","","","","","","","","key","j","16.665957446808264","735","456","./1_3_Stimuli/S_ambi40.png","他人","Image","自我","Mismatch","j","true","Practice",""
"","","","","","html-keyboard-response","117","579296","0.0-7.2-0.2-1.50","null","<span style='color:GreenYellow; font-size: 70px;'>正确! </span>","null","","","","","","","","","","","","","","","","","","","","","","","","","feedback",""
"","","","","","psychophysics","118","580845","0.0-7.2-0.2-0.51","396","","j","","","","","","","","","","","","","key","j","16.66739130434808","735","456","./1_3_Stimuli/T_ambi40.png","他人","Word","他人","Match","f","false","Practice",""
"","","","","","html-keyboard-response","119","581148","0.0-7.2-0.2-1.51","null","<span style='color:red; font-size: 70px;'>错误! </span>","null","","","","","","","","","","","","","","","","","","","","","","","","","feedback",""
"","","","","","psychophysics","120","583129","0.0-7.2-0.2-0.52","828","","f","","","","","","","","","","","","","key","f","16.666101694915056","735","456","./1_3_Stimuli/C_ambi40.png","朋友","Word","朋友","Match","f","true","Practice",""
"","","","","","html-keyboard-response","121","583431","0.0-7.2-0.2-1.52","null","<span style='color:GreenYellow; font-size: 70px;'>正确! </span>","null","","","","","","","","","","","","","","","","","","","","","","","","","feedback",""
"","","","","","psychophysics","122","585100","0.0-7.2-0.2-0.53","515","","f","","","","","","","","","","","","","key","f","16.669696969696265","735","456","./1_3_Stimuli/C_ambi40.png","他人","Word","朋友","Mismatch","j","false","Practice",""
"","","","","","html-keyboard-response","123","585402","0.0-7.2-0.2-1.53","null","<span style='color:red; font-size: 70px;'>错误! </span>","null","","","","","","","","","","","","","","","","","","","","","","","","","feedback",""
"","","","","","psychophysics","124","587029","0.0-7.2-0.2-0.54","475","","j","","","","","","","","","","","","","key","j","16.665625000000244","735","456","./1_3_Stimuli/S_ambi40.png","自我","Image","自我","Match","f","false","Practice",""
"","","","","","html-keyboard-response","125","587332","0.0-7.2-0.2-1.54","null","<span style='color:red; font-size: 70px;'>错误! </span>","null","","","","","","","","","","","","","","","","","","","","","","","","","feedback",""
"","","","","","psychophysics","126","588868","0.0-7.2-0.2-0.55","382","","f","","","","","","","","","","","","","key","f","16.66593406593381","735","456","./1_3_Stimuli/S_ambi40.png","自我","Image","自我","Match","f","true","Practice",""
"","","","","","html-keyboard-response","127","589170","0.0-7.2-0.2-1.55","null","<span style='color:GreenYellow; font-size: 70px;'>正确! </span>","null","","","","","","","","","","","","","","","","","","","","","","","","","feedback",""
"","","","","","psychophysics","128","590777","0.0-7.2-0.2-0.56","454","","j","","","","","","","","","","","","","key","j","16.66526315789425","735","456","./1_3_Stimuli/T_ambi40.png","朋友","Image","他人","Mismatch","j","true","Practice",""
"","","","","","html-keyboard-response","129","591079","0.0-7.2-0.2-1.56","null","<span style='color:GreenYellow; font-size: 70px;'>正确! </span>","null","","","","","","","","","","","","","","","","","","","","","","","","","feedback",""
"","","","","","psychophysics","130","592818","0.0-7.2-0.2-0.57","586","","f","","","","","","","","","","","","","key","f","16.666019417475503","735","456","./1_3_Stimuli/T_ambi40.png","他人","Image","他人","Match","f","true","Practice",""
"","","","","","html-keyboard-response","131","593121","0.0-7.2-0.2-1.57","null","<span style='color:GreenYellow; font-size: 70px;'>正确! </span>","null","","","","","","","","","","","","","","","","","","","","","","","","","feedback",""
"","","","","","psychophysics","132","594668","0.0-7.2-0.2-0.58","394","","f","","","","","","","","","","","","","key","f","16.67032967032967","735","456","./1_3_Stimuli/T_ambi40.png","自我","Image","他人","Mismatch","j","false","Practice",""
"","","","","","html-keyboard-response","133","594970","0.0-7.2-0.2-1.58","null","<span style='color:red; font-size: 70px;'>错误! </span>","null","","","","","","","","","","","","","","","","","","","","","","","","","feedback",""
"","","","","","psychophysics","134","596825","0.0-7.2-0.2-0.59","704","","j","","","","","","","","","","","","","key","j","16.66636363636406","735","456","./1_3_Stimuli/S_ambi40.png","他人","Word","自我","Mismatch","j","true","Practice",""
"","","","","","html-keyboard-response","135","597127","0.0-7.2-0.2-1.59","null","<span style='color:GreenYellow; font-size: 70px;'>正确! </span>","null","","","","","","","","","","","","","","","","","","","","","","","","","feedback",""
"","","","","","psychophysics","136","599041","0.0-7.2-0.2-0.60","762","","j","","","","","","","","","","","","","key","j","16.665789473684416","735","456","./1_3_Stimuli/S_ambi40.png","朋友","Word","自我","Mismatch","j","true","Practice",""
"","","","","","html-keyboard-response","137","599344","0.0-7.2-0.2-1.60","null","<span style='color:GreenYellow; font-size: 70px;'>正确! </span>","null","","","","","","","","","","","","","","","","","","","","","","","","","feedback",""
"","","","","","psychophysics","138","601127","0.0-7.2-0.2-0.61","629","","j","","","","","","","","","","","","","key","j","16.666037735848835","735","456","./1_3_Stimuli/T_ambi40.png","朋友","Word","他人","Mismatch","j","true","Practice",""
"","","","","","html-keyboard-response","139","601429","0.0-7.2-0.2-1.61","null","<span style='color:GreenYellow; font-size: 70px;'>正确! </span>","null","","","","","","","","","","","","","","","","","","","","","","","","","feedback",""
"","","","","","psychophysics","140","603261","0.0-7.2-0.2-0.62","679","","j","","","","","","","","","","","","","key","j","16.666055045871346","735","456","./1_3_Stimuli/C_ambi40.png","自我","Image","朋友","Mismatch","j","true","Practice",""
"","","","","","html-keyboard-response","141","603563","0.0-7.2-0.2-1.62","null","<span style='color:GreenYellow; font-size: 70px;'>正确! </span>","null","","","","","","","","","","","","","","","","","","","","","","","","","feedback",""
"","","","","","psychophysics","142","605311","0.0-7.2-0.2-0.63","594","","f","","","","","","","","","","","","","key","f","16.67019230769298","735","456","./1_3_Stimuli/S_ambi40.png","自我","Word","自我","Match","f","true","Practice",""
"","","","","","html-keyboard-response","143","605613","0.0-7.2-0.2-1.63","null","<span style='color:GreenYellow; font-size: 70px;'>正确! </span>","null","","","","","","","","","","","","","","","","","","","","","","","","","feedback",""
"","","","","","psychophysics","144","607478","0.0-7.2-0.2-0.64","711","","j","","","","","","","","","","","","","key","j","16.666666666666668","735","456","./1_3_Stimuli/C_ambi40.png","朋友","Image","朋友","Match","f","false","Practice",""
"","","","","","html-keyboard-response","145","607781","0.0-7.2-0.2-1.64","null","<span style='color:red; font-size: 70px;'>错误! </span>","null","","","","","","","","","","","","","","","","","","","","","","","","","feedback",""
"","","","","","psychophysics","146","609440","0.0-7.2-0.2-0.65","506","","j","","","","","","","","","","","","","key","j","16.6656565656568","735","456","./1_3_Stimuli/T_ambi40.png","自我","Word","他人","Mismatch","j","true","Practice",""
"","","","","","html-keyboard-response","147","609743","0.0-7.2-0.2-1.65","null","<span style='color:GreenYellow; font-size: 70px;'>正确! </span>","null","","","","","","","","","","","","","","","","","","","","","","","","","feedback",""
"","","","","","psychophysics","148","611679","0.0-7.2-0.2-0.66","783","","j","","","","","","","","","","","","","key","j","16.66521739130435","735","456","./1_3_Stimuli/C_ambi40.png","自我","Word","朋友","Mismatch","j","true","Practice",""
"","","","","","html-keyboard-response","149","611981","0.0-7.2-0.2-1.66","null","<span style='color:GreenYellow; font-size: 70px;'>正确! </span>","null","","","","","","","","","","","","","","","","","","","","","","","","","feedback",""
"","","","","","psychophysics","150","613745","0.0-7.2-0.2-0.67","611","","j","","","","","","","","","","","","","key","j","16.665714285714508","735","456","./1_3_Stimuli/C_ambi40.png","朋友","Word","朋友","Match","f","false","Practice",""
"","","","","","html-keyboard-response","151","614047","0.0-7.2-0.2-1.67","null","<span style='color:red; font-size: 70px;'>错误! </span>","null","","","","","","","","","","","","","","","","","","","","","","","","","feedback",""
"","","","","","psychophysics","152","616029","0.0-7.2-0.2-0.68","829","","f","","","","","","","","","","","","","key","f","16.66864406779681","735","456","./1_3_Stimuli/C_ambi40.png","朋友","Image","朋友","Match","f","true","Practice",""
"","","","","","html-keyboard-response","153","616331","0.0-7.2-0.2-1.68","null","<span style='color:GreenYellow; font-size: 70px;'>正确! </span>","null","","","","","","","","","","","","","","","","","","","","","","","","","feedback",""
"","","","","","psychophysics","154","618111","0.0-7.2-0.2-0.69","627","","j","","","","","","","","","","","","","key","j","16.666037735848835","735","456","./1_3_Stimuli/T_ambi40.png","他人","Word","他人","Match","f","false","Practice",""
"","","","","","html-keyboard-response","155","618413","0.0-7.2-0.2-1.69","null","<span style='color:red; font-size: 70px;'>错误! </span>","null","","","","","","","","","","","","","","","","","","","","","","","","","feedback",""
"","","","","","psychophysics","156","620194","0.0-7.2-0.2-0.70","627","","f","","","","","","","","","","","","","key","f","16.666037735848835","735","456","./1_3_Stimuli/S_ambi40.png","朋友","Image","自我","Mismatch","j","false","Practice",""
"","","","","","html-keyboard-response","157","620496","0.0-7.2-0.2-1.70","null","<span style='color:red; font-size: 70px;'>错误! </span>","null","","","","","","","","","","","","","","","","","","","","","","","","","feedback",""
"","","","","","psychophysics","158","622310","0.0-7.2-0.2-0.71","661","","j","","","","","","","","","","","","","key","j","16.666666666666668","735","456","./1_3_Stimuli/T_ambi40.png","他人","Image","他人","Match","f","false","Practice",""
"","","","","","html-keyboard-response","159","622613","0.0-7.2-0.2-1.71","null","<span style='color:red; font-size: 70px;'>错误! </span>","null","","","","","","","","","","","","","","","","","","","","","","","","","feedback",""
"","","","","","html-keyboard-response","160","625640","0.0-7.2-1.2-0.2","3023","<style>.context{color:white; font-size: 35px; line-height:40px}</style>                        <div><p class='context'>您正确回答了63% 的试次。</p><p class='context'>您的平均反应时为605毫秒。</p><p> <div style = 'color: green'><按空格键至下页></div></p>"," ","","","","","","","","","","","","","","","","","","","","","","","","","",""
"","","","","","instructions","161","630798","0.0-7.2-1.2-1.2","5153","","","","","","","","","","","","","","[{""page_index"":0,""viewing_time"":1576},{""page_index"":1,""viewing_time"":2137},{""page_index"":2,""viewing_time"":1440}]","","","","","","","","","","","","","",""
"","","","","","psychophysics","162","632567","0.0-7.3-0.3-0.72","616","","j","","","","","","","","","","","","","key","j","16.666666666666668","735","456","./1_3_Stimuli/T_ambi40.png","他人","Word","他人","Match","f","false","Practice",""
"","","","","","html-keyboard-response","163","632870","0.0-7.3-0.3-1.72","null","<span style='color:red; font-size: 70px;'>错误! </span>","null","","","","","","","","","","","","","","","","","","","","","","","","","feedback",""
"","","","","","psychophysics","164","634763","0.0-7.3-0.3-0.73","741","","j","","","","","","","","","","","","","key","j","16.669642857142858","735","456","./1_3_Stimuli/S_ambi40.png","他人","Word","自我","Mismatch","j","true","Practice",""
"","","","","","html-keyboard-response","165","635065","0.0-7.3-0.3-1.73","null","<span style='color:GreenYellow; font-size: 70px;'>正确! </span>","null","","","","","","","","","","","","","","","","","","","","","","","","","feedback",""
"","","","","","psychophysics","166","637244","0.0-7.3-0.3-0.74","1026","","j","","","","","","","","","","","","","key","j","16.665384615384614","735","456","./1_3_Stimuli/C_ambi40.png","自我","Word","朋友","Mismatch","j","true","Practice",""
"","","","","","html-keyboard-response","167","637547","0.0-7.3-0.3-1.74","null","<span style='color:GreenYellow; font-size: 70px;'>正确! </span>","null","","","","","","","","","","","","","","","","","","","","","","","","","feedback",""
"","","","","","psychophysics","168","639394","0.0-7.3-0.3-0.75","694","","j","","","","","","","","","","","","","key","j","16.66636363636406","735","456","./1_3_Stimuli/C_ambi40.png","朋友","Word","朋友","Match","f","false","Practice",""
"","","","","","html-keyboard-response","169","639696","0.0-7.3-0.3-1.75","null","<span style='color:red; font-size: 70px;'>错误! </span>","null","","","","","","","","","","","","","","","","","","","","","","","","","feedback",""
"","","","","","psychophysics","170","642103","0.0-7.3-0.3-0.76","1254","","f","","","","","","","","","","","","","key","f","16.66643356643389","735","456","./1_3_Stimuli/T_ambi40.png","朋友","Word","他人","Mismatch","j","false","Practice",""
"","","","","","html-keyboard-response","171","642405","0.0-7.3-0.3-1.76","null","<span style='color:red; font-size: 70px;'>错误! </span>","null","","","","","","","","","","","","","","","","","","","","","","","","","feedback",""
"","","","","","psychophysics","172","644446","0.0-7.3-0.3-0.77","889","","j","","","","","","","","","","","","","key","j","16.666115702479146","735","456","./1_3_Stimuli/T_ambi40.png","自我","Image","他人","Mismatch","j","true","Practice",""
"","","","","","html-keyboard-response","173","644749","0.0-7.3-0.3-1.77","null","<span style='color:GreenYellow; font-size: 70px;'>正确! </span>","null","","","","","","","","","","","","","","","","","","","","","","","","","feedback",""
"","","","","","psychophysics","174","646680","0.0-7.3-0.3-0.78","778","","j","","","","","","","","","","","","","key","j","16.669565217391305","735","456","./1_3_Stimuli/C_ambi40.png","他人","Image","朋友","Mismatch","j","true","Practice",""
"","","","","","html-keyboard-response","175","646983","0.0-7.3-0.3-1.78","null","<span style='color:GreenYellow; font-size: 70px;'>正确! </span>","null","","","","","","","","","","","","","","","","","","","","","","","","","feedback",""
"","","","","","psychophysics","176","648769","0.0-7.3-0.3-0.79","633","","j","","","","","","","","","","","","","key","j","16.665714285714508","735","456","./1_3_Stimuli/T_ambi40.png","自我","Word","他人","Mismatch","j","true","Practice",""
"","","","","","html-keyboard-response","177","649072","0.0-7.3-0.3-1.79","null","<span style='color:GreenYellow; font-size: 70px;'>正确! </span>","null","","","","","","","","","","","","","","","","","","","","","","","","","feedback",""
"","","","","","psychophysics","178","651263","0.0-7.3-0.3-0.80","1039","","f","","","","","","","","","","","","","key","f","16.666153846153666","735","456","./1_3_Stimuli/T_ambi40.png","他人","Image","他人","Match","f","true","Practice",""
"","","","","","html-keyboard-response","179","651566","0.0-7.3-0.3-1.80","null","<span style='color:GreenYellow; font-size: 70px;'>正确! </span>","null","","","","","","","","","","","","","","","","","","","","","","","","","feedback",""
"","","","","","psychophysics","180","653446","0.0-7.3-0.3-0.81","728","","f","","","","","","","","","","","","","key","f","16.66607142857226","735","456","./1_3_Stimuli/S_ambi40.png","自我","Word","自我","Match","f","true","Practice",""
"","","","","","html-keyboard-response","181","653748","0.0-7.3-0.3-1.81","null","<span style='color:GreenYellow; font-size: 70px;'>正确! </span>","null","","","","","","","","","","","","","","","","","","","","","","","","","feedback",""
"","","","","","psychophysics","182","655513","0.0-7.3-0.3-0.82","612","","j","","","","","","","","","","","","","key","j","16.669523809524254","735","456","./1_3_Stimuli/S_ambi40.png","朋友","Image","自我","Mismatch","j","true","Practice",""
"","","","","","html-keyboard-response","183","655816","0.0-7.3-0.3-1.82","null","<span style='color:GreenYellow; font-size: 70px;'>正确! </span>","null","","","","","","","","","","","","","","","","","","","","","","","","","feedback",""
"","","","","","psychophysics","184","657753","0.0-7.3-0.3-0.83","784","","j","","","","","","","","","","","","","key","j","16.666086956521536","735","456","./1_3_Stimuli/C_ambi40.png","自我","Image","朋友","Mismatch","j","true","Practice",""
"","","","","","html-keyboard-response","185","658055","0.0-7.3-0.3-1.83","null","<span style='color:GreenYellow; font-size: 70px;'>正确! </span>","null","","","","","","","","","","","","","","","","","","","","","","","","","feedback",""
"","","","","","psychophysics","186","659910","0.0-7.3-0.3-0.84","703","","f","","","","","","","","","","","","","key","f","16.666363636363002","735","456","./1_3_Stimuli/S_ambi40.png","自我","Image","自我","Match","f","true","Practice",""
"","","","","","html-keyboard-response","187","660212","0.0-7.3-0.3-1.84","null","<span style='color:GreenYellow; font-size: 70px;'>正确! </span>","null","","","","","","","","","","","","","","","","","","","","","","","","","feedback",""
"","","","","","psychophysics","188","662495","0.0-7.3-0.3-0.85","1130","","f","","","","","","","","","","","","","key","f","16.66617647058892","735","456","./1_3_Stimuli/T_ambi40.png","朋友","Image","他人","Mismatch","j","false","Practice",""
"","","","","","html-keyboard-response","189","662798","0.0-7.3-0.3-1.85","null","<span style='color:red; font-size: 70px;'>错误! </span>","null","","","","","","","","","","","","","","","","","","","","","","","","","feedback",""
"","","","","","psychophysics","190","664744","0.0-7.3-0.3-0.86","792","","j","","","","","","","","","","","","","key","j","16.665517241378907","735","456","./1_3_Stimuli/S_ambi40.png","朋友","Word","自我","Mismatch","j","true","Practice",""
"","","","","","html-keyboard-response","191","665046","0.0-7.3-0.3-1.86","null","<span style='color:GreenYellow; font-size: 70px;'>正确! </span>","null","","","","","","","","","","","","","","","","","","","","","","","","","feedback",""
"","","","","","psychophysics","192","667170","0.0-7.3-0.3-0.87","970","","f","","","","","","","","","","","","","key","f","16.668503937008058","735","456","./1_3_Stimuli/S_ambi40.png","自我","Image","自我","Match","f","true","Practice",""
"","","","","","html-keyboard-response","193","667472","0.0-7.3-0.3-1.87","null","<span style='color:GreenYellow; font-size: 70px;'>正确! </span>","null","","","","","","","","","","","","","","","","","","","","","","","","","feedback",""
"","","","","","psychophysics","194","669397","0.0-7.3-0.3-0.88","771","","f","","","","","","","","","","","","","key","f","16.666666666666668","735","456","./1_3_Stimuli/S_ambi40.png","自我","Word","自我","Match","f","true","Practice",""
"","","","","","html-keyboard-response","195","669699","0.0-7.3-0.3-1.88","null","<span style='color:GreenYellow; font-size: 70px;'>正确! </span>","null","","","","","","","","","","","","","","","","","","","","","","","","","feedback",""
"","","","","","psychophysics","196","672159","0.0-7.3-0.3-0.89","1308","","f","","","","","","","","","","","","","key","f","16.665986394557983","735","456","./1_3_Stimuli/C_ambi40.png","朋友","Image","朋友","Match","f","true","Practice",""
"","","","","","html-keyboard-response","197","672462","0.0-7.3-0.3-1.89","null","<span style='color:GreenYellow; font-size: 70px;'>正确! </span>","null","","","","","","","","","","","","","","","","","","","","","","","","","feedback",""
"","","","","","psychophysics","198","674545","0.0-7.3-0.3-0.90","930","","j","","","","","","","","","","","","","key","j","16.666129032257878","735","456","./1_3_Stimuli/C_ambi40.png","他人","Word","朋友","Mismatch","j","true","Practice",""
"","","","","","html-keyboard-response","199","674847","0.0-7.3-0.3-1.90","null","<span style='color:GreenYellow; font-size: 70px;'>正确! </span>","null","","","","","","","","","","","","","","","","","","","","","","","","","feedback",""
"","","","","","psychophysics","200","676811","0.0-7.3-0.3-0.91","810","","j","","","","","","","","","","","","","key","j","16.670085470084675","735","456","./1_3_Stimuli/S_ambi40.png","他人","Image","自我","Mismatch","j","true","Practice",""
"","","","","","html-keyboard-response","201","677113","0.0-7.3-0.3-1.91","null","<span style='color:GreenYellow; font-size: 70px;'>正确! </span>","null","","","","","","","","","","","","","","","","","","","","","","","","","feedback",""
"","","","","","psychophysics","202","679160","0.0-7.3-0.3-0.92","893","","f","","","","","","","","","","","","","key","f","16.66639344262238","735","456","./1_3_Stimuli/T_ambi40.png","他人","Image","他人","Match","f","true","Practice",""
"","","","","","html-keyboard-response","203","679462","0.0-7.3-0.3-1.92","null","<span style='color:GreenYellow; font-size: 70px;'>正确! </span>","null","","","","","","","","","","","","","","","","","","","","","","","","","feedback",""
"","","","","","psychophysics","204","681258","0.0-7.3-0.3-0.93","642","","f","","","","","","","","","","","","","key","f","16.66542056074723","735","456","./1_3_Stimuli/T_ambi40.png","他人","Word","他人","Match","f","true","Practice",""
"","","","","","html-keyboard-response","205","681561","0.0-7.3-0.3-1.93","null","<span style='color:GreenYellow; font-size: 70px;'>正确! </span>","null","","","","","","","","","","","","","","","","","","","","","","","","","feedback",""
"","","","","","psychophysics","206","683708","0.0-7.3-0.3-0.94","995","","f","","","","","","","","","","","","","key","f","16.665625000000546","735","456","./1_3_Stimuli/C_ambi40.png","朋友","Image","朋友","Match","f","true","Practice",""
"","","","","","html-keyboard-response","207","684010","0.0-7.3-0.3-1.94","null","<span style='color:GreenYellow; font-size: 70px;'>正确! </span>","null","","","","","","","","","","","","","","","","","","","","","","","","","feedback",""
"","","","","","psychophysics","208","685893","0.0-7.3-0.3-0.95","729","","f","","","","","","","","","","","","","key","f","16.669642857142858","735","456","./1_3_Stimuli/C_ambi40.png","朋友","Word","朋友","Match","f","true","Practice",""
"","","","","","html-keyboard-response","209","686195","0.0-7.3-0.3-1.95","null","<span style='color:GreenYellow; font-size: 70px;'>正确! </span>","null","","","","","","","","","","","","","","","","","","","","","","","","","feedback",""
"","","","","","html-keyboard-response","210","687945","0.0-7.3-1.3-0.3","1746","<style>.context{color:white; font-size: 35px; line-height:40px}</style>                        <div><p class='context'>您正确回答了83% 的试次。</p><p class='context'>您的平均反应时为839毫秒。</p><p> <div style = 'color: green'><按空格键至下页></div></p>"," ","","","","","","","","","","","","","","","","","","","","","","","","","",""
"","","","","","instructions","211","693251","0.0-7.3-1.3-1.3","5302","","","","","","","","","","","","","","[{""page_index"":0,""viewing_time"":2507},{""page_index"":1,""viewing_time"":1601},{""page_index"":2,""viewing_time"":1194}]","","","","","","","","","","","","","",""
"","","","","","psychophysics","212","695044","0.0-7.4-0.4-0.96","639","","f","","","","","","","","","","","","","key","f","16.666037735848835","735","456","./1_3_Stimuli/T_ambi40.png","他人","Image","他人","Match","f","true","Practice",""
"","","","","","html-keyboard-response","213","695347","0.0-7.4-0.4-1.96","null","<span style='color:GreenYellow; font-size: 70px;'>正确! </span>","null","","","","","","","","","","","","","","","","","","","","","","","","","feedback",""
"","","","","","psychophysics","214","697659","0.0-7.4-0.4-0.97","1159","","j","","","","","","","","","","","","","key","j","16.668840579709638","735","456","./1_3_Stimuli/T_ambi40.png","朋友","Word","他人","Mismatch","j","true","Practice",""
"","","","","","html-keyboard-response","215","697961","0.0-7.4-0.4-1.97","null","<span style='color:GreenYellow; font-size: 70px;'>正确! </span>","null","","","","","","","","","","","","","","","","","","","","","","","","","feedback",""
"","","","","","psychophysics","216","699813","0.0-7.4-0.4-0.98","698","","j","","","","","","","","","","","","","key","j","16.666363636363002","735","456","./1_3_Stimuli/T_ambi40.png","朋友","Image","他人","Mismatch","j","true","Practice",""
"","","","","","html-keyboard-response","217","700116","0.0-7.4-0.4-1.98","null","<span style='color:GreenYellow; font-size: 70px;'>正确! </span>","null","","","","","","","","","","","","","","","","","","","","","","","","","feedback",""
"","","","","","psychophysics","218","701766","0.0-7.4-0.4-0.99","497","","f","","","","","","","","","","","","","key","f","16.66632653061272","735","456","./1_3_Stimuli/S_ambi40.png","自我","Word","自我","Match","f","true","Practice",""
"","","","","","html-keyboard-response","219","702069","0.0-7.4-0.4-1.99","null","<span style='color:GreenYellow; font-size: 70px;'>正确! </span>","null","","","","","","","","","","","","","","","","","","","","","","","","","feedback",""
"","","","","","psychophysics","220","704165","0.0-7.4-0.4-0.100","944","","j","","","","","","","","","","","","","key","j","16.666129032257878","735","456","./1_3_Stimuli/C_ambi40.png","他人","Word","朋友","Mismatch","j","true","Practice",""
"","","","","","html-keyboard-response","221","704468","0.0-7.4-0.4-1.100","null","<span style='color:GreenYellow; font-size: 70px;'>正确! </span>","null","","","","","","","","","","","","","","","","","","","","","","","","","feedback",""
"","","","","","psychophysics","222","706363","0.0-7.4-0.4-0.101","742","","j","","","","","","","","","","","","","key","j","16.669642857142858","735","456","./1_3_Stimuli/S_ambi40.png","朋友","Word","自我","Mismatch","j","true","Practice",""
"","","","","","html-keyboard-response","223","706666","0.0-7.4-0.4-1.101","null","<span style='color:GreenYellow; font-size: 70px;'>正确! </span>","null","","","","","","","","","","","","","","","","","","","","","","","","","feedback",""
"","","","","","psychophysics","224","708651","0.0-7.4-0.4-0.102","832","","j","","","","","","","","","","","","","key","j","16.665254237288135","735","456","./1_3_Stimuli/S_ambi40.png","他人","Word","自我","Mismatch","j","true","Practice",""
"","","","","","html-keyboard-response","225","708953","0.0-7.4-0.4-1.102","null","<span style='color:GreenYellow; font-size: 70px;'>正确! </span>","null","","","","","","","","","","","","","","","","","","","","","","","","","feedback",""
"","","","","","psychophysics","226","711051","0.0-7.4-0.4-0.103","946","","j","","","","","","","","","","","","","key","j","16.66532258064516","735","456","./1_3_Stimuli/T_ambi40.png","自我","Image","他人","Mismatch","j","true","Practice",""
"","","","","","html-keyboard-response","227","711353","0.0-7.4-0.4-1.103","null","<span style='color:GreenYellow; font-size: 70px;'>正确! </span>","null","","","","","","","","","","","","","","","","","","","","","","","","","feedback",""
"","","","","","psychophysics","228","713142","0.0-7.4-0.4-0.104","636","","j","","","","","","","","","","","","","key","j","16.666037735849937","735","456","./1_3_Stimuli/C_ambi40.png","朋友","Word","朋友","Match","f","false","Practice",""
"","","","","","html-keyboard-response","229","713444","0.0-7.4-0.4-1.104","null","<span style='color:red; font-size: 70px;'>错误! </span>","null","","","","","","","","","","","","","","","","","","","","","","","","","feedback",""
"","","","","","psychophysics","230","715415","0.0-7.4-0.4-0.105","818","","f","","","","","","","","","","","","","key","f","16.665811965812164","735","456","./1_3_Stimuli/C_ambi40.png","朋友","Image","朋友","Match","f","true","Practice",""
"","","","","","html-keyboard-response","231","715718","0.0-7.4-0.4-1.105","null","<span style='color:GreenYellow; font-size: 70px;'>正确! </span>","null","","","","","","","","","","","","","","","","","","","","","","","","","feedback",""
"","","","","","psychophysics","232","717693","0.0-7.4-0.4-0.106","822","","f","","","","","","","","","","","","","key","f","16.665811965812164","735","456","./1_3_Stimuli/S_ambi40.png","自我","Image","自我","Match","f","true","Practice",""
"","","","","","html-keyboard-response","233","717996","0.0-7.4-0.4-1.106","null","<span style='color:GreenYellow; font-size: 70px;'>正确! </span>","null","","","","","","","","","","","","","","","","","","","","","","","","","feedback",""
"","","","","","psychophysics","234","719798","0.0-7.4-0.4-0.107","649","","j","","","","","","","","","","","","","key","j","16.665420560748316","735","456","./1_3_Stimuli/C_ambi40.png","自我","Word","朋友","Mismatch","j","true","Practice",""
"","","","","","html-keyboard-response","235","720100","0.0-7.4-0.4-1.107","null","<span style='color:GreenYellow; font-size: 70px;'>正确! </span>","null","","","","","","","","","","","","","","","","","","","","","","","","","feedback",""
"","","","","","psychophysics","236","721880","0.0-7.4-0.4-0.108","626","","f","","","","","","","","","","","","","key","f","16.666666666666668","735","456","./1_3_Stimuli/S_ambi40.png","自我","Image","自我","Match","f","true","Practice",""
"","","","","","html-keyboard-response","237","722182","0.0-7.4-0.4-1.108","null","<span style='color:GreenYellow; font-size: 70px;'>正确! </span>","null","","","","","","","","","","","","","","","","","","","","","","","","","feedback",""
"","","","","","psychophysics","238","724876","0.0-7.4-0.4-0.109","1540","","f","","","","","","","","","","","","","key","f","16.66645962732948","735","456","./1_3_Stimuli/C_ambi40.png","他人","Image","朋友","Mismatch","j","false","Practice",""
"","","","","","html-keyboard-response","239","725178","0.0-7.4-0.4-1.109","null","<span class='add_' style='color:yellow; font-size: 70px;'> 太慢! </span>","null","","","","","","","","","","","","","","","","","","","","","","","","","feedback",""
"","","","","","psychophysics","240","727210","0.0-7.4-0.4-0.110","878","","j","","","","","","","","","","","","","key","j","16.668595041322508","735","456","./1_3_Stimuli/T_ambi40.png","他人","Word","他人","Match","f","false","Practice",""
"","","","","","html-keyboard-response","241","727512","0.0-7.4-0.4-1.110","null","<span style='color:red; font-size: 70px;'>错误! </span>","null","","","","","","","","","","","","","","","","","","","","","","","","","feedback",""
"","","","","","psychophysics","242","729218","0.0-7.4-0.4-0.111","554","","f","","","","","","","","","","","","","key","f","16.666336633662674","735","456","./1_3_Stimuli/S_ambi40.png","自我","Word","自我","Match","f","true","Practice",""
"","","","","","html-keyboard-response","243","729520","0.0-7.4-0.4-1.111","null","<span style='color:GreenYellow; font-size: 70px;'>正确! </span>","null","","","","","","","","","","","","","","","","","","","","","","","","","feedback",""
"","","","","","psychophysics","244","731537","0.0-7.4-0.4-0.112","864","","f","","","","","","","","","","","","","key","f","16.665833333333527","735","456","./1_3_Stimuli/C_ambi40.png","朋友","Image","朋友","Match","f","true","Practice",""
"","","","","","html-keyboard-response","245","731838","0.0-7.4-0.4-1.112","null","<span style='color:GreenYellow; font-size: 70px;'>正确! </span>","null","","","","","","","","","","","","","","","","","","","","","","","","","feedback",""
"","","","","","psychophysics","246","733803","0.0-7.4-0.4-0.113","813","","f","","","","","","","","","","","","","key","f","16.665811965812164","735","456","./1_3_Stimuli/C_ambi40.png","朋友","Word","朋友","Match","f","true","Practice",""
"","","","","","html-keyboard-response","247","734105","0.0-7.4-0.4-1.113","null","<span style='color:GreenYellow; font-size: 70px;'>正确! </span>","null","","","","","","","","","","","","","","","","","","","","","","","","","feedback",""
"","","","","","psychophysics","248","735914","0.0-7.4-0.4-0.114","656","","j","","","","","","","","","","","","","key","j","16.67009345794349","735","456","./1_3_Stimuli/C_ambi40.png","自我","Image","朋友","Mismatch","j","true","Practice",""
"","","","","","html-keyboard-response","249","736216","0.0-7.4-0.4-1.114","null","<span style='color:GreenYellow; font-size: 70px;'>正确! </span>","null","","","","","","","","","","","","","","","","","","","","","","","","","feedback",""
"","","","","","psychophysics","250","738394","0.0-7.4-0.4-0.115","1024","","j","","","","","","","","","","","","","key","j","16.665384615384614","735","456","./1_3_Stimuli/T_ambi40.png","自我","Word","他人","Mismatch","j","true","Practice",""
"","","","","","html-keyboard-response","251","738696","0.0-7.4-0.4-1.115","null","<span style='color:GreenYellow; font-size: 70px;'>正确! </span>","null","","","","","","","","","","","","","","","","","","","","","","","","","feedback",""
"","","","","","psychophysics","252","740847","0.0-7.4-0.4-0.116","998","","f","","","","","","","","","","","","","key","f","16.665625000000546","735","456","./1_3_Stimuli/T_ambi40.png","他人","Image","他人","Match","f","true","Practice",""
"","","","","","html-keyboard-response","253","741149","0.0-7.4-0.4-1.116","null","<span style='color:GreenYellow; font-size: 70px;'>正确! </span>","null","","","","","","","","","","","","","","","","","","","","","","","","","feedback",""
"","","","","","psychophysics","254","742893","0.0-7.4-0.4-0.117","591","","j","","","","","","","","","","","","","key","j","16.66634615384548","735","456","./1_3_Stimuli/S_ambi40.png","他人","Image","自我","Mismatch","j","true","Practice",""
"","","","","","html-keyboard-response","255","743196","0.0-7.4-0.4-1.117","null","<span style='color:GreenYellow; font-size: 70px;'>正确! </span>","null","","","","","","","","","","","","","","","","","","","","","","","","","feedback",""
"","","","","","psychophysics","256","745327","0.0-7.4-0.4-0.118","978","","f","","","","","","","","","","","","","key","f","16.666929133857902","735","456","./1_3_Stimuli/T_ambi40.png","他人","Word","他人","Match","f","true","Practice",""
"","","","","","html-keyboard-response","257","745630","0.0-7.4-0.4-1.118","null","<span style='color:GreenYellow; font-size: 70px;'>正确! </span>","null","","","","","","","","","","","","","","","","","","","","","","","","","feedback",""
"","","","","","psychophysics","258","747595","0.0-7.4-0.4-0.119","812","","j","","","","","","","","","","","","","key","j","16.669230769231167","735","456","./1_3_Stimuli/S_ambi40.png","朋友","Image","自我","Mismatch","j","true","Practice",""
"","","","","","html-keyboard-response","259","747898","0.0-7.4-0.4-1.119","null","<span style='color:GreenYellow; font-size: 70px;'>正确! </span>","null","","","","","","","","","","","","","","","","","","","","","","","","","feedback",""
"","","","","","html-keyboard-response","260","1001954","0.0-8.0","254050","<style>.context{color:white; font-size: 35px; line-height:40px}</style>                          <div><p class='context'>您正确回答了88% 的试次。</p><p class='context'>您的平均反应时为793毫秒。</p><p class='context'>恭喜您完成练习。现在请休息3~5分钟。</p><p class='context'>之后，按任意键进入正式实验。需要注意的是，正式实验将不再提供反应是否正确的反馈。</p><p class='footer' style='font-size: 35px; line-height:40px;'>请在进入正式实验实验之前将您的<span style='color: lightgreen;'>食指</span>放在电脑键盘的相应键位上进行按键。</p>"," ","","","","","","","","","","","","","","","","","","","","","","","","","",""
"","","","","","psychophysics","261","1003864","0.0-9.0-0.0-0.0","753","","j","","","","","","","","","","","","","key","j","16.6858407079646","735","456","./1_3_Stimuli/T_ambi40.png","自我","Word","他人","Mismatch","j","true","Formal",""
"","","","","","psychophysics","262","1005661","0.0-9.0-0.0-0.1","643","","f","","","","","","","","","","","","","key","f","16.66698113207613","735","456","./1_3_Stimuli/T_ambi40.png","自我","Image","他人","Mismatch","j","false","Formal",""
"","","","","","psychophysics","263","1007396","0.0-9.0-0.0-0.2","584","","j","","","","","","","","","","","","","key","j","16.665686274510033","735","456","./1_3_Stimuli/C_ambi40.png","他人","Image","朋友","Mismatch","j","true","Formal",""
"","","","","","psychophysics","264","1009416","0.0-9.0-0.0-0.3","867","","f","","","","","","","","","","","","","key","f","16.665546218487005","735","456","./1_3_Stimuli/C_ambi40.png","朋友","Word","朋友","Match","f","true","Formal",""
"","","","","","psychophysics","265","1011162","0.0-9.0-0.0-0.4","593","","f","","","","","","","","","","","","","key","f","16.666019417475503","735","456","./1_3_Stimuli/S_ambi40.png","自我","Image","自我","Match","f","true","Formal",""
"","","","","","psychophysics","266","1013211","0.0-9.0-0.0-0.5","897","","j","","","","","","","","","","","","","key","j","16.669421487603305","735","456","./1_3_Stimuli/C_ambi40.png","朋友","Image","朋友","Match","f","false","Formal",""
"","","","","","psychophysics","267","1015097","0.0-9.0-0.0-0.6","733","","j","","","","","","","","","","","","","key","j","16.664864864865283","735","456","./1_3_Stimuli/S_ambi40.png","朋友","Image","自我","Mismatch","j","true","Formal",""
"","","","","","psychophysics","268","1016850","0.0-9.0-0.0-0.7","600","","f","","","","","","","","","","","","","key","f","16.666019417475503","735","456","./1_3_Stimuli/S_ambi40.png","自我","Word","自我","Match","f","true","Formal",""
"","","","","","psychophysics","269","1018762","0.0-9.0-0.0-0.8","759","","f","","","","","","","","","","","","","key","f","16.665486725663303","735","456","./1_3_Stimuli/S_ambi40.png","他人","Image","自我","Mismatch","j","false","Formal",""
"","","","","","psychophysics","270","1020802","0.0-9.0-0.0-0.9","888","","j","","","","","","","","","","","","","key","j","16.665000000000386","735","456","./1_3_Stimuli/C_ambi40.png","自我","Image","朋友","Mismatch","j","true","Formal",""
"","","","","","psychophysics","271","1022567","0.0-9.0-0.0-0.10","612","","f","","","","","","","","","","","","","key","f","16.668571428572093","735","456","./1_3_Stimuli/S_ambi40.png","自我","Image","自我","Match","f","true","Formal",""
"","","","","","psychophysics","272","1024504","0.0-9.0-0.0-0.11","784","","j","","","","","","","","","","","","","key","j","16.665789473684416","735","456","./1_3_Stimuli/S_ambi40.png","他人","Word","自我","Mismatch","j","true","Formal",""
"","","","","","psychophysics","273","1026344","0.0-9.0-0.0-0.12","688","","f","","","","","","","","","","","","","key","f","16.666972477063794","735","456","./1_3_Stimuli/S_ambi40.png","自我","Word","自我","Match","f","true","Formal",""
"","","","","","psychophysics","274","1028164","0.0-9.0-0.0-0.13","666","","j","","","","","","","","","","","","","key","j","16.66542056074723","735","456","./1_3_Stimuli/T_ambi40.png","朋友","Image","他人","Mismatch","j","true","Formal",""
"","","","","","psychophysics","275","1030834","0.0-9.0-0.0-0.14","1518","","j","","","","","","","","","","","","","key","j","16.665822784809833","735","456","./1_3_Stimuli/C_ambi40.png","朋友","Word","朋友","Match","f","false","Formal",""
"","","","","","psychophysics","276","1032827","0.0-9.0-0.0-0.15","841","","f","","","","","","","","","","","","","key","f","16.667796610169887","735","456","./1_3_Stimuli/T_ambi40.png","他人","Image","他人","Match","f","true","Formal",""
"","","","","","psychophysics","277","1034748","0.0-9.0-0.0-0.16","768","","j","","","","","","","","","","","","","key","j","16.665486725663303","735","456","./1_3_Stimuli/S_ambi40.png","朋友","Word","自我","Mismatch","j","true","Formal",""
"","","","","","psychophysics","278","1036731","0.0-9.0-0.0-0.17","829","","j","","","","","","","","","","","","","key","j","16.666949152542966","735","456","./1_3_Stimuli/C_ambi40.png","朋友","Image","朋友","Match","f","false","Formal",""
"","","","","","psychophysics","279","1038911","0.0-9.0-0.0-0.18","1028","","f","","","","","","","","","","","","","key","f","16.6658914728684","735","456","./1_3_Stimuli/T_ambi40.png","他人","Word","他人","Match","f","true","Formal",""
"","","","","","psychophysics","280","1040901","0.0-9.0-0.0-0.19","838","","f","","","","","","","","","","","","","key","f","16.665811965812164","735","456","./1_3_Stimuli/T_ambi40.png","他人","Image","他人","Match","f","true","Formal",""
"","","","","","psychophysics","281","1042780","0.0-9.0-0.0-0.20","725","","j","","","","","","","","","","","","","key","j","16.66936936936979","735","456","./1_3_Stimuli/C_ambi40.png","他人","Word","朋友","Mismatch","j","true","Formal",""
"","","","","","psychophysics","282","1044915","0.0-9.0-0.0-0.21","982","","j","","","","","","","","","","","","","key","j","16.666666666666668","735","456","./1_3_Stimuli/C_ambi40.png","自我","Word","朋友","Mismatch","j","true","Formal",""
"","","","","","psychophysics","283","1046813","0.0-9.0-0.0-0.22","745","","j","","","","","","","","","","","","","key","j","16.665178571428573","735","456","./1_3_Stimuli/T_ambi40.png","他人","Word","他人","Match","f","false","Formal",""
"","","","","","psychophysics","284","1048902","0.0-9.0-0.0-0.23","936","","j","","","","","","","","","","","","","key","j","16.665853658535827","735","456","./1_3_Stimuli/T_ambi40.png","朋友","Word","他人","Mismatch","j","true","Formal",""
"","","","","","psychophysics","285","1050861","0.0-9.0-0.0-0.24","805","","j","","","","","","","","","","","","","key","j","16.665517241378907","735","456","./1_3_Stimuli/S_ambi40.png","他人","Word","自我","Mismatch","j","true","Formal",""
"","","","","","psychophysics","286","1053128","0.0-9.0-0.0-0.25","1114","","j","","","","","","","","","","","","","key","j","16.669402985074278","735","456","./1_3_Stimuli/T_ambi40.png","朋友","Image","他人","Mismatch","j","true","Formal",""
"","","","","","psychophysics","287","1054932","0.0-9.0-0.0-0.26","650","","j","","","","","","","","","","","","","key","j","16.666981132075033","735","456","./1_3_Stimuli/T_ambi40.png","他人","Image","他人","Match","f","false","Formal",""
"","","","","","psychophysics","288","1056698","0.0-9.0-0.0-0.27","613","","f","","","","","","","","","","","","","key","f","16.6663461538466","735","456","./1_3_Stimuli/T_ambi40.png","他人","Word","他人","Match","f","true","Formal",""
"","","","","","psychophysics","289","1058721","0.0-9.0-0.0-0.28","870","","j","","","","","","","","","","","","","key","j","16.66554621848896","735","456","./1_3_Stimuli/T_ambi40.png","自我","Image","他人","Mismatch","j","true","Formal",""
"","","","","","psychophysics","290","1060642","0.0-9.0-0.0-0.29","769","","f","","","","","","","","","","","","","key","f","16.665789473685436","735","456","./1_3_Stimuli/T_ambi40.png","他人","Word","他人","Match","f","true","Formal",""
"","","","","","psychophysics","291","1062445","0.0-9.0-0.0-0.30","650","","j","","","","","","","","","","","","","key","j","16.66915887850554","735","456","./1_3_Stimuli/S_ambi40.png","朋友","Image","自我","Mismatch","j","true","Formal",""
"","","","","","psychophysics","292","1065044","0.0-9.0-0.0-0.31","1447","","j","","","","","","","","","","","","","key","j","16.665584415584416","735","456","./1_3_Stimuli/C_ambi40.png","他人","Image","朋友","Mismatch","j","true","Formal",""
"","","","","","psychophysics","293","1066970","0.0-9.0-0.0-0.32","774","","j","","","","","","","","","","","","","key","j","16.66637168141634","735","456","./1_3_Stimuli/S_ambi40.png","他人","Image","自我","Mismatch","j","true","Formal",""
"","","","","","psychophysics","294","1069149","0.0-9.0-0.0-0.33","1026","","j","","","","","","","","","","","","","key","j","16.6658914728693","735","456","./1_3_Stimuli/C_ambi40.png","他人","Word","朋友","Mismatch","j","true","Formal",""
"","","","","","psychophysics","295","1071159","0.0-9.0-0.0-0.34","858","","j","","","","","","","","","","","","","key","j","16.665546218487005","735","456","./1_3_Stimuli/C_ambi40.png","自我","Image","朋友","Mismatch","j","true","Formal",""
"","","","","","psychophysics","296","1073161","0.0-9.0-0.0-0.35","850","","f","","","","","","","","","","","","","key","f","16.66864406779582","735","456","./1_3_Stimuli/S_ambi40.png","自我","Word","自我","Match","f","true","Formal",""
"","","","","","psychophysics","297","1075444","0.0-9.0-0.0-0.36","1131","","j","","","","","","","","","","","","","key","j","16.666666666666668","735","456","./1_3_Stimuli/C_ambi40.png","自我","Word","朋友","Mismatch","j","true","Formal",""
"","","","","","psychophysics","298","1077488","0.0-9.0-0.0-0.37","892","","j","","","","","","","","","","","","","key","j","16.66611570248011","735","456","./1_3_Stimuli/T_ambi40.png","朋友","Word","他人","Mismatch","j","true","Formal",""
"","","","","","psychophysics","299","1079426","0.0-9.0-0.0-0.38","786","","f","","","","","","","","","","","","","key","f","16.666086956520523","735","456","./1_3_Stimuli/S_ambi40.png","自我","Image","自我","Match","f","true","Formal",""
"","","","","","psychophysics","300","1081805","0.0-9.0-0.0-0.39","1226","","j","","","","","","","","","","","","","key","j","16.66595744680785","735","456","./1_3_Stimuli/C_ambi40.png","朋友","Word","朋友","Match","f","false","Formal",""
"","","","","","psychophysics","301","1084231","0.0-9.0-0.0-0.40","1275","","j","","","","","","","","","","","","","key","j","16.668749999998706","735","456","./1_3_Stimuli/C_ambi40.png","朋友","Image","朋友","Match","f","false","Formal",""
"","","","","","psychophysics","302","1086048","0.0-9.0-0.0-0.41","663","","f","","","","","","","","","","","","","key","f","16.666355140187353","735","456","./1_3_Stimuli/S_ambi40.png","自我","Image","自我","Match","f","true","Formal",""
"","","","","","psychophysics","303","1088250","0.0-9.0-0.0-0.42","1050","","f","","","","","","","","","","","","","key","f","16.66615384615277","735","456","./1_3_Stimuli/T_ambi40.png","他人","Image","他人","Match","f","true","Formal",""
"","","","","","psychophysics","304","1090227","0.0-9.0-0.0-0.43","824","","j","","","","","","","","","","","","","key","j","16.664957264957664","735","456","./1_3_Stimuli/C_ambi40.png","朋友","Word","朋友","Match","f","false","Formal",""
"","","","","","psychophysics","305","1092232","0.0-9.0-0.0-0.44","852","","j","","","","","","","","","","","","","key","j","16.665254237288135","735","456","./1_3_Stimuli/S_ambi40.png","朋友","Word","自我","Mismatch","j","true","Formal",""
"","","","","","psychophysics","306","1094346","0.0-9.0-0.0-0.45","962","","j","","","","","","","","","","","","","key","j","16.66960000000149","735","456","./1_3_Stimuli/C_ambi40.png","朋友","Image","朋友","Match","f","false","Formal",""
"","","","","","psychophysics","307","1096351","0.0-9.0-0.0-0.46","852","","f","","","","","","","","","","","","","key","f","16.666101694916044","735","456","./1_3_Stimuli/S_ambi40.png","自我","Word","自我","Match","f","true","Formal",""
"","","","","","psychophysics","308","1098662","0.0-9.0-0.0-0.47","1158","","j","","","","","","","","","","","","","key","j","16.665693430656596","735","456","./1_3_Stimuli/T_ambi40.png","自我","Word","他人","Mismatch","j","true","Formal",""
"","","","","","psychophysics","309","1100633","0.0-9.0-0.0-0.48","818","","j","","","","","","","","","","","","","key","j","16.665517241380915","735","456","./1_3_Stimuli/T_ambi40.png","自我","Word","他人","Mismatch","j","true","Formal",""
"","","","","","psychophysics","310","1102714","0.0-9.0-0.0-0.49","928","","j","","","","","","","","","","","","","key","j","16.669918699188127","735","456","./1_3_Stimuli/S_ambi40.png","朋友","Word","自我","Mismatch","j","true","Formal",""
"","","","","","psychophysics","311","1105381","0.0-9.0-0.0-0.50","1513","","j","","","","","","","","","","","","","key","j","16.665822784809833","735","456","./1_3_Stimuli/C_ambi40.png","朋友","Word","朋友","Match","f","false","Formal",""
"","","","","","psychophysics","312","1107718","0.0-9.0-0.0-0.51","1185","","j","","","","","","","","","","","","","key","j","16.66594202898652","735","456","./1_3_Stimuli/C_ambi40.png","他人","Word","朋友","Mismatch","j","true","Formal",""
"","","","","","psychophysics","313","1109618","0.0-9.0-0.0-0.52","747","","f","","","","","","","","","","","","","key","f","16.66696428571387","735","456","./1_3_Stimuli/S_ambi40.png","自我","Word","自我","Match","f","true","Formal",""
"","","","","","psychophysics","314","1111928","0.0-9.0-0.0-0.53","1158","","j","","","","","","","","","","","","","key","j","16.666423357664574","735","456","./1_3_Stimuli/S_ambi40.png","朋友","Image","自我","Mismatch","j","true","Formal",""
"","","","","","psychophysics","315","1113799","0.0-9.0-0.0-0.54","718","","j","","","","","","","","","","","","","key","j","16.670000000001693","735","456","./1_3_Stimuli/C_ambi40.png","他人","Image","朋友","Mismatch","j","true","Formal",""
"","","","","","psychophysics","316","1115630","0.0-9.0-0.0-0.55","678","","f","","","","","","","","","","","","","key","f","16.665740740742034","735","456","./1_3_Stimuli/S_ambi40.png","自我","Image","自我","Match","f","true","Formal",""
"","","","","","psychophysics","317","1117881","0.0-9.0-0.0-0.56","1098","","j","","","","","","","","","","","","","key","j","16.666165413532784","735","456","./1_3_Stimuli/C_ambi40.png","自我","Image","朋友","Mismatch","j","true","Formal",""
"","","","","","psychophysics","318","1119762","0.0-9.0-0.0-0.57","728","","j","","","","","","","","","","","","","key","j","16.666666666666668","735","456","./1_3_Stimuli/C_ambi40.png","朋友","Word","朋友","Match","f","false","Formal",""
"","","","","","psychophysics","319","1122349","0.0-9.0-0.0-0.58","1434","","j","","","","","","","","","","","","","key","j","16.666013071894817","735","456","./1_3_Stimuli/C_ambi40.png","朋友","Image","朋友","Match","f","false","Formal",""
"","","","","","psychophysics","320","1124245","0.0-9.0-0.0-0.59","742","","f","","","","","","","","","","","","","key","f","16.670535714286547","735","456","./1_3_Stimuli/T_ambi40.png","他人","Image","他人","Match","f","true","Formal",""
"","","","","","psychophysics","321","1126380","0.0-9.0-0.0-0.60","984","","f","","","","","","","","","","","","","key","f","16.666666666666668","735","456","./1_3_Stimuli/C_ambi40.png","朋友","Image","朋友","Match","f","true","Formal",""
"","","","","","psychophysics","322","1128215","0.0-9.0-0.0-0.61","682","","j","","","","","","","","","","","","","key","j","16.665740740739878","735","456","./1_3_Stimuli/S_ambi40.png","他人","Image","自我","Mismatch","j","true","Formal",""
"","","","","","psychophysics","323","1130499","0.0-9.0-0.0-0.62","1131","","j","","","","","","","","","","","","","key","j","16.666666666666668","735","456","./1_3_Stimuli/C_ambi40.png","自我","Word","朋友","Mismatch","j","true","Formal",""
"","","","","","psychophysics","324","1133104","0.0-9.0-0.0-0.63","1453","","f","","","","","","","","","","","","","key","f","16.66883116883117","735","456","./1_3_Stimuli/S_ambi40.png","自我","Image","自我","Match","f","true","Formal",""
"","","","","","psychophysics","325","1134961","0.0-9.0-0.0-0.64","704","","f","","","","","","","","","","","","","key","f","16.66636363636406","735","456","./1_3_Stimuli/S_ambi40.png","自我","Word","自我","Match","f","true","Formal",""
"","","","","","psychophysics","326","1137675","0.0-9.0-0.0-0.65","null","","null","","","","","","","","","","","","","key","null","16.66583850931648","735","456","./1_3_Stimuli/T_ambi40.png","他人","Word","他人","Match","f","false","Formal",""
"","","","","","psychophysics","327","1140218","0.0-9.0-0.0-0.66","1391","","f","","","","","","","","","","","","","key","f","16.66622516556353","735","456","./1_3_Stimuli/T_ambi40.png","他人","Image","他人","Match","f","true","Formal",""
"","","","","","psychophysics","328","1141964","0.0-9.0-0.0-0.67","593","","j","","","","","","","","","","","","","key","j","16.66504854368932","735","456","./1_3_Stimuli/S_ambi40.png","他人","Word","自我","Mismatch","j","true","Formal",""
"","","","","","psychophysics","329","1144678","0.0-9.0-0.0-0.68","null","","null","","","","","","","","","","","","","key","null","16.668322981367037","735","456","./1_3_Stimuli/T_ambi40.png","朋友","Image","他人","Mismatch","j","false","Formal",""
"","","","","","psychophysics","330","1147381","0.0-9.0-0.0-0.69","1550","","f","","","","","","","","","","","","","key","f","16.666249999999128","735","456","./1_3_Stimuli/T_ambi40.png","自我","Image","他人","Mismatch","j","false","Formal",""
"","","","","","psychophysics","331","1150096","0.0-9.0-0.0-0.70","null","","null","","","","","","","","","","","","","key","null","16.66583850931648","735","456","./1_3_Stimuli/T_ambi40.png","朋友","Word","他人","Mismatch","j","false","Formal",""
"","","","","","psychophysics","332","1152066","0.0-9.0-0.0-0.71","818","","f","","","","","","","","","","","","","key","f","16.665517241378907","735","456","./1_3_Stimuli/T_ambi40.png","他人","Word","他人","Match","f","true","Formal",""
"","","","","","psychophysics","333","1154781","0.0-9.0-0.0-0.72","null","","null","","","","","","","","","","","","","key","null","16.668322981367037","735","456","./1_3_Stimuli/C_ambi40.png","自我","Word","朋友","Mismatch","j","false","Formal",""
"","","","","","psychophysics","334","1157496","0.0-9.0-0.0-0.73","null","","null","","","","","","","","","","","","","key","null","16.665217391304925","735","456","./1_3_Stimuli/C_ambi40.png","朋友","Image","朋友","Match","f","false","Formal",""
"","","","","","psychophysics","335","1159446","0.0-9.0-0.0-0.74","798","","f","","","","","","","","","","","","","key","f","16.665517241378907","735","456","./1_3_Stimuli/S_ambi40.png","自我","Image","自我","Match","f","true","Formal",""
"","","","","","psychophysics","336","1161598","0.0-9.0-0.0-0.75","999","","j","","","","","","","","","","","","","key","j","16.666141732282366","735","456","./1_3_Stimuli/S_ambi40.png","他人","Word","自我","Mismatch","j","true","Formal",""
"","","","","","psychophysics","337","1163914","0.0-9.0-0.0-0.76","1164","","j","","","","","","","","","","","","","key","j","16.668613138686812","735","456","./1_3_Stimuli/C_ambi40.png","朋友","Image","朋友","Match","f","false","Formal",""
"","","","","","psychophysics","338","1166232","0.0-9.0-0.0-0.77","1165","","j","","","","","","","","","","","","","key","j","16.665693430656596","735","456","./1_3_Stimuli/T_ambi40.png","自我","Word","他人","Mismatch","j","true","Formal",""
"","","","","","psychophysics","339","1168947","0.0-9.0-0.0-0.78","null","","null","","","","","","","","","","","","","key","null","16.66583850931648","735","456","./1_3_Stimuli/C_ambi40.png","他人","Word","朋友","Mismatch","j","false","Formal",""
"","","","","","psychophysics","340","1170881","0.0-9.0-0.0-0.79","781","","f","","","","","","","","","","","","","key","f","16.665789473683393","735","456","./1_3_Stimuli/S_ambi40.png","自我","Word","自我","Match","f","true","Formal",""
"","","","","","psychophysics","341","1173204","0.0-9.0-0.0-0.80","1170","","f","","","","","","","","","","","","","key","f","16.668613138686812","735","456","./1_3_Stimuli/S_ambi40.png","自我","Image","自我","Match","f","true","Formal",""
"","","","","","psychophysics","342","1175714","0.0-9.0-0.0-0.81","1358","","j","","","","","","","","","","","","","key","j","16.666442953020447","735","456","./1_3_Stimuli/S_ambi40.png","他人","Image","自我","Mismatch","j","true","Formal",""
"","","","","","psychophysics","343","1178371","0.0-9.0-0.0-0.82","1503","","j","","","","","","","","","","","","","key","j","16.666242038217153","735","456","./1_3_Stimuli/S_ambi40.png","朋友","Word","自我","Mismatch","j","true","Formal",""
"","","","","","psychophysics","344","1180747","0.0-9.0-0.0-0.83","1224","","f","","","","","","","","","","","","","key","f","16.66595744680785","735","456","./1_3_Stimuli/T_ambi40.png","他人","Image","他人","Match","f","true","Formal",""
"","","","","","psychophysics","345","1183462","0.0-9.0-0.0-0.84","null","","null","","","","","","","","","","","","","key","null","16.668944099378592","735","456","./1_3_Stimuli/C_ambi40.png","朋友","Word","朋友","Match","f","false","Formal",""
"","","","","","psychophysics","346","1185519","0.0-9.0-0.0-0.85","903","","j","","","","","","","","","","","","","key","j","16.66611570248011","735","456","./1_3_Stimuli/S_ambi40.png","朋友","Image","自我","Mismatch","j","true","Formal",""
"","","","","","psychophysics","347","1188233","0.0-9.0-0.0-0.86","null","","null","","","","","","","","","","","","","key","null","16.665838509317926","735","456","./1_3_Stimuli/C_ambi40.png","他人","Image","朋友","Mismatch","j","false","Formal",""
"","","","","","psychophysics","348","1190116","0.0-9.0-0.0-0.87","729","","f","","","","","","","","","","","","","key","f","16.66607142857018","735","456","./1_3_Stimuli/T_ambi40.png","他人","Image","他人","Match","f","true","Formal",""
"","","","","","psychophysics","349","1192079","0.0-9.0-0.0-0.88","810","","f","","","","","","","","","","","","","key","f","16.665517241378907","735","456","./1_3_Stimuli/T_ambi40.png","他人","Word","他人","Match","f","true","Formal",""
"","","","","","psychophysics","350","1194666","0.0-9.0-0.0-0.89","1434","","f","","","","","","","","","","","","","key","f","16.667973856210367","735","456","./1_3_Stimuli/C_ambi40.png","自我","Image","朋友","Mismatch","j","false","Formal",""
"","","","","","psychophysics","351","1197383","0.0-9.0-0.0-0.90","null","","null","","","","","","","","","","","","","key","null","16.665838509317926","735","456","./1_3_Stimuli/T_ambi40.png","自我","Image","他人","Mismatch","j","false","Formal",""
"","","","","","psychophysics","352","1199230","0.0-9.0-0.0-0.91","694","","f","","","","","","","","","","","","","key","f","16.66545454545412","735","456","./1_3_Stimuli/S_ambi40.png","自我","Word","自我","Match","f","true","Formal",""
"","","","","","psychophysics","353","1201468","0.0-9.0-0.0-0.92","1084","","f","","","","","","","","","","","","","key","f","16.666666666666668","735","456","./1_3_Stimuli/T_ambi40.png","他人","Word","他人","Match","f","true","Formal",""
"","","","","","psychophysics","354","1204172","0.0-9.0-0.0-0.93","null","","null","","","","","","","","","","","","","key","null","16.668322981367037","735","456","./1_3_Stimuli/C_ambi40.png","朋友","Word","朋友","Match","f","false","Formal",""
"","","","","","psychophysics","355","1206782","0.0-9.0-0.0-0.94","1457","","j","","","","","","","","","","","","","key","j","16.666451612903526","735","456","./1_3_Stimuli/T_ambi40.png","朋友","Word","他人","Mismatch","j","true","Formal",""
"","","","","","psychophysics","356","1208681","0.0-9.0-0.0-0.95","746","","j","","","","","","","","","","","","","key","j","16.66607142857226","735","456","./1_3_Stimuli/T_ambi40.png","朋友","Image","他人","Mismatch","j","true","Formal",""
"","","","","","psychophysics","357","1210534","0.0-9.0-0.0-0.96","699","","j","","","","","","","","","","","","","key","j","16.666055045872415","735","456","./1_3_Stimuli/S_ambi40.png","他人","Word","自我","Mismatch","j","true","Formal",""
"","","","","","psychophysics","358","1212636","0.0-9.0-0.0-0.97","949","","f","","","","","","","","","","","","","key","f","16.666129032256936","735","456","./1_3_Stimuli/S_ambi40.png","自我","Image","自我","Match","f","true","Formal",""
"","","","","","psychophysics","359","1215351","0.0-9.0-0.0-0.98","null","","null","","","","","","","","","","","","","key","null","16.66832298136559","735","456","./1_3_Stimuli/T_ambi40.png","朋友","Word","他人","Mismatch","j","false","Formal",""
"","","","","","psychophysics","360","1217149","0.0-9.0-0.0-0.99","644","","j","","","","","","","","","","","","","key","j","16.666355140187353","735","456","./1_3_Stimuli/T_ambi40.png","朋友","Image","他人","Mismatch","j","true","Formal",""
"","","","","","psychophysics","361","1218962","0.0-9.0-0.0-0.100","660","","f","","","","","","","","","","","","","key","f","16.666355140185175","735","456","./1_3_Stimuli/T_ambi40.png","他人","Word","他人","Match","f","true","Formal",""
"","","","","","psychophysics","362","1220968","0.0-9.0-0.0-0.101","853","","j","","","","","","","","","","","","","key","j","16.665254237288135","735","456","./1_3_Stimuli/T_ambi40.png","自我","Word","他人","Mismatch","j","true","Formal",""
"","","","","","psychophysics","363","1222964","0.0-9.0-0.0-0.102","843","","j","","","","","","","","","","","","","key","j","16.669747899159272","735","456","./1_3_Stimuli/C_ambi40.png","朋友","Image","朋友","Match","f","false","Formal",""
"","","","","","psychophysics","364","1225611","0.0-9.0-0.0-0.103","1494","","f","","","","","","","","","","","","","key","f","16.666242038217153","735","456","./1_3_Stimuli/T_ambi40.png","他人","Image","他人","Match","f","true","Formal",""
"","","","","","psychophysics","365","1227467","0.0-9.0-0.0-0.104","704","","f","","","","","","","","","","","","","key","f","16.666055045870277","735","456","./1_3_Stimuli/S_ambi40.png","自我","Image","自我","Match","f","true","Formal",""
"","","","","","psychophysics","366","1229146","0.0-9.0-0.0-0.105","527","","j","","","","","","","","","","","","","key","j","16.665656565655624","735","456","./1_3_Stimuli/S_ambi40.png","他人","Image","自我","Mismatch","j","true","Formal",""
"","","","","","psychophysics","367","1231097","0.0-9.0-0.0-0.106","798","","j","","","","","","","","","","","","","key","j","16.66608695652255","735","456","./1_3_Stimuli/C_ambi40.png","他人","Word","朋友","Mismatch","j","true","Formal",""
"","","","","","psychophysics","368","1233686","0.0-9.0-0.0-0.107","1436","","f","","","","","","","","","","","","","key","f","16.668627450980697","735","456","./1_3_Stimuli/T_ambi40.png","他人","Word","他人","Match","f","true","Formal",""
"","","","","","psychophysics","369","1235479","0.0-9.0-0.0-0.108","642","","f","","","","","","","","","","","","","key","f","16.666037735847738","735","456","./1_3_Stimuli/S_ambi40.png","自我","Word","自我","Match","f","true","Formal",""
"","","","","","psychophysics","370","1237506","0.0-9.0-0.0-0.109","875","","j","","","","","","","","","","","","","key","j","16.666666666666668","735","456","./1_3_Stimuli/C_ambi40.png","朋友","Word","朋友","Match","f","false","Formal",""
"","","","","","psychophysics","371","1239614","0.0-9.0-0.0-0.110","956","","f","","","","","","","","","","","","","key","f","16.66639999999851","735","456","./1_3_Stimuli/S_ambi40.png","自我","Word","自我","Match","f","true","Formal",""
"","","","","","psychophysics","372","1241689","0.0-9.0-0.0-0.111","922","","j","","","","","","","","","","","","","key","j","16.66585365853772","735","456","./1_3_Stimuli/S_ambi40.png","朋友","Image","自我","Mismatch","j","true","Formal",""
"","","","","","psychophysics","373","1243515","0.0-9.0-0.0-0.112","674","","j","","","","","","","","","","","","","key","j","16.669444444444874","735","456","./1_3_Stimuli/C_ambi40.png","朋友","Image","朋友","Match","f","false","Formal",""
"","","","","","psychophysics","374","1245180","0.0-9.0-0.0-0.113","513","","f","","","","","","","","","","","","","key","f","16.66530612245088","735","456","./1_3_Stimuli/C_ambi40.png","朋友","Word","朋友","Match","f","true","Formal",""
"","","","","","psychophysics","375","1247180","0.0-9.0-0.0-0.114","847","","f","","","","","","","","","","","","","key","f","16.66554621848896","735","456","./1_3_Stimuli/T_ambi40.png","自我","Image","他人","Mismatch","j","false","Formal",""
"","","","","","psychophysics","376","1249216","0.0-9.0-0.0-0.115","883","","j","","","","","","","","","","","","","key","j","16.665833333334497","735","456","./1_3_Stimuli/C_ambi40.png","自我","Image","朋友","Mismatch","j","true","Formal",""
"","","","","","psychophysics","377","1251277","0.0-9.0-0.0-0.116","908","","f","","","","","","","","","","","","","key","f","16.66639344262333","735","456","./1_3_Stimuli/T_ambi40.png","他人","Image","他人","Match","f","true","Formal",""
"","","","","","psychophysics","378","1253089","0.0-9.0-0.0-0.117","660","","f","","","","","","","","","","","","","key","f","16.668867924527422","735","456","./1_3_Stimuli/C_ambi40.png","自我","Word","朋友","Mismatch","j","false","Formal",""
"","","","","","psychophysics","379","1254880","0.0-9.0-0.0-0.118","639","","j","","","","","","","","","","","","","key","j","16.666037735847738","735","456","./1_3_Stimuli/S_ambi40.png","朋友","Word","自我","Mismatch","j","true","Formal",""
"","","","","","psychophysics","380","1257186","0.0-9.0-0.0-0.119","1153","","j","","","","","","","","","","","","","key","j","16.665441176470587","735","456","./1_3_Stimuli/C_ambi40.png","他人","Image","朋友","Mismatch","j","true","Formal",""
"","","","","","html-keyboard-response","381","1260354","0.0-9.0-1.0","3164","<style>.context{color:white; font-size: 35px; line-height:40px}</style>                        <div><p class='context'>您正确回答了73% 的试次。</p><p class='context'>您的平均反应时为893毫秒。</p><p> <div style = 'color: green'><按任意键进入休息></div></p>"," ","","","","","","","","","","","","","","","","","","","","","","","","","",""
"","","","","","html-button-response","382","1320335","0.0-9.0-2.0","59973","
                  <p>您当前还剩余5组实验</p>
                  <p>现在是休息时间，当您结束休息后，您可以点击 结束休息 按钮 继续</p>
                  <p>建议休息时间还剩余<span id=""iii"">60</span>秒</p>","0","","","","","","","","","","","","","","","","","","","","","","","","","",""
"","","","","","psychophysics","383","1323052","0.0-9.0-0.1-0.120","null","","null","","","","","","","","","","","","","key","null","16.666049382715475","735","456","./1_3_Stimuli/T_ambi40.png","他人","Word","他人","Match","f","false","Formal",""
"","","","","","psychophysics","384","1325613","0.0-9.0-0.1-0.121","1407","","f","","","","","","","","","","","","","key","f","16.66644736842136","735","456","./1_3_Stimuli/C_ambi40.png","朋友","Word","朋友","Match","f","true","Formal",""
"","","","","","psychophysics","385","1327331","0.0-9.0-0.1-0.122","565","","f","","","","","","","","","","","","","key","f","16.666336633661523","735","456","./1_3_Stimuli/C_ambi40.png","朋友","Word","朋友","Match","f","true","Formal",""
"","","","","","psychophysics","386","1329260","0.0-9.0-0.1-0.123","777","","j","","","","","","","","","","","","","key","j","16.669298245614442","735","456","./1_3_Stimuli/C_ambi40.png","他人","Word","朋友","Mismatch","j","true","Formal",""
"","","","","","psychophysics","387","1331203","0.0-9.0-0.1-0.124","792","","j","","","","","","","","","","","","","key","j","16.66608695652255","735","456","./1_3_Stimuli/T_ambi40.png","自我","Image","他人","Mismatch","j","true","Formal",""
"","","","","","psychophysics","388","1333132","0.0-9.0-0.1-0.125","776","","j","","","","","","","","","","","","","key","j","16.66521739130435","735","456","./1_3_Stimuli/T_ambi40.png","自我","Word","他人","Mismatch","j","true","Formal",""
"","","","","","psychophysics","389","1335112","0.0-9.0-0.1-0.126","827","","j","","","","","","","","","","","","","key","j","16.666666666666668","735","456","./1_3_Stimuli/T_ambi40.png","他人","Image","他人","Match","f","false","Formal",""
"","","","","","psychophysics","390","1337247","0.0-9.0-0.1-0.127","982","","j","","","","","","","","","","","","","key","j","16.665873015872275","735","456","./1_3_Stimuli/T_ambi40.png","朋友","Image","他人","Mismatch","j","true","Formal",""
"","","","","","psychophysics","391","1338878","0.0-9.0-0.1-0.128","479","","f","","","","","","","","","","","","","key","f","16.670833333332364","735","456","./1_3_Stimuli/S_ambi40.png","自我","Word","自我","Match","f","true","Formal",""
"","","","","","psychophysics","392","1340965","0.0-9.0-0.1-0.129","935","","j","","","","","","","","","","","","","key","j","16.665853658535827","735","456","./1_3_Stimuli/C_ambi40.png","自我","Image","朋友","Mismatch","j","true","Formal",""
"","","","","","psychophysics","393","1342820","0.0-9.0-0.1-0.130","701","","f","","","","","","","","","","","","","key","f","16.666055045872415","735","456","./1_3_Stimuli/S_ambi40.png","自我","Image","自我","Match","f","true","Formal",""
"","","","","","psychophysics","394","1344766","0.0-9.0-0.1-0.131","793","","j","","","","","","","","","","","","","key","j","16.665517241378907","735","456","./1_3_Stimuli/S_ambi40.png","他人","Word","自我","Mismatch","j","true","Formal",""
"","","","","","psychophysics","395","1346602","0.0-9.0-0.1-0.132","683","","f","","","","","","","","","","","","","key","f","16.665740740739878","735","456","./1_3_Stimuli/T_ambi40.png","他人","Image","他人","Match","f","true","Formal",""
"","","","","","psychophysics","396","1348671","0.0-9.0-0.1-0.133","916","","j","","","","","","","","","","","","","key","j","16.66967213114716","735","456","./1_3_Stimuli/S_ambi40.png","他人","Image","自我","Mismatch","j","true","Formal",""
"","","","","","psychophysics","397","1351101","0.0-9.0-0.1-0.134","1277","","j","","","","","","","","","","","","","key","j","16.665972222221576","735","456","./1_3_Stimuli/C_ambi40.png","他人","Image","朋友","Mismatch","j","true","Formal",""
"","","","","","psychophysics","398","1352796","0.0-9.0-0.1-0.135","542","","f","","","","","","","","","","","","","key","f","16.66600000000093","735","456","./1_3_Stimuli/S_ambi40.png","自我","Word","自我","Match","f","true","Formal",""
"","","","","","psychophysics","399","1355232","0.0-9.0-0.1-0.136","1283","","j","","","","","","","","","","","","","key","j","16.665972222221576","735","456","./1_3_Stimuli/S_ambi40.png","朋友","Image","自我","Mismatch","j","true","Formal",""
"","","","","","psychophysics","400","1357089","0.0-9.0-0.1-0.137","693","","j","","","","","","","","","","","","","key","j","16.666363636361943","735","456","./1_3_Stimuli/C_ambi40.png","自我","Word","朋友","Mismatch","j","true","Formal",""
"","","","","","psychophysics","401","1358830","0.0-9.0-0.1-0.138","588","","j","","","","","","","","","","","","","key","j","16.66990291262136","735","456","./1_3_Stimuli/C_ambi40.png","朋友","Image","朋友","Match","f","false","Formal",""
"","","","","","psychophysics","402","1360527","0.0-9.0-0.1-0.139","545","","f","","","","","","","","","","","","","key","f","16.665346534653004","735","456","./1_3_Stimuli/S_ambi40.png","自我","Image","自我","Match","f","true","Formal",""
"","","","","","psychophysics","403","1362330","0.0-9.0-0.1-0.140","650","","f","","","","","","","","","","","","","key","f","16.66542056074723","735","456","./1_3_Stimuli/C_ambi40.png","朋友","Image","朋友","Match","f","true","Formal",""
"","","","","","psychophysics","404","1364179","0.0-9.0-0.1-0.141","697","","j","","","","","","","","","","","","","key","j","16.666972477063794","735","456","./1_3_Stimuli/S_ambi40.png","朋友","Word","自我","Mismatch","j","true","Formal",""
"","","","","","psychophysics","405","1366266","0.0-9.0-0.1-0.142","935","","f","","","","","","","","","","","","","key","f","16.665853658535827","735","456","./1_3_Stimuli/T_ambi40.png","他人","Word","他人","Match","f","true","Formal",""
"","","","","","psychophysics","406","1368433","0.0-9.0-0.1-0.143","1013","","j","","","","","","","","","","","","","key","j","16.66484374999891","735","456","./1_3_Stimuli/T_ambi40.png","朋友","Word","他人","Mismatch","j","true","Formal",""
"","","","","","psychophysics","407","1370614","0.0-9.0-0.1-0.144","1029","","f","","","","","","","","","","","","","key","f","16.668992248060572","735","456","./1_3_Stimuli/T_ambi40.png","他人","Word","他人","Match","f","true","Formal",""
"","","","","","psychophysics","408","1372832","0.0-9.0-0.1-0.145","1065","","j","","","","","","","","","","","","","key","j","16.665648854961475","735","456","./1_3_Stimuli/T_ambi40.png","朋友","Word","他人","Mismatch","j","true","Formal",""
"","","","","","psychophysics","409","1374928","0.0-9.0-0.1-0.146","943","","f","","","","","","","","","","","","","key","f","16.66532258064516","735","456","./1_3_Stimuli/T_ambi40.png","他人","Image","他人","Match","f","true","Formal",""
"","","","","","psychophysics","410","1376687","0.0-9.0-0.1-0.147","608","","f","","","","","","","","","","","","","key","f","16.666019417476633","735","456","./1_3_Stimuli/S_ambi40.png","自我","Image","自我","Match","f","true","Formal",""
"","","","","","psychophysics","411","1379029","0.0-9.0-0.1-0.148","1190","","j","","","","","","","","","","","","","key","j","16.668345323742013","735","456","./1_3_Stimuli/C_ambi40.png","朋友","Image","朋友","Match","f","false","Formal",""
"","","","","","psychophysics","412","1381106","0.0-9.0-0.1-0.149","925","","j","","","","","","","","","","","","","key","j","16.66639344262333","735","456","./1_3_Stimuli/T_ambi40.png","自我","Image","他人","Mismatch","j","true","Formal",""
"","","","","","psychophysics","413","1383579","0.0-9.0-0.1-0.150","1321","","j","","","","","","","","","","","","","key","j","16.66598639455719","735","456","./1_3_Stimuli/S_ambi40.png","朋友","Image","自我","Mismatch","j","true","Formal",""
"","","","","","psychophysics","414","1385198","0.0-9.0-0.1-0.151","467","","f","","","","","","","","","","","","","key","f","16.66526315789425","735","456","./1_3_Stimuli/C_ambi40.png","朋友","Word","朋友","Match","f","true","Formal",""
