success,timeout,failed_images,failed_audio,failed_video,trial_type,trial_index,time_elapsed,internal_node_id,rt,stimulus,response,value,item_width_mm,item_height_mm,item_width_px,px2mm,view_dist_mm,item_width_deg,px2deg,scale_factor,win_width_deg,win_height_deg,view_history,response_type,key_press,avg_frame_time,center_x,center_y,image,word,target,valence,matchness,correct_response,correct,exp_condition,question_order,result
true,false,[],[],[],preload,0,605,0.0-0.0,,,,,,,,,,,,,,,,,,,,,,,,,,,,,,
,,,,,html-keyboard-response,1,9596,0.0-1.0,8990,"
     <p>您好，欢迎参加本次实验。</p>
     <p>为充分保障您的权利，请确保您已经知晓并同意《参与实验同意书》以及《数据公开知情同意书》。</p>
     <p>如果您未见过上述内容，请咨询实验员。</p>
     <p>如果您选择继续实验，则表示您已经清楚两份知情同意书的内容并同意。</p>
     <p> <div style = ""color: green""><按任意键至下页></div> </p>
     ", ,,,,,,,,,,,,,,,,,,,,,,,,,,,
,,,,,html-keyboard-response,2,10882,0.0-2.0-0.0,1285,"
      <p>本实验首先需要您填写一些基本个人信息。</p>
      <p> <div style = ""color: green""><按任意键至下页></div></p>
      ", ,,,,,,,,,,,,,,,,,,,,,,,,,,,
,,,,,call-function,3,10882,0.0-2.0-1.0,,,,,,,,,,,,,,,,,,,,,,,,,,,,,,
,,,,,survey-html-form,4,17930,0.0-2.0-2.0,7046,,"{""Q0"":""1028""}",,,,,,,,,,,,,,,,,,,,,,,,,,,
,,,,,html-button-response,5,19573,0.0-2.0-3.0,1641,<p style = 'color : white'>您的性别</p>,1,,,,,,,,,,,,,,,,,,,,,,,,,,,
,,,,,survey-html-form,6,27607,0.0-2.0-4.0,8033,,"{""Q0"":""2003""}",,,,,,,,,,,,,,,,,,,,,,,,,,,
,,,,,survey-html-form,7,31588,0.0-2.0-5.0,3979,,"{""Q0"":""5""}",,,,,,,,,,,,,,,,,,,,,,,,,,,
,,,,,virtual-chinrest,8,160863,0.0-3.0,129272,,,,85.6,53.98,528.689685298987,6.18100440901021,462.52,10.5737937059797,50,0.771719235962143,27.84,15.56,,,,,,,,,,,,,,,,
true,,,,,fullscreen,9,168471,0.0-4.0,,,,,,,,,,,,,,,,,,,,,,,,,,,,,,
,,,,,instructions,10,243908,0.0-5.0,75437,,,,,,,,,,,,,,"[{""page_index"":0,""viewing_time"":15048},{""page_index"":1,""viewing_time"":30066},{""page_index"":2,""viewing_time"":27034},{""page_index"":3,""viewing_time"":3289}]",,,,,,,,,,,,,,,
,,,,,html-keyboard-response,11,247574,0.0-6.0,null,"<count-down title=""""></count-down>",null,,,,,,,,,,,,,,,,,,,,,,,,,,,
,,,,,psychophysics,12,249755,0.0-7.0-0.0-0.0,1004,,j,,,,,,,,,,,,,key,j,16.79609375,720,446,./1_3_Stimuli/C_ambi40.png,自我,Image,自我,Match,j,true,Practice,,
,,,,,html-keyboard-response,13,250071,0.0-7.0-0.0-1.0,null,<span style='color:GreenYellow; font-size: 70px;'>正确! </span>,null,,,,,,,,,,,,,,,,,,,,,,,,,feedback,,
,,,,,psychophysics,14,252423,0.0-7.0-0.0-0.1,1197,,j,,,,,,,,,,,,,key,j,16.6671428571428,720,446,./1_3_Stimuli/S_ambi40.png,他人,Word,他人,Match,j,true,Practice,,
,,,,,html-keyboard-response,15,252733,0.0-7.0-0.0-1.1,null,<span style='color:GreenYellow; font-size: 70px;'>正确! </span>,null,,,,,,,,,,,,,,,,,,,,,,,,,feedback,,
,,,,,psychophysics,16,254566,0.0-7.0-0.0-0.2,673,,j,,,,,,,,,,,,,key,j,16.6697247706422,720,446,./1_3_Stimuli/C_ambi40.png,自我,Image,自我,Match,j,true,Practice,,
,,,,,html-keyboard-response,17,254902,0.0-7.0-0.0-1.2,null,<span style='color:GreenYellow; font-size: 70px;'>正确! </span>,null,,,,,,,,,,,,,,,,,,,,,,,,,feedback,,
,,,,,psychophysics,18,256591,0.0-7.0-0.0-0.3,528,,j,,,,,,,,,,,,,key,j,16.6660000000001,720,446,./1_3_Stimuli/C_ambi40.png,自我,Word,自我,Match,j,true,Practice,,
,,,,,html-keyboard-response,19,256899,0.0-7.0-0.0-1.3,null,<span style='color:GreenYellow; font-size: 70px;'>正确! </span>,null,,,,,,,,,,,,,,,,,,,,,,,,,feedback,,
,,,,,psychophysics,20,258820,0.0-7.0-0.0-0.4,763,,f,,,,,,,,,,,,,key,f,16.6657894736842,720,446,./1_3_Stimuli/T_ambi40.png,他人,Word,朋友,Mismatch,f,true,Practice,,
,,,,,html-keyboard-response,21,259122,0.0-7.0-0.0-1.4,null,<span style='color:GreenYellow; font-size: 70px;'>正确! </span>,null,,,,,,,,,,,,,,,,,,,,,,,,,feedback,,
,,,,,psychophysics,22,261032,0.0-7.0-0.0-0.5,755,,f,,,,,,,,,,,,,key,f,16.6657894736844,720,446,./1_3_Stimuli/C_ambi40.png,朋友,Image,自我,Mismatch,f,true,Practice,,
,,,,,html-keyboard-response,23,261334,0.0-7.0-0.0-1.5,null,<span style='color:GreenYellow; font-size: 70px;'>正确! </span>,null,,,,,,,,,,,,,,,,,,,,,,,,,feedback,,
,,,,,psychophysics,24,263168,0.0-7.0-0.0-0.6,674,,f,,,,,,,,,,,,,key,f,16.6669724770643,720,446,./1_3_Stimuli/S_ambi40.png,朋友,Image,他人,Mismatch,f,true,Practice,,
,,,,,html-keyboard-response,25,263474,0.0-7.0-0.0-1.6,null,<span style='color:GreenYellow; font-size: 70px;'>正确! </span>,null,,,,,,,,,,,,,,,,,,,,,,,,,feedback,,
,,,,,psychophysics,26,265545,0.0-7.0-0.0-0.7,919,,j,,,,,,,,,,,,,key,j,16.6661290322579,720,446,./1_3_Stimuli/T_ambi40.png,朋友,Image,朋友,Match,j,true,Practice,,
,,,,,html-keyboard-response,27,265860,0.0-7.0-0.0-1.7,null,<span style='color:GreenYellow; font-size: 70px;'>正确! </span>,null,,,,,,,,,,,,,,,,,,,,,,,,,feedback,,
,,,,,psychophysics,28,267906,0.0-7.0-0.0-0.8,894,,f,,,,,,,,,,,,,key,f,16.6652892561983,720,446,./1_3_Stimuli/T_ambi40.png,自我,Image,朋友,Mismatch,f,true,Practice,,
,,,,,html-keyboard-response,29,268219,0.0-7.0-0.0-1.8,null,<span style='color:GreenYellow; font-size: 70px;'>正确! </span>,null,,,,,,,,,,,,,,,,,,,,,,,,,feedback,,
,,,,,psychophysics,30,270169,0.0-7.0-0.0-0.9,776,,f,,,,,,,,,,,,,key,f,16.6672413793105,720,446,./1_3_Stimuli/T_ambi40.png,他人,Image,朋友,Mismatch,f,true,Practice,,
,,,,,html-keyboard-response,31,270481,0.0-7.0-0.0-1.9,null,<span style='color:GreenYellow; font-size: 70px;'>正确! </span>,null,,,,,,,,,,,,,,,,,,,,,,,,,feedback,,
,,,,,psychophysics,32,272538,0.0-7.0-0.0-0.10,895,,f,,,,,,,,,,,,,key,f,16.6639344262295,720,446,./1_3_Stimuli/T_ambi40.png,朋友,Word,朋友,Match,j,false,Practice,,
,,,,,html-keyboard-response,33,272839,0.0-7.0-0.0-1.10,null,<span style='color:red; font-size: 70px;'>错误! </span>,null,,,,,,,,,,,,,,,,,,,,,,,,,feedback,,
,,,,,psychophysics,34,274777,0.0-7.0-0.0-0.11,784,,j,,,,,,,,,,,,,key,j,16.6663793103447,720,446,./1_3_Stimuli/S_ambi40.png,他人,Image,他人,Match,j,true,Practice,,
,,,,,html-keyboard-response,35,275084,0.0-7.0-0.0-1.11,null,<span style='color:GreenYellow; font-size: 70px;'>正确! </span>,null,,,,,,,,,,,,,,,,,,,,,,,,,feedback,,
,,,,,psychophysics,36,276921,0.0-7.0-0.0-0.12,662,,j,,,,,,,,,,,,,key,j,16.6660550458713,720,446,./1_3_Stimuli/T_ambi40.png,朋友,Image,朋友,Match,j,true,Practice,,
,,,,,html-keyboard-response,37,277224,0.0-7.0-0.0-1.12,null,<span style='color:GreenYellow; font-size: 70px;'>正确! </span>,null,,,,,,,,,,,,,,,,,,,,,,,,,feedback,,
,,,,,psychophysics,38,279147,0.0-7.0-0.0-0.13,771,,f,,,,,,,,,,,,,key,f,16.666086956522,720,446,./1_3_Stimuli/S_ambi40.png,自我,Word,他人,Mismatch,f,true,Practice,,
,,,,,html-keyboard-response,39,279452,0.0-7.0-0.0-1.13,null,<span style='color:GreenYellow; font-size: 70px;'>正确! </span>,null,,,,,,,,,,,,,,,,,,,,,,,,,feedback,,
,,,,,psychophysics,40,281344,0.0-7.0-0.0-0.14,734,,f,,,,,,,,,,,,,key,f,16.6663716814158,720,446,./1_3_Stimuli/S_ambi40.png,他人,Image,他人,Match,j,false,Practice,,
,,,,,html-keyboard-response,41,281646,0.0-7.0-0.0-1.14,null,<span style='color:red; font-size: 70px;'>错误! </span>,null,,,,,,,,,,,,,,,,,,,,,,,,,feedback,,
,,,,,psychophysics,42,283813,0.0-7.0-0.0-0.15,987,,f,,,,,,,,,,,,,key,f,16.6674418604654,720,446,./1_3_Stimuli/C_ambi40.png,他人,Image,自我,Mismatch,f,true,Practice,,
,,,,,html-keyboard-response,43,284116,0.0-7.0-0.0-1.15,null,<span style='color:GreenYellow; font-size: 70px;'>正确! </span>,null,,,,,,,,,,,,,,,,,,,,,,,,,feedback,,
,,,,,psychophysics,44,286057,0.0-7.0-0.0-0.16,786,,f,,,,,,,,,,,,,key,f,16.6669565217392,720,446,./1_3_Stimuli/T_ambi40.png,自我,Word,朋友,Mismatch,f,true,Practice,,
,,,,,html-keyboard-response,45,286358,0.0-7.0-0.0-1.16,null,<span style='color:GreenYellow; font-size: 70px;'>正确! </span>,null,,,,,,,,,,,,,,,,,,,,,,,,,feedback,,
,,,,,psychophysics,46,288413,0.0-7.0-0.0-0.17,904,,f,,,,,,,,,,,,,key,f,16.655737704918,720,446,./1_3_Stimuli/C_ambi40.png,朋友,Word,自我,Mismatch,f,true,Practice,,
,,,,,html-keyboard-response,47,288727,0.0-7.0-0.0-1.17,null,<span style='color:GreenYellow; font-size: 70px;'>正确! </span>,null,,,,,,,,,,,,,,,,,,,,,,,,,feedback,,
,,,,,psychophysics,48,290495,0.0-7.0-0.0-0.18,590,,j,,,,,,,,,,,,,key,j,16.6676190476194,720,446,./1_3_Stimuli/C_ambi40.png,自我,Word,自我,Match,j,true,Practice,,
,,,,,html-keyboard-response,49,290808,0.0-7.0-0.0-1.18,null,<span style='color:GreenYellow; font-size: 70px;'>正确! </span>,null,,,,,,,,,,,,,,,,,,,,,,,,,feedback,,
,,,,,psychophysics,50,292734,0.0-7.0-0.0-0.19,774,,f,,,,,,,,,,,,,key,f,16.6552631578948,720,446,./1_3_Stimuli/S_ambi40.png,自我,Image,他人,Mismatch,f,true,Practice,,
,,,,,html-keyboard-response,51,293050,0.0-7.0-0.0-1.19,null,<span style='color:GreenYellow; font-size: 70px;'>正确! </span>,null,,,,,,,,,,,,,,,,,,,,,,,,,feedback,,
,,,,,psychophysics,52,295370,0.0-7.0-0.0-0.20,1166,,j,,,,,,,,,,,,,key,j,16.6659420289857,720,446,./1_3_Stimuli/S_ambi40.png,他人,Word,他人,Match,j,true,Practice,,
,,,,,html-keyboard-response,53,295701,0.0-7.0-0.0-1.20,null,<span style='color:GreenYellow; font-size: 70px;'>正确! </span>,null,,,,,,,,,,,,,,,,,,,,,,,,,feedback,,
,,,,,psychophysics,54,297635,0.0-7.0-0.0-0.21,769,,f,,,,,,,,,,,,,key,f,16.6669565217392,720,446,./1_3_Stimuli/S_ambi40.png,朋友,Word,他人,Mismatch,f,true,Practice,,
,,,,,html-keyboard-response,55,297947,0.0-7.0-0.0-1.21,null,<span style='color:GreenYellow; font-size: 70px;'>正确! </span>,null,,,,,,,,,,,,,,,,,,,,,,,,,feedback,,
,,,,,psychophysics,56,300389,0.0-7.0-0.0-0.22,1289,,j,,,,,,,,,,,,,key,j,16.6648275862071,720,446,./1_3_Stimuli/T_ambi40.png,朋友,Word,朋友,Match,j,true,Practice,,
,,,,,html-keyboard-response,57,300698,0.0-7.0-0.0-1.22,null,<span style='color:GreenYellow; font-size: 70px;'>正确! </span>,null,,,,,,,,,,,,,,,,,,,,,,,,,feedback,,
,,,,,psychophysics,58,302629,0.0-7.0-0.0-0.23,770,,f,,,,,,,,,,,,,key,f,16.6686956521741,720,446,./1_3_Stimuli/C_ambi40.png,他人,Word,自我,Mismatch,f,true,Practice,,
,,,,,html-keyboard-response,59,302944,0.0-7.0-0.0-1.23,null,<span style='color:GreenYellow; font-size: 70px;'>正确! </span>,null,,,,,,,,,,,,,,,,,,,,,,,,,feedback,,
,,,,,html-keyboard-response,60,323658,0.0-8.0,20711,<style>.context{color:white; font-size: 35px; line-height:40px}</style>                          <div><p class='context'>您正确回答了92% 的试次。</p><p class='context'>您的平均反应时为838毫秒。</p><p class='context'>恭喜您完成练习。现在请休息3~5分钟。</p><p class='context'>之后，按任意键进入正式实验。需要注意的是，正式实验将不再提供反应是否正确的反馈。</p><p class='footer' style='font-size: 35px; line-height:40px;'>请在进入正式实验实验之前将您的<span style='color: lightgreen;'>食指</span>放在电脑键盘的相应键位上进行按键。</p>, ,,,,,,,,,,,,,,,,,,,,,,,,,,,
,,,,,psychophysics,61,325557,0.0-9.0-0.0-0.0,738,,f,,,,,,,,,,,,,key,f,16.6678571428576,720,446,./1_3_Stimuli/T_ambi40.png,自我,Image,朋友,Mismatch,f,true,Formal,,
,,,,,psychophysics,62,327339,0.0-9.0-0.0-0.1,630,,f,,,,,,,,,,,,,key,f,16.6669811320756,720,446,./1_3_Stimuli/C_ambi40.png,朋友,Image,自我,Mismatch,f,true,Formal,,
,,,,,psychophysics,63,329158,0.0-9.0-0.0-0.2,664,,j,,,,,,,,,,,,,key,j,16.6672897196264,720,446,./1_3_Stimuli/C_ambi40.png,自我,Image,自我,Match,j,true,Formal,,
,,,,,psychophysics,64,330948,0.0-9.0-0.0-0.3,638,,j,,,,,,,,,,,,,key,j,16.6663551401868,720,446,./1_3_Stimuli/S_ambi40.png,他人,Word,他人,Match,j,true,Formal,,
,,,,,psychophysics,65,332981,0.0-9.0-0.0-0.4,878,,f,,,,,,,,,,,,,key,f,16.6661157024796,720,446,./1_3_Stimuli/T_ambi40.png,自我,Word,朋友,Mismatch,f,true,Formal,,
,,,,,psychophysics,66,334998,0.0-9.0-0.0-0.5,855,,j,,,,,,,,,,,,,key,j,16.6683333333334,720,446,./1_3_Stimuli/T_ambi40.png,朋友,Image,朋友,Match,j,true,Formal,,
,,,,,psychophysics,67,336716,0.0-9.0-0.0-0.6,558,,j,,,,,,,,,,,,,key,j,16.6666666666667,720,446,./1_3_Stimuli/C_ambi40.png,自我,Image,自我,Match,j,true,Formal,,
,,,,,psychophysics,68,338526,0.0-9.0-0.0-0.7,650,,f,,,,,,,,,,,,,key,f,16.6654205607478,720,446,./1_3_Stimuli/C_ambi40.png,他人,Image,自我,Mismatch,f,true,Formal,,
,,,,,psychophysics,69,340571,0.0-9.0-0.0-0.8,894,,f,,,,,,,,,,,,,key,f,16.6669421487604,720,446,./1_3_Stimuli/C_ambi40.png,朋友,Word,自我,Mismatch,f,true,Formal,,
,,,,,psychophysics,70,342531,0.0-9.0-0.0-0.9,805,,f,,,,,,,,,,,,,key,f,16.6666666666667,720,446,./1_3_Stimuli/S_ambi40.png,自我,Image,他人,Mismatch,f,true,Formal,,
,,,,,psychophysics,71,344270,0.0-9.0-0.0-0.10,585,,j,,,,,,,,,,,,,key,j,16.6689320388352,720,446,./1_3_Stimuli/C_ambi40.png,自我,Word,自我,Match,j,true,Formal,,
,,,,,psychophysics,72,346384,0.0-9.0-0.0-0.11,960,,j,,,,,,,,,,,,,key,j,16.6666666666667,720,446,./1_3_Stimuli/T_ambi40.png,朋友,Word,朋友,Match,j,true,Formal,,
,,,,,psychophysics,73,348117,0.0-9.0-0.0-0.12,582,,f,,,,,,,,,,,,,key,f,16.6621359223302,720,446,./1_3_Stimuli/S_ambi40.png,自我,Word,他人,Mismatch,f,true,Formal,,
,,,,,psychophysics,74,350013,0.0-9.0-0.0-0.13,741,,f,,,,,,,,,,,,,key,f,16.6681415929204,720,446,./1_3_Stimuli/T_ambi40.png,他人,Image,朋友,Mismatch,f,true,Formal,,
,,,,,psychophysics,75,351784,0.0-9.0-0.0-0.14,608,,j,,,,,,,,,,,,,key,j,16.6647619047618,720,446,./1_3_Stimuli/S_ambi40.png,他人,Image,他人,Match,j,true,Formal,,
,,,,,psychophysics,76,353578,0.0-9.0-0.0-0.15,636,,f,,,,,,,,,,,,,key,f,16.6663551401868,720,446,./1_3_Stimuli/C_ambi40.png,他人,Word,自我,Mismatch,f,true,Formal,,
,,,,,psychophysics,77,355337,0.0-9.0-0.0-0.16,607,,f,,,,,,,,,,,,,key,f,16.666346153846,720,446,./1_3_Stimuli/S_ambi40.png,朋友,Word,他人,Mismatch,f,true,Formal,,
,,,,,psychophysics,78,357041,0.0-9.0-0.0-0.17,549,,j,,,,,,,,,,,,,key,j,16.6673267326729,720,446,./1_3_Stimuli/C_ambi40.png,自我,Word,自我,Match,j,true,Formal,,
,,,,,psychophysics,79,359013,0.0-9.0-0.0-0.18,820,,f,,,,,,,,,,,,,key,f,16.6675213675217,720,446,./1_3_Stimuli/T_ambi40.png,他人,Word,朋友,Mismatch,f,true,Formal,,
,,,,,psychophysics,80,361000,0.0-9.0-0.0-0.19,832,,j,,,,,,,,,,,,,key,j,16.6728813559319,720,446,./1_3_Stimuli/T_ambi40.png,朋友,Image,朋友,Match,j,true,Formal,,
,,,,,psychophysics,81,362848,0.0-9.0-0.0-0.20,672,,f,,,,,,,,,,,,,key,f,16.6654545454547,720,446,./1_3_Stimuli/S_ambi40.png,朋友,Image,他人,Mismatch,f,true,Formal,,
,,,,,psychophysics,82,365217,0.0-9.0-0.0-0.21,1208,,j,,,,,,,,,,,,,key,j,16.6659574468087,720,446,./1_3_Stimuli/T_ambi40.png,朋友,Word,朋友,Match,j,true,Formal,,
,,,,,psychophysics,83,367468,0.0-9.0-0.0-0.22,1094,,j,,,,,,,,,,,,,key,j,16.6664179104477,720,446,./1_3_Stimuli/S_ambi40.png,他人,Image,他人,Match,j,true,Formal,,
,,,,,psychophysics,84,369260,0.0-9.0-0.0-0.23,635,,j,,,,,,,,,,,,,key,j,16.8245283018865,720,446,./1_3_Stimuli/S_ambi40.png,他人,Word,他人,Match,j,true,Formal,,
,,,,,psychophysics,85,371055,0.0-9.0-0.0-0.24,630,,j,,,,,,,,,,,,,key,j,16.6660377358488,720,446,./1_3_Stimuli/C_ambi40.png,自我,Word,自我,Match,j,true,Formal,,
,,,,,psychophysics,86,373067,0.0-9.0-0.0-0.25,859,,j,,,,,,,,,,,,,key,j,16.6666666666667,720,446,./1_3_Stimuli/S_ambi40.png,自我,Image,他人,Mismatch,f,false,Formal,,
,,,,,psychophysics,87,374767,0.0-9.0-0.0-0.26,548,,j,,,,,,,,,,,,,key,j,16.6673267326729,720,446,./1_3_Stimuli/C_ambi40.png,自我,Word,自我,Match,j,true,Formal,,
,,,,,psychophysics,88,376591,0.0-9.0-0.0-0.27,666,,f,,,,,,,,,,,,,key,f,16.6666666666667,720,446,./1_3_Stimuli/T_ambi40.png,自我,Word,朋友,Mismatch,f,true,Formal,,
,,,,,psychophysics,89,378740,0.0-9.0-0.0-0.28,998,,f,,,,,,,,,,,,,key,f,16.664566929134,720,446,./1_3_Stimuli/C_ambi40.png,朋友,Image,自我,Mismatch,f,true,Formal,,
,,,,,psychophysics,90,381195,0.0-9.0-0.0-0.29,1286,,f,,,,,,,,,,,,,key,f,16.6666666666667,720,446,./1_3_Stimuli/S_ambi40.png,朋友,Word,他人,Mismatch,f,true,Formal,,
,,,,,psychophysics,91,383330,0.0-9.0-0.0-0.30,985,,j,,,,,,,,,,,,,key,j,16.6653543307087,720,446,./1_3_Stimuli/S_ambi40.png,他人,Word,他人,Match,j,true,Formal,,
,,,,,psychophysics,92,385405,0.0-9.0-0.0-0.31,919,,j,,,,,,,,,,,,,key,j,16.6658536585368,720,446,./1_3_Stimuli/T_ambi40.png,朋友,Image,朋友,Match,j,true,Formal,,
,,,,,psychophysics,93,387208,0.0-9.0-0.0-0.32,644,,j,,,,,,,,,,,,,key,j,16.6663551401874,720,446,./1_3_Stimuli/T_ambi40.png,朋友,Image,朋友,Match,j,true,Formal,,
,,,,,psychophysics,94,389070,0.0-9.0-0.0-0.33,709,,f,,,,,,,,,,,,,key,f,16.6700000000001,720,446,./1_3_Stimuli/T_ambi40.png,自我,Image,朋友,Mismatch,f,true,Formal,,
,,,,,psychophysics,95,390880,0.0-9.0-0.0-0.34,659,,f,,,,,,,,,,,,,key,f,16.665740740741,720,446,./1_3_Stimuli/T_ambi40.png,他人,Word,朋友,Mismatch,f,true,Formal,,
,,,,,psychophysics,96,393114,0.0-9.0-0.0-0.35,1081,,j,,,,,,,,,,,,,key,j,16.6661654135337,720,446,./1_3_Stimuli/S_ambi40.png,他人,Image,他人,Match,j,true,Formal,,
,,,,,psychophysics,97,394823,0.0-9.0-0.0-0.36,548,,j,,,,,,,,,,,,,key,j,16.6663366336633,720,446,./1_3_Stimuli/C_ambi40.png,自我,Image,自我,Match,j,true,Formal,,
,,,,,psychophysics,98,396597,0.0-9.0-0.0-0.37,622,,j,,,,,,,,,,,,,key,j,16.6660377358488,720,446,./1_3_Stimuli/S_ambi40.png,他人,Word,他人,Match,j,true,Formal,,
,,,,,psychophysics,99,398443,0.0-9.0-0.0-0.38,695,,f,,,,,,,,,,,,,key,f,16.6654545454547,720,446,./1_3_Stimuli/S_ambi40.png,朋友,Image,他人,Mismatch,f,true,Formal,,
,,,,,psychophysics,100,400481,0.0-9.0-0.0-0.39,875,,f,,,,,,,,,,,,,key,f,16.6652892561983,720,446,./1_3_Stimuli/C_ambi40.png,他人,Image,自我,Mismatch,f,true,Formal,,
,,,,,psychophysics,101,402421,0.0-9.0-0.0-0.40,783,,f,,,,,,,,,,,,,key,f,16.6660869565215,720,446,./1_3_Stimuli/C_ambi40.png,他人,Word,自我,Mismatch,f,true,Formal,,
,,,,,psychophysics,102,404276,0.0-9.0-0.0-0.41,701,,j,,,,,,,,,,,,,key,j,16.6663636363635,720,446,./1_3_Stimuli/T_ambi40.png,朋友,Word,朋友,Match,j,true,Formal,,
,,,,,psychophysics,103,406152,0.0-9.0-0.0-0.42,713,,j,,,,,,,,,,,,,key,j,16.6648648648648,720,446,./1_3_Stimuli/C_ambi40.png,自我,Image,自我,Match,j,true,Formal,,
,,,,,psychophysics,104,407999,0.0-9.0-0.0-0.43,691,,j,,,,,,,,,,,,,key,j,16.6672727272729,720,446,./1_3_Stimuli/S_ambi40.png,他人,Image,他人,Match,j,true,Formal,,
,,,,,psychophysics,105,410254,0.0-9.0-0.0-0.44,1096,,f,,,,,,,,,,,,,key,f,16.6649253731346,720,446,./1_3_Stimuli/C_ambi40.png,朋友,Word,自我,Mismatch,f,true,Formal,,
,,,,,psychophysics,106,412438,0.0-9.0-0.0-0.45,1030,,f,,,,,,,,,,,,,key,f,16.6669230769227,720,446,./1_3_Stimuli/T_ambi40.png,他人,Image,朋友,Mismatch,f,true,Formal,,
,,,,,psychophysics,107,414414,0.0-9.0-0.0-0.46,822,,f,,,,,,,,,,,,,key,f,16.6658119658122,720,446,./1_3_Stimuli/S_ambi40.png,自我,Word,他人,Mismatch,f,true,Formal,,
,,,,,psychophysics,108,416334,0.0-9.0-0.0-0.47,759,,j,,,,,,,,,,,,,key,j,16.6657894736844,720,446,./1_3_Stimuli/T_ambi40.png,朋友,Word,朋友,Match,j,true,Formal,,
,,,,,psychophysics,109,418409,0.0-9.0-0.0-0.48,918,,f,,,,,,,,,,,,,key,f,16.6658536585368,720,446,./1_3_Stimuli/T_ambi40.png,他人,Image,朋友,Mismatch,f,true,Formal,,
,,,,,psychophysics,110,420582,0.0-9.0-0.0-0.49,1017,,f,,,,,,,,,,,,,key,f,16.6666666666667,720,446,./1_3_Stimuli/T_ambi40.png,自我,Image,朋友,Mismatch,f,true,Formal,,
,,,,,psychophysics,111,423101,0.0-9.0-0.0-0.50,1343,,j,,,,,,,,,,,,,key,j,16.6666666666667,720,446,./1_3_Stimuli/S_ambi40.png,他人,Image,他人,Match,j,true,Formal,,
,,,,,psychophysics,112,424864,0.0-9.0-0.0-0.51,606,,j,,,,,,,,,,,,,key,j,16.6666666666667,720,446,./1_3_Stimuli/T_ambi40.png,朋友,Image,朋友,Match,j,true,Formal,,
,,,,,psychophysics,113,426649,0.0-9.0-0.0-0.52,624,,f,,,,,,,,,,,,,key,f,16.6660377358494,720,446,./1_3_Stimuli/T_ambi40.png,自我,Word,朋友,Mismatch,f,true,Formal,,
,,,,,psychophysics,114,428525,0.0-9.0-0.0-0.53,716,,j,,,,,,,,,,,,,key,j,16.6657657657655,720,446,./1_3_Stimuli/S_ambi40.png,他人,Word,他人,Match,j,true,Formal,,
,,,,,psychophysics,115,430427,0.0-9.0-0.0-0.54,750,,f,,,,,,,,,,,,,key,f,16.6660714285717,720,446,./1_3_Stimuli/C_ambi40.png,他人,Image,自我,Mismatch,f,true,Formal,,
,,,,,psychophysics,116,432444,0.0-9.0-0.0-0.55,862,,f,,,,,,,,,,,,,key,f,16.6658333333335,720,446,./1_3_Stimuli/S_ambi40.png,朋友,Word,他人,Mismatch,f,true,Formal,,
,,,,,psychophysics,117,434321,0.0-9.0-0.0-0.56,712,,f,,,,,,,,,,,,,key,f,16.6666666666667,720,446,./1_3_Stimuli/S_ambi40.png,自我,Word,他人,Mismatch,f,true,Formal,,
,,,,,psychophysics,118,436144,0.0-9.0-0.0-0.57,671,,j,,,,,,,,,,,,,key,j,16.6651376146789,720,446,./1_3_Stimuli/C_ambi40.png,自我,Word,自我,Match,j,true,Formal,,
,,,,,psychophysics,119,438551,0.0-9.0-0.0-0.58,1246,,j,,,,,,,,,,,,,key,j,16.6671328671326,720,446,./1_3_Stimuli/S_ambi40.png,他人,Word,他人,Match,j,true,Formal,,
,,,,,psychophysics,120,440362,0.0-9.0-0.0-0.59,637,,f,,,,,,,,,,,,,key,f,16.6648148148147,720,446,./1_3_Stimuli/S_ambi40.png,自我,Image,他人,Mismatch,f,true,Formal,,
,,,,,psychophysics,121,442244,0.0-9.0-0.0-0.60,726,,j,,,,,,,,,,,,,key,j,16.6669642857139,720,446,./1_3_Stimuli/C_ambi40.png,自我,Image,自我,Match,j,true,Formal,,
,,,,,psychophysics,122,444128,0.0-9.0-0.0-0.61,725,,j,,,,,,,,,,,,,key,j,16.6660714285712,720,446,./1_3_Stimuli/T_ambi40.png,朋友,Image,朋友,Match,j,true,Formal,,
,,,,,psychophysics,123,445949,0.0-9.0-0.0-0.62,658,,j,,,,,,,,,,,,,key,j,16.6666666666667,720,446,./1_3_Stimuli/C_ambi40.png,自我,Image,自我,Match,j,true,Formal,,
,,,,,psychophysics,124,448164,0.0-9.0-0.0-0.63,1060,,j,,,,,,,,,,,,,key,j,16.6659090909088,720,446,./1_3_Stimuli/C_ambi40.png,朋友,Word,自我,Mismatch,f,false,Formal,,
,,,,,psychophysics,125,450073,0.0-9.0-0.0-0.64,757,,j,,,,,,,,,,,,,key,j,16.6663716814158,720,446,./1_3_Stimuli/T_ambi40.png,朋友,Word,朋友,Match,j,true,Formal,,
,,,,,psychophysics,126,452131,0.0-9.0-0.0-0.65,888,,f,,,,,,,,,,,,,key,f,16.667479674797,720,446,./1_3_Stimuli/C_ambi40.png,他人,Word,自我,Mismatch,f,true,Formal,,
,,,,,psychophysics,127,453938,0.0-9.0-0.0-0.66,648,,j,,,,,,,,,,,,,key,j,16.6654205607478,720,446,./1_3_Stimuli/C_ambi40.png,自我,Word,自我,Match,j,true,Formal,,
,,,,,psychophysics,128,455939,0.0-9.0-0.0-0.67,847,,f,,,,,,,,,,,,,key,f,16.6655462184875,720,446,./1_3_Stimuli/T_ambi40.png,他人,Word,朋友,Mismatch,f,true,Formal,,
,,,,,psychophysics,129,457938,0.0-9.0-0.0-0.68,845,,j,,,,,,,,,,,,,key,j,16.6647058823532,720,446,./1_3_Stimuli/T_ambi40.png,朋友,Word,朋友,Match,j,true,Formal,,
,,,,,psychophysics,130,459914,0.0-9.0-0.0-0.69,822,,j,,,,,,,,,,,,,key,j,16.666949152542,720,446,./1_3_Stimuli/S_ambi40.png,他人,Image,他人,Match,j,true,Formal,,
,,,,,psychophysics,131,461877,0.0-9.0-0.0-0.70,804,,f,,,,,,,,,,,,,key,f,16.6658119658122,720,446,./1_3_Stimuli/S_ambi40.png,朋友,Image,他人,Mismatch,f,true,Formal,,
,,,,,psychophysics,132,463958,0.0-9.0-0.0-0.71,916,,f,,,,,,,,,,,,,key,f,16.6666666666667,720,446,./1_3_Stimuli/C_ambi40.png,朋友,Image,自我,Mismatch,f,true,Formal,,
,,,,,psychophysics,133,466228,0.0-9.0-0.0-0.72,1118,,j,,,,,,,,,,,,,key,j,16.6666666666667,720,446,./1_3_Stimuli/S_ambi40.png,自我,Word,他人,Mismatch,f,false,Formal,,
,,,,,psychophysics,134,468216,0.0-9.0-0.0-0.73,828,,j,,,,,,,,,,,,,key,j,16.6661016949151,720,446,./1_3_Stimuli/S_ambi40.png,他人,Image,他人,Match,j,true,Formal,,
,,,,,psychophysics,135,470112,0.0-9.0-0.0-0.74,718,,j,,,,,,,,,,,,,key,j,16.6663716814158,720,446,./1_3_Stimuli/S_ambi40.png,他人,Word,他人,Match,j,true,Formal,,
,,,,,psychophysics,136,471937,0.0-9.0-0.0-0.75,672,,f,,,,,,,,,,,,,key,f,16.6657407407404,720,446,./1_3_Stimuli/S_ambi40.png,朋友,Word,他人,Mismatch,f,true,Formal,,
,,,,,psychophysics,137,473739,0.0-9.0-0.0-0.76,648,,j,,,,,,,,,,,,,key,j,16.6672897196264,720,446,./1_3_Stimuli/C_ambi40.png,自我,Word,自我,Match,j,true,Formal,,
,,,,,psychophysics,138,476261,0.0-9.0-0.0-0.77,1369,,f,,,,,,,,,,,,,key,f,16.6639999999998,720,446,./1_3_Stimuli/T_ambi40.png,他人,Image,朋友,Mismatch,f,true,Formal,,
,,,,,psychophysics,139,478667,0.0-9.0-0.0-0.78,1242,,f,,,,,,,,,,,,,key,f,16.6664335664335,720,446,./1_3_Stimuli/T_ambi40.png,他人,Word,朋友,Mismatch,f,true,Formal,,
,,,,,psychophysics,140,480831,0.0-9.0-0.0-0.79,1012,,j,,,,,,,,,,,,,key,j,16.6658914728679,720,446,./1_3_Stimuli/T_ambi40.png,朋友,Image,朋友,Match,j,true,Formal,,
,,,,,psychophysics,141,482537,0.0-9.0-0.0-0.80,544,,j,,,,,,,,,,,,,key,j,16.6653465346536,720,446,./1_3_Stimuli/C_ambi40.png,自我,Word,自我,Match,j,true,Formal,,
,,,,,psychophysics,142,484881,0.0-9.0-0.0-0.81,1191,,j,,,,,,,,,,,,,key,j,16.6642857142857,720,446,./1_3_Stimuli/T_ambi40.png,朋友,Image,朋友,Match,j,true,Formal,,
,,,,,psychophysics,143,486585,0.0-9.0-0.0-0.82,544,,j,,,,,,,,,,,,,key,j,16.6663366336633,720,446,./1_3_Stimuli/S_ambi40.png,他人,Word,他人,Match,j,true,Formal,,
,,,,,psychophysics,144,488375,0.0-9.0-0.0-0.83,619,,f,,,,,,,,,,,,,key,f,16.6660377358494,720,446,./1_3_Stimuli/S_ambi40.png,自我,Image,他人,Mismatch,f,true,Formal,,
,,,,,psychophysics,145,490387,0.0-9.0-0.0-0.84,861,,j,,,,,,,,,,,,,key,j,16.667226890756,720,446,./1_3_Stimuli/T_ambi40.png,朋友,Word,朋友,Match,j,true,Formal,,
,,,,,psychophysics,146,492036,0.0-9.0-0.0-0.85,495,,j,,,,,,,,,,,,,key,j,16.6653061224491,720,446,./1_3_Stimuli/T_ambi40.png,朋友,Word,朋友,Match,j,true,Formal,,
,,,,,psychophysics,147,494023,0.0-9.0-0.0-0.86,832,,f,,,,,,,,,,,,,key,f,16.6694915254237,720,446,./1_3_Stimuli/C_ambi40.png,他人,Image,自我,Mismatch,f,true,Formal,,
,,,,,psychophysics,148,495929,0.0-9.0-0.0-0.87,755,,j,,,,,,,,,,,,,key,j,16.6666666666667,720,446,./1_3_Stimuli/S_ambi40.png,他人,Image,他人,Match,j,true,Formal,,
,,,,,psychophysics,149,497877,0.0-9.0-0.0-0.88,797,,f,,,,,,,,,,,,,key,f,16.6655172413794,720,446,./1_3_Stimuli/C_ambi40.png,朋友,Word,自我,Mismatch,f,true,Formal,,
,,,,,psychophysics,150,499802,0.0-9.0-0.0-0.89,764,,j,,,,,,,,,,,,,key,j,16.6657894736839,720,446,./1_3_Stimuli/C_ambi40.png,自我,Image,自我,Match,j,true,Formal,,
,,,,,psychophysics,151,501634,0.0-9.0-0.0-0.90,676,,f,,,,,,,,,,,,,key,f,16.6669724770643,720,446,./1_3_Stimuli/C_ambi40.png,朋友,Image,自我,Mismatch,f,true,Formal,,
,,,,,psychophysics,152,503626,0.0-9.0-0.0-0.91,835,,f,,,,,,,,,,,,,key,f,16.6672268907565,720,446,./1_3_Stimuli/C_ambi40.png,他人,Word,自我,Mismatch,f,true,Formal,,
,,,,,psychophysics,153,505608,0.0-9.0-0.0-0.92,820,,f,,,,,,,,,,,,,key,f,16.6658119658117,720,446,./1_3_Stimuli/T_ambi40.png,自我,Image,朋友,Mismatch,f,true,Formal,,
,,,,,psychophysics,154,507892,0.0-9.0-0.0-0.93,1132,,f,,,,,,,,,,,,,key,f,16.6659259259261,720,446,./1_3_Stimuli/T_ambi40.png,自我,Word,朋友,Mismatch,f,true,Formal,,
,,,,,psychophysics,155,509653,0.0-9.0-0.0-0.94,611,,j,,,,,,,,,,,,,key,j,16.6673076923074,720,446,./1_3_Stimuli/C_ambi40.png,自我,Image,自我,Match,j,true,Formal,,
,,,,,psychophysics,156,511517,0.0-9.0-0.0-0.95,692,,f,,,,,,,,,,,,,key,f,16.6666666666667,720,446,./1_3_Stimuli/S_ambi40.png,朋友,Image,他人,Mismatch,f,true,Formal,,
,,,,,psychophysics,157,513339,0.0-9.0-0.0-0.96,666,,f,,,,,,,,,,,,,key,f,16.6666666666667,720,446,./1_3_Stimuli/C_ambi40.png,朋友,Word,自我,Mismatch,f,true,Formal,,
,,,,,psychophysics,158,515785,0.0-9.0-0.0-0.97,1294,,j,,,,,,,,,,,,,key,j,16.6664383561643,720,446,./1_3_Stimuli/C_ambi40.png,自我,Image,自我,Match,j,true,Formal,,
,,,,,psychophysics,159,517768,0.0-9.0-0.0-0.98,824,,j,,,,,,,,,,,,,key,j,16.6669491525425,720,446,./1_3_Stimuli/S_ambi40.png,他人,Word,他人,Match,j,true,Formal,,
,,,,,psychophysics,160,519628,0.0-9.0-0.0-0.99,706,,j,,,,,,,,,,,,,key,j,16.6666666666667,720,446,./1_3_Stimuli/T_ambi40.png,朋友,Image,朋友,Match,j,true,Formal,,
,,,,,psychophysics,161,521362,0.0-9.0-0.0-0.100,574,,j,,,,,,,,,,,,,key,j,16.6699029126214,720,446,./1_3_Stimuli/C_ambi40.png,自我,Word,自我,Match,j,true,Formal,,
,,,,,psychophysics,162,523380,0.0-9.0-0.0-0.101,864,,f,,,,,,,,,,,,,key,f,16.665833333333,720,446,./1_3_Stimuli/S_ambi40.png,自我,Word,他人,Mismatch,f,true,Formal,,
,,,,,psychophysics,163,525494,0.0-9.0-0.0-0.102,953,,f,,,,,,,,,,,,,key,f,16.6634920634919,720,446,./1_3_Stimuli/S_ambi40.png,朋友,Image,他人,Mismatch,f,true,Formal,,
,,,,,psychophysics,164,527597,0.0-9.0-0.0-0.103,945,,j,,,,,,,,,,,,,key,j,16.6672000000002,720,446,./1_3_Stimuli/S_ambi40.png,他人,Image,他人,Match,j,true,Formal,,
,,,,,psychophysics,165,529504,0.0-9.0-0.0-0.104,730,,f,,,,,,,,,,,,,key,f,16.6654867256643,720,446,./1_3_Stimuli/T_ambi40.png,自我,Image,朋友,Mismatch,f,true,Formal,,
,,,,,psychophysics,166,531394,0.0-9.0-0.0-0.105,738,,j,,,,,,,,,,,,,key,j,16.6663716814163,720,446,./1_3_Stimuli/C_ambi40.png,自我,Image,自我,Match,j,true,Formal,,
,,,,,psychophysics,167,533315,0.0-9.0-0.0-0.106,768,,j,,,,,,,,,,,,,key,j,16.6666666666667,720,446,./1_3_Stimuli/C_ambi40.png,自我,Word,自我,Match,j,true,Formal,,
,,,,,psychophysics,168,536025,0.0-9.0-0.0-0.107,null,,null,,,,,,,,,,,,,key,null,16.6664596273295,720,446,./1_3_Stimuli/T_ambi40.png,他人,Word,朋友,Mismatch,f,false,Formal,,
,,,,,psychophysics,169,538139,0.0-9.0-0.0-0.108,941,,f,,,,,,,,,,,,,key,f,16.668,720,446,./1_3_Stimuli/C_ambi40.png,他人,Image,自我,Mismatch,f,true,Formal,,
,,,,,psychophysics,170,540283,0.0-9.0-0.0-0.109,993,,f,,,,,,,,,,,,,key,f,16.6656249999996,720,446,./1_3_Stimuli/T_ambi40.png,自我,Word,朋友,Mismatch,f,true,Formal,,
,,,,,psychophysics,171,542473,0.0-9.0-0.0-0.110,1032,,f,,,,,,,,,,,,,key,f,16.6653846153846,720,446,./1_3_Stimuli/C_ambi40.png,他人,Word,自我,Mismatch,f,true,Formal,,
,,,,,psychophysics,172,544319,0.0-9.0-0.0-0.111,667,,f,,,,,,,,,,,,,key,f,16.6672727272729,720,446,./1_3_Stimuli/T_ambi40.png,他人,Image,朋友,Mismatch,f,true,Formal,,
,,,,,psychophysics,173,546290,0.0-9.0-0.0-0.112,816,,j,,,,,,,,,,,,,key,j,16.6658119658122,720,446,./1_3_Stimuli/T_ambi40.png,朋友,Word,朋友,Match,j,true,Formal,,
,,,,,psychophysics,174,547964,0.0-9.0-0.0-0.113,517,,j,,,,,,,,,,,,,key,j,16.6686868686864,720,446,./1_3_Stimuli/T_ambi40.png,朋友,Image,朋友,Match,j,true,Formal,,
,,,,,psychophysics,175,549549,0.0-9.0-0.0-0.114,425,,j,,,,,,,,,,,,,key,j,16.6680851063835,720,446,./1_3_Stimuli/T_ambi40.png,朋友,Word,朋友,Match,j,true,Formal,,
,,,,,psychophysics,176,551564,0.0-9.0-0.0-0.115,857,,j,,,,,,,,,,,,,key,j,16.6666666666667,720,446,./1_3_Stimuli/S_ambi40.png,他人,Word,他人,Match,j,true,Formal,,
,,,,,psychophysics,177,553345,0.0-9.0-0.0-0.116,621,,f,,,,,,,,,,,,,key,f,16.6669811320761,720,446,./1_3_Stimuli/S_ambi40.png,自我,Image,他人,Mismatch,f,true,Formal,,
,,,,,psychophysics,178,555059,0.0-9.0-0.0-0.117,560,,j,,,,,,,,,,,,,key,j,16.6647058823534,720,446,./1_3_Stimuli/S_ambi40.png,他人,Image,他人,Match,j,true,Formal,,
,,,,,psychophysics,179,557224,0.0-9.0-0.0-0.118,1006,,f,,,,,,,,,,,,,key,f,16.66796875,720,446,./1_3_Stimuli/S_ambi40.png,朋友,Word,他人,Mismatch,f,true,Formal,,
,,,,,psychophysics,180,559368,0.0-9.0-0.0-0.119,993,,f,,,,,,,,,,,,,key,f,16.6669291338588,720,446,./1_3_Stimuli/C_ambi40.png,朋友,Image,自我,Mismatch,f,true,Formal,,
,,,,,html-keyboard-response,181,568118,0.0-9.0-1.0,8748,<style>.context{color:white; font-size: 35px; line-height:40px}</style>                        <div><p class='context'>您正确回答了97% 的试次。</p><p class='context'>您的平均反应时为795毫秒。</p><p> <div style = 'color: green'><按任意键进入休息></div></p>, ,,,,,,,,,,,,,,,,,,,,,,,,,,,
,,,,,html-button-response,182,599323,0.0-9.0-2.0,31200,"
                  <p>您当前还剩余5组实验</p>
                  <p>现在是休息时间，当您结束休息后，您可以点击 结束休息 按钮 继续</p>
                  <p>建议休息时间还剩余<span id=""iii"">60</span>秒</p>",0,,,,,,,,,,,,,,,,,,,,,,,,,,,
,,,,,psychophysics,183,601421,0.0-9.0-0.1-0.120,945,,f,,,,,,,,,,,,,key,f,16.6661290322579,720,446,./1_3_Stimuli/S_ambi40.png,自我,Image,他人,Mismatch,f,true,Formal,,
,,,,,psychophysics,184,603174,0.0-9.0-0.1-0.121,600,,j,,,,,,,,,,,,,key,j,16.6663461538455,720,446,./1_3_Stimuli/T_ambi40.png,朋友,Image,朋友,Match,j,true,Formal,,
,,,,,psychophysics,185,605135,0.0-9.0-0.1-0.122,794,,f,,,,,,,,,,,,,key,f,16.6655172413789,720,446,./1_3_Stimuli/C_ambi40.png,他人,Word,自我,Mismatch,f,true,Formal,,
,,,,,psychophysics,186,607184,0.0-9.0-0.1-0.123,893,,f,,,,,,,,,,,,,key,f,16.6663934426224,720,446,./1_3_Stimuli/T_ambi40.png,他人,Word,朋友,Mismatch,f,true,Formal,,
,,,,,psychophysics,187,608838,0.0-9.0-0.1-0.124,501,,j,,,,,,,,,,,,,key,j,16.6663265306115,720,446,./1_3_Stimuli/C_ambi40.png,自我,Image,自我,Match,j,true,Formal,,
,,,,,psychophysics,188,610717,0.0-9.0-0.1-0.125,727,,f,,,,,,,,,,,,,key,f,16.6660714285712,720,446,./1_3_Stimuli/T_ambi40.png,他人,Image,朋友,Mismatch,f,true,Formal,,
,,,,,psychophysics,189,612453,0.0-9.0-0.1-0.126,581,,f,,,,,,,,,,,,,key,f,16.6660194174766,720,446,./1_3_Stimuli/C_ambi40.png,他人,Image,自我,Mismatch,f,true,Formal,,
,,,,,psychophysics,190,614504,0.0-9.0-0.1-0.127,897,,f,,,,,,,,,,,,,key,f,16.6663934426233,720,446,./1_3_Stimuli/S_ambi40.png,朋友,Word,他人,Mismatch,f,true,Formal,,
,,,,,psychophysics,191,616314,0.0-9.0-0.1-0.128,658,,f,,,,,,,,,,,,,key,f,16.6663551401874,720,446,./1_3_Stimuli/C_ambi40.png,朋友,Image,自我,Mismatch,f,true,Formal,,
,,,,,psychophysics,192,618187,0.0-9.0-0.1-0.129,721,,f,,,,,,,,,,,,,key,f,16.6666666666667,720,446,./1_3_Stimuli/S_ambi40.png,自我,Word,他人,Mismatch,f,true,Formal,,
,,,,,psychophysics,193,620142,0.0-9.0-0.1-0.130,801,,j,,,,,,,,,,,,,key,j,16.6663793103452,720,446,./1_3_Stimuli/S_ambi40.png,他人,Word,他人,Match,j,true,Formal,,
,,,,,psychophysics,194,621759,0.0-9.0-0.1-0.131,454,,j,,,,,,,,,,,,,key,j,16.6666666666667,720,446,./1_3_Stimuli/S_ambi40.png,他人,Word,他人,Match,j,true,Formal,,
,,,,,psychophysics,195,623449,0.0-9.0-0.1-0.132,529,,j,,,,,,,,,,,,,key,j,16.6659999999998,720,446,./1_3_Stimuli/T_ambi40.png,朋友,Image,朋友,Match,j,true,Formal,,
,,,,,psychophysics,196,625324,0.0-9.0-0.1-0.133,717,,j,,,,,,,,,,,,,key,j,16.6651785714286,720,446,./1_3_Stimuli/S_ambi40.png,他人,Image,他人,Match,j,true,Formal,,
,,,,,psychophysics,197,626953,0.0-9.0-0.1-0.134,476,,j,,,,,,,,,,,,,key,j,16.6645833333326,720,446,./1_3_Stimuli/C_ambi40.png,自我,Word,自我,Match,j,true,Formal,,
,,,,,psychophysics,198,628922,0.0-9.0-0.1-0.135,819,,j,,,,,,,,,,,,,key,j,16.6663793103452,720,446,./1_3_Stimuli/T_ambi40.png,朋友,Word,朋友,Match,j,true,Formal,,
,,,,,psychophysics,199,630793,0.0-9.0-0.1-0.136,720,,j,,,,,,,,,,,,,key,j,16.6639639639635,720,446,./1_3_Stimuli/C_ambi40.png,自我,Image,自我,Match,j,true,Formal,,
,,,,,psychophysics,200,632639,0.0-9.0-0.1-0.137,682,,f,,,,,,,,,,,,,key,f,16.6660550458713,720,446,./1_3_Stimuli/T_ambi40.png,自我,Image,朋友,Mismatch,f,true,Formal,,
,,,,,psychophysics,201,634646,0.0-9.0-0.1-0.138,856,,j,,,,,,,,,,,,,key,j,16.6672268907555,720,446,./1_3_Stimuli/T_ambi40.png,朋友,Word,朋友,Match,j,true,Formal,,
,,,,,psychophysics,202,636685,0.0-9.0-0.1-0.139,887,,j,,,,,,,,,,,,,key,j,16.6669421487599,720,446,./1_3_Stimuli/S_ambi40.png,他人,Image,他人,Match,j,true,Formal,,
,,,,,psychophysics,203,638467,0.0-9.0-0.1-0.140,610,,f,,,,,,,,,,,,,key,f,16.6714285714286,720,446,./1_3_Stimuli/S_ambi40.png,朋友,Image,他人,Mismatch,f,true,Formal,,
,,,,,psychophysics,204,640228,0.0-9.0-0.1-0.141,605,,f,,,,,,,,,,,,,key,f,16.6657142857145,720,446,./1_3_Stimuli/T_ambi40.png,自我,Word,朋友,Mismatch,f,true,Formal,,
,,,,,psychophysics,205,642209,0.0-9.0-0.1-0.142,829,,f,,,,,,,,,,,,,key,f,16.6677966101699,720,446,./1_3_Stimuli/C_ambi40.png,朋友,Word,自我,Mismatch,f,true,Formal,,
,,,,,psychophysics,206,643946,0.0-9.0-0.1-0.143,582,,j,,,,,,,,,,,,,key,j,16.6679611650479,720,446,./1_3_Stimuli/C_ambi40.png,自我,Word,自我,Match,j,true,Formal,,
,,,,,psychophysics,207,645925,0.0-9.0-0.1-0.144,818,,f,,,,,,,,,,,,,key,f,16.6652542372881,720,446,./1_3_Stimuli/C_ambi40.png,他人,Image,自我,Mismatch,f,true,Formal,,
,,,,,psychophysics,208,647937,0.0-9.0-0.1-0.145,860,,f,,,,,,,,,,,,,key,f,16.665546218487,720,446,./1_3_Stimuli/S_ambi40.png,朋友,Word,他人,Mismatch,f,true,Formal,,
,,,,,psychophysics,209,650623,0.0-9.0-0.1-0.146,1530,,f,,,,,,,,,,,,,key,f,16.6660377358485,720,446,./1_3_Stimuli/T_ambi40.png,他人,Image,朋友,Mismatch,f,true,Formal,,
,,,,,psychophysics,210,652462,0.0-9.0-0.1-0.147,678,,f,,,,,,,,,,,,,key,f,16.6660550458713,720,446,./1_3_Stimuli/C_ambi40.png,他人,Word,自我,Mismatch,f,true,Formal,,
,,,,,psychophysics,211,654308,0.0-9.0-0.1-0.148,693,,j,,,,,,,,,,,,,key,j,16.666363636363,720,446,./1_3_Stimuli/T_ambi40.png,朋友,Word,朋友,Match,j,true,Formal,,
,,,,,psychophysics,212,655991,0.0-9.0-0.1-0.149,530,,j,,,,,,,,,,,,,key,j,16.665,720,446,./1_3_Stimuli/C_ambi40.png,自我,Image,自我,Match,j,true,Formal,,
,,,,,psychophysics,213,657803,0.0-9.0-0.1-0.150,657,,f,,,,,,,,,,,,,key,f,16.6654205607472,720,446,./1_3_Stimuli/C_ambi40.png,朋友,Word,自我,Mismatch,f,true,Formal,,
,,,,,psychophysics,214,659429,0.0-9.0-0.1-0.151,471,,j,,,,,,,,,,,,,key,j,16.6670103092791,720,446,./1_3_Stimuli/C_ambi40.png,自我,Word,自我,Match,j,true,Formal,,
,,,,,psychophysics,215,661204,0.0-9.0-0.1-0.152,613,,j,,,,,,,,,,,,,key,j,16.6676190476188,720,446,./1_3_Stimuli/T_ambi40.png,朋友,Word,朋友,Match,j,true,Formal,,
,,,,,psychophysics,216,662862,0.0-9.0-0.1-0.153,505,,f,,,,,,,,,,,,,key,f,16.6666666666667,720,446,./1_3_Stimuli/T_ambi40.png,自我,Image,朋友,Mismatch,f,true,Formal,,
,,,,,psychophysics,217,664687,0.0-9.0-0.1-0.154,672,,j,,,,,,,,,,,,,key,j,16.6666666666667,720,446,./1_3_Stimuli/S_ambi40.png,他人,Image,他人,Match,j,true,Formal,,
,,,,,psychophysics,218,666476,0.0-9.0-0.1-0.155,636,,f,,,,,,,,,,,,,key,f,16.6663551401874,720,446,./1_3_Stimuli/T_ambi40.png,自我,Word,朋友,Mismatch,f,true,Formal,,
,,,,,psychophysics,219,668286,0.0-9.0-0.1-0.156,647,,j,,,,,,,,,,,,,key,j,16.6663551401863,720,446,./1_3_Stimuli/S_ambi40.png,他人,Word,他人,Match,j,true,Formal,,
,,,,,psychophysics,220,669935,0.0-9.0-0.1-0.157,496,,f,,,,,,,,,,,,,key,f,16.6663265306115,720,446,./1_3_Stimuli/T_ambi40.png,他人,Word,朋友,Mismatch,f,true,Formal,,
,,,,,psychophysics,221,671557,0.0-9.0-0.1-0.158,468,,j,,,,,,,,,,,,,key,j,16.6677083333331,720,446,./1_3_Stimuli/T_ambi40.png,朋友,Image,朋友,Match,j,true,Formal,,
,,,,,psychophysics,222,673231,0.0-9.0-0.1-0.159,511,,f,,,,,,,,,,,,,key,f,16.6666666666667,720,446,./1_3_Stimuli/S_ambi40.png,自我,Image,他人,Mismatch,f,true,Formal,,
,,,,,psychophysics,223,674795,0.0-9.0-0.1-0.160,405,,j,,,,,,,,,,,,,key,j,16.6655913978497,720,446,./1_3_Stimuli/C_ambi40.png,自我,Word,自我,Match,j,true,Formal,,
,,,,,psychophysics,224,676768,0.0-9.0-0.1-0.161,811,,j,,,,,,,,,,,,,key,j,16.6658119658122,720,446,./1_3_Stimuli/S_ambi40.png,他人,Image,他人,Match,j,true,Formal,,
,,,,,psychophysics,225,678539,0.0-9.0-0.1-0.162,617,,f,,,,,,,,,,,,,key,f,16.6666666666667,720,446,./1_3_Stimuli/C_ambi40.png,朋友,Image,自我,Mismatch,f,true,Formal,,
,,,,,psychophysics,226,680528,0.0-9.0-0.1-0.163,837,,f,,,,,,,,,,,,,key,f,16.666949152542,720,446,./1_3_Stimuli/S_ambi40.png,朋友,Image,他人,Mismatch,f,true,Formal,,
,,,,,psychophysics,227,682281,0.0-9.0-0.1-0.164,601,,j,,,,,,,,,,,,,key,j,16.6663461538455,720,446,./1_3_Stimuli/S_ambi40.png,他人,Word,他人,Match,j,true,Formal,,
,,,,,psychophysics,228,683986,0.0-9.0-0.1-0.165,546,,j,,,,,,,,,,,,,key,j,16.6663366336627,720,446,./1_3_Stimuli/C_ambi40.png,自我,Image,自我,Match,j,true,Formal,,
,,,,,psychophysics,229,685596,0.0-9.0-0.1-0.166,456,,j,,,,,,,,,,,,,key,j,16.6663157894742,720,446,./1_3_Stimuli/T_ambi40.png,朋友,Image,朋友,Match,j,true,Formal,,
,,,,,psychophysics,230,687566,0.0-9.0-0.1-0.167,809,,f,,,,,,,,,,,,,key,f,16.6666666666667,720,446,./1_3_Stimuli/S_ambi40.png,自我,Word,他人,Mismatch,f,true,Formal,,
,,,,,psychophysics,231,689350,0.0-9.0-0.1-0.168,627,,j,,,,,,,,,,,,,key,j,16.6666666666667,720,446,./1_3_Stimuli/S_ambi40.png,他人,Image,他人,Match,j,true,Formal,,
,,,,,psychophysics,232,691076,0.0-9.0-0.1-0.169,570,,j,,,,,,,,,,,,,key,j,16.6669902912617,720,446,./1_3_Stimuli/C_ambi40.png,自我,Word,自我,Match,j,true,Formal,,
,,,,,psychophysics,233,692848,0.0-9.0-0.1-0.170,610,,f,,,,,,,,,,,,,key,f,16.6704761904753,720,446,./1_3_Stimuli/S_ambi40.png,自我,Word,他人,Mismatch,f,true,Formal,,
,,,,,psychophysics,234,694737,0.0-9.0-0.1-0.171,734,,f,,,,,,,,,,,,,key,f,16.6633928571433,720,446,./1_3_Stimuli/C_ambi40.png,他人,Image,自我,Mismatch,f,true,Formal,,
,,,,,psychophysics,235,696567,0.0-9.0-0.1-0.172,677,,f,,,,,,,,,,,,,key,f,16.6675925925924,720,446,./1_3_Stimuli/T_ambi40.png,他人,Image,朋友,Mismatch,f,true,Formal,,
,,,,,psychophysics,236,698302,0.0-9.0-0.1-0.173,579,,f,,,,,,,,,,,,,key,f,16.6660194174755,720,446,./1_3_Stimuli/S_ambi40.png,朋友,Word,他人,Mismatch,f,true,Formal,,
,,,,,psychophysics,237,700039,0.0-9.0-0.1-0.174,583,,j,,,,,,,,,,,,,key,j,16.6666666666667,720,446,./1_3_Stimuli/S_ambi40.png,他人,Image,他人,Match,j,true,Formal,,
,,,,,psychophysics,238,701996,0.0-9.0-0.1-0.175,806,,f,,,,,,,,,,,,,key,f,16.6689655172412,720,446,./1_3_Stimuli/C_ambi40.png,他人,Word,自我,Mismatch,f,true,Formal,,
,,,,,psychophysics,239,703642,0.0-9.0-0.1-0.176,491,,j,,,,,,,,,,,,,key,j,16.6653061224485,720,446,./1_3_Stimuli/C_ambi40.png,自我,Image,自我,Match,j,true,Formal,,
,,,,,psychophysics,240,705388,0.0-9.0-0.1-0.177,594,,f,,,,,,,,,,,,,key,f,16.6650485436893,720,446,./1_3_Stimuli/C_ambi40.png,朋友,Image,自我,Mismatch,f,true,Formal,,
,,,,,psychophysics,241,707120,0.0-9.0-0.1-0.178,580,,j,,,,,,,,,,,,,key,j,16.6686274509811,720,446,./1_3_Stimuli/C_ambi40.png,自我,Word,自我,Match,j,true,Formal,,
,,,,,psychophysics,242,709266,0.0-9.0-0.1-0.179,994,,j,,,,,,,,,,,,,key,j,16.6669291338588,720,446,./1_3_Stimuli/T_ambi40.png,朋友,Image,朋友,Match,j,true,Formal,,
,,,,,psychophysics,243,711032,0.0-9.0-0.1-0.180,609,,j,,,,,,,,,,,,,key,j,16.6676190476188,720,446,./1_3_Stimuli/S_ambi40.png,他人,Word,他人,Match,j,true,Formal,,
,,,,,psychophysics,244,712720,0.0-9.0-0.1-0.181,537,,j,,,,,,,,,,,,,key,j,16.6659999999998,720,446,./1_3_Stimuli/T_ambi40.png,朋友,Image,朋友,Match,j,true,Formal,,
,,,,,psychophysics,245,714576,0.0-9.0-0.1-0.182,704,,f,,,,,,,,,,,,,key,f,16.6672727272729,720,446,./1_3_Stimuli/C_ambi40.png,朋友,Word,自我,Mismatch,f,true,Formal,,
,,,,,psychophysics,246,716408,0.0-9.0-0.1-0.183,668,,f,,,,,,,,,,,,,key,f,16.6669724770638,720,446,./1_3_Stimuli/T_ambi40.png,自我,Image,朋友,Mismatch,f,true,Formal,,
,,,,,psychophysics,247,718289,0.0-9.0-0.1-0.184,721,,f,,,,,,,,,,,,,key,f,16.6666666666667,720,446,./1_3_Stimuli/T_ambi40.png,他人,Word,朋友,Mismatch,f,true,Formal,,
,,,,,psychophysics,248,720315,0.0-9.0-0.1-0.185,875,,j,,,,,,,,,,,,,key,j,16.6666666666667,720,446,./1_3_Stimuli/T_ambi40.png,朋友,Word,朋友,Match,j,true,Formal,,
,,,,,psychophysics,249,722085,0.0-9.0-0.1-0.186,615,,j,,,,,,,,,,,,,key,j,16.6666666666667,720,446,./1_3_Stimuli/T_ambi40.png,朋友,Word,朋友,Match,j,true,Formal,,
,,,,,psychophysics,250,723889,0.0-9.0-0.1-0.187,653,,f,,,,,,,,,,,,,key,f,16.6654205607483,720,446,./1_3_Stimuli/T_ambi40.png,自我,Word,朋友,Mismatch,f,true,Formal,,
,,,,,psychophysics,251,725742,0.0-9.0-0.1-0.188,703,,f,,,,,,,,,,,,,key,f,16.6663636363641,720,446,./1_3_Stimuli/S_ambi40.png,自我,Image,他人,Mismatch,f,true,Formal,,
,,,,,psychophysics,252,727292,0.0-9.0-0.1-0.189,387,,j,,,,,,,,,,,,,key,j,16.6663043478266,720,446,./1_3_Stimuli/C_ambi40.png,自我,Image,自我,Match,j,true,Formal,,
,,,,,psychophysics,253,729158,0.0-9.0-0.1-0.190,704,,j,,,,,,,,,,,,,key,j,16.6666666666667,720,446,./1_3_Stimuli/S_ambi40.png,他人,Word,他人,Match,j,true,Formal,,
,,,,,psychophysics,254,730994,0.0-9.0-0.1-0.191,682,,f,,,,,,,,,,,,,key,f,16.6669724770638,720,446,./1_3_Stimuli/S_ambi40.png,朋友,Image,他人,Mismatch,f,true,Formal,,
,,,,,psychophysics,255,733264,0.0-9.0-0.1-0.192,1108,,j,,,,,,,,,,,,,key,j,16.6666666666667,720,446,./1_3_Stimuli/T_ambi40.png,他人,Image,朋友,Mismatch,f,false,Formal,,
,,,,,psychophysics,256,735605,0.0-9.0-0.1-0.193,1182,,j,,,,,,,,,,,,,key,j,16.6654676258993,720,446,./1_3_Stimuli/T_ambi40.png,朋友,Word,朋友,Match,j,true,Formal,,
,,,,,psychophysics,257,737444,0.0-9.0-0.1-0.194,654,,j,,,,,,,,,,,,,key,j,16.6660550458713,720,446,./1_3_Stimuli/T_ambi40.png,朋友,Word,朋友,Match,j,true,Formal,,
,,,,,psychophysics,258,739233,0.0-9.0-0.1-0.195,634,,j,,,,,,,,,,,,,key,j,16.6669811320761,720,446,./1_3_Stimuli/S_ambi40.png,他人,Word,他人,Match,j,true,Formal,,
,,,,,psychophysics,259,741370,0.0-9.0-0.1-0.196,981,,f,,,,,,,,,,,,,key,f,16.6642857142853,720,446,./1_3_Stimuli/T_ambi40.png,自我,Word,朋友,Mismatch,f,true,Formal,,
,,,,,psychophysics,260,743004,0.0-9.0-0.1-0.197,454,,f,,,,,,,,,,,,,key,f,16.6659793814443,720,446,./1_3_Stimuli/T_ambi40.png,自我,Image,朋友,Mismatch,f,true,Formal,,
,,,,,psychophysics,261,744820,0.0-9.0-0.1-0.198,664,,f,,,,,,,,,,,,,key,f,16.6672897196264,720,446,./1_3_Stimuli/S_ambi40.png,自我,Word,他人,Mismatch,f,true,Formal,,
,,,,,psychophysics,262,746523,0.0-9.0-0.1-0.199,549,,j,,,,,,,,,,,,,key,j,16.6673267326735,720,446,./1_3_Stimuli/T_ambi40.png,朋友,Image,朋友,Match,j,true,Formal,,
,,,,,psychophysics,263,748715,0.0-9.0-0.1-0.200,1041,,f,,,,,,,,,,,,,key,f,16.6646153846156,720,446,./1_3_Stimuli/C_ambi40.png,他人,Image,自我,Mismatch,f,true,Formal,,
,,,,,psychophysics,264,750472,0.0-9.0-0.1-0.201,599,,j,,,,,,,,,,,,,key,j,16.6663461538466,720,446,./1_3_Stimuli/T_ambi40.png,朋友,Image,朋友,Match,j,true,Formal,,
,,,,,psychophysics,265,752054,0.0-9.0-0.1-0.202,431,,j,,,,,,,,,,,,,key,j,16.6666666666667,720,446,./1_3_Stimuli/C_ambi40.png,自我,Word,自我,Match,j,true,Formal,,
,,,,,psychophysics,266,753891,0.0-9.0-0.1-0.203,685,,f,,,,,,,,,,,,,key,f,16.6663636363641,720,446,./1_3_Stimuli/C_ambi40.png,他人,Word,自我,Mismatch,f,true,Formal,,
,,,,,psychophysics,267,755594,0.0-9.0-0.1-0.204,540,,f,,,,,,,,,,,,,key,f,16.6673267326735,720,446,./1_3_Stimuli/C_ambi40.png,朋友,Word,自我,Mismatch,f,true,Formal,,
,,,,,psychophysics,268,757375,0.0-9.0-0.1-0.205,619,,j,,,,,,,,,,,,,key,j,16.6650943396226,720,446,./1_3_Stimuli/C_ambi40.png,自我,Word,自我,Match,j,true,Formal,,
,,,,,psychophysics,269,759120,0.0-9.0-0.1-0.206,581,,f,,,,,,,,,,,,,key,f,16.6650485436893,720,446,./1_3_Stimuli/C_ambi40.png,朋友,Image,自我,Mismatch,f,true,Formal,,
,,,,,psychophysics,270,760970,0.0-9.0-0.1-0.207,697,,j,,,,,,,,,,,,,key,j,16.6672727272729,720,446,./1_3_Stimuli/S_ambi40.png,他人,Word,他人,Match,j,true,Formal,,
,,,,,psychophysics,271,762824,0.0-9.0-0.1-0.208,702,,f,,,,,,,,,,,,,key,f,16.666363636363,720,446,./1_3_Stimuli/S_ambi40.png,自我,Image,他人,Mismatch,f,true,Formal,,
,,,,,psychophysics,272,764662,0.0-9.0-0.1-0.209,682,,j,,,,,,,,,,,,,key,j,16.6669724770649,720,446,./1_3_Stimuli/C_ambi40.png,自我,Image,自我,Match,j,true,Formal,,
,,,,,psychophysics,273,766386,0.0-9.0-0.1-0.210,564,,f,,,,,,,,,,,,,key,f,16.6666666666667,720,446,./1_3_Stimuli/S_ambi40.png,朋友,Word,他人,Mismatch,f,true,Formal,,
,,,,,psychophysics,274,768347,0.0-9.0-0.1-0.211,807,,j,,,,,,,,,,,,,key,j,16.6658119658122,720,446,./1_3_Stimuli/S_ambi40.png,他人,Image,他人,Match,j,true,Formal,,
,,,,,psychophysics,275,770258,0.0-9.0-0.1-0.212,752,,j,,,,,,,,,,,,,key,j,16.6649122807022,720,446,./1_3_Stimuli/C_ambi40.png,自我,Image,自我,Match,j,true,Formal,,
,,,,,psychophysics,276,772019,0.0-9.0-0.1-0.213,604,,f,,,,,,,,,,,,,key,f,16.6673076923079,720,446,./1_3_Stimuli/T_ambi40.png,他人,Word,朋友,Mismatch,f,true,Formal,,
,,,,,psychophysics,277,774212,0.0-9.0-0.1-0.214,1039,,j,,,,,,,,,,,,,key,j,16.6669230769236,720,446,./1_3_Stimuli/S_ambi40.png,他人,Image,他人,Match,j,true,Formal,,
,,,,,psychophysics,278,775991,0.0-9.0-0.1-0.215,598,,f,,,,,,,,,,,,,key,f,16.6660377358488,720,446,./1_3_Stimuli/S_ambi40.png,朋友,Image,他人,Mismatch,f,true,Formal,,
,,,,,psychophysics,279,777807,0.0-9.0-0.1-0.216,662,,j,,,,,,,,,,,,,key,j,16.6666666666667,720,446,./1_3_Stimuli/S_ambi40.png,他人,Word,他人,Match,j,true,Formal,,
,,,,,psychophysics,280,779698,0.0-9.0-0.1-0.217,727,,j,,,,,,,,,,,,,key,j,16.6642857142859,720,446,./1_3_Stimuli/T_ambi40.png,朋友,Image,朋友,Match,j,true,Formal,,
,,,,,psychophysics,281,781524,0.0-9.0-0.1-0.218,675,,f,,,,,,,,,,,,,key,f,16.6669724770638,720,446,./1_3_Stimuli/S_ambi40.png,自我,Word,他人,Mismatch,f,true,Formal,,
,,,,,psychophysics,282,783272,0.0-9.0-0.1-0.219,597,,j,,,,,,,,,,,,,key,j,16.6660194174766,720,446,./1_3_Stimuli/C_ambi40.png,自我,Word,自我,Match,j,true,Formal,,
,,,,,psychophysics,283,784905,0.0-9.0-0.1-0.220,483,,j,,,,,,,,,,,,,key,j,16.6677083333331,720,446,./1_3_Stimuli/C_ambi40.png,自我,Image,自我,Match,j,true,Formal,,
,,,,,psychophysics,284,786751,0.0-9.0-0.1-0.221,694,,j,,,,,,,,,,,,,key,j,16.6651376146789,720,446,./1_3_Stimuli/T_ambi40.png,朋友,Word,朋友,Match,j,true,Formal,,
,,,,,psychophysics,285,788518,0.0-9.0-0.1-0.222,612,,f,,,,,,,,,,,,,key,f,16.6657142857134,720,446,./1_3_Stimuli/T_ambi40.png,他人,Word,朋友,Mismatch,f,true,Formal,,
,,,,,psychophysics,286,790591,0.0-9.0-0.1-0.223,918,,f,,,,,,,,,,,,,key,f,16.6669354838706,720,446,./1_3_Stimuli/S_ambi40.png,自我,Image,他人,Mismatch,f,true,Formal,,
,,,,,psychophysics,287,792461,0.0-9.0-0.1-0.224,714,,f,,,,,,,,,,,,,key,f,16.6657657657649,720,446,./1_3_Stimuli/C_ambi40.png,他人,Word,自我,Mismatch,f,true,Formal,,
,,,,,psychophysics,288,794307,0.0-9.0-0.1-0.225,685,,f,,,,,,,,,,,,,key,f,16.6654545454541,720,446,./1_3_Stimuli/T_ambi40.png,自我,Image,朋友,Mismatch,f,true,Formal,,
,,,,,psychophysics,289,796096,0.0-9.0-0.1-0.226,627,,f,,,,,,,,,,,,,key,f,16.666981132075,720,446,./1_3_Stimuli/C_ambi40.png,他人,Image,自我,Mismatch,f,true,Formal,,
,,,,,psychophysics,290,798282,0.0-9.0-0.1-0.227,1033,,f,,,,,,,,,,,,,key,f,16.6676923076927,720,446,./1_3_Stimuli/S_ambi40.png,朋友,Word,他人,Mismatch,f,true,Formal,,
,,,,,psychophysics,291,799902,0.0-9.0-0.1-0.228,467,,j,,,,,,,,,,,,,key,j,16.6666666666667,720,446,./1_3_Stimuli/C_ambi40.png,自我,Image,自我,Match,j,true,Formal,,
,,,,,psychophysics,292,801765,0.0-9.0-0.1-0.229,709,,f,,,,,,,,,,,,,key,f,16.6666666666667,720,446,./1_3_Stimuli/C_ambi40.png,朋友,Word,自我,Mismatch,f,true,Formal,,
,,,,,psychophysics,293,803898,0.0-9.0-0.1-0.230,976,,f,,,,,,,,,,,,,key,f,16.6669291338579,720,446,./1_3_Stimuli/C_ambi40.png,朋友,Image,自我,Mismatch,f,true,Formal,,
,,,,,psychophysics,294,805668,0.0-9.0-0.1-0.231,612,,j,,,,,,,,,,,,,key,j,16.6666666666667,720,446,./1_3_Stimuli/S_ambi40.png,他人,Image,他人,Match,j,true,Formal,,
,,,,,psychophysics,295,807511,0.0-9.0-0.1-0.232,688,,f,,,,,,,,,,,,,key,f,16.6669724770638,720,446,./1_3_Stimuli/T_ambi40.png,他人,Image,朋友,Mismatch,f,true,Formal,,
,,,,,psychophysics,296,809289,0.0-9.0-0.1-0.233,627,,j,,,,,,,,,,,,,key,j,16.6666666666667,720,446,./1_3_Stimuli/T_ambi40.png,朋友,Image,朋友,Match,j,true,Formal,,
,,,,,psychophysics,297,811096,0.0-9.0-0.1-0.234,656,,f,,,,,,,,,,,,,key,f,16.6663551401874,720,446,./1_3_Stimuli/T_ambi40.png,自我,Word,朋友,Mismatch,f,true,Formal,,
,,,,,psychophysics,298,812931,0.0-9.0-0.1-0.235,680,,j,,,,,,,,,,,,,key,j,16.6660550458713,720,446,./1_3_Stimuli/S_ambi40.png,他人,Word,他人,Match,j,true,Formal,,
,,,,,psychophysics,299,814649,0.0-9.0-0.1-0.236,560,,j,,,,,,,,,,,,,key,j,16.6647058823534,720,446,./1_3_Stimuli/S_ambi40.png,他人,Image,他人,Match,j,true,Formal,,
,,,,,psychophysics,300,816370,0.0-9.0-0.1-0.237,564,,j,,,,,,,,,,,,,key,j,16.66568627451,720,446,./1_3_Stimuli/C_ambi40.png,自我,Word,自我,Match,j,true,Formal,,
,,,,,psychophysics,301,818162,0.0-9.0-0.1-0.238,639,,f,,,,,,,,,,,,,key,f,16.666981132075,720,446,./1_3_Stimuli/S_ambi40.png,朋友,Image,他人,Mismatch,f,true,Formal,,
,,,,,psychophysics,302,819992,0.0-9.0-0.1-0.239,674,,j,,,,,,,,,,,,,key,j,16.6660550458724,720,446,./1_3_Stimuli/T_ambi40.png,朋友,Word,朋友,Match,j,true,Formal,,
,,,,,html-keyboard-response,303,823930,0.0-9.0-1.1,3935,<style>.context{color:white; font-size: 35px; line-height:40px}</style>                        <div><p class='context'>您正确回答了99% 的试次。</p><p class='context'>您的平均反应时为679毫秒。</p><p> <div style = 'color: green'><按任意键进入休息></div></p>, ,,,,,,,,,,,,,,,,,,,,,,,,,,,
,,,,,html-button-response,304,918631,0.0-9.0-2.1,94696,"
                  <p>您当前还剩余4组实验</p>
                  <p>现在是休息时间，当您结束休息后，您可以点击 结束休息 按钮 继续</p>
                  <p>建议休息时间还剩余<span id=""iii"">60</span>秒</p>",0,,,,,,,,,,,,,,,,,,,,,,,,,,,
,,,,,psychophysics,305,920602,0.0-9.0-0.2-0.240,815,,f,,,,,,,,,,,,,key,f,16.6658119658122,720,446,./1_3_Stimuli/S_ambi40.png,朋友,Image,他人,Mismatch,f,true,Formal,,
,,,,,psychophysics,306,922247,0.0-9.0-0.2-0.241,493,,j,,,,,,,,,,,,,key,j,16.6673469387746,720,446,./1_3_Stimuli/C_ambi40.png,自我,Image,自我,Match,j,true,Formal,,
,,,,,psychophysics,307,923998,0.0-9.0-0.2-0.242,596,,f,,,,,,,,,,,,,key,f,16.6669902912617,720,446,./1_3_Stimuli/T_ambi40.png,自我,Word,朋友,Mismatch,f,true,Formal,,
,,,,,psychophysics,308,925717,0.0-9.0-0.2-0.243,563,,j,,,,,,,,,,,,,key,j,16.6666666666667,720,446,./1_3_Stimuli/S_ambi40.png,他人,Word,他人,Match,j,true,Formal,,
,,,,,psychophysics,309,927486,0.0-9.0-0.2-0.244,615,,f,,,,,,,,,,,,,key,f,16.6663461538466,720,446,./1_3_Stimuli/S_ambi40.png,自我,Image,他人,Mismatch,f,true,Formal,,
,,,,,psychophysics,310,929272,0.0-9.0-0.2-0.245,634,,j,,,,,,,,,,,,,key,j,16.6650943396226,720,446,./1_3_Stimuli/T_ambi40.png,朋友,Word,朋友,Match,j,true,Formal,,
,,,,,psychophysics,311,931015,0.0-9.0-0.2-0.246,589,,j,,,,,,,,,,,,,key,j,16.6660194174755,720,446,./1_3_Stimuli/C_ambi40.png,自我,Word,自我,Match,j,true,Formal,,
,,,,,psychophysics,312,933220,0.0-9.0-0.2-0.247,1049,,j,,,,,,,,,,,,,key,j,16.6610687022899,720,446,./1_3_Stimuli/T_ambi40.png,朋友,Word,朋友,Match,j,true,Formal,,
,,,,,psychophysics,313,934903,0.0-9.0-0.2-0.248,498,,j,,,,,,,,,,,,,key,j,16.6676767676765,720,446,./1_3_Stimuli/S_ambi40.png,他人,Image,他人,Match,j,true,Formal,,
,,,,,psychophysics,314,936654,0.0-9.0-0.2-0.249,599,,f,,,,,,,,,,,,,key,f,16.6660194174755,720,446,./1_3_Stimuli/S_ambi40.png,自我,Word,他人,Mismatch,f,true,Formal,,
,,,,,psychophysics,315,938488,0.0-9.0-0.2-0.250,683,,f,,,,,,,,,,,,,key,f,16.665740740741,720,446,./1_3_Stimuli/C_ambi40.png,他人,Image,自我,Mismatch,f,true,Formal,,
,,,,,psychophysics,316,940102,0.0-9.0-0.2-0.251,452,,j,,,,,,,,,,,,,key,j,16.6684210526316,720,446,./1_3_Stimuli/T_ambi40.png,朋友,Image,朋友,Match,j,true,Formal,,
,,,,,psychophysics,317,941978,0.0-9.0-0.2-0.252,723,,j,,,,,,,,,,,,,key,j,16.665765765766,720,446,./1_3_Stimuli/T_ambi40.png,朋友,Image,朋友,Match,j,true,Formal,,
,,,,,psychophysics,318,943757,0.0-9.0-0.2-0.253,620,,f,,,,,,,,,,,,,key,f,16.6632075471703,720,446,./1_3_Stimuli/T_ambi40.png,自我,Image,朋友,Mismatch,f,true,Formal,,
,,,,,psychophysics,319,945479,0.0-9.0-0.2-0.254,558,,f,,,,,,,,,,,,,key,f,16.6705882352932,720,446,./1_3_Stimuli/C_ambi40.png,他人,Word,自我,Mismatch,f,true,Formal,,
,,,,,psychophysics,320,947395,0.0-9.0-0.2-0.255,757,,f,,,,,,,,,,,,,key,f,16.6666666666667,720,446,./1_3_Stimuli/T_ambi40.png,他人,Word,朋友,Mismatch,f,true,Formal,,
,,,,,psychophysics,321,949176,0.0-9.0-0.2-0.256,628,,j,,,,,,,,,,,,,key,j,16.6660377358488,720,446,./1_3_Stimuli/C_ambi40.png,自我,Word,自我,Match,j,true,Formal,,
,,,,,psychophysics,322,950727,0.0-9.0-0.2-0.257,394,,j,,,,,,,,,,,,,key,j,16.6663043478253,720,446,./1_3_Stimuli/C_ambi40.png,自我,Image,自我,Match,j,true,Formal,,
,,,,,psychophysics,323,952825,0.0-9.0-0.2-0.258,943,,f,,,,,,,,,,,,,key,f,16.668,720,446,./1_3_Stimuli/C_ambi40.png,朋友,Image,自我,Mismatch,f,true,Formal,,
,,,,,psychophysics,324,954722,0.0-9.0-0.2-0.259,742,,f,,,,,,,,,,,,,key,f,16.6646017699113,720,446,./1_3_Stimuli/T_ambi40.png,他人,Image,朋友,Mismatch,f,true,Formal,,
,,,,,psychophysics,325,956705,0.0-9.0-0.2-0.260,823,,f,,,,,,,,,,,,,key,f,16.6666666666667,720,446,./1_3_Stimuli/S_ambi40.png,朋友,Word,他人,Mismatch,f,true,Formal,,
,,,,,psychophysics,326,958673,0.0-9.0-0.2-0.261,811,,f,,,,,,,,,,,,,key,f,16.6649572649567,720,446,./1_3_Stimuli/C_ambi40.png,朋友,Word,自我,Mismatch,f,true,Formal,,
,,,,,psychophysics,327,960587,0.0-9.0-0.2-0.262,758,,j,,,,,,,,,,,,,key,j,16.6663716814153,720,446,./1_3_Stimuli/S_ambi40.png,他人,Image,他人,Match,j,true,Formal,,
,,,,,psychophysics,328,962314,0.0-9.0-0.2-0.263,559,,j,,,,,,,,,,,,,key,j,16.6666666666667,720,446,./1_3_Stimuli/S_ambi40.png,他人,Word,他人,Match,j,true,Formal,,
,,,,,psychophysics,329,964088,0.0-9.0-0.2-0.264,621,,f,,,,,,,,,,,,,key,f,16.6660377358499,720,446,./1_3_Stimuli/C_ambi40.png,他人,Image,自我,Mismatch,f,true,Formal,,
,,,,,psychophysics,330,965924,0.0-9.0-0.2-0.265,674,,f,,,,,,,,,,,,,key,f,16.6669724770638,720,446,./1_3_Stimuli/S_ambi40.png,朋友,Image,他人,Mismatch,f,true,Formal,,
,,,,,psychophysics,331,967745,0.0-9.0-0.2-0.266,664,,f,,,,,,,,,,,,,key,f,16.6666666666667,720,446,./1_3_Stimuli/S_ambi40.png,自我,Word,他人,Mismatch,f,true,Formal,,
,,,,,psychophysics,332,969585,0.0-9.0-0.2-0.267,681,,f,,,,,,,,,,,,,key,f,16.6669724770638,720,446,./1_3_Stimuli/C_ambi40.png,朋友,Image,自我,Mismatch,f,true,Formal,,
,,,,,psychophysics,333,971356,0.0-9.0-0.2-0.268,619,,f,,,,,,,,,,,,,key,f,16.6657142857145,720,446,./1_3_Stimuli/C_ambi40.png,朋友,Word,自我,Mismatch,f,true,Formal,,
,,,,,psychophysics,334,973219,0.0-9.0-0.2-0.269,711,,j,,,,,,,,,,,,,key,j,16.6654545454541,720,446,./1_3_Stimuli/S_ambi40.png,他人,Word,他人,Match,j,true,Formal,,
,,,,,psychophysics,335,975241,0.0-9.0-0.2-0.270,870,,f,,,,,,,,,,,,,key,f,16.6658333333326,720,446,./1_3_Stimuli/T_ambi40.png,他人,Image,朋友,Mismatch,f,true,Formal,,
,,,,,psychophysics,336,977036,0.0-9.0-0.2-0.271,639,,f,,,,,,,,,,,,,key,f,16.6650943396226,720,446,./1_3_Stimuli/T_ambi40.png,自我,Image,朋友,Mismatch,f,true,Formal,,
,,,,,psychophysics,337,978767,0.0-9.0-0.2-0.272,578,,j,,,,,,,,,,,,,key,j,16.6666666666667,720,446,./1_3_Stimuli/C_ambi40.png,自我,Word,自我,Match,j,true,Formal,,
,,,,,psychophysics,338,980426,0.0-9.0-0.2-0.273,504,,j,,,,,,,,,,,,,key,j,16.6666666666667,720,446,./1_3_Stimuli/C_ambi40.png,自我,Word,自我,Match,j,true,Formal,,
,,,,,psychophysics,339,982133,0.0-9.0-0.2-0.274,546,,j,,,,,,,,,,,,,key,j,16.6673267326735,720,446,./1_3_Stimuli/T_ambi40.png,朋友,Image,朋友,Match,j,true,Formal,,
,,,,,psychophysics,340,983943,0.0-9.0-0.2-0.275,654,,j,,,,,,,,,,,,,key,j,16.6675925925935,720,446,./1_3_Stimuli/S_ambi40.png,他人,Image,他人,Match,j,true,Formal,,
,,,,,psychophysics,341,985775,0.0-9.0-0.2-0.276,674,,f,,,,,,,,,,,,,key,f,16.6651376146789,720,446,./1_3_Stimuli/C_ambi40.png,他人,Word,自我,Mismatch,f,true,Formal,,
,,,,,psychophysics,342,987523,0.0-9.0-0.2-0.277,589,,j,,,,,,,,,,,,,key,j,16.6673076923079,720,446,./1_3_Stimuli/T_ambi40.png,朋友,Image,朋友,Match,j,true,Formal,,
,,,,,psychophysics,343,989761,0.0-9.0-0.2-0.278,1084,,f,,,,,,,,,,,,,key,f,16.6661654135345,720,446,./1_3_Stimuli/T_ambi40.png,他人,Word,朋友,Mismatch,f,true,Formal,,
,,,,,psychophysics,344,991410,0.0-9.0-0.2-0.279,491,,j,,,,,,,,,,,,,key,j,16.6653061224497,720,446,./1_3_Stimuli/C_ambi40.png,自我,Image,自我,Match,j,true,Formal,,
,,,,,psychophysics,345,993322,0.0-9.0-0.2-0.280,751,,j,,,,,,,,,,,,,key,j,16.6666666666667,720,446,./1_3_Stimuli/S_ambi40.png,他人,Word,他人,Match,j,true,Formal,,
,,,,,psychophysics,346,995444,0.0-9.0-0.2-0.281,965,,j,,,,,,,,,,,,,key,j,16.6658730158732,720,446,./1_3_Stimuli/T_ambi40.png,朋友,Word,朋友,Match,j,true,Formal,,
,,,,,psychophysics,347,997281,0.0-9.0-0.2-0.282,679,,f,,,,,,,,,,,,,key,f,16.6660550458713,720,446,./1_3_Stimuli/T_ambi40.png,自我,Word,朋友,Mismatch,f,true,Formal,,
,,,,,psychophysics,348,999059,0.0-9.0-0.2-0.283,621,,j,,,,,,,,,,,,,key,j,16.6660377358488,720,446,./1_3_Stimuli/T_ambi40.png,朋友,Word,朋友,Match,j,true,Formal,,
,,,,,psychophysics,349,1000912,0.0-9.0-0.2-0.284,690,,f,,,,,,,,,,,,,key,f,16.6645454545452,720,446,./1_3_Stimuli/S_ambi40.png,朋友,Word,他人,Mismatch,f,true,Formal,,
,,,,,psychophysics,350,1003015,0.0-9.0-0.2-0.285,949,,f,,,,,,,,,,,,,key,f,16.6663999999994,720,446,./1_3_Stimuli/S_ambi40.png,自我,Image,他人,Mismatch,f,true,Formal,,
,,,,,psychophysics,351,1004632,0.0-9.0-0.2-0.286,460,,j,,,,,,,,,,,,,key,j,16.6666666666667,720,446,./1_3_Stimuli/C_ambi40.png,自我,Image,自我,Match,j,true,Formal,,
,,,,,psychophysics,352,1006290,0.0-9.0-0.2-0.287,506,,j,,,,,,,,,,,,,key,j,16.6666666666667,720,446,./1_3_Stimuli/S_ambi40.png,他人,Image,他人,Match,j,true,Formal,,
,,,,,psychophysics,353,1008084,0.0-9.0-0.2-0.288,639,,j,,,,,,,,,,,,,key,j,16.6669811320761,720,446,./1_3_Stimuli/S_ambi40.png,他人,Word,他人,Match,j,true,Formal,,
,,,,,psychophysics,354,1009785,0.0-9.0-0.2-0.289,549,,f,,,,,,,,,,,,,key,f,16.6663366336638,720,446,./1_3_Stimuli/C_ambi40.png,他人,Word,自我,Mismatch,f,true,Formal,,
,,,,,psychophysics,355,1011720,0.0-9.0-0.2-0.290,782,,j,,,,,,,,,,,,,key,j,16.6666666666667,720,446,./1_3_Stimuli/T_ambi40.png,朋友,Word,朋友,Match,j,true,Formal,,
,,,,,psychophysics,356,1013435,0.0-9.0-0.2-0.291,563,,f,,,,,,,,,,,,,key,f,16.6673267326735,720,446,./1_3_Stimuli/T_ambi40.png,自我,Image,朋友,Mismatch,f,true,Formal,,
,,,,,psychophysics,357,1015497,0.0-9.0-0.2-0.292,908,,f,,,,,,,,,,,,,key,f,16.6655737704924,720,446,./1_3_Stimuli/C_ambi40.png,朋友,Word,自我,Mismatch,f,true,Formal,,
,,,,,psychophysics,358,1017353,0.0-9.0-0.2-0.293,698,,j,,,,,,,,,,,,,key,j,16.6681818181818,720,446,./1_3_Stimuli/S_ambi40.png,他人,Image,他人,Match,j,true,Formal,,
,,,,,psychophysics,359,1019098,0.0-9.0-0.2-0.294,593,,f,,,,,,,,,,,,,key,f,16.6669902912617,720,446,./1_3_Stimuli/T_ambi40.png,自我,Word,朋友,Mismatch,f,true,Formal,,
,,,,,psychophysics,360,1020780,0.0-9.0-0.2-0.295,526,,j,,,,,,,,,,,,,key,j,16.6680000000005,720,446,./1_3_Stimuli/C_ambi40.png,自我,Word,自我,Match,j,true,Formal,,
,,,,,psychophysics,361,1022661,0.0-9.0-0.2-0.296,728,,j,,,,,,,,,,,,,key,j,16.6651785714286,720,446,./1_3_Stimuli/T_ambi40.png,朋友,Word,朋友,Match,j,true,Formal,,
,,,,,psychophysics,362,1024410,0.0-9.0-0.2-0.297,589,,f,,,,,,,,,,,,,key,f,16.6634615384615,720,446,./1_3_Stimuli/S_ambi40.png,朋友,Word,他人,Mismatch,f,true,Formal,,
,,,,,psychophysics,363,1026281,0.0-9.0-0.2-0.298,713,,j,,,,,,,,,,,,,key,j,16.6657657657649,720,446,./1_3_Stimuli/S_ambi40.png,他人,Word,他人,Match,j,true,Formal,,
,,,,,psychophysics,364,1027881,0.0-9.0-0.2-0.299,445,,j,,,,,,,,,,,,,key,j,16.6694736842103,720,446,./1_3_Stimuli/C_ambi40.png,自我,Image,自我,Match,j,true,Formal,,
,,,,,psychophysics,365,1029527,0.0-9.0-0.2-0.300,493,,j,,,,,,,,,,,,,key,j,16.6680412371127,720,446,./1_3_Stimuli/T_ambi40.png,朋友,Image,朋友,Match,j,true,Formal,,
,,,,,psychophysics,366,1031279,0.0-9.0-0.2-0.301,591,,f,,,,,,,,,,,,,key,f,16.6663461538455,720,446,./1_3_Stimuli/T_ambi40.png,他人,Word,朋友,Mismatch,f,true,Formal,,
,,,,,psychophysics,367,1033529,0.0-9.0-0.2-0.302,1091,,f,,,,,,,,,,,,,key,f,16.6656716417907,720,446,./1_3_Stimuli/C_ambi40.png,朋友,Image,自我,Mismatch,f,true,Formal,,
,,,,,psychophysics,368,1035181,0.0-9.0-0.2-0.303,499,,j,,,,,,,,,,,,,key,j,16.6673469387746,720,446,./1_3_Stimuli/C_ambi40.png,自我,Image,自我,Match,j,true,Formal,,
,,,,,psychophysics,369,1036895,0.0-9.0-0.2-0.304,557,,f,,,,,,,,,,,,,key,f,16.6666666666667,720,446,./1_3_Stimuli/C_ambi40.png,他人,Image,自我,Mismatch,f,true,Formal,,
,,,,,psychophysics,370,1038609,0.0-9.0-0.2-0.305,555,,f,,,,,,,,,,,,,key,f,16.6666666666667,720,446,./1_3_Stimuli/T_ambi40.png,他人,Image,朋友,Mismatch,f,true,Formal,,
,,,,,psychophysics,371,1040333,0.0-9.0-0.2-0.306,563,,j,,,,,,,,,,,,,key,j,16.66568627451,720,446,./1_3_Stimuli/S_ambi40.png,他人,Image,他人,Match,j,true,Formal,,
,,,,,psychophysics,372,1042341,0.0-9.0-0.2-0.307,854,,j,,,,,,,,,,,,,key,j,16.6666666666667,720,446,./1_3_Stimuli/C_ambi40.png,自我,Word,自我,Match,j,true,Formal,,
,,,,,psychophysics,373,1044191,0.0-9.0-0.2-0.308,687,,f,,,,,,,,,,,,,key,f,16.666363636363,720,446,./1_3_Stimuli/S_ambi40.png,自我,Word,他人,Mismatch,f,true,Formal,,
,,,,,psychophysics,374,1046089,0.0-9.0-0.2-0.309,748,,f,,,,,,,,,,,,,key,f,16.6663716814153,720,446,./1_3_Stimuli/S_ambi40.png,朋友,Image,他人,Mismatch,f,true,Formal,,
,,,,,psychophysics,375,1048134,0.0-9.0-0.2-0.310,881,,f,,,,,,,,,,,,,key,f,16.6694214876023,720,446,./1_3_Stimuli/S_ambi40.png,自我,Image,他人,Mismatch,f,true,Formal,,
,,,,,psychophysics,376,1050056,0.0-9.0-0.2-0.311,755,,j,,,,,,,,,,,,,key,j,16.6666666666667,720,446,./1_3_Stimuli/T_ambi40.png,朋友,Image,朋友,Match,j,true,Formal,,
,,,,,psychophysics,377,1051692,0.0-9.0-0.2-0.312,471,,j,,,,,,,,,,,,,key,j,16.6659793814419,720,446,./1_3_Stimuli/S_ambi40.png,他人,Image,他人,Match,j,true,Formal,,
,,,,,psychophysics,378,1053585,0.0-9.0-0.2-0.313,733,,f,,,,,,,,,,,,,key,f,16.6660714285723,720,446,./1_3_Stimuli/C_ambi40.png,朋友,Image,自我,Mismatch,f,true,Formal,,
,,,,,psychophysics,379,1055605,0.0-9.0-0.2-0.314,868,,j,,,,,,,,,,,,,key,j,16.6633333333322,720,446,./1_3_Stimuli/S_ambi40.png,他人,Word,他人,Match,j,true,Formal,,
,,,,,psychophysics,380,1057585,0.0-9.0-0.2-0.315,819,,f,,,,,,,,,,,,,key,f,16.6658119658112,720,446,./1_3_Stimuli/S_ambi40.png,自我,Image,他人,Mismatch,f,true,Formal,,
,,,,,psychophysics,381,1059366,0.0-9.0-0.2-0.316,629,,j,,,,,,,,,,,,,key,j,16.6676190476177,720,446,./1_3_Stimuli/C_ambi40.png,自我,Image,自我,Match,j,true,Formal,,
,,,,,psychophysics,382,1061282,0.0-9.0-0.2-0.317,762,,j,,,,,,,,,,,,,key,j,16.6654867256633,720,446,./1_3_Stimuli/T_ambi40.png,朋友,Word,朋友,Match,j,true,Formal,,
,,,,,psychophysics,383,1062869,0.0-9.0-0.2-0.318,432,,j,,,,,,,,,,,,,key,j,16.6670212765953,720,446,./1_3_Stimuli/S_ambi40.png,他人,Word,他人,Match,j,true,Formal,,
,,,,,psychophysics,384,1064605,0.0-9.0-0.2-0.319,584,,f,,,,,,,,,,,,,key,f,16.6640776699043,720,446,./1_3_Stimuli/T_ambi40.png,自我,Image,朋友,Mismatch,f,true,Formal,,
,,,,,psychophysics,385,1066248,0.0-9.0-0.2-0.320,492,,j,,,,,,,,,,,,,key,j,16.6649484536082,720,446,./1_3_Stimuli/T_ambi40.png,朋友,Image,朋友,Match,j,true,Formal,,
,,,,,psychophysics,386,1067991,0.0-9.0-0.2-0.321,587,,f,,,,,,,,,,,,,key,f,16.6653846153842,720,446,./1_3_Stimuli/C_ambi40.png,他人,Word,自我,Mismatch,f,true,Formal,,
,,,,,psychophysics,387,1069716,0.0-9.0-0.2-0.322,572,,f,,,,,,,,,,,,,key,f,16.6656862745089,720,446,./1_3_Stimuli/C_ambi40.png,他人,Image,自我,Mismatch,f,true,Formal,,
,,,,,psychophysics,388,1071460,0.0-9.0-0.2-0.323,590,,j,,,,,,,,,,,,,key,j,16.6660194174744,720,446,./1_3_Stimuli/T_ambi40.png,朋友,Word,朋友,Match,j,true,Formal,,
,,,,,psychophysics,389,1073134,0.0-9.0-0.2-0.324,514,,j,,,,,,,,,,,,,key,j,16.6636363636359,720,446,./1_3_Stimuli/C_ambi40.png,自我,Word,自我,Match,j,true,Formal,,
,,,,,psychophysics,390,1074807,0.0-9.0-0.2-0.325,521,,j,,,,,,,,,,,,,key,j,16.6660000000009,720,446,./1_3_Stimuli/S_ambi40.png,他人,Image,他人,Match,j,true,Formal,,
,,,,,psychophysics,391,1076575,0.0-9.0-0.2-0.326,605,,f,,,,,,,,,,,,,key,f,16.6657142857156,720,446,./1_3_Stimuli/C_ambi40.png,朋友,Word,自我,Mismatch,f,true,Formal,,
,,,,,psychophysics,392,1078397,0.0-9.0-0.2-0.327,662,,f,,,,,,,,,,,,,key,f,16.6657407407399,720,446,./1_3_Stimuli/S_ambi40.png,朋友,Image,他人,Mismatch,f,true,Formal,,
,,,,,psychophysics,393,1080341,0.0-9.0-0.2-0.328,791,,f,,,,,,,,,,,,,key,f,16.6669565217387,720,446,./1_3_Stimuli/T_ambi40.png,自我,Word,朋友,Mismatch,f,true,Formal,,
,,,,,psychophysics,394,1082029,0.0-9.0-0.2-0.329,525,,j,,,,,,,,,,,,,key,j,16.6660000000009,720,446,./1_3_Stimuli/C_ambi40.png,自我,Word,自我,Match,j,true,Formal,,
,,,,,psychophysics,395,1083752,0.0-9.0-0.2-0.330,568,,f,,,,,,,,,,,,,key,f,16.6676470588244,720,446,./1_3_Stimuli/S_ambi40.png,朋友,Word,他人,Mismatch,f,true,Formal,,
,,,,,psychophysics,396,1086245,0.0-9.0-0.2-0.331,1341,,f,,,,,,,,,,,,,key,f,16.6668918918916,720,446,./1_3_Stimuli/T_ambi40.png,他人,Word,朋友,Mismatch,f,true,Formal,,
,,,,,psychophysics,397,1088121,0.0-9.0-0.2-0.332,694,,f,,,,,,,,,,,,,key,f,16.6660714285702,720,446,./1_3_Stimuli/S_ambi40.png,自我,Word,他人,Mismatch,f,true,Formal,,
,,,,,psychophysics,398,1089941,0.0-9.0-0.2-0.333,656,,f,,,,,,,,,,,,,key,f,16.6666666666667,720,446,./1_3_Stimuli/T_ambi40.png,他人,Image,朋友,Mismatch,f,true,Formal,,
,,,,,psychophysics,399,1091681,0.0-9.0-0.2-0.334,583,,j,,,,,,,,,,,,,key,j,16.6669902912617,720,446,./1_3_Stimuli/C_ambi40.png,自我,Image,自我,Match,j,true,Formal,,
,,,,,psychophysics,400,1093951,0.0-9.0-0.2-0.335,1114,,j,,,,,,,,,,,,,key,j,16.6674074074081,720,446,./1_3_Stimuli/T_ambi40.png,朋友,Image,朋友,Match,j,true,Formal,,
,,,,,psychophysics,401,1095817,0.0-9.0-0.2-0.336,714,,f,,,,,,,,,,,,,key,f,16.6663636363641,720,446,./1_3_Stimuli/C_ambi40.png,他人,Image,自我,Mismatch,f,true,Formal,,
,,,,,psychophysics,402,1097551,0.0-9.0-0.2-0.337,580,,j,,,,,,,,,,,,,key,j,16.6669902912617,720,446,./1_3_Stimuli/C_ambi40.png,自我,Word,自我,Match,j,true,Formal,,
,,,,,psychophysics,403,1099462,0.0-9.0-0.2-0.338,759,,f,,,,,,,,,,,,,key,f,16.6663716814163,720,446,./1_3_Stimuli/S_ambi40.png,自我,Word,他人,Mismatch,f,true,Formal,,
,,,,,psychophysics,404,1101218,0.0-9.0-0.2-0.339,597,,f,,,,,,,,,,,,,key,f,16.6663461538466,720,446,./1_3_Stimuli/T_ambi40.png,自我,Image,朋友,Mismatch,f,true,Formal,,
,,,,,psychophysics,405,1103033,0.0-9.0-0.2-0.340,662,,j,,,,,,,,,,,,,key,j,16.6672897196275,720,446,./1_3_Stimuli/S_ambi40.png,他人,Word,他人,Match,j,true,Formal,,
,,,,,psychophysics,406,1104812,0.0-9.0-0.2-0.341,627,,j,,,,,,,,,,,,,key,j,16.6650943396226,720,446,./1_3_Stimuli/T_ambi40.png,朋友,Word,朋友,Match,j,true,Formal,,
,,,,,psychophysics,407,1106688,0.0-9.0-0.2-0.342,718,,f,,,,,,,,,,,,,key,f,16.6660714285723,720,446,./1_3_Stimuli/T_ambi40.png,他人,Word,朋友,Mismatch,f,true,Formal,,
,,,,,psychophysics,408,1108610,0.0-9.0-0.2-0.343,757,,j,,,,,,,,,,,,,key,j,16.6649122807022,720,446,./1_3_Stimuli/S_ambi40.png,他人,Word,他人,Match,j,true,Formal,,
,,,,,psychophysics,409,1110540,0.0-9.0-0.2-0.344,776,,f,,,,,,,,,,,,,key,f,16.6626086956518,720,446,./1_3_Stimuli/C_ambi40.png,朋友,Word,自我,Mismatch,f,true,Formal,,
,,,,,psychophysics,410,1112205,0.0-9.0-0.2-0.345,502,,j,,,,,,,,,,,,,key,j,16.6656565656556,720,446,./1_3_Stimuli/C_ambi40.png,自我,Image,自我,Match,j,true,Formal,,
,,,,,psychophysics,411,1113975,0.0-9.0-0.2-0.346,618,,j,,,,,,,,,,,,,key,j,16.6657142857156,720,446,./1_3_Stimuli/C_ambi40.png,自我,Image,自我,Match,j,true,Formal,,
,,,,,psychophysics,412,1115860,0.0-9.0-0.2-0.347,727,,f,,,,,,,,,,,,,key,f,16.6642857142849,720,446,./1_3_Stimuli/C_ambi40.png,朋友,Image,自我,Mismatch,f,true,Formal,,
,,,,,psychophysics,413,1118031,0.0-9.0-0.2-0.348,1015,,f,,,,,,,,,,,,,key,f,16.6674418604658,720,446,./1_3_Stimuli/C_ambi40.png,他人,Word,自我,Mismatch,f,true,Formal,,
,,,,,psychophysics,414,1119834,0.0-9.0-0.2-0.349,652,,f,,,,,,,,,,,,,key,f,16.6663551401874,720,446,./1_3_Stimuli/T_ambi40.png,自我,Word,朋友,Mismatch,f,true,Formal,,
,,,,,psychophysics,415,1121676,0.0-9.0-0.2-0.350,682,,j,,,,,,,,,,,,,key,j,16.6651376146789,720,446,./1_3_Stimuli/T_ambi40.png,朋友,Image,朋友,Match,j,true,Formal,,
,,,,,psychophysics,416,1123297,0.0-9.0-0.2-0.351,470,,j,,,,,,,,,,,,,key,j,16.6697916666647,720,446,./1_3_Stimuli/S_ambi40.png,他人,Image,他人,Match,j,true,Formal,,
,,,,,psychophysics,417,1125007,0.0-9.0-0.2-0.352,553,,f,,,,,,,,,,,,,key,f,16.6656862745112,720,446,./1_3_Stimuli/S_ambi40.png,自我,Image,他人,Mismatch,f,true,Formal,,
,,,,,psychophysics,418,1126826,0.0-9.0-0.2-0.353,662,,f,,,,,,,,,,,,,key,f,16.6666666666667,720,446,./1_3_Stimuli/T_ambi40.png,他人,Image,朋友,Mismatch,f,true,Formal,,
,,,,,psychophysics,419,1128935,0.0-9.0-0.2-0.354,957,,f,,,,,,,,,,,,,key,f,16.6664000000004,720,446,./1_3_Stimuli/S_ambi40.png,朋友,Word,他人,Mismatch,f,true,Formal,,
,,,,,psychophysics,420,1130781,0.0-9.0-0.2-0.355,694,,j,,,,,,,,,,,,,key,j,16.6672727272719,720,446,./1_3_Stimuli/T_ambi40.png,朋友,Word,朋友,Match,j,true,Formal,,
,,,,,psychophysics,421,1132622,0.0-9.0-0.2-0.356,669,,f,,,,,,,,,,,,,key,f,16.6672727272719,720,446,./1_3_Stimuli/S_ambi40.png,朋友,Image,他人,Mismatch,f,true,Formal,,
,,,,,psychophysics,422,1134570,0.0-9.0-0.2-0.357,786,,j,,,,,,,,,,,,,key,j,16.6660869565205,720,446,./1_3_Stimuli/T_ambi40.png,朋友,Image,朋友,Match,j,true,Formal,,
,,,,,psychophysics,423,1136212,0.0-9.0-0.2-0.358,491,,j,,,,,,,,,,,,,key,j,16.6670103092779,720,446,./1_3_Stimuli/C_ambi40.png,自我,Word,自我,Match,j,true,Formal,,
,,,,,psychophysics,424,1138569,0.0-9.0-0.2-0.359,1202,,j,,,,,,,,,,,,,key,j,16.6664285714289,720,446,./1_3_Stimuli/S_ambi40.png,他人,Image,他人,Match,j,true,Formal,,
,,,,,html-keyboard-response,425,1142158,0.0-9.0-1.2,3587,<style>.context{color:white; font-size: 35px; line-height:40px}</style>                        <div><p class='context'>您正确回答了100% 的试次。</p><p class='context'>您的平均反应时为676毫秒。</p><p> <div style = 'color: green'><按任意键进入休息></div></p>, ,,,,,,,,,,,,,,,,,,,,,,,,,,,
,,,,,html-button-response,426,1209932,0.0-9.0-2.2,67769,"
                  <p>您当前还剩余3组实验</p>
                  <p>现在是休息时间，当您结束休息后，您可以点击 结束休息 按钮 继续</p>
                  <p>建议休息时间还剩余<span id=""iii"">60</span>秒</p>",0,,,,,,,,,,,,,,,,,,,,,,,,,,,
,,,,,psychophysics,427,1211587,0.0-9.0-0.3-0.360,501,,j,,,,,,,,,,,,,key,j,16.6646464646446,720,446,./1_3_Stimuli/T_ambi40.png,朋友,Image,朋友,Match,j,true,Formal,,
,,,,,psychophysics,428,1213226,0.0-9.0-0.3-0.361,479,,j,,,,,,,,,,,,,key,j,16.6731958762867,720,446,./1_3_Stimuli/S_ambi40.png,他人,Word,他人,Match,j,true,Formal,,
,,,,,psychophysics,429,1214763,0.0-9.0-0.3-0.362,384,,j,,,,,,,,,,,,,key,j,16.661538461538,720,446,./1_3_Stimuli/C_ambi40.png,自我,Image,自我,Match,j,true,Formal,,
,,,,,psychophysics,430,1216462,0.0-9.0-0.3-0.363,542,,f,,,,,,,,,,,,,key,f,16.665,720,446,./1_3_Stimuli/T_ambi40.png,他人,Image,朋友,Mismatch,f,true,Formal,,
,,,,,psychophysics,431,1218128,0.0-9.0-0.3-0.364,509,,j,,,,,,,,,,,,,key,j,16.6686868686888,720,446,./1_3_Stimuli/S_ambi40.png,他人,Image,他人,Match,j,true,Formal,,
,,,,,psychophysics,432,1219921,0.0-9.0-0.3-0.365,634,,f,,,,,,,,,,,,,key,f,16.6644859813071,720,446,./1_3_Stimuli/C_ambi40.png,朋友,Word,自我,Mismatch,f,true,Formal,,
,,,,,psychophysics,433,1221709,0.0-9.0-0.3-0.366,636,,f,,,,,,,,,,,,,key,f,16.6650943396226,720,446,./1_3_Stimuli/C_ambi40.png,朋友,Image,自我,Mismatch,f,true,Formal,,
,,,,,psychophysics,434,1223458,0.0-9.0-0.3-0.367,589,,j,,,,,,,,,,,,,key,j,16.6673076923068,720,446,./1_3_Stimuli/T_ambi40.png,朋友,Word,朋友,Match,j,true,Formal,,
,,,,,psychophysics,435,1225080,0.0-9.0-0.3-0.368,462,,j,,,,,,,,,,,,,key,j,16.6656250000015,720,446,./1_3_Stimuli/C_ambi40.png,自我,Word,自我,Match,j,true,Formal,,
,,,,,psychophysics,436,1226717,0.0-9.0-0.3-0.369,481,,j,,,,,,,,,,,,,key,j,16.6659793814443,720,446,./1_3_Stimuli/S_ambi40.png,他人,Word,他人,Match,j,true,Formal,,
,,,,,psychophysics,437,1228438,0.0-9.0-0.3-0.370,569,,f,,,,,,,,,,,,,key,f,16.6676470588222,720,446,./1_3_Stimuli/S_ambi40.png,朋友,Image,他人,Mismatch,f,true,Formal,,
,,,,,psychophysics,438,1230327,0.0-9.0-0.3-0.371,730,,f,,,,,,,,,,,,,key,f,16.6678571428576,720,446,./1_3_Stimuli/S_ambi40.png,自我,Image,他人,Mismatch,f,true,Formal,,
,,,,,psychophysics,439,1232067,0.0-9.0-0.3-0.372,577,,j,,,,,,,,,,,,,key,j,16.6669902912639,720,446,./1_3_Stimuli/T_ambi40.png,朋友,Word,朋友,Match,j,true,Formal,,
,,,,,psychophysics,440,1233937,0.0-9.0-0.3-0.373,717,,j,,,,,,,,,,,,,key,j,16.6660714285723,720,446,./1_3_Stimuli/T_ambi40.png,朋友,Image,朋友,Match,j,true,Formal,,
,,,,,psychophysics,441,1235698,0.0-9.0-0.3-0.374,600,,f,,,,,,,,,,,,,key,f,16.6653846153842,720,446,./1_3_Stimuli/T_ambi40.png,他人,Word,朋友,Mismatch,f,true,Formal,,
,,,,,psychophysics,442,1237421,0.0-9.0-0.3-0.375,568,,f,,,,,,,,,,,,,key,f,16.6669902912617,720,446,./1_3_Stimuli/C_ambi40.png,他人,Word,自我,Mismatch,f,true,Formal,,
,,,,,psychophysics,443,1239280,0.0-9.0-0.3-0.376,707,,f,,,,,,,,,,,,,key,f,16.6672727272719,720,446,./1_3_Stimuli/T_ambi40.png,自我,Image,朋友,Mismatch,f,true,Formal,,
,,,,,psychophysics,444,1241275,0.0-9.0-0.3-0.377,841,,j,,,,,,,,,,,,,key,j,16.6638655462185,720,446,./1_3_Stimuli/C_ambi40.png,自我,Word,自我,Match,j,true,Formal,,
,,,,,psychophysics,445,1243138,0.0-9.0-0.3-0.378,702,,f,,,,,,,,,,,,,key,f,16.6666666666667,720,446,./1_3_Stimuli/S_ambi40.png,朋友,Word,他人,Mismatch,f,true,Formal,,
,,,,,psychophysics,446,1244954,0.0-9.0-0.3-0.379,655,,f,,,,,,,,,,,,,key,f,16.6666666666667,720,446,./1_3_Stimuli/S_ambi40.png,自我,Word,他人,Mismatch,f,true,Formal,,
,,,,,psychophysics,447,1247113,0.0-9.0-0.3-0.380,1001,,f,,,,,,,,,,,,,key,f,16.6671875000011,720,446,./1_3_Stimuli/C_ambi40.png,他人,Image,自我,Mismatch,f,true,Formal,,
,,,,,psychophysics,448,1248827,0.0-9.0-0.3-0.381,559,,f,,,,,,,,,,,,,key,f,16.6676470588244,720,446,./1_3_Stimuli/S_ambi40.png,他人,Image,他人,Match,j,false,Formal,,
,,,,,psychophysics,449,1250849,0.0-9.0-0.3-0.382,864,,f,,,,,,,,,,,,,key,f,16.6658333333326,720,446,./1_3_Stimuli/T_ambi40.png,自我,Word,朋友,Mismatch,f,true,Formal,,
,,,,,psychophysics,450,1252476,0.0-9.0-0.3-0.383,473,,j,,,,,,,,,,,,,key,j,16.6690721649499,720,446,./1_3_Stimuli/C_ambi40.png,自我,Image,自我,Match,j,true,Formal,,
,,,,,psychophysics,451,1254221,0.0-9.0-0.3-0.384,585,,f,,,,,,,,,,,,,key,f,16.6682692307692,720,446,./1_3_Stimuli/T_ambi40.png,他人,Image,朋友,Mismatch,f,true,Formal,,
,,,,,psychophysics,452,1256161,0.0-9.0-0.3-0.385,775,,f,,,,,,,,,,,,,key,f,16.6660869565205,720,446,./1_3_Stimuli/T_ambi40.png,自我,Word,朋友,Mismatch,f,true,Formal,,
,,,,,psychophysics,453,1258103,0.0-9.0-0.3-0.386,789,,f,,,,,,,,,,,,,key,f,16.66347826087,720,446,./1_3_Stimuli/C_ambi40.png,朋友,Image,自我,Mismatch,f,true,Formal,,
,,,,,psychophysics,454,1259735,0.0-9.0-0.3-0.387,467,,j,,,,,,,,,,,,,key,j,16.6645833333338,720,446,./1_3_Stimuli/S_ambi40.png,他人,Image,他人,Match,j,true,Formal,,
,,,,,psychophysics,455,1261676,0.0-9.0-0.3-0.388,789,,j,,,,,,,,,,,,,key,j,16.6669565217387,720,446,./1_3_Stimuli/T_ambi40.png,朋友,Image,朋友,Match,j,true,Formal,,
,,,,,psychophysics,456,1263558,0.0-9.0-0.3-0.389,729,,f,,,,,,,,,,,,,key,f,16.6660714285723,720,446,./1_3_Stimuli/T_ambi40.png,自我,Image,朋友,Mismatch,f,true,Formal,,
,,,,,psychophysics,457,1265465,0.0-9.0-0.3-0.390,746,,j,,,,,,,,,,,,,key,j,16.6663716814143,720,446,./1_3_Stimuli/S_ambi40.png,他人,Word,他人,Match,j,true,Formal,,
,,,,,psychophysics,458,1267198,0.0-9.0-0.3-0.391,578,,j,,,,,,,,,,,,,key,j,16.6669902912617,720,446,./1_3_Stimuli/T_ambi40.png,朋友,Word,朋友,Match,j,true,Formal,,
,,,,,psychophysics,459,1268882,0.0-9.0-0.3-0.392,531,,j,,,,,,,,,,,,,key,j,16.6659999999986,720,446,./1_3_Stimuli/S_ambi40.png,他人,Image,他人,Match,j,true,Formal,,
,,,,,psychophysics,460,1270557,0.0-9.0-0.3-0.393,521,,j,,,,,,,,,,,,,key,j,16.6660000000009,720,446,./1_3_Stimuli/C_ambi40.png,自我,Image,自我,Match,j,true,Formal,,
,,,,,psychophysics,461,1272356,0.0-9.0-0.3-0.394,641,,j,,,,,,,,,,,,,key,j,16.6682242990654,720,446,./1_3_Stimuli/T_ambi40.png,朋友,Word,朋友,Match,j,true,Formal,,
,,,,,psychophysics,462,1274096,0.0-9.0-0.3-0.395,585,,f,,,,,,,,,,,,,key,f,16.6660194174766,720,446,./1_3_Stimuli/C_ambi40.png,他人,Image,自我,Mismatch,f,true,Formal,,
,,,,,psychophysics,463,1276201,0.0-9.0-0.3-0.396,949,,f,,,,,,,,,,,,,key,f,16.6672000000011,720,446,./1_3_Stimuli/S_ambi40.png,朋友,Image,他人,Mismatch,f,true,Formal,,
,,,,,psychophysics,464,1278077,0.0-9.0-0.3-0.397,725,,j,,,,,,,,,,,,,key,j,16.6648648648653,720,446,./1_3_Stimuli/S_ambi40.png,他人,Word,他人,Match,j,true,Formal,,
,,,,,psychophysics,465,1279792,0.0-9.0-0.3-0.398,539,,j,,,,,,,,,,,,,key,j,16.6666666666667,720,446,./1_3_Stimuli/C_ambi40.png,自我,Image,自我,Match,j,true,Formal,,
,,,,,psychophysics,466,1281565,0.0-9.0-0.3-0.399,611,,j,,,,,,,,,,,,,key,j,16.6676190476199,720,446,./1_3_Stimuli/T_ambi40.png,朋友,Image,朋友,Match,j,true,Formal,,
,,,,,psychophysics,467,1284028,0.0-9.0-0.3-0.400,1308,,j,,,,,,,,,,,,,key,j,16.6671232876706,720,446,./1_3_Stimuli/S_ambi40.png,自我,Image,他人,Mismatch,f,false,Formal,,
,,,,,psychophysics,468,1285928,0.0-9.0-0.3-0.401,743,,f,,,,,,,,,,,,,key,f,16.6663716814163,720,446,./1_3_Stimuli/S_ambi40.png,朋友,Word,他人,Mismatch,f,true,Formal,,
,,,,,psychophysics,469,1288350,0.0-9.0-0.3-0.402,1263,,f,,,,,,,,,,,,,key,f,16.665034965034,720,446,./1_3_Stimuli/T_ambi40.png,他人,Word,朋友,Mismatch,f,true,Formal,,
,,,,,psychophysics,470,1290141,0.0-9.0-0.3-0.403,639,,f,,,,,,,,,,,,,key,f,16.6672897196253,720,446,./1_3_Stimuli/S_ambi40.png,自我,Word,他人,Mismatch,f,true,Formal,,
,,,,,psychophysics,471,1292099,0.0-9.0-0.3-0.404,789,,f,,,,,,,,,,,,,key,f,16.6672413793095,720,446,./1_3_Stimuli/C_ambi40.png,朋友,Word,自我,Mismatch,f,true,Formal,,
,,,,,psychophysics,472,1293822,0.0-9.0-0.3-0.405,569,,j,,,,,,,,,,,,,key,j,16.6669902912617,720,446,./1_3_Stimuli/C_ambi40.png,自我,Word,自我,Match,j,true,Formal,,
,,,,,psychophysics,473,1295641,0.0-9.0-0.3-0.406,656,,f,,,,,,,,,,,,,key,f,16.6666666666667,720,446,./1_3_Stimuli/C_ambi40.png,他人,Word,自我,Mismatch,f,true,Formal,,
,,,,,psychophysics,474,1297407,0.0-9.0-0.3-0.407,614,,j,,,,,,,,,,,,,key,j,16.6666666666667,720,446,./1_3_Stimuli/C_ambi40.png,自我,Word,自我,Match,j,true,Formal,,
,,,,,psychophysics,475,1299280,0.0-9.0-0.3-0.408,719,,f,,,,,,,,,,,,,key,f,16.6621621621622,720,446,./1_3_Stimuli/T_ambi40.png,自我,Image,朋友,Mismatch,f,true,Formal,,
,,,,,psychophysics,476,1301198,0.0-9.0-0.3-0.409,763,,f,,,,,,,,,,,,,key,f,16.6675438596499,720,446,./1_3_Stimuli/T_ambi40.png,自我,Word,朋友,Mismatch,f,true,Formal,,
,,,,,psychophysics,477,1303118,0.0-9.0-0.3-0.410,766,,j,,,,,,,,,,,,,key,j,16.6654867256633,720,446,./1_3_Stimuli/S_ambi40.png,他人,Image,他人,Match,j,true,Formal,,
,,,,,psychophysics,478,1304859,0.0-9.0-0.3-0.411,590,,f,,,,,,,,,,,,,key,f,16.6660194174766,720,446,./1_3_Stimuli/T_ambi40.png,他人,Word,朋友,Mismatch,f,true,Formal,,
,,,,,psychophysics,479,1306860,0.0-9.0-0.3-0.412,841,,j,,,,,,,,,,,,,key,j,16.6680672268908,720,446,./1_3_Stimuli/T_ambi40.png,朋友,Image,朋友,Match,j,true,Formal,,
,,,,,psychophysics,480,1308735,0.0-9.0-0.3-0.413,716,,j,,,,,,,,,,,,,key,j,16.6639639639656,720,446,./1_3_Stimuli/T_ambi40.png,朋友,Word,朋友,Match,j,true,Formal,,
,,,,,psychophysics,481,1310571,0.0-9.0-0.3-0.414,685,,f,,,,,,,,,,,,,key,f,16.6669724770638,720,446,./1_3_Stimuli/C_ambi40.png,他人,Word,自我,Mismatch,f,true,Formal,,
,,,,,psychophysics,482,1312378,0.0-9.0-0.3-0.415,654,,f,,,,,,,,,,,,,key,f,16.6635514018692,720,446,./1_3_Stimuli/S_ambi40.png,自我,Image,他人,Mismatch,f,true,Formal,,
,,,,,psychophysics,483,1314108,0.0-9.0-0.3-0.416,572,,f,,,,,,,,,,,,,key,f,16.6660194174744,720,446,./1_3_Stimuli/C_ambi40.png,他人,Image,自我,Mismatch,f,true,Formal,,
,,,,,psychophysics,484,1315810,0.0-9.0-0.3-0.417,547,,j,,,,,,,,,,,,,key,j,16.6643564356422,720,446,./1_3_Stimuli/T_ambi40.png,朋友,Word,朋友,Match,j,true,Formal,,
,,,,,psychophysics,485,1317517,0.0-9.0-0.3-0.418,548,,j,,,,,,,,,,,,,key,j,16.6633663366337,720,446,./1_3_Stimuli/C_ambi40.png,自我,Word,自我,Match,j,true,Formal,,
,,,,,psychophysics,486,1319299,0.0-9.0-0.3-0.419,630,,f,,,,,,,,,,,,,key,f,16.666981132075,720,446,./1_3_Stimuli/C_ambi40.png,朋友,Word,自我,Mismatch,f,true,Formal,,
,,,,,psychophysics,487,1320987,0.0-9.0-0.3-0.420,535,,f,,,,,,,,,,,,,key,f,16.6659999999986,720,446,./1_3_Stimuli/S_ambi40.png,朋友,Word,他人,Mismatch,f,true,Formal,,
,,,,,psychophysics,488,1322682,0.0-9.0-0.3-0.421,537,,f,,,,,,,,,,,,,key,f,16.6670000000019,720,446,./1_3_Stimuli/C_ambi40.png,朋友,Image,自我,Mismatch,f,true,Formal,,
,,,,,psychophysics,489,1324430,0.0-9.0-0.3-0.422,594,,f,,,,,,,,,,,,,key,f,16.6689320388363,720,446,./1_3_Stimuli/T_ambi40.png,朋友,Image,朋友,Match,j,false,Formal,,
,,,,,psychophysics,490,1326102,0.0-9.0-0.3-0.423,517,,j,,,,,,,,,,,,,key,j,16.6666666666667,720,446,./1_3_Stimuli/C_ambi40.png,自我,Image,自我,Match,j,true,Formal,,
,,,,,psychophysics,491,1327984,0.0-9.0-0.3-0.424,731,,j,,,,,,,,,,,,,key,j,16.6666666666667,720,446,./1_3_Stimuli/S_ambi40.png,他人,Word,他人,Match,j,true,Formal,,
,,,,,psychophysics,492,1329670,0.0-9.0-0.3-0.425,534,,j,,,,,,,,,,,,,key,j,16.665656565658,720,446,./1_3_Stimuli/C_ambi40.png,自我,Word,自我,Match,j,true,Formal,,
,,,,,psychophysics,493,1331287,0.0-9.0-0.3-0.426,461,,j,,,,,,,,,,,,,key,j,16.6666666666667,720,446,./1_3_Stimuli/S_ambi40.png,他人,Image,他人,Match,j,true,Formal,,
,,,,,psychophysics,494,1333130,0.0-9.0-0.3-0.427,678,,f,,,,,,,,,,,,,key,f,16.6660550458724,720,446,./1_3_Stimuli/T_ambi40.png,他人,Image,朋友,Mismatch,f,true,Formal,,
,,,,,psychophysics,495,1334855,0.0-9.0-0.3-0.428,569,,j,,,,,,,,,,,,,key,j,16.6660194174766,720,446,./1_3_Stimuli/C_ambi40.png,自我,Image,自我,Match,j,true,Formal,,
,,,,,psychophysics,496,1336581,0.0-9.0-0.3-0.429,565,,j,,,,,,,,,,,,,key,j,16.6666666666667,720,446,./1_3_Stimuli/S_ambi40.png,他人,Word,他人,Match,j,true,Formal,,
,,,,,psychophysics,497,1338348,0.0-9.0-0.3-0.430,613,,f,,,,,,,,,,,,,key,f,16.6653846153842,720,446,./1_3_Stimuli/S_ambi40.png,自我,Word,他人,Mismatch,f,true,Formal,,
,,,,,psychophysics,498,1340190,0.0-9.0-0.3-0.431,688,,f,,,,,,,,,,,,,key,f,16.6663636363641,720,446,./1_3_Stimuli/S_ambi40.png,朋友,Image,他人,Mismatch,f,true,Formal,,
,,,,,psychophysics,499,1342121,0.0-9.0-0.3-0.432,778,,j,,,,,,,,,,,,,key,j,16.6660869565225,720,446,./1_3_Stimuli/S_ambi40.png,他人,Image,他人,Match,j,true,Formal,,
,,,,,psychophysics,500,1343839,0.0-9.0-0.3-0.433,561,,j,,,,,,,,,,,,,key,j,16.6676470588244,720,446,./1_3_Stimuli/C_ambi40.png,自我,Word,自我,Match,j,true,Formal,,
,,,,,psychophysics,501,1345589,0.0-9.0-0.3-0.434,598,,f,,,,,,,,,,,,,key,f,16.667307692309,720,446,./1_3_Stimuli/C_ambi40.png,朋友,Image,自我,Mismatch,f,true,Formal,,
,,,,,psychophysics,502,1347337,0.0-9.0-0.3-0.435,592,,j,,,,,,,,,,,,,key,j,16.6663461538466,720,446,./1_3_Stimuli/C_ambi40.png,自我,Image,自我,Match,j,true,Formal,,
,,,,,psychophysics,503,1349418,0.0-9.0-0.3-0.436,920,,f,,,,,,,,,,,,,key,f,16.6674796747975,720,446,./1_3_Stimuli/S_ambi40.png,朋友,Image,他人,Mismatch,f,true,Formal,,
,,,,,psychophysics,504,1351162,0.0-9.0-0.3-0.437,593,,j,,,,,,,,,,,,,key,j,16.6669902912617,720,446,./1_3_Stimuli/S_ambi40.png,他人,Image,他人,Match,j,true,Formal,,
,,,,,psychophysics,505,1352901,0.0-9.0-0.3-0.438,583,,j,,,,,,,,,,,,,key,j,16.6666666666667,720,446,./1_3_Stimuli/T_ambi40.png,朋友,Image,朋友,Match,j,true,Formal,,
,,,,,psychophysics,506,1354589,0.0-9.0-0.3-0.439,536,,j,,,,,,,,,,,,,key,j,16.665,720,446,./1_3_Stimuli/C_ambi40.png,自我,Image,自我,Match,j,true,Formal,,
,,,,,psychophysics,507,1356374,0.0-9.0-0.3-0.440,624,,j,,,,,,,,,,,,,key,j,16.6650943396226,720,446,./1_3_Stimuli/T_ambi40.png,朋友,Word,朋友,Match,j,true,Formal,,
,,,,,psychophysics,508,1358144,0.0-9.0-0.3-0.441,616,,f,,,,,,,,,,,,,key,f,16.6666666666667,720,446,./1_3_Stimuli/T_ambi40.png,自我,Word,朋友,Mismatch,f,true,Formal,,
,,,,,psychophysics,509,1360176,0.0-9.0-0.3-0.442,874,,f,,,,,,,,,,,,,key,f,16.6661157024801,720,446,./1_3_Stimuli/C_ambi40.png,他人,Image,自我,Mismatch,f,true,Formal,,
,,,,,psychophysics,510,1361973,0.0-9.0-0.3-0.443,638,,f,,,,,,,,,,,,,key,f,16.6663551401874,720,446,./1_3_Stimuli/S_ambi40.png,自我,Word,他人,Mismatch,f,true,Formal,,
,,,,,psychophysics,511,1363740,0.0-9.0-0.3-0.444,614,,f,,,,,,,,,,,,,key,f,16.6666666666667,720,446,./1_3_Stimuli/S_ambi40.png,朋友,Word,他人,Mismatch,f,true,Formal,,
,,,,,psychophysics,512,1366127,0.0-9.0-0.3-0.445,1224,,f,,,,,,,,,,,,,key,f,16.6661971830992,720,446,./1_3_Stimuli/T_ambi40.png,他人,Image,朋友,Mismatch,f,true,Formal,,
,,,,,psychophysics,513,1367983,0.0-9.0-0.3-0.446,681,,f,,,,,,,,,,,,,key,f,16.6654545454541,720,446,./1_3_Stimuli/S_ambi40.png,自我,Image,他人,Mismatch,f,true,Formal,,
,,,,,psychophysics,514,1369965,0.0-9.0-0.3-0.447,830,,f,,,,,,,,,,,,,key,f,16.6694915254237,720,446,./1_3_Stimuli/C_ambi40.png,他人,Word,自我,Mismatch,f,true,Formal,,
,,,,,psychophysics,515,1371852,0.0-9.0-0.3-0.448,734,,f,,,,,,,,,,,,,key,f,16.6669642857159,720,446,./1_3_Stimuli/T_ambi40.png,他人,Word,朋友,Mismatch,f,true,Formal,,
,,,,,psychophysics,516,1373808,0.0-9.0-0.3-0.449,777,,f,,,,,,,,,,,,,key,f,16.6663793103452,720,446,./1_3_Stimuli/C_ambi40.png,朋友,Word,自我,Mismatch,f,true,Formal,,
,,,,,psychophysics,517,1375704,0.0-9.0-0.3-0.450,736,,j,,,,,,,,,,,,,key,j,16.6654867256654,720,446,./1_3_Stimuli/S_ambi40.png,他人,Word,他人,Match,j,true,Formal,,
,,,,,psychophysics,518,1377397,0.0-9.0-0.3-0.451,530,,j,,,,,,,,,,,,,key,j,16.6619999999995,720,446,./1_3_Stimuli/C_ambi40.png,自我,Word,自我,Match,j,true,Formal,,
,,,,,psychophysics,519,1379198,0.0-9.0-0.3-0.452,646,,j,,,,,,,,,,,,,key,j,16.6660377358499,720,446,./1_3_Stimuli/T_ambi40.png,朋友,Word,朋友,Match,j,true,Formal,,
,,,,,psychophysics,520,1381037,0.0-9.0-0.3-0.453,685,,j,,,,,,,,,,,,,key,j,16.6663636363641,720,446,./1_3_Stimuli/S_ambi40.png,他人,Word,他人,Match,j,true,Formal,,
,,,,,psychophysics,521,1382865,0.0-9.0-0.3-0.454,668,,f,,,,,,,,,,,,,key,f,16.6666666666667,720,446,./1_3_Stimuli/T_ambi40.png,自我,Image,朋友,Mismatch,f,true,Formal,,
,,,,,psychophysics,522,1384749,0.0-9.0-0.3-0.455,731,,j,,,,,,,,,,,,,key,j,16.6633928571433,720,446,./1_3_Stimuli/T_ambi40.png,朋友,Image,朋友,Match,j,true,Formal,,
,,,,,psychophysics,523,1386517,0.0-9.0-0.3-0.456,616,,j,,,,,,,,,,,,,key,j,16.667307692309,720,446,./1_3_Stimuli/S_ambi40.png,他人,Word,他人,Match,j,true,Formal,,
,,,,,psychophysics,524,1388293,0.0-9.0-0.3-0.457,624,,j,,,,,,,,,,,,,key,j,16.6666666666667,720,446,./1_3_Stimuli/S_ambi40.png,他人,Word,他人,Match,j,true,Formal,,
,,,,,psychophysics,525,1390153,0.0-9.0-0.3-0.458,702,,f,,,,,,,,,,,,,key,f,16.6684684684701,720,446,./1_3_Stimuli/T_ambi40.png,他人,Image,朋友,Mismatch,f,true,Formal,,
,,,,,psychophysics,526,1392086,0.0-9.0-0.3-0.459,778,,j,,,,,,,,,,,,,key,j,16.6660869565205,720,446,./1_3_Stimuli/T_ambi40.png,朋友,Image,朋友,Match,j,true,Formal,,
,,,,,psychophysics,527,1393733,0.0-9.0-0.3-0.460,484,,j,,,,,,,,,,,,,key,j,16.6659793814443,720,446,./1_3_Stimuli/S_ambi40.png,他人,Image,他人,Match,j,true,Formal,,
,,,,,psychophysics,528,1395474,0.0-9.0-0.3-0.461,589,,f,,,,,,,,,,,,,key,f,16.663106796117,720,446,./1_3_Stimuli/S_ambi40.png,自我,Image,他人,Mismatch,f,true,Formal,,
,,,,,psychophysics,529,1397388,0.0-9.0-0.3-0.462,758,,f,,,,,,,,,,,,,key,f,16.6657894736854,720,446,./1_3_Stimuli/S_ambi40.png,朋友,Image,他人,Mismatch,f,true,Formal,,
,,,,,psychophysics,530,1399378,0.0-9.0-0.3-0.463,826,,f,,,,,,,,,,,,,key,f,16.666101694916,720,446,./1_3_Stimuli/C_ambi40.png,朋友,Word,自我,Mismatch,f,true,Formal,,
,,,,,psychophysics,531,1401115,0.0-9.0-0.3-0.464,581,,j,,,,,,,,,,,,,key,j,16.6656862745112,720,446,./1_3_Stimuli/C_ambi40.png,自我,Word,自我,Match,j,true,Formal,,
,,,,,psychophysics,532,1402944,0.0-9.0-0.3-0.465,676,,f,,,,,,,,,,,,,key,f,16.6660550458724,720,446,./1_3_Stimuli/S_ambi40.png,朋友,Word,他人,Mismatch,f,true,Formal,,
,,,,,psychophysics,533,1404673,0.0-9.0-0.3-0.466,572,,j,,,,,,,,,,,,,key,j,16.6650485436893,720,446,./1_3_Stimuli/C_ambi40.png,自我,Word,自我,Match,j,true,Formal,,
,,,,,psychophysics,534,1406418,0.0-9.0-0.3-0.467,583,,f,,,,,,,,,,,,,key,f,16.6660194174766,720,446,./1_3_Stimuli/C_ambi40.png,他人,Word,自我,Mismatch,f,true,Formal,,
,,,,,psychophysics,535,1408265,0.0-9.0-0.3-0.468,696,,j,,,,,,,,,,,,,key,j,16.6669724770638,720,446,./1_3_Stimuli/S_ambi40.png,他人,Image,他人,Match,j,true,Formal,,
,,,,,psychophysics,536,1410050,0.0-9.0-0.3-0.469,634,,f,,,,,,,,,,,,,key,f,16.6669811320772,720,446,./1_3_Stimuli/C_ambi40.png,朋友,Image,自我,Mismatch,f,true,Formal,,
,,,,,psychophysics,537,1411970,0.0-9.0-0.3-0.470,769,,f,,,,,,,,,,,,,key,f,16.6666666666667,720,446,./1_3_Stimuli/T_ambi40.png,自我,Word,朋友,Mismatch,f,true,Formal,,
,,,,,psychophysics,538,1413756,0.0-9.0-0.3-0.471,631,,f,,,,,,,,,,,,,key,f,16.6688679245274,720,446,./1_3_Stimuli/C_ambi40.png,他人,Image,自我,Mismatch,f,true,Formal,,
,,,,,psychophysics,539,1415388,0.0-9.0-0.3-0.472,470,,j,,,,,,,,,,,,,key,j,16.6680412371139,720,446,./1_3_Stimuli/C_ambi40.png,自我,Image,自我,Match,j,true,Formal,,
,,,,,psychophysics,540,1417087,0.0-9.0-0.3-0.473,544,,f,,,,,,,,,,,,,key,f,16.6663366336638,720,446,./1_3_Stimuli/S_ambi40.png,自我,Word,他人,Mismatch,f,true,Formal,,
,,,,,psychophysics,541,1419172,0.0-9.0-0.3-0.474,922,,f,,,,,,,,,,,,,key,f,16.6653225806452,720,446,./1_3_Stimuli/T_ambi40.png,自我,Image,朋友,Mismatch,f,true,Formal,,
,,,,,psychophysics,542,1421075,0.0-9.0-0.3-0.475,741,,f,,,,,,,,,,,,,key,f,16.6672566371673,720,446,./1_3_Stimuli/T_ambi40.png,他人,Word,朋友,Mismatch,f,true,Formal,,
,,,,,psychophysics,543,1423542,0.0-9.0-0.3-0.476,1287,,j,,,,,,,,,,,,,key,j,16.6666666666667,720,446,./1_3_Stimuli/T_ambi40.png,朋友,Image,朋友,Match,j,true,Formal,,
,,,,,psychophysics,544,1425210,0.0-9.0-0.3-0.477,514,,j,,,,,,,,,,,,,key,j,16.6686868686864,720,446,./1_3_Stimuli/T_ambi40.png,朋友,Word,朋友,Match,j,true,Formal,,
,,,,,psychophysics,545,1427056,0.0-9.0-0.3-0.478,689,,j,,,,,,,,,,,,,key,j,16.6663636363641,720,446,./1_3_Stimuli/C_ambi40.png,自我,Image,自我,Match,j,true,Formal,,
,,,,,psychophysics,546,1428757,0.0-9.0-0.3-0.479,544,,j,,,,,,,,,,,,,key,j,16.6663366336638,720,446,./1_3_Stimuli/T_ambi40.png,朋友,Word,朋友,Match,j,true,Formal,,
,,,,,html-keyboard-response,547,1431738,0.0-9.0-1.3,2979,<style>.context{color:white; font-size: 35px; line-height:40px}</style>                        <div><p class='context'>您正确回答了98% 的试次。</p><p class='context'>您的平均反应时为662毫秒。</p><p> <div style = 'color: green'><按任意键进入休息></div></p>, ,,,,,,,,,,,,,,,,,,,,,,,,,,,
,,,,,html-button-response,548,1476207,0.0-9.0-2.3,44464,"
                  <p>您当前还剩余2组实验</p>
                  <p>现在是休息时间，当您结束休息后，您可以点击 结束休息 按钮 继续</p>
                  <p>建议休息时间还剩余<span id=""iii"">60</span>秒</p>",0,,,,,,,,,,,,,,,,,,,,,,,,,,,
,,,,,psychophysics,549,1477972,0.0-9.0-0.4-0.480,611,,f,,,,,,,,,,,,,key,f,16.6685714285732,720,446,./1_3_Stimuli/C_ambi40.png,他人,Word,自我,Mismatch,f,true,Formal,,
,,,,,psychophysics,550,1479701,0.0-9.0-0.4-0.481,576,,j,,,,,,,,,,,,,key,j,16.6666666666667,720,446,./1_3_Stimuli/T_ambi40.png,朋友,Image,朋友,Match,j,true,Formal,,
,,,,,psychophysics,551,1481309,0.0-9.0-0.4-0.482,457,,j,,,,,,,,,,,,,key,j,16.6652631578942,720,446,./1_3_Stimuli/C_ambi40.png,自我,Word,自我,Match,j,true,Formal,,
,,,,,psychophysics,552,1483054,0.0-9.0-0.4-0.483,586,,f,,,,,,,,,,,,,key,f,16.6663461538466,720,446,./1_3_Stimuli/T_ambi40.png,自我,Image,朋友,Mismatch,f,true,Formal,,
,,,,,psychophysics,553,1484939,0.0-9.0-0.4-0.484,729,,f,,,,,,,,,,,,,key,f,16.6669642857159,720,446,./1_3_Stimuli/T_ambi40.png,他人,Image,朋友,Mismatch,f,true,Formal,,
,,,,,psychophysics,554,1486681,0.0-9.0-0.4-0.485,587,,j,,,,,,,,,,,,,key,j,16.668932038834,720,446,./1_3_Stimuli/T_ambi40.png,朋友,Word,朋友,Match,j,true,Formal,,
,,,,,psychophysics,555,1488331,0.0-9.0-0.4-0.486,496,,j,,,,,,,,,,,,,key,j,16.6649484536082,720,446,./1_3_Stimuli/T_ambi40.png,朋友,Word,朋友,Match,j,true,Formal,,
,,,,,psychophysics,556,1489959,0.0-9.0-0.4-0.487,475,,f,,,,,,,,,,,,,key,f,16.6659793814419,720,446,./1_3_Stimuli/T_ambi40.png,他人,Word,朋友,Mismatch,f,true,Formal,,
,,,,,psychophysics,557,1491840,0.0-9.0-0.4-0.488,722,,j,,,,,,,,,,,,,key,j,16.6660714285723,720,446,./1_3_Stimuli/S_ambi40.png,他人,Word,他人,Match,j,true,Formal,,
,,,,,psychophysics,558,1493519,0.0-9.0-0.4-0.489,526,,j,,,,,,,,,,,,,key,j,16.6660000000009,720,446,./1_3_Stimuli/S_ambi40.png,他人,Image,他人,Match,j,true,Formal,,
,,,,,psychophysics,559,1495343,0.0-9.0-0.4-0.490,669,,j,,,,,,,,,,,,,key,j,16.6666666666667,720,446,./1_3_Stimuli/C_ambi40.png,自我,Word,自我,Match,j,true,Formal,,
,,,,,psychophysics,560,1496943,0.0-9.0-0.4-0.491,442,,f,,,,,,,,,,,,,key,f,16.6652631578942,720,446,./1_3_Stimuli/T_ambi40.png,自我,Word,朋友,Mismatch,f,true,Formal,,
,,,,,psychophysics,561,1498570,0.0-9.0-0.4-0.492,475,,j,,,,,,,,,,,,,key,j,16.6680412371139,720,446,./1_3_Stimuli/C_ambi40.png,自我,Image,自我,Match,j,true,Formal,,
,,,,,psychophysics,562,1500375,0.0-9.0-0.4-0.493,653,,f,,,,,,,,,,,,,key,f,16.6672897196253,720,446,./1_3_Stimuli/S_ambi40.png,朋友,Word,他人,Mismatch,f,true,Formal,,
,,,,,psychophysics,563,1502204,0.0-9.0-0.4-0.494,670,,j,,,,,,,,,,,,,key,j,16.6715596330271,720,446,./1_3_Stimuli/S_ambi40.png,他人,Image,他人,Match,j,true,Formal,,
,,,,,psychophysics,564,1503846,0.0-9.0-0.4-0.495,482,,j,,,,,,,,,,,,,key,j,16.6670103092779,720,446,./1_3_Stimuli/C_ambi40.png,自我,Image,自我,Match,j,true,Formal,,
,,,,,psychophysics,565,1505544,0.0-9.0-0.4-0.496,543,,f,,,,,,,,,,,,,key,f,16.6669999999995,720,446,./1_3_Stimuli/S_ambi40.png,自我,Word,他人,Mismatch,f,true,Formal,,
,,,,,psychophysics,566,1507266,0.0-9.0-0.4-0.497,566,,f,,,,,,,,,,,,,key,f,16.6676470588222,720,446,./1_3_Stimuli/C_ambi40.png,朋友,Image,自我,Mismatch,f,true,Formal,,
,,,,,psychophysics,567,1509007,0.0-9.0-0.4-0.498,589,,f,,,,,,,,,,,,,key,f,16.6699029126214,720,446,./1_3_Stimuli/C_ambi40.png,他人,Image,自我,Mismatch,f,true,Formal,,
,,,,,psychophysics,568,1510679,0.0-9.0-0.4-0.499,511,,f,,,,,,,,,,,,,key,f,16.6656565656556,720,446,./1_3_Stimuli/C_ambi40.png,朋友,Word,自我,Mismatch,f,true,Formal,,
,,,,,psychophysics,569,1512597,0.0-9.0-0.4-0.500,762,,f,,,,,,,,,,,,,key,f,16.6666666666667,720,446,./1_3_Stimuli/S_ambi40.png,自我,Image,他人,Mismatch,f,true,Formal,,
,,,,,psychophysics,570,1514271,0.0-9.0-0.4-0.501,520,,j,,,,,,,,,,,,,key,j,16.6676767676754,720,446,./1_3_Stimuli/T_ambi40.png,朋友,Image,朋友,Match,j,true,Formal,,
,,,,,psychophysics,571,1516475,0.0-9.0-0.4-0.502,1040,,f,,,,,,,,,,,,,key,f,16.6679389312977,720,446,./1_3_Stimuli/S_ambi40.png,朋友,Image,他人,Mismatch,f,true,Formal,,
,,,,,psychophysics,572,1518254,0.0-9.0-0.4-0.503,597,,j,,,,,,,,,,,,,key,j,16.666981132075,720,446,./1_3_Stimuli/S_ambi40.png,他人,Word,他人,Match,j,true,Formal,,
,,,,,psychophysics,573,1519937,0.0-9.0-0.4-0.504,520,,j,,,,,,,,,,,,,key,j,16.6660000000009,720,446,./1_3_Stimuli/T_ambi40.png,朋友,Word,朋友,Match,j,true,Formal,,
,,,,,psychophysics,574,1521577,0.0-9.0-0.4-0.505,489,,j,,,,,,,,,,,,,key,j,16.6659793814419,720,446,./1_3_Stimuli/C_ambi40.png,自我,Word,自我,Match,j,true,Formal,,
,,,,,psychophysics,575,1523379,0.0-9.0-0.4-0.506,650,,f,,,,,,,,,,,,,key,f,16.6691588785034,720,446,./1_3_Stimuli/C_ambi40.png,他人,Word,自我,Mismatch,f,true,Formal,,
,,,,,psychophysics,576,1525280,0.0-9.0-0.4-0.507,747,,j,,,,,,,,,,,,,key,j,16.6651785714286,720,446,./1_3_Stimuli/T_ambi40.png,朋友,Word,朋友,Match,j,true,Formal,,
,,,,,psychophysics,577,1526939,0.0-9.0-0.4-0.508,505,,j,,,,,,,,,,,,,key,j,16.6673469387769,720,446,./1_3_Stimuli/S_ambi40.png,他人,Image,他人,Match,j,true,Formal,,
,,,,,psychophysics,578,1528562,0.0-9.0-0.4-0.509,466,,j,,,,,,,,,,,,,key,j,16.6666666666667,720,446,./1_3_Stimuli/C_ambi40.png,自我,Image,自我,Match,j,true,Formal,,
,,,,,psychophysics,579,1530199,0.0-9.0-0.4-0.510,486,,j,,,,,,,,,,,,,key,j,16.6659793814419,720,446,./1_3_Stimuli/S_ambi40.png,他人,Image,他人,Match,j,true,Formal,,
,,,,,psychophysics,580,1532122,0.0-9.0-0.4-0.511,771,,f,,,,,,,,,,,,,key,f,16.6640350877189,720,446,./1_3_Stimuli/C_ambi40.png,朋友,Image,自我,Mismatch,f,true,Formal,,
,,,,,psychophysics,581,1533819,0.0-9.0-0.4-0.512,544,,j,,,,,,,,,,,,,key,j,16.669306930694,720,446,./1_3_Stimuli/T_ambi40.png,朋友,Image,朋友,Match,j,true,Formal,,
,,,,,psychophysics,582,1535808,0.0-9.0-0.4-0.513,833,,f,,,,,,,,,,,,,key,f,16.6661016949141,720,446,./1_3_Stimuli/S_ambi40.png,朋友,Image,他人,Mismatch,f,true,Formal,,
,,,,,psychophysics,583,1537693,0.0-9.0-0.4-0.514,733,,f,,,,,,,,,,,,,key,f,16.6651785714286,720,446,./1_3_Stimuli/S_ambi40.png,自我,Image,他人,Mismatch,f,true,Formal,,
,,,,,psychophysics,584,1539534,0.0-9.0-0.4-0.515,666,,f,,,,,,,,,,,,,key,f,16.6669724770659,720,446,./1_3_Stimuli/C_ambi40.png,他人,Image,自我,Mismatch,f,true,Formal,,
,,,,,psychophysics,585,1541373,0.0-9.0-0.4-0.516,689,,f,,,,,,,,,,,,,key,f,16.6669724770638,720,446,./1_3_Stimuli/T_ambi40.png,他人,Word,朋友,Mismatch,f,true,Formal,,
,,,,,psychophysics,586,1543207,0.0-9.0-0.4-0.517,680,,j,,,,,,,,,,,,,key,j,16.6660550458724,720,446,./1_3_Stimuli/T_ambi40.png,朋友,Image,朋友,Match,j,true,Formal,,
,,,,,psychophysics,587,1544873,0.0-9.0-0.4-0.518,513,,j,,,,,,,,,,,,,key,j,16.6656565656556,720,446,./1_3_Stimuli/C_ambi40.png,自我,Word,自我,Match,j,true,Formal,,
,,,,,psychophysics,588,1547100,0.0-9.0-0.4-0.519,1066,,f,,,,,,,,,,,,,key,f,16.6659090909101,720,446,./1_3_Stimuli/T_ambi40.png,自我,Word,朋友,Mismatch,f,true,Formal,,
,,,,,psychophysics,589,1548815,0.0-9.0-0.4-0.520,564,,j,,,,,,,,,,,,,key,j,16.6673267326747,720,446,./1_3_Stimuli/S_ambi40.png,他人,Word,他人,Match,j,true,Formal,,
,,,,,psychophysics,590,1550528,0.0-9.0-0.4-0.521,528,,f,,,,,,,,,,,,,key,f,16.6666666666667,720,446,./1_3_Stimuli/C_ambi40.png,朋友,Word,自我,Mismatch,f,true,Formal,,
,,,,,psychophysics,591,1552125,0.0-9.0-0.4-0.522,441,,j,,,,,,,,,,,,,key,j,16.6663157894717,720,446,./1_3_Stimuli/C_ambi40.png,自我,Image,自我,Match,j,true,Formal,,
,,,,,psychophysics,592,1553926,0.0-9.0-0.4-0.523,642,,j,,,,,,,,,,,,,key,j,16.6663551401852,720,446,./1_3_Stimuli/S_ambi40.png,他人,Word,他人,Match,j,true,Formal,,
,,,,,psychophysics,593,1555670,0.0-9.0-0.4-0.524,586,,f,,,,,,,,,,,,,key,f,16.6669902912617,720,446,./1_3_Stimuli/T_ambi40.png,他人,Image,朋友,Mismatch,f,true,Formal,,
,,,,,psychophysics,594,1557421,0.0-9.0-0.4-0.525,587,,f,,,,,,,,,,,,,key,f,16.6673076923068,720,446,./1_3_Stimuli/S_ambi40.png,朋友,Word,他人,Mismatch,f,true,Formal,,
,,,,,psychophysics,595,1559122,0.0-9.0-0.4-0.526,544,,f,,,,,,,,,,,,,key,f,16.6673267326723,720,446,./1_3_Stimuli/S_ambi40.png,自我,Word,他人,Mismatch,f,true,Formal,,
,,,,,psychophysics,596,1561307,0.0-9.0-0.4-0.527,1026,,f,,,,,,,,,,,,,key,f,16.6661538461528,720,446,./1_3_Stimuli/T_ambi40.png,自我,Image,朋友,Mismatch,f,true,Formal,,
,,,,,psychophysics,597,1562905,0.0-9.0-0.4-0.528,438,,j,,,,,,,,,,,,,key,j,16.6642105263168,720,446,./1_3_Stimuli/C_ambi40.png,自我,Word,自我,Match,j,true,Formal,,
,,,,,psychophysics,598,1564683,0.0-9.0-0.4-0.529,616,,j,,,,,,,,,,,,,key,j,16.6666666666667,720,446,./1_3_Stimuli/S_ambi40.png,他人,Image,他人,Match,j,true,Formal,,
,,,,,psychophysics,599,1566443,0.0-9.0-0.4-0.530,608,,j,,,,,,,,,,,,,key,j,16.6663461538466,720,446,./1_3_Stimuli/C_ambi40.png,自我,Image,自我,Match,j,true,Formal,,
,,,,,psychophysics,600,1568027,0.0-9.0-0.4-0.531,429,,j,,,,,,,,,,,,,key,j,16.6648936170213,720,446,./1_3_Stimuli/C_ambi40.png,他人,Word,自我,Mismatch,f,false,Formal,,
,,,,,psychophysics,601,1570085,0.0-9.0-0.4-0.532,907,,f,,,,,,,,,,,,,key,f,16.6658536585358,720,446,./1_3_Stimuli/C_ambi40.png,朋友,Image,自我,Mismatch,f,true,Formal,,
,,,,,psychophysics,602,1571838,0.0-9.0-0.4-0.533,601,,j,,,,,,,,,,,,,key,j,16.6663461538466,720,446,./1_3_Stimuli/S_ambi40.png,他人,Word,他人,Match,j,true,Formal,,
,,,,,psychophysics,603,1574158,0.0-9.0-0.4-0.534,1164,,f,,,,,,,,,,,,,key,f,16.6666666666667,720,446,./1_3_Stimuli/S_ambi40.png,朋友,Image,他人,Mismatch,f,true,Formal,,
,,,,,psychophysics,604,1576008,0.0-9.0-0.4-0.535,698,,f,,,,,,,,,,,,,key,f,16.667272727274,720,446,./1_3_Stimuli/T_ambi40.png,他人,Word,朋友,Mismatch,f,true,Formal,,
,,,,,psychophysics,605,1577794,0.0-9.0-0.4-0.536,618,,j,,,,,,,,,,,,,key,j,16.6650943396226,720,446,./1_3_Stimuli/S_ambi40.png,他人,Image,他人,Match,j,true,Formal,,
,,,,,psychophysics,606,1579578,0.0-9.0-0.4-0.537,629,,f,,,,,,,,,,,,,key,f,16.6698113207547,720,446,./1_3_Stimuli/C_ambi40.png,朋友,Word,自我,Mismatch,f,true,Formal,,
,,,,,psychophysics,607,1581332,0.0-9.0-0.4-0.538,599,,j,,,,,,,,,,,,,key,j,16.6669902912617,720,446,./1_3_Stimuli/T_ambi40.png,朋友,Image,朋友,Match,j,true,Formal,,
,,,,,psychophysics,608,1583254,0.0-9.0-0.4-0.539,771,,f,,,,,,,,,,,,,key,f,16.6657894736834,720,446,./1_3_Stimuli/C_ambi40.png,他人,Image,自我,Mismatch,f,true,Formal,,
,,,,,psychophysics,609,1585095,0.0-9.0-0.4-0.540,684,,j,,,,,,,,,,,,,key,j,16.6669724770638,720,446,./1_3_Stimuli/C_ambi40.png,自我,Image,自我,Match,j,true,Formal,,
,,,,,psychophysics,610,1587239,0.0-9.0-0.4-0.541,989,,f,,,,,,,,,,,,,key,f,16.6656249999996,720,446,./1_3_Stimuli/S_ambi40.png,朋友,Word,他人,Mismatch,f,true,Formal,,
,,,,,psychophysics,611,1589098,0.0-9.0-0.4-0.542,699,,j,,,,,,,,,,,,,key,j,16.667272727274,720,446,./1_3_Stimuli/T_ambi40.png,朋友,Word,朋友,Match,j,true,Formal,,
,,,,,psychophysics,612,1590864,0.0-9.0-0.4-0.543,614,,j,,,,,,,,,,,,,key,j,16.6673076923068,720,446,./1_3_Stimuli/S_ambi40.png,他人,Word,他人,Match,j,true,Formal,,
,,,,,psychophysics,613,1592491,0.0-9.0-0.4-0.544,475,,j,,,,,,,,,,,,,key,j,16.6666666666667,720,446,./1_3_Stimuli/T_ambi40.png,朋友,Image,朋友,Match,j,true,Formal,,
,,,,,psychophysics,614,1594244,0.0-9.0-0.4-0.545,601,,f,,,,,,,,,,,,,key,f,16.6653846153842,720,446,./1_3_Stimuli/S_ambi40.png,自我,Image,他人,Mismatch,f,true,Formal,,
