"success","timeout","failed_images","failed_audio","failed_video","trial_type","trial_index","time_elapsed","internal_node_id","rt","stimulus","response","value","item_width_mm","item_height_mm","item_width_px","px2mm","view_dist_mm","item_width_deg","px2deg","scale_factor","win_width_deg","win_height_deg","view_history","response_type","key_press","avg_frame_time","center_x","center_y","image","word","target","valence","matchness","correct_response","correct","exp_condition","question_order"
"true","false","[]","[]","[]","preload","0","5","0.0-0.0","","","","","","","","","","","","","","","","","","","","","","","","","","","","",""
"","","","","","html-keyboard-response","1","1651","0.0-1.0","1645","
     <p>您好，欢迎参加本次实验。</p>
     <p>为充分保障您的权利，请确保您已经知晓并同意《参与实验同意书》以及《数据公开知情同意书》。</p>
     <p>如果您未见过上述内容，请咨询实验员。</p>
     <p>如果您选择继续实验，则表示您已经清楚两份知情同意书的内容并同意。</p>
     <p> <div style = ""color: green""><按任意键至下页></div> </p>
     "," ","","","","","","","","","","","","","","","","","","","","","","","","","",""
"","","","","","html-keyboard-response","2","2016","0.0-2.0-0.0","364","
      <p>本实验首先需要您填写一些基本个人信息。</p>
      <p> <div style = ""color: green""><按任意键至下页></div></p>
      "," ","","","","","","","","","","","","","","","","","","","","","","","","","",""
"","","","","","call-function","3","2017","0.0-2.0-1.0","","","","","","","","","","","","","","","","","","","","","","","","","","","","",""
"","","","","","survey-html-form","4","12909","0.0-2.0-2.0","10891","","{""Q0"":""1034""}","","","","","","","","","","","","","","","","","","","","","","","","","",""
"","","","","","html-button-response","5","16375","0.0-2.0-3.0","3465","<p style = 'color : white'>您的性别</p>","1","","","","","","","","","","","","","","","","","","","","","","","","","",""
"","","","","","survey-html-form","6","23592","0.0-2.0-4.0","7216","","{""Q0"":""2003""}","","","","","","","","","","","","","","","","","","","","","","","","","",""
"","","","","","survey-html-form","7","25970","0.0-2.0-5.0","2377","","{""Q0"":""5""}","","","","","","","","","","","","","","","","","","","","","","","","","",""
"","","","","","virtual-chinrest","8","160557","0.0-3.0","134584","","","","85.6","53.98","503.9006156986928","5.882746722807994","485.4","10.078012313973856","50","0.8533428747725889","33.18","16.76","","","","","","","","","","","","","","",""
"true","","","","","fullscreen","9","163514","0.0-4.0","","","","","","","","","","","","","","","","","","","","","","","","","","","","",""
"","","","","","instructions","10","201728","0.0-5.0","38214","","","","","","","","","","","","","","[{""page_index"":0,""viewing_time"":4763},{""page_index"":1,""viewing_time"":25711},{""page_index"":2,""viewing_time"":6099},{""page_index"":3,""viewing_time"":1640}]","","","","","","","","","","","","","",""
"","","","","","html-keyboard-response","11","205382","0.0-6.0","null","<count-down title=""""></count-down>","null","","","","","","","","","","","","","","","","","","","","","","","","","",""
"","","","","","psychophysics","12","208010","0.0-7.0-0.0-0.0","1471","","f","","","","","","","","","","","","","key","f","16.6656050955414","853.3333333333334","476","./1_3_Stimuli/S_ambi40.png","自我","Word","自我","Match","f","true","Practice",""
"","","","","","html-keyboard-response","13","208314","0.0-7.0-0.0-1.0","null","<span style='color:GreenYellow; font-size: 70px;'>正确! </span>","null","","","","","","","","","","","","","","","","","","","","","","","","","feedback",""
"","","","","","psychophysics","14","210033","0.0-7.0-0.0-0.1","566","","f","","","","","","","","","","","","","key","f","16.666666666666668","853.3333333333334","476","./1_3_Stimuli/S_ambi40.png","自我","Image","自我","Match","f","true","Practice",""
"","","","","","html-keyboard-response","15","210341","0.0-7.0-0.0-1.1","null","<span style='color:GreenYellow; font-size: 70px;'>正确! </span>","null","","","","","","","","","","","","","","","","","","","","","","","","","feedback",""
"","","","","","psychophysics","16","211853","0.0-7.0-0.0-0.2","349","","j","","","","","","","","","","","","","key","j","16.666292134831657","853.3333333333334","476","./1_3_Stimuli/C_ambi40.png","朋友","Image","朋友","Match","f","false","Practice",""
"","","","","","html-keyboard-response","17","212157","0.0-7.0-0.0-1.2","null","<span style='color:red; font-size: 70px;'>错误! </span>","null","","","","","","","","","","","","","","","","","","","","","","","","","feedback",""
"","","","","","psychophysics","18","214066","0.0-7.0-0.0-0.3","751","","j","","","","","","","","","","","","","key","j","16.666371681416084","853.3333333333334","476","./1_3_Stimuli/C_ambi40.png","他人","Word","朋友","Mismatch","j","true","Practice",""
"","","","","","html-keyboard-response","19","214374","0.0-7.0-0.0-1.3","null","<span style='color:GreenYellow; font-size: 70px;'>正确! </span>","null","","","","","","","","","","","","","","","","","","","","","","","","","feedback",""
"","","","","","psychophysics","20","216416","0.0-7.0-0.0-0.4","878","","f","","","","","","","","","","","","","key","f","16.65289256198347","853.3333333333334","476","./1_3_Stimuli/T_ambi40.png","他人","Image","他人","Match","f","true","Practice",""
"","","","","","html-keyboard-response","21","216720","0.0-7.0-0.0-1.4","null","<span style='color:GreenYellow; font-size: 70px;'>正确! </span>","null","","","","","","","","","","","","","","","","","","","","","","","","","feedback",""
"","","","","","psychophysics","22","218885","0.0-7.0-0.0-0.5","1014","","j","","","","","","","","","","","","","key","j","16.66015625","853.3333333333334","476","./1_3_Stimuli/S_ambi40.png","朋友","Word","自我","Mismatch","j","true","Practice",""
"","","","","","html-keyboard-response","23","219196","0.0-7.0-0.0-1.5","null","<span style='color:GreenYellow; font-size: 70px;'>正确! </span>","null","","","","","","","","","","","","","","","","","","","","","","","","","feedback",""
"","","","","","psychophysics","24","221901","0.0-7.0-0.0-0.6","null","","null","","","","","","","","","","","","","key","null","16.66645962732912","853.3333333333334","476","./1_3_Stimuli/T_ambi40.png","他人","Word","他人","Match","f","false","Practice",""
"","","","","","html-keyboard-response","25","222213","0.0-7.0-0.0-1.6","null","<span class='add_' style='color:yellow; font-size: 70px;'> 太慢! </span>","null","","","","","","","","","","","","","","","","","","","","","","","","","feedback",""
"","","","","","psychophysics","26","223687","0.0-7.0-0.0-0.7","319","","f","","","","","","","","","","","","","key","f","16.652873563218257","853.3333333333334","476","./1_3_Stimuli/C_ambi40.png","朋友","Image","朋友","Match","f","true","Practice",""
"","","","","","html-keyboard-response","27","223991","0.0-7.0-0.0-1.7","null","<span style='color:GreenYellow; font-size: 70px;'>正确! </span>","null","","","","","","","","","","","","","","","","","","","","","","","","","feedback",""
"","","","","","psychophysics","28","225948","0.0-7.0-0.0-0.8","803","","f","","","","","","","","","","","","","key","f","16.666666666666668","853.3333333333334","476","./1_3_Stimuli/C_ambi40.png","朋友","Word","朋友","Match","f","true","Practice",""
"","","","","","html-keyboard-response","29","226251","0.0-7.0-0.0-1.8","null","<span style='color:GreenYellow; font-size: 70px;'>正确! </span>","null","","","","","","","","","","","","","","","","","","","","","","","","","feedback",""
"","","","","","psychophysics","30","228238","0.0-7.0-0.0-0.9","833","","j","","","","","","","","","","","","","key","j","16.666949152542227","853.3333333333334","476","./1_3_Stimuli/S_ambi40.png","他人","Word","自我","Mismatch","j","true","Practice",""
"","","","","","html-keyboard-response","31","228545","0.0-7.0-0.0-1.9","null","<span style='color:GreenYellow; font-size: 70px;'>正确! </span>","null","","","","","","","","","","","","","","","","","","","","","","","","","feedback",""
"","","","","","psychophysics","32","230105","0.0-7.0-0.0-0.10","404","","f","","","","","","","","","","","","","key","f","16.668478260869566","853.3333333333334","476","./1_3_Stimuli/C_ambi40.png","他人","Image","朋友","Mismatch","j","false","Practice",""
"","","","","","html-keyboard-response","33","230418","0.0-7.0-0.0-1.10","null","<span style='color:red; font-size: 70px;'>错误! </span>","null","","","","","","","","","","","","","","","","","","","","","","","","","feedback",""
"","","","","","psychophysics","34","232596","0.0-7.0-0.0-0.11","1025","","j","","","","","","","","","","","","","key","j","16.66923076923077","853.3333333333334","476","./1_3_Stimuli/S_ambi40.png","朋友","Image","自我","Mismatch","j","true","Practice",""
"","","","","","html-keyboard-response","35","232901","0.0-7.0-0.0-1.11","null","<span style='color:GreenYellow; font-size: 70px;'>正确! </span>","null","","","","","","","","","","","","","","","","","","","","","","","","","feedback",""
"","","","","","psychophysics","36","234678","0.0-7.0-0.0-0.12","622","","j","","","","","","","","","","","","","key","j","16.6584905660379","853.3333333333334","476","./1_3_Stimuli/T_ambi40.png","朋友","Image","他人","Mismatch","j","true","Practice",""
"","","","","","html-keyboard-response","37","234983","0.0-7.0-0.0-1.12","null","<span style='color:GreenYellow; font-size: 70px;'>正确! </span>","null","","","","","","","","","","","","","","","","","","","","","","","","","feedback",""
"","","","","","psychophysics","38","236792","0.0-7.0-0.0-0.13","656","","j","","","","","","","","","","","","","key","j","16.6592592592591","853.3333333333334","476","./1_3_Stimuli/C_ambi40.png","朋友","Word","朋友","Match","f","false","Practice",""
"","","","","","html-keyboard-response","39","237103","0.0-7.0-0.0-1.13","null","<span style='color:red; font-size: 70px;'>错误! </span>","null","","","","","","","","","","","","","","","","","","","","","","","","","feedback",""
"","","","","","psychophysics","40","238899","0.0-7.0-0.0-0.14","644","","f","","","","","","","","","","","","","key","f","16.666355140186806","853.3333333333334","476","./1_3_Stimuli/S_ambi40.png","自我","Word","自我","Match","f","true","Practice",""
"","","","","","html-keyboard-response","41","239207","0.0-7.0-0.0-1.14","null","<span style='color:GreenYellow; font-size: 70px;'>正确! </span>","null","","","","","","","","","","","","","","","","","","","","","","","","","feedback",""
"","","","","","psychophysics","42","241045","0.0-7.0-0.0-0.15","683","","j","","","","","","","","","","","","","key","j","16.666055045871612","853.3333333333334","476","./1_3_Stimuli/S_ambi40.png","他人","Image","自我","Mismatch","j","true","Practice",""
"","","","","","html-keyboard-response","43","241359","0.0-7.0-0.0-1.15","null","<span style='color:GreenYellow; font-size: 70px;'>正确! </span>","null","","","","","","","","","","","","","","","","","","","","","","","","","feedback",""
"","","","","","psychophysics","44","243213","0.0-7.0-0.0-0.16","702","","j","","","","","","","","","","","","","key","j","16.66545454545465","853.3333333333334","476","./1_3_Stimuli/T_ambi40.png","他人","Word","他人","Match","f","false","Practice",""
"","","","","","html-keyboard-response","45","243523","0.0-7.0-0.0-1.16","null","<span style='color:red; font-size: 70px;'>错误! </span>","null","","","","","","","","","","","","","","","","","","","","","","","","","feedback",""
"","","","","","psychophysics","46","245506","0.0-7.0-0.0-0.17","831","","j","","","","","","","","","","","","","key","j","16.666101694915305","853.3333333333334","476","./1_3_Stimuli/T_ambi40.png","朋友","Word","他人","Mismatch","j","true","Practice",""
"","","","","","html-keyboard-response","47","245816","0.0-7.0-0.0-1.17","null","<span style='color:GreenYellow; font-size: 70px;'>正确! </span>","null","","","","","","","","","","","","","","","","","","","","","","","","","feedback",""
"","","","","","psychophysics","48","247661","0.0-7.0-0.0-0.18","689","","f","","","","","","","","","","","","","key","f","16.668181818181818","853.3333333333334","476","./1_3_Stimuli/S_ambi40.png","自我","Image","自我","Match","f","true","Practice",""
"","","","","","html-keyboard-response","49","247970","0.0-7.0-0.0-1.18","null","<span style='color:GreenYellow; font-size: 70px;'>正确! </span>","null","","","","","","","","","","","","","","","","","","","","","","","","","feedback",""
"","","","","","psychophysics","50","249770","0.0-7.0-0.0-0.19","648","","j","","","","","","","","","","","","","key","j","16.65566037735849","853.3333333333334","476","./1_3_Stimuli/T_ambi40.png","自我","Word","他人","Mismatch","j","true","Practice",""
"","","","","","html-keyboard-response","51","250077","0.0-7.0-0.0-1.19","null","<span style='color:GreenYellow; font-size: 70px;'>正确! </span>","null","","","","","","","","","","","","","","","","","","","","","","","","","feedback",""
"","","","","","psychophysics","52","251624","0.0-7.0-0.0-0.20","391","","f","","","","","","","","","","","","","key","f","16.665217391304473","853.3333333333334","476","./1_3_Stimuli/C_ambi40.png","自我","Image","朋友","Mismatch","j","false","Practice",""
"","","","","","html-keyboard-response","53","251935","0.0-7.0-0.0-1.20","null","<span style='color:red; font-size: 70px;'>错误! </span>","null","","","","","","","","","","","","","","","","","","","","","","","","","feedback",""
"","","","","","psychophysics","54","253544","0.0-7.0-0.0-0.21","456","","j","","","","","","","","","","","","","key","j","16.666666666666668","853.3333333333334","476","./1_3_Stimuli/T_ambi40.png","自我","Image","他人","Mismatch","j","true","Practice",""
"","","","","","html-keyboard-response","55","253851","0.0-7.0-0.0-1.21","null","<span style='color:GreenYellow; font-size: 70px;'>正确! </span>","null","","","","","","","","","","","","","","","","","","","","","","","","","feedback",""
"","","","","","psychophysics","56","255427","0.0-7.0-0.0-0.22","422","","j","","","","","","","","","","","","","key","j","16.660638297872403","853.3333333333334","476","./1_3_Stimuli/T_ambi40.png","他人","Image","他人","Match","f","false","Practice",""
"","","","","","html-keyboard-response","57","255742","0.0-7.0-0.0-1.22","null","<span style='color:red; font-size: 70px;'>错误! </span>","null","","","","","","","","","","","","","","","","","","","","","","","","","feedback",""
"","","","","","psychophysics","58","257680","0.0-7.0-0.0-0.23","775","","f","","","","","","","","","","","","","key","f","16.66695652173923","853.3333333333334","476","./1_3_Stimuli/C_ambi40.png","自我","Word","朋友","Mismatch","j","false","Practice",""
"","","","","","html-keyboard-response","59","257984","0.0-7.0-0.0-1.23","null","<span style='color:red; font-size: 70px;'>错误! </span>","null","","","","","","","","","","","","","","","","","","","","","","","","","feedback",""
"","","","","","html-keyboard-response","60","260926","0.0-7.0-1.0-0.0","2940","<style>.context{color:white; font-size: 35px; line-height:40px}</style>                        <div><p class='context'>您正确回答了67% 的试次。</p><p class='context'>您的平均反应时为765毫秒。</p><p> <div style = 'color: green'><按空格键至下页></div></p>"," ","","","","","","","","","","","","","","","","","","","","","","","","","",""
"","","","","","instructions","61","274527","0.0-7.0-1.0-1.0","13599","","","","","","","","","","","","","","[{""page_index"":0,""viewing_time"":3431},{""page_index"":1,""viewing_time"":8298},{""page_index"":2,""viewing_time"":1870}]","","","","","","","","","","","","","",""
"","","","","","psychophysics","62","276712","0.0-7.1-0.1-0.24","1022","","j","","","","","","","","","","","","","key","j","16.666153846154113","853.3333333333334","476","./1_3_Stimuli/T_ambi40.png","他人","Word","他人","Match","f","false","Practice",""
"","","","","","html-keyboard-response","63","277018","0.0-7.1-0.1-1.24","null","<span style='color:red; font-size: 70px;'>错误! </span>","null","","","","","","","","","","","","","","","","","","","","","","","","","feedback",""
"","","","","","psychophysics","64","279055","0.0-7.1-0.1-0.25","883","","f","","","","","","","","","","","","","key","f","16.65583333333343","853.3333333333334","476","./1_3_Stimuli/T_ambi40.png","他人","Image","他人","Match","f","true","Practice",""
"","","","","","html-keyboard-response","65","279364","0.0-7.1-0.1-1.25","null","<span style='color:GreenYellow; font-size: 70px;'>正确! </span>","null","","","","","","","","","","","","","","","","","","","","","","","","","feedback",""
"","","","","","psychophysics","66","281310","0.0-7.1-0.1-0.26","795","","j","","","","","","","","","","","","","key","j","16.667241379310546","853.3333333333334","476","./1_3_Stimuli/C_ambi40.png","自我","Image","朋友","Mismatch","j","true","Practice",""
"","","","","","html-keyboard-response","67","281620","0.0-7.1-0.1-1.26","null","<span style='color:GreenYellow; font-size: 70px;'>正确! </span>","null","","","","","","","","","","","","","","","","","","","","","","","","","feedback",""
"","","","","","psychophysics","68","283392","0.0-7.1-0.1-0.27","620","","f","","","","","","","","","","","","","key","f","16.658490566038175","853.3333333333334","476","./1_3_Stimuli/S_ambi40.png","自我","Image","自我","Match","f","true","Practice",""
"","","","","","html-keyboard-response","69","283694","0.0-7.1-0.1-1.27","null","<span style='color:GreenYellow; font-size: 70px;'>正确! </span>","null","","","","","","","","","","","","","","","","","","","","","","","","","feedback",""
"","","","","","psychophysics","70","285477","0.0-7.1-0.1-0.28","631","","j","","","","","","","","","","","","","key","j","16.666037735849386","853.3333333333334","476","./1_3_Stimuli/C_ambi40.png","他人","Word","朋友","Mismatch","j","true","Practice",""
"","","","","","html-keyboard-response","71","285783","0.0-7.1-0.1-1.28","null","<span style='color:GreenYellow; font-size: 70px;'>正确! </span>","null","","","","","","","","","","","","","","","","","","","","","","","","","feedback",""
"","","","","","psychophysics","72","287411","0.0-7.1-0.1-0.29","473","","j","","","","","","","","","","","","","key","j","16.66701030927787","853.3333333333334","476","./1_3_Stimuli/C_ambi40.png","他人","Image","朋友","Mismatch","j","true","Practice",""
"","","","","","html-keyboard-response","73","287726","0.0-7.1-0.1-1.29","null","<span style='color:GreenYellow; font-size: 70px;'>正确! </span>","null","","","","","","","","","","","","","","","","","","","","","","","","","feedback",""
"","","","","","psychophysics","74","289762","0.0-7.1-0.1-0.30","885","","j","","","","","","","","","","","","","key","j","16.666942148759947","853.3333333333334","476","./1_3_Stimuli/S_ambi40.png","他人","Word","自我","Mismatch","j","true","Practice",""
"","","","","","html-keyboard-response","75","290074","0.0-7.1-0.1-1.30","null","<span style='color:GreenYellow; font-size: 70px;'>正确! </span>","null","","","","","","","","","","","","","","","","","","","","","","","","","feedback",""
"","","","","","psychophysics","76","291935","0.0-7.1-0.1-0.31","708","","f","","","","","","","","","","","","","key","f","16.66636363636353","853.3333333333334","476","./1_3_Stimuli/T_ambi40.png","自我","Word","他人","Mismatch","j","false","Practice",""
"","","","","","html-keyboard-response","77","292246","0.0-7.1-0.1-1.31","null","<span style='color:red; font-size: 70px;'>错误! </span>","null","","","","","","","","","","","","","","","","","","","","","","","","","feedback",""
"","","","","","psychophysics","78","294343","0.0-7.1-0.1-0.32","944","","j","","","","","","","","","","","","","key","j","16.665600000000094","853.3333333333334","476","./1_3_Stimuli/C_ambi40.png","朋友","Image","朋友","Match","f","false","Practice",""
"","","","","","html-keyboard-response","79","294645","0.0-7.1-0.1-1.32","null","<span style='color:red; font-size: 70px;'>错误! </span>","null","","","","","","","","","","","","","","","","","","","","","","","","","feedback",""
"","","","","","psychophysics","80","296299","0.0-7.1-0.1-0.33","503","","f","","","","","","","","","","","","","key","f","16.6653061224491","853.3333333333334","476","./1_3_Stimuli/S_ambi40.png","他人","Image","自我","Mismatch","j","false","Practice",""
"","","","","","html-keyboard-response","81","296609","0.0-7.1-0.1-1.33","null","<span style='color:red; font-size: 70px;'>错误! </span>","null","","","","","","","","","","","","","","","","","","","","","","","","","feedback",""
"","","","","","psychophysics","82","298583","0.0-7.1-0.1-0.34","820","","f","","","","","","","","","","","","","key","f","16.667521367521665","853.3333333333334","476","./1_3_Stimuli/S_ambi40.png","自我","Word","自我","Match","f","true","Practice",""
"","","","","","html-keyboard-response","83","298885","0.0-7.1-0.1-1.34","null","<span style='color:GreenYellow; font-size: 70px;'>正确! </span>","null","","","","","","","","","","","","","","","","","","","","","","","","","feedback",""
"","","","","","psychophysics","84","300994","0.0-7.1-0.1-0.35","956","","j","","","","","","","","","","","","","key","j","16.666666666666668","853.3333333333334","476","./1_3_Stimuli/S_ambi40.png","朋友","Image","自我","Mismatch","j","true","Practice",""
"","","","","","html-keyboard-response","85","301299","0.0-7.1-0.1-1.35","null","<span style='color:GreenYellow; font-size: 70px;'>正确! </span>","null","","","","","","","","","","","","","","","","","","","","","","","","","feedback",""
"","","","","","psychophysics","86","303385","0.0-7.1-0.1-0.36","929","","f","","","","","","","","","","","","","key","f","16.66693548387106","853.3333333333334","476","./1_3_Stimuli/T_ambi40.png","他人","Word","他人","Match","f","true","Practice",""
"","","","","","html-keyboard-response","87","303689","0.0-7.1-0.1-1.36","null","<span style='color:GreenYellow; font-size: 70px;'>正确! </span>","null","","","","","","","","","","","","","","","","","","","","","","","","","feedback",""
"","","","","","psychophysics","88","305619","0.0-7.1-0.1-0.37","773","","f","","","","","","","","","","","","","key","f","16.662280701754387","853.3333333333334","476","./1_3_Stimuli/S_ambi40.png","自我","Word","自我","Match","f","true","Practice",""
"","","","","","html-keyboard-response","89","305935","0.0-7.1-0.1-1.37","null","<span style='color:GreenYellow; font-size: 70px;'>正确! </span>","null","","","","","","","","","","","","","","","","","","","","","","","","","feedback",""
"","","","","","psychophysics","90","308101","0.0-7.1-0.1-0.38","1015","","f","","","","","","","","","","","","","key","f","16.666666666666668","853.3333333333334","476","./1_3_Stimuli/T_ambi40.png","他人","Image","他人","Match","f","true","Practice",""
"","","","","","html-keyboard-response","91","308413","0.0-7.1-0.1-1.38","null","<span style='color:GreenYellow; font-size: 70px;'>正确! </span>","null","","","","","","","","","","","","","","","","","","","","","","","","","feedback",""
"","","","","","psychophysics","92","310252","0.0-7.1-0.1-0.39","687","","j","","","","","","","","","","","","","key","j","16.666972477064327","853.3333333333334","476","./1_3_Stimuli/C_ambi40.png","自我","Word","朋友","Mismatch","j","true","Practice",""
"","","","","","html-keyboard-response","93","310554","0.0-7.1-0.1-1.39","null","<span style='color:GreenYellow; font-size: 70px;'>正确! </span>","null","","","","","","","","","","","","","","","","","","","","","","","","","feedback",""
"","","","","","psychophysics","94","312475","0.0-7.1-0.1-0.40","770","","j","","","","","","","","","","","","","key","j","16.661403508771624","853.3333333333334","476","./1_3_Stimuli/C_ambi40.png","朋友","Image","朋友","Match","f","false","Practice",""
"","","","","","html-keyboard-response","95","312787","0.0-7.1-0.1-1.40","null","<span style='color:red; font-size: 70px;'>错误! </span>","null","","","","","","","","","","","","","","","","","","","","","","","","","feedback",""
"","","","","","psychophysics","96","314565","0.0-7.1-0.1-0.41","627","","f","","","","","","","","","","","","","key","f","16.660952380952047","853.3333333333334","476","./1_3_Stimuli/C_ambi40.png","朋友","Word","朋友","Match","f","true","Practice",""
"","","","","","html-keyboard-response","97","314878","0.0-7.1-0.1-1.41","null","<span style='color:GreenYellow; font-size: 70px;'>正确! </span>","null","","","","","","","","","","","","","","","","","","","","","","","","","feedback",""
"","","","","","psychophysics","98","316523","0.0-7.1-0.1-0.42","492","","j","","","","","","","","","","","","","key","j","16.6653061224491","853.3333333333334","476","./1_3_Stimuli/S_ambi40.png","朋友","Word","自我","Mismatch","j","true","Practice",""
"","","","","","html-keyboard-response","99","316832","0.0-7.1-0.1-1.42","null","<span style='color:GreenYellow; font-size: 70px;'>正确! </span>","null","","","","","","","","","","","","","","","","","","","","","","","","","feedback",""
"","","","","","psychophysics","100","318846","0.0-7.1-0.1-0.43","861","","f","","","","","","","","","","","","","key","f","16.66750000000029","853.3333333333334","476","./1_3_Stimuli/C_ambi40.png","朋友","Word","朋友","Match","f","true","Practice",""
"","","","","","html-keyboard-response","101","319153","0.0-7.1-0.1-1.43","null","<span style='color:GreenYellow; font-size: 70px;'>正确! </span>","null","","","","","","","","","","","","","","","","","","","","","","","","","feedback",""
"","","","","","psychophysics","102","320983","0.0-7.1-0.1-0.44","678","","j","","","","","","","","","","","","","key","j","16.65740740740741","853.3333333333334","476","./1_3_Stimuli/T_ambi40.png","朋友","Word","他人","Mismatch","j","true","Practice",""
"","","","","","html-keyboard-response","103","321287","0.0-7.1-0.1-1.44","null","<span style='color:GreenYellow; font-size: 70px;'>正确! </span>","null","","","","","","","","","","","","","","","","","","","","","","","","","feedback",""
"","","","","","psychophysics","104","323302","0.0-7.1-0.1-0.45","863","","f","","","","","","","","","","","","","key","f","16.666386554621752","853.3333333333334","476","./1_3_Stimuli/T_ambi40.png","自我","Image","他人","Mismatch","j","false","Practice",""
"","","","","","html-keyboard-response","105","323607","0.0-7.1-0.1-1.45","null","<span style='color:red; font-size: 70px;'>错误! </span>","null","","","","","","","","","","","","","","","","","","","","","","","","","feedback",""
"","","","","","psychophysics","106","325347","0.0-7.1-0.1-0.46","583","","j","","","","","","","","","","","","","key","j","16.666019417475503","853.3333333333334","476","./1_3_Stimuli/T_ambi40.png","朋友","Image","他人","Mismatch","j","true","Practice",""
"","","","","","html-keyboard-response","107","325656","0.0-7.1-0.1-1.46","null","<span style='color:GreenYellow; font-size: 70px;'>正确! </span>","null","","","","","","","","","","","","","","","","","","","","","","","","","feedback",""
"","","","","","psychophysics","108","327600","0.0-7.1-0.1-0.47","790","","f","","","","","","","","","","","","","key","f","16.66695652173923","853.3333333333334","476","./1_3_Stimuli/S_ambi40.png","自我","Image","自我","Match","f","true","Practice",""
"","","","","","html-keyboard-response","109","327903","0.0-7.1-0.1-1.47","null","<span style='color:GreenYellow; font-size: 70px;'>正确! </span>","null","","","","","","","","","","","","","","","","","","","","","","","","","feedback",""
"","","","","","html-keyboard-response","110","331100","0.0-7.1-1.1-0.1","3195","<style>.context{color:white; font-size: 35px; line-height:40px}</style>                        <div><p class='context'>您正确回答了75% 的试次。</p><p class='context'>您的平均反应时为750毫秒。</p><p> <div style = 'color: green'><按空格键至下页></div></p>"," ","","","","","","","","","","","","","","","","","","","","","","","","","",""
"","","","","","instructions","111","343561","0.0-7.1-1.1-1.1","12459","","","","","","","","","","","","","","[{""page_index"":0,""viewing_time"":2905},{""page_index"":1,""viewing_time"":8002},{""page_index"":2,""viewing_time"":1552}]","","","","","","","","","","","","","",""
"","","","","","psychophysics","112","345482","0.0-7.2-0.2-0.48","761","","j","","","","","","","","","","","","","key","j","16.66754385964892","853.3333333333334","476","./1_3_Stimuli/S_ambi40.png","他人","Word","自我","Mismatch","j","true","Practice",""
"","","","","","html-keyboard-response","113","345788","0.0-7.2-0.2-1.48","null","<span style='color:GreenYellow; font-size: 70px;'>正确! </span>","null","","","","","","","","","","","","","","","","","","","","","","","","","feedback",""
"","","","","","psychophysics","114","347455","0.0-7.2-0.2-0.49","515","","f","","","","","","","","","","","","","key","f","16.667346938775747","853.3333333333334","476","./1_3_Stimuli/S_ambi40.png","自我","Word","自我","Match","f","true","Practice",""
"","","","","","html-keyboard-response","115","347770","0.0-7.2-0.2-1.49","null","<span style='color:GreenYellow; font-size: 70px;'>正确! </span>","null","","","","","","","","","","","","","","","","","","","","","","","","","feedback",""
"","","","","","psychophysics","116","349379","0.0-7.2-0.2-0.50","458","","f","","","","","","","","","","","","","key","f","16.666666666666668","853.3333333333334","476","./1_3_Stimuli/S_ambi40.png","自我","Word","自我","Match","f","true","Practice",""
"","","","","","html-keyboard-response","117","349695","0.0-7.2-0.2-1.50","null","<span style='color:GreenYellow; font-size: 70px;'>正确! </span>","null","","","","","","","","","","","","","","","","","","","","","","","","","feedback",""
"","","","","","psychophysics","118","351435","0.0-7.2-0.2-0.51","583","","j","","","","","","","","","","","","","key","j","16.66699029126225","853.3333333333334","476","./1_3_Stimuli/T_ambi40.png","自我","Word","他人","Mismatch","j","true","Practice",""
"","","","","","html-keyboard-response","119","351751","0.0-7.2-0.2-1.51","null","<span style='color:GreenYellow; font-size: 70px;'>正确! </span>","null","","","","","","","","","","","","","","","","","","","","","","","","","feedback",""
"","","","","","psychophysics","120","353811","0.0-7.2-0.2-0.52","905","","j","","","","","","","","","","","","","key","j","16.657723577235963","853.3333333333334","476","./1_3_Stimuli/C_ambi40.png","他人","Word","朋友","Mismatch","j","true","Practice",""
"","","","","","html-keyboard-response","121","354116","0.0-7.2-0.2-1.52","null","<span style='color:GreenYellow; font-size: 70px;'>正确! </span>","null","","","","","","","","","","","","","","","","","","","","","","","","","feedback",""
"","","","","","psychophysics","122","356259","0.0-7.2-0.2-0.53","989","","j","","","","","","","","","","","","","key","j","16.66562500000009","853.3333333333334","476","./1_3_Stimuli/S_ambi40.png","他人","Image","自我","Mismatch","j","true","Practice",""
"","","","","","html-keyboard-response","123","356569","0.0-7.2-0.2-1.53","null","<span style='color:GreenYellow; font-size: 70px;'>正确! </span>","null","","","","","","","","","","","","","","","","","","","","","","","","","feedback",""
"","","","","","psychophysics","124","358396","0.0-7.2-0.2-0.54","675","","j","","","","","","","","","","","","","key","j","16.650458715596542","853.3333333333334","476","./1_3_Stimuli/T_ambi40.png","他人","Word","他人","Match","f","false","Practice",""
"","","","","","html-keyboard-response","125","358712","0.0-7.2-0.2-1.54","null","<span style='color:red; font-size: 70px;'>错误! </span>","null","","","","","","","","","","","","","","","","","","","","","","","","","feedback",""
"","","","","","psychophysics","126","360462","0.0-7.2-0.2-0.55","595","","f","","","","","","","","","","","","","key","f","16.660576923077034","853.3333333333334","476","./1_3_Stimuli/T_ambi40.png","自我","Image","他人","Mismatch","j","false","Practice",""
"","","","","","html-keyboard-response","127","360771","0.0-7.2-0.2-1.55","null","<span style='color:red; font-size: 70px;'>错误! </span>","null","","","","","","","","","","","","","","","","","","","","","","","","","feedback",""
"","","","","","psychophysics","128","362577","0.0-7.2-0.2-0.56","646","","j","","","","","","","","","","","","","key","j","16.667289719625842","853.3333333333334","476","./1_3_Stimuli/T_ambi40.png","朋友","Image","他人","Mismatch","j","true","Practice",""
"","","","","","html-keyboard-response","129","362882","0.0-7.2-0.2-1.56","null","<span style='color:GreenYellow; font-size: 70px;'>正确! </span>","null","","","","","","","","","","","","","","","","","","","","","","","","","feedback",""
"","","","","","psychophysics","130","364706","0.0-7.2-0.2-0.57","668","","f","","","","","","","","","","","","","key","f","16.666972477064327","853.3333333333334","476","./1_3_Stimuli/C_ambi40.png","朋友","Image","朋友","Match","f","true","Practice",""
"","","","","","html-keyboard-response","131","365019","0.0-7.2-0.2-1.57","null","<span style='color:GreenYellow; font-size: 70px;'>正确! </span>","null","","","","","","","","","","","","","","","","","","","","","","","","","feedback",""
"","","","","","psychophysics","132","366730","0.0-7.2-0.2-0.58","559","","j","","","","","","","","","","","","","key","j","16.65544554455457","853.3333333333334","476","./1_3_Stimuli/C_ambi40.png","自我","Image","朋友","Mismatch","j","true","Practice",""
"","","","","","html-keyboard-response","133","367039","0.0-7.2-0.2-1.58","null","<span style='color:GreenYellow; font-size: 70px;'>正确! </span>","null","","","","","","","","","","","","","","","","","","","","","","","","","feedback",""
"","","","","","psychophysics","134","368663","0.0-7.2-0.2-0.59","460","","f","","","","","","","","","","","","","key","f","16.664583333333212","853.3333333333334","476","./1_3_Stimuli/S_ambi40.png","自我","Image","自我","Match","f","true","Practice",""
"","","","","","html-keyboard-response","135","368967","0.0-7.2-0.2-1.59","null","<span style='color:GreenYellow; font-size: 70px;'>正确! </span>","null","","","","","","","","","","","","","","","","","","","","","","","","","feedback",""
"","","","","","psychophysics","136","371213","0.0-7.2-0.2-0.60","1092","","j","","","","","","","","","","","","","key","j","16.66044776119403","853.3333333333334","476","./1_3_Stimuli/S_ambi40.png","朋友","Word","自我","Mismatch","j","true","Practice",""
"","","","","","html-keyboard-response","137","371520","0.0-7.2-0.2-1.60","null","<span style='color:GreenYellow; font-size: 70px;'>正确! </span>","null","","","","","","","","","","","","","","","","","","","","","","","","","feedback",""
"","","","","","psychophysics","138","373235","0.0-7.2-0.2-0.61","564","","f","","","","","","","","","","","","","key","f","16.653465346534652","853.3333333333334","476","./1_3_Stimuli/S_ambi40.png","自我","Image","自我","Match","f","true","Practice",""
"","","","","","html-keyboard-response","139","373544","0.0-7.2-0.2-1.61","null","<span style='color:GreenYellow; font-size: 70px;'>正确! </span>","null","","","","","","","","","","","","","","","","","","","","","","","","","feedback",""
"","","","","","psychophysics","140","375700","0.0-7.2-0.2-0.62","998","","j","","","","","","","","","","","","","key","j","16.667187500000182","853.3333333333334","476","./1_3_Stimuli/T_ambi40.png","他人","Word","他人","Match","f","false","Practice",""
"","","","","","html-keyboard-response","141","376007","0.0-7.2-0.2-1.62","null","<span style='color:red; font-size: 70px;'>错误! </span>","null","","","","","","","","","","","","","","","","","","","","","","","","","feedback",""
"","","","","","psychophysics","142","378058","0.0-7.2-0.2-0.63","885","","j","","","","","","","","","","","","","key","j","16.666393442622855","853.3333333333334","476","./1_3_Stimuli/C_ambi40.png","自我","Word","朋友","Mismatch","j","true","Practice",""
"","","","","","html-keyboard-response","143","378363","0.0-7.2-0.2-1.63","null","<span style='color:GreenYellow; font-size: 70px;'>正确! </span>","null","","","","","","","","","","","","","","","","","","","","","","","","","feedback",""
"","","","","","psychophysics","144","380012","0.0-7.2-0.2-0.64","491","","f","","","","","","","","","","","","","key","f","16.66224489795883","853.3333333333334","476","./1_3_Stimuli/T_ambi40.png","他人","Image","他人","Match","f","true","Practice",""
"","","","","","html-keyboard-response","145","380314","0.0-7.2-0.2-1.64","null","<span style='color:GreenYellow; font-size: 70px;'>正确! </span>","null","","","","","","","","","","","","","","","","","","","","","","","","","feedback",""
"","","","","","psychophysics","146","382269","0.0-7.2-0.2-0.65","798","","j","","","","","","","","","","","","","key","j","16.654310344827284","853.3333333333334","476","./1_3_Stimuli/C_ambi40.png","朋友","Word","朋友","Match","f","false","Practice",""
"","","","","","html-keyboard-response","147","382575","0.0-7.2-0.2-1.65","null","<span style='color:red; font-size: 70px;'>错误! </span>","null","","","","","","","","","","","","","","","","","","","","","","","","","feedback",""
"","","","","","psychophysics","148","384364","0.0-7.2-0.2-0.66","634","","f","","","","","","","","","","","","","key","f","16.66698113207558","853.3333333333334","476","./1_3_Stimuli/C_ambi40.png","朋友","Image","朋友","Match","f","true","Practice",""
"","","","","","html-keyboard-response","149","384666","0.0-7.2-0.2-1.66","null","<span style='color:GreenYellow; font-size: 70px;'>正确! </span>","null","","","","","","","","","","","","","","","","","","","","","","","","","feedback",""
"","","","","","psychophysics","150","386453","0.0-7.2-0.2-0.67","632","","j","","","","","","","","","","","","","key","j","16.662264150942956","853.3333333333334","476","./1_3_Stimuli/T_ambi40.png","朋友","Word","他人","Mismatch","j","true","Practice",""
"","","","","","html-keyboard-response","151","386759","0.0-7.2-0.2-1.67","null","<span style='color:GreenYellow; font-size: 70px;'>正确! </span>","null","","","","","","","","","","","","","","","","","","","","","","","","","feedback",""
"","","","","","psychophysics","152","388763","0.0-7.2-0.2-0.68","851","","f","","","","","","","","","","","","","key","f","16.665546218487492","853.3333333333334","476","./1_3_Stimuli/T_ambi40.png","他人","Image","他人","Match","f","true","Practice",""
"","","","","","html-keyboard-response","153","389067","0.0-7.2-0.2-1.68","null","<span style='color:GreenYellow; font-size: 70px;'>正确! </span>","null","","","","","","","","","","","","","","","","","","","","","","","","","feedback",""
"","","","","","psychophysics","154","391091","0.0-7.2-0.2-0.69","873","","f","","","","","","","","","","","","","key","f","16.667768595041228","853.3333333333334","476","./1_3_Stimuli/C_ambi40.png","朋友","Word","朋友","Match","f","true","Practice",""
"","","","","","html-keyboard-response","155","391404","0.0-7.2-0.2-1.69","null","<span style='color:GreenYellow; font-size: 70px;'>正确! </span>","null","","","","","","","","","","","","","","","","","","","","","","","","","feedback",""
"","","","","","psychophysics","156","393170","0.0-7.2-0.2-0.70","614","","j","","","","","","","","","","","","","key","j","16.666666666666668","853.3333333333334","476","./1_3_Stimuli/C_ambi40.png","他人","Image","朋友","Mismatch","j","true","Practice",""
"","","","","","html-keyboard-response","157","393481","0.0-7.2-0.2-1.70","null","<span style='color:GreenYellow; font-size: 70px;'>正确! </span>","null","","","","","","","","","","","","","","","","","","","","","","","","","feedback",""
"","","","","","psychophysics","158","395564","0.0-7.2-0.2-0.71","927","","j","","","","","","","","","","","","","key","j","16.66693548387106","853.3333333333334","476","./1_3_Stimuli/S_ambi40.png","朋友","Image","自我","Mismatch","j","true","Practice",""
"","","","","","html-keyboard-response","159","395870","0.0-7.2-0.2-1.71","null","<span style='color:GreenYellow; font-size: 70px;'>正确! </span>","null","","","","","","","","","","","","","","","","","","","","","","","","","feedback",""
"","","","","","html-keyboard-response","160","398502","0.0-7.2-1.2-0.2","2630","<style>.context{color:white; font-size: 35px; line-height:40px}</style>                        <div><p class='context'>您正确回答了83% 的试次。</p><p class='context'>您的平均反应时为705毫秒。</p><p> <div style = 'color: green'><按空格键至下页></div></p>"," ","","","","","","","","","","","","","","","","","","","","","","","","","",""
"","","","","","instructions","161","407269","0.0-7.2-1.2-1.2","8764","","","","","","","","","","","","","","[{""page_index"":0,""viewing_time"":2945},{""page_index"":1,""viewing_time"":1804},{""page_index"":2,""viewing_time"":4014}]","","","","","","","","","","","","","",""
"","","","","","psychophysics","162","409228","0.0-7.3-0.3-0.72","797","","j","","","","","","","","","","","","","key","j","16.661206896551825","853.3333333333334","476","./1_3_Stimuli/S_ambi40.png","朋友","Image","自我","Mismatch","j","true","Practice",""
"","","","","","html-keyboard-response","163","409544","0.0-7.3-0.3-1.72","null","<span style='color:GreenYellow; font-size: 70px;'>正确! </span>","null","","","","","","","","","","","","","","","","","","","","","","","","","feedback",""
"","","","","","psychophysics","164","411936","0.0-7.3-0.3-0.73","1239","","f","","","","","","","","","","","","","key","f","16.66549295774648","853.3333333333334","476","./1_3_Stimuli/S_ambi40.png","他人","Image","自我","Mismatch","j","false","Practice",""
"","","","","","html-keyboard-response","165","412239","0.0-7.3-0.3-1.73","null","<span style='color:red; font-size: 70px;'>错误! </span>","null","","","","","","","","","","","","","","","","","","","","","","","","","feedback",""
"","","","","","psychophysics","166","414395","0.0-7.3-0.3-0.74","999","","f","","","","","","","","","","","","","key","f","16.6640625","853.3333333333334","476","./1_3_Stimuli/C_ambi40.png","他人","Image","朋友","Mismatch","j","false","Practice",""
"","","","","","html-keyboard-response","167","414701","0.0-7.3-0.3-1.74","null","<span style='color:red; font-size: 70px;'>错误! </span>","null","","","","","","","","","","","","","","","","","","","","","","","","","feedback",""
"","","","","","psychophysics","168","416661","0.0-7.3-0.3-0.75","808","","f","","","","","","","","","","","","","key","f","16.65897435897416","853.3333333333334","476","./1_3_Stimuli/S_ambi40.png","自我","Word","自我","Match","f","true","Practice",""
"","","","","","html-keyboard-response","169","416974","0.0-7.3-0.3-1.75","null","<span style='color:GreenYellow; font-size: 70px;'>正确! </span>","null","","","","","","","","","","","","","","","","","","","","","","","","","feedback",""
"","","","","","psychophysics","170","419041","0.0-7.3-0.3-0.76","913","","f","","","","","","","","","","","","","key","f","16.666666666666668","853.3333333333334","476","./1_3_Stimuli/T_ambi40.png","自我","Word","他人","Mismatch","j","false","Practice",""
"","","","","","html-keyboard-response","171","419356","0.0-7.3-0.3-1.76","null","<span style='color:red; font-size: 70px;'>错误! </span>","null","","","","","","","","","","","","","","","","","","","","","","","","","feedback",""
"","","","","","psychophysics","172","421624","0.0-7.3-0.3-0.77","1109","","f","","","","","","","","","","","","","key","f","16.666666666666668","853.3333333333334","476","./1_3_Stimuli/T_ambi40.png","他人","Word","他人","Match","f","true","Practice",""
"","","","","","html-keyboard-response","173","421934","0.0-7.3-0.3-1.77","null","<span style='color:GreenYellow; font-size: 70px;'>正确! </span>","null","","","","","","","","","","","","","","","","","","","","","","","","","feedback",""
"","","","","","psychophysics","174","423820","0.0-7.3-0.3-0.78","734","","f","","","","","","","","","","","","","key","f","16.66607142857122","853.3333333333334","476","./1_3_Stimuli/C_ambi40.png","朋友","Image","朋友","Match","f","true","Practice",""
"","","","","","html-keyboard-response","175","424134","0.0-7.3-0.3-1.78","null","<span style='color:GreenYellow; font-size: 70px;'>正确! </span>","null","","","","","","","","","","","","","","","","","","","","","","","","","feedback",""
"","","","","","psychophysics","176","426128","0.0-7.3-0.3-0.79","841","","j","","","","","","","","","","","","","key","j","16.664705882352745","853.3333333333334","476","./1_3_Stimuli/T_ambi40.png","朋友","Image","他人","Mismatch","j","true","Practice",""
"","","","","","html-keyboard-response","177","426430","0.0-7.3-0.3-1.79","null","<span style='color:GreenYellow; font-size: 70px;'>正确! </span>","null","","","","","","","","","","","","","","","","","","","","","","","","","feedback",""
"","","","","","psychophysics","178","428495","0.0-7.3-0.3-0.80","913","","f","","","","","","","","","","","","","key","f","16.667479674797033","853.3333333333334","476","./1_3_Stimuli/C_ambi40.png","朋友","Word","朋友","Match","f","true","Practice",""
"","","","","","html-keyboard-response","179","428796","0.0-7.3-0.3-1.80","null","<span style='color:GreenYellow; font-size: 70px;'>正确! </span>","null","","","","","","","","","","","","","","","","","","","","","","","","","feedback",""
"","","","","","psychophysics","180","430745","0.0-7.3-0.3-0.81","796","","j","","","","","","","","","","","","","key","j","16.665517241378907","853.3333333333334","476","./1_3_Stimuli/T_ambi40.png","自我","Image","他人","Mismatch","j","true","Practice",""
"","","","","","html-keyboard-response","181","431053","0.0-7.3-0.3-1.81","null","<span style='color:GreenYellow; font-size: 70px;'>正确! </span>","null","","","","","","","","","","","","","","","","","","","","","","","","","feedback",""
"","","","","","psychophysics","182","432710","0.0-7.3-0.3-0.82","506","","f","","","","","","","","","","","","","key","f","16.666326530612125","853.3333333333334","476","./1_3_Stimuli/S_ambi40.png","自我","Image","自我","Match","f","true","Practice",""
"","","","","","html-keyboard-response","183","433018","0.0-7.3-0.3-1.82","null","<span style='color:GreenYellow; font-size: 70px;'>正确! </span>","null","","","","","","","","","","","","","","","","","","","","","","","","","feedback",""
"","","","","","psychophysics","184","435022","0.0-7.3-0.3-0.83","852","","f","","","","","","","","","","","","","key","f","16.666666666666668","853.3333333333334","476","./1_3_Stimuli/T_ambi40.png","他人","Word","他人","Match","f","true","Practice",""
"","","","","","html-keyboard-response","185","435324","0.0-7.3-0.3-1.83","null","<span style='color:GreenYellow; font-size: 70px;'>正确! </span>","null","","","","","","","","","","","","","","","","","","","","","","","","","feedback",""
"","","","","","psychophysics","186","436995","0.0-7.3-0.3-0.84","516","","f","","","","","","","","","","","","","key","f","16.666666666666668","853.3333333333334","476","./1_3_Stimuli/T_ambi40.png","他人","Image","他人","Match","f","true","Practice",""
"","","","","","html-keyboard-response","187","437306","0.0-7.3-0.3-1.84","null","<span style='color:GreenYellow; font-size: 70px;'>正确! </span>","null","","","","","","","","","","","","","","","","","","","","","","","","","feedback",""
"","","","","","psychophysics","188","439119","0.0-7.3-0.3-0.85","661","","j","","","","","","","","","","","","","key","j","16.665420560747773","853.3333333333334","476","./1_3_Stimuli/C_ambi40.png","自我","Word","朋友","Mismatch","j","true","Practice",""
"","","","","","html-keyboard-response","189","439430","0.0-7.3-0.3-1.85","null","<span style='color:GreenYellow; font-size: 70px;'>正确! </span>","null","","","","","","","","","","","","","","","","","","","","","","","","","feedback",""
"","","","","","psychophysics","190","441648","0.0-7.3-0.3-0.86","1063","","j","","","","","","","","","","","","","key","j","16.667424242424065","853.3333333333334","476","./1_3_Stimuli/C_ambi40.png","他人","Word","朋友","Mismatch","j","true","Practice",""
"","","","","","html-keyboard-response","191","441956","0.0-7.3-0.3-1.86","null","<span style='color:GreenYellow; font-size: 70px;'>正确! </span>","null","","","","","","","","","","","","","","","","","","","","","","","","","feedback",""
"","","","","","psychophysics","192","443896","0.0-7.3-0.3-0.87","788","","j","","","","","","","","","","","","","key","j","16.666086956521536","853.3333333333334","476","./1_3_Stimuli/S_ambi40.png","他人","Word","自我","Mismatch","j","true","Practice",""
"","","","","","html-keyboard-response","193","444211","0.0-7.3-0.3-1.87","null","<span style='color:GreenYellow; font-size: 70px;'>正确! </span>","null","","","","","","","","","","","","","","","","","","","","","","","","","feedback",""
"","","","","","psychophysics","194","446293","0.0-7.3-0.3-0.88","929","","j","","","","","","","","","","","","","key","j","16.666129032257878","853.3333333333334","476","./1_3_Stimuli/T_ambi40.png","朋友","Word","他人","Mismatch","j","true","Practice",""
"","","","","","html-keyboard-response","195","446600","0.0-7.3-0.3-1.88","null","<span style='color:GreenYellow; font-size: 70px;'>正确! </span>","null","","","","","","","","","","","","","","","","","","","","","","","","","feedback",""
"","","","","","psychophysics","196","448590","0.0-7.3-0.3-0.89","836","","f","","","","","","","","","","","","","key","f","16.66722689075601","853.3333333333334","476","./1_3_Stimuli/S_ambi40.png","朋友","Word","自我","Mismatch","j","false","Practice",""
"","","","","","html-keyboard-response","197","448896","0.0-7.3-0.3-1.89","null","<span style='color:red; font-size: 70px;'>错误! </span>","null","","","","","","","","","","","","","","","","","","","","","","","","","feedback",""
"","","","","","psychophysics","198","450815","0.0-7.3-0.3-0.90","765","","j","","","","","","","","","","","","","key","j","16.65438596491259","853.3333333333334","476","./1_3_Stimuli/C_ambi40.png","朋友","Image","朋友","Match","f","false","Practice",""
"","","","","","html-keyboard-response","199","451125","0.0-7.3-0.3-1.90","null","<span style='color:red; font-size: 70px;'>错误! </span>","null","","","","","","","","","","","","","","","","","","","","","","","","","feedback",""
"","","","","","psychophysics","200","452861","0.0-7.3-0.3-0.91","580","","f","","","","","","","","","","","","","key","f","16.657281553397606","853.3333333333334","476","./1_3_Stimuli/C_ambi40.png","朋友","Word","朋友","Match","f","true","Practice",""
"","","","","","html-keyboard-response","201","453171","0.0-7.3-0.3-1.91","null","<span style='color:GreenYellow; font-size: 70px;'>正确! </span>","null","","","","","","","","","","","","","","","","","","","","","","","","","feedback",""
"","","","","","psychophysics","202","455032","0.0-7.3-0.3-0.92","696","","f","","","","","","","","","","","","","key","f","16.664545454545244","853.3333333333334","476","./1_3_Stimuli/C_ambi40.png","自我","Image","朋友","Mismatch","j","false","Practice",""
"","","","","","html-keyboard-response","203","455338","0.0-7.3-0.3-1.92","null","<span style='color:red; font-size: 70px;'>错误! </span>","null","","","","","","","","","","","","","","","","","","","","","","","","","feedback",""
"","","","","","psychophysics","204","457286","0.0-7.3-0.3-0.93","792","","f","","","","","","","","","","","","","key","f","16.66695652173923","853.3333333333334","476","./1_3_Stimuli/S_ambi40.png","自我","Word","自我","Match","f","true","Practice",""
"","","","","","html-keyboard-response","205","457596","0.0-7.3-0.3-1.93","null","<span style='color:GreenYellow; font-size: 70px;'>正确! </span>","null","","","","","","","","","","","","","","","","","","","","","","","","","feedback",""
"","","","","","psychophysics","206","459324","0.0-7.3-0.3-0.94","572","","f","","","","","","","","","","","","","key","f","16.667961165048997","853.3333333333334","476","./1_3_Stimuli/S_ambi40.png","自我","Image","自我","Match","f","true","Practice",""
"","","","","","html-keyboard-response","207","459628","0.0-7.3-0.3-1.94","null","<span style='color:GreenYellow; font-size: 70px;'>正确! </span>","null","","","","","","","","","","","","","","","","","","","","","","","","","feedback",""
"","","","","","psychophysics","208","461819","0.0-7.3-0.3-0.95","1032","","j","","","","","","","","","","","","","key","j","16.666923076922718","853.3333333333334","476","./1_3_Stimuli/T_ambi40.png","他人","Image","他人","Match","f","false","Practice",""
"","","","","","html-keyboard-response","209","462134","0.0-7.3-0.3-1.95","null","<span style='color:red; font-size: 70px;'>错误! </span>","null","","","","","","","","","","","","","","","","","","","","","","","","","feedback",""
"","","","","","html-keyboard-response","210","467339","0.0-7.3-1.3-0.3","5202","<style>.context{color:white; font-size: 35px; line-height:40px}</style>                        <div><p class='context'>您正确回答了71% 的试次。</p><p class='context'>您的平均反应时为780毫秒。</p><p> <div style = 'color: green'><按空格键至下页></div></p>"," ","","","","","","","","","","","","","","","","","","","","","","","","","",""
"","","","","","instructions","211","481729","0.0-7.3-1.3-1.3","14388","","","","","","","","","","","","","","[{""page_index"":0,""viewing_time"":1719},{""page_index"":1,""viewing_time"":11410},{""page_index"":2,""viewing_time"":1258}]","","","","","","","","","","","","","",""
"","","","","","psychophysics","212","484437","0.0-7.4-0.4-0.96","null","","null","","","","","","","","","","","","","key","null","16.667701863354036","853.3333333333334","476","./1_3_Stimuli/T_ambi40.png","朋友","Word","他人","Mismatch","j","false","Practice",""
"","","","","","html-keyboard-response","213","484740","0.0-7.4-0.4-1.96","null","<span class='add_' style='color:yellow; font-size: 70px;'> 太慢! </span>","null","","","","","","","","","","","","","","","","","","","","","","","","","feedback",""
"","","","","","psychophysics","214","486757","0.0-7.4-0.4-0.97","853","","j","","","","","","","","","","","","","key","j","16.665833333333044","853.3333333333334","476","./1_3_Stimuli/S_ambi40.png","朋友","Image","自我","Mismatch","j","true","Practice",""
"","","","","","html-keyboard-response","215","487062","0.0-7.4-0.4-1.97","null","<span style='color:GreenYellow; font-size: 70px;'>正确! </span>","null","","","","","","","","","","","","","","","","","","","","","","","","","feedback",""
"","","","","","psychophysics","216","488876","0.0-7.4-0.4-0.98","657","","f","","","","","","","","","","","","","key","f","16.664814814814708","853.3333333333334","476","./1_3_Stimuli/S_ambi40.png","自我","Word","自我","Match","f","true","Practice",""
"","","","","","html-keyboard-response","217","489181","0.0-7.4-0.4-1.98","null","<span style='color:GreenYellow; font-size: 70px;'>正确! </span>","null","","","","","","","","","","","","","","","","","","","","","","","","","feedback",""
"","","","","","psychophysics","218","491736","0.0-7.4-0.4-0.99","1401","","f","","","","","","","","","","","","","key","f","16.66578947368429","853.3333333333334","476","./1_3_Stimuli/C_ambi40.png","朋友","Image","朋友","Match","f","true","Practice",""
"","","","","","html-keyboard-response","219","492049","0.0-7.4-0.4-1.99","null","<span style='color:GreenYellow; font-size: 70px;'>正确! </span>","null","","","","","","","","","","","","","","","","","","","","","","","","","feedback",""
"","","","","","psychophysics","220","493660","0.0-7.4-0.4-0.100","457","","f","","","","","","","","","","","","","key","f","16.658947368420808","853.3333333333334","476","./1_3_Stimuli/S_ambi40.png","自我","Image","自我","Match","f","true","Practice",""
"","","","","","html-keyboard-response","221","493969","0.0-7.4-0.4-1.100","null","<span style='color:GreenYellow; font-size: 70px;'>正确! </span>","null","","","","","","","","","","","","","","","","","","","","","","","","","feedback",""
"","","","","","psychophysics","222","496671","0.0-7.4-0.4-0.101","null","","null","","","","","","","","","","","","","key","null","16.657763975155426","853.3333333333334","476","./1_3_Stimuli/T_ambi40.png","朋友","Image","他人","Mismatch","j","false","Practice",""
"","","","","","html-keyboard-response","223","496982","0.0-7.4-0.4-1.101","null","<span class='add_' style='color:yellow; font-size: 70px;'> 太慢! </span>","null","","","","","","","","","","","","","","","","","","","","","","","","","feedback",""
"","","","","","psychophysics","224","498993","0.0-7.4-0.4-0.102","857","","f","","","","","","","","","","","","","key","f","16.666666666666668","853.3333333333334","476","./1_3_Stimuli/C_ambi40.png","朋友","Word","朋友","Match","f","true","Practice",""
"","","","","","html-keyboard-response","225","499295","0.0-7.4-0.4-1.102","null","<span style='color:GreenYellow; font-size: 70px;'>正确! </span>","null","","","","","","","","","","","","","","","","","","","","","","","","","feedback",""
"","","","","","psychophysics","226","500940","0.0-7.4-0.4-0.103","488","","j","","","","","","","","","","","","","key","j","16.666326530612125","853.3333333333334","476","./1_3_Stimuli/T_ambi40.png","他人","Word","他人","Match","f","false","Practice",""
"","","","","","html-keyboard-response","227","501244","0.0-7.4-0.4-1.103","null","<span style='color:red; font-size: 70px;'>错误! </span>","null","","","","","","","","","","","","","","","","","","","","","","","","","feedback",""
"","","","","","psychophysics","228","502807","0.0-7.4-0.4-0.104","410","","f","","","","","","","","","","","","","key","f","16.665591397849088","853.3333333333334","476","./1_3_Stimuli/C_ambi40.png","他人","Image","朋友","Mismatch","j","false","Practice",""
"","","","","","html-keyboard-response","229","503113","0.0-7.4-0.4-1.104","null","<span style='color:red; font-size: 70px;'>错误! </span>","null","","","","","","","","","","","","","","","","","","","","","","","","","feedback",""
"","","","","","psychophysics","230","504712","0.0-7.4-0.4-0.105","443","","f","","","","","","","","","","","","","key","f","16.66526315789486","853.3333333333334","476","./1_3_Stimuli/S_ambi40.png","自我","Image","自我","Match","f","true","Practice",""
"","","","","","html-keyboard-response","231","505016","0.0-7.4-0.4-1.105","null","<span style='color:GreenYellow; font-size: 70px;'>正确! </span>","null","","","","","","","","","","","","","","","","","","","","","","","","","feedback",""
"","","","","","psychophysics","232","506758","0.0-7.4-0.4-0.106","589","","f","","","","","","","","","","","","","key","f","16.666346153846042","853.3333333333334","476","./1_3_Stimuli/C_ambi40.png","朋友","Image","朋友","Match","f","true","Practice",""
"","","","","","html-keyboard-response","233","507060","0.0-7.4-0.4-1.106","null","<span style='color:GreenYellow; font-size: 70px;'>正确! </span>","null","","","","","","","","","","","","","","","","","","","","","","","","","feedback",""
"","","","","","psychophysics","234","509000","0.0-7.4-0.4-0.107","781","","j","","","","","","","","","","","","","key","j","16.659130434782508","853.3333333333334","476","./1_3_Stimuli/S_ambi40.png","他人","Word","自我","Mismatch","j","true","Practice",""
"","","","","","html-keyboard-response","235","509305","0.0-7.4-0.4-1.107","null","<span style='color:GreenYellow; font-size: 70px;'>正确! </span>","null","","","","","","","","","","","","","","","","","","","","","","","","","feedback",""
"","","","","","psychophysics","236","511125","0.0-7.4-0.4-0.108","657","","j","","","","","","","","","","","","","key","j","16.670370370370588","853.3333333333334","476","./1_3_Stimuli/S_ambi40.png","他人","Image","自我","Mismatch","j","true","Practice",""
"","","","","","html-keyboard-response","237","511437","0.0-7.4-0.4-1.108","null","<span style='color:GreenYellow; font-size: 70px;'>正确! </span>","null","","","","","","","","","","","","","","","","","","","","","","","","","feedback",""
"","","","","","psychophysics","238","513188","0.0-7.4-0.4-0.109","597","","j","","","","","","","","","","","","","key","j","16.664423076923413","853.3333333333334","476","./1_3_Stimuli/T_ambi40.png","他人","Image","他人","Match","f","false","Practice",""
"","","","","","html-keyboard-response","239","513496","0.0-7.4-0.4-1.109","null","<span style='color:red; font-size: 70px;'>错误! </span>","null","","","","","","","","","","","","","","","","","","","","","","","","","feedback",""
"","","","","","psychophysics","240","515272","0.0-7.4-0.4-0.110","618","","f","","","","","","","","","","","","","key","f","16.66698113207558","853.3333333333334","476","./1_3_Stimuli/C_ambi40.png","朋友","Word","朋友","Match","f","true","Practice",""
"","","","","","html-keyboard-response","241","515589","0.0-7.4-0.4-1.110","null","<span style='color:GreenYellow; font-size: 70px;'>正确! </span>","null","","","","","","","","","","","","","","","","","","","","","","","","","feedback",""
"","","","","","psychophysics","242","517266","0.0-7.4-0.4-0.111","521","","j","","","","","","","","","","","","","key","j","16.66363636363648","853.3333333333334","476","./1_3_Stimuli/S_ambi40.png","自我","Word","自我","Match","f","false","Practice",""
"","","","","","html-keyboard-response","243","517574","0.0-7.4-0.4-1.111","null","<span style='color:red; font-size: 70px;'>错误! </span>","null","","","","","","","","","","","","","","","","","","","","","","","","","feedback",""
"","","","","","psychophysics","244","519831","0.0-7.4-0.4-0.112","1105","","f","","","","","","","","","","","","","key","f","16.665671641791132","853.3333333333334","476","./1_3_Stimuli/S_ambi40.png","朋友","Word","自我","Mismatch","j","false","Practice",""
"","","","","","html-keyboard-response","245","520141","0.0-7.4-0.4-1.112","null","<span style='color:red; font-size: 70px;'>错误! </span>","null","","","","","","","","","","","","","","","","","","","","","","","","","feedback",""
"","","","","","psychophysics","246","521975","0.0-7.4-0.4-0.113","677","","f","","","","","","","","","","","","","key","f","16.660550458715598","853.3333333333334","476","./1_3_Stimuli/C_ambi40.png","他人","Word","朋友","Mismatch","j","false","Practice",""
"","","","","","html-keyboard-response","247","522286","0.0-7.4-0.4-1.113","null","<span style='color:red; font-size: 70px;'>错误! </span>","null","","","","","","","","","","","","","","","","","","","","","","","","","feedback",""
"","","","","","psychophysics","248","524330","0.0-7.4-0.4-0.114","893","","j","","","","","","","","","","","","","key","j","16.666942148759947","853.3333333333334","476","./1_3_Stimuli/C_ambi40.png","自我","Word","朋友","Mismatch","j","true","Practice",""
"","","","","","html-keyboard-response","249","524638","0.0-7.4-0.4-1.114","null","<span style='color:GreenYellow; font-size: 70px;'>正确! </span>","null","","","","","","","","","","","","","","","","","","","","","","","","","feedback",""
"","","","","","psychophysics","250","526498","0.0-7.4-0.4-0.115","703","","f","","","","","","","","","","","","","key","f","16.667272727272938","853.3333333333334","476","./1_3_Stimuli/T_ambi40.png","他人","Word","他人","Match","f","true","Practice",""
"","","","","","html-keyboard-response","251","526809","0.0-7.4-0.4-1.115","null","<span style='color:GreenYellow; font-size: 70px;'>正确! </span>","null","","","","","","","","","","","","","","","","","","","","","","","","","feedback",""
"","","","","","psychophysics","252","528621","0.0-7.4-0.4-0.116","661","","j","","","","","","","","","","","","","key","j","16.662037037037038","853.3333333333334","476","./1_3_Stimuli/T_ambi40.png","自我","Word","他人","Mismatch","j","true","Practice",""
"","","","","","html-keyboard-response","253","528927","0.0-7.4-0.4-1.116","null","<span style='color:GreenYellow; font-size: 70px;'>正确! </span>","null","","","","","","","","","","","","","","","","","","","","","","","","","feedback",""
"","","","","","psychophysics","254","530749","0.0-7.4-0.4-0.117","666","","j","","","","","","","","","","","","","key","j","16.667592592592378","853.3333333333334","476","./1_3_Stimuli/C_ambi40.png","自我","Image","朋友","Mismatch","j","true","Practice",""
"","","","","","html-keyboard-response","255","531051","0.0-7.4-0.4-1.117","null","<span style='color:GreenYellow; font-size: 70px;'>正确! </span>","null","","","","","","","","","","","","","","","","","","","","","","","","","feedback",""
"","","","","","psychophysics","256","533013","0.0-7.4-0.4-0.118","810","","f","","","","","","","","","","","","","key","f","16.662068965517644","853.3333333333334","476","./1_3_Stimuli/T_ambi40.png","他人","Image","他人","Match","f","true","Practice",""
"","","","","","html-keyboard-response","257","533327","0.0-7.4-0.4-1.118","null","<span style='color:GreenYellow; font-size: 70px;'>正确! </span>","null","","","","","","","","","","","","","","","","","","","","","","","","","feedback",""
"","","","","","psychophysics","258","535097","0.0-7.4-0.4-0.119","617","","f","","","","","","","","","","","","","key","f","16.666666666666668","853.3333333333334","476","./1_3_Stimuli/T_ambi40.png","自我","Image","他人","Mismatch","j","false","Practice",""
"","","","","","html-keyboard-response","259","535400","0.0-7.4-0.4-1.119","null","<span style='color:red; font-size: 70px;'>错误! </span>","null","","","","","","","","","","","","","","","","","","","","","","","","","feedback",""
"","","","","","html-keyboard-response","260","539791","0.0-7.4-1.4-0.4","4390","<style>.context{color:white; font-size: 35px; line-height:40px}</style>                        <div><p class='context'>您正确回答了63% 的试次。</p><p class='context'>您的平均反应时为736毫秒。</p><p> <div style = 'color: green'><按空格键至下页></div></p>"," ","","","","","","","","","","","","","","","","","","","","","","","","","",""
"","","","","","instructions","261","549072","0.0-7.4-1.4-1.4","9278","","","","","","","","","","","","","","[{""page_index"":0,""viewing_time"":2103},{""page_index"":1,""viewing_time"":5772},{""page_index"":2,""viewing_time"":1403}]","","","","","","","","","","","","","",""
"","","","","","psychophysics","262","551098","0.0-7.5-0.5-0.120","863","","j","","","","","","","","","","","","","key","j","16.666666666666668","853.3333333333334","476","./1_3_Stimuli/T_ambi40.png","朋友","Word","他人","Mismatch","j","true","Practice",""
"","","","","","html-keyboard-response","263","551404","0.0-7.5-0.5-1.120","null","<span style='color:GreenYellow; font-size: 70px;'>正确! </span>","null","","","","","","","","","","","","","","","","","","","","","","","","","feedback",""
"","","","","","psychophysics","264","553526","0.0-7.5-0.5-0.121","968","","f","","","","","","","","","","","","","key","f","16.666141732283283","853.3333333333334","476","./1_3_Stimuli/T_ambi40.png","他人","Image","他人","Match","f","true","Practice",""
"","","","","","html-keyboard-response","265","553827","0.0-7.5-0.5-1.121","null","<span style='color:GreenYellow; font-size: 70px;'>正确! </span>","null","","","","","","","","","","","","","","","","","","","","","","","","","feedback",""
"","","","","","psychophysics","266","555695","0.0-7.5-0.5-0.122","709","","f","","","","","","","","","","","","","key","f","16.664864864865283","853.3333333333334","476","./1_3_Stimuli/T_ambi40.png","他人","Image","他人","Match","f","true","Practice",""
"","","","","","html-keyboard-response","267","556000","0.0-7.5-0.5-1.122","null","<span style='color:GreenYellow; font-size: 70px;'>正确! </span>","null","","","","","","","","","","","","","","","","","","","","","","","","","feedback",""
"","","","","","psychophysics","268","557959","0.0-7.5-0.5-0.123","808","","j","","","","","","","","","","","","","key","j","16.667521367522163","853.3333333333334","476","./1_3_Stimuli/C_ambi40.png","自我","Image","朋友","Mismatch","j","true","Practice",""
"","","","","","html-keyboard-response","269","558263","0.0-7.5-0.5-1.123","null","<span style='color:GreenYellow; font-size: 70px;'>正确! </span>","null","","","","","","","","","","","","","","","","","","","","","","","","","feedback",""
"","","","","","psychophysics","270","560182","0.0-7.5-0.5-0.124","765","","j","","","","","","","","","","","","","key","j","16.658771929824358","853.3333333333334","476","./1_3_Stimuli/S_ambi40.png","朋友","Word","自我","Mismatch","j","true","Practice",""
"","","","","","html-keyboard-response","271","560487","0.0-7.5-0.5-1.124","null","<span style='color:GreenYellow; font-size: 70px;'>正确! </span>","null","","","","","","","","","","","","","","","","","","","","","","","","","feedback",""
"","","","","","psychophysics","272","562186","0.0-7.5-0.5-0.125","542","","f","","","","","","","","","","","","","key","f","16.665346534653004","853.3333333333334","476","./1_3_Stimuli/S_ambi40.png","自我","Word","自我","Match","f","true","Practice",""
"","","","","","html-keyboard-response","273","562499","0.0-7.5-0.5-1.125","null","<span style='color:GreenYellow; font-size: 70px;'>正确! </span>","null","","","","","","","","","","","","","","","","","","","","","","","","","feedback",""
"","","","","","psychophysics","274","564233","0.0-7.5-0.5-0.126","580","","f","","","","","","","","","","","","","key","f","16.666019417476633","853.3333333333334","476","./1_3_Stimuli/S_ambi40.png","自我","Image","自我","Match","f","true","Practice",""
"","","","","","html-keyboard-response","275","564539","0.0-7.5-0.5-1.126","null","<span style='color:GreenYellow; font-size: 70px;'>正确! </span>","null","","","","","","","","","","","","","","","","","","","","","","","","","feedback",""
"","","","","","psychophysics","276","566254","0.0-7.5-0.5-0.127","562","","j","","","","","","","","","","","","","key","j","16.665686274510033","853.3333333333334","476","./1_3_Stimuli/C_ambi40.png","自我","Word","朋友","Mismatch","j","true","Practice",""
"","","","","","html-keyboard-response","277","566563","0.0-7.5-0.5-1.127","null","<span style='color:GreenYellow; font-size: 70px;'>正确! </span>","null","","","","","","","","","","","","","","","","","","","","","","","","","feedback",""
"","","","","","psychophysics","278","568534","0.0-7.5-0.5-0.128","818","","j","","","","","","","","","","","","","key","j","16.666666666666668","853.3333333333334","476","./1_3_Stimuli/T_ambi40.png","自我","Word","他人","Mismatch","j","true","Practice",""
"","","","","","html-keyboard-response","279","568847","0.0-7.5-0.5-1.128","null","<span style='color:GreenYellow; font-size: 70px;'>正确! </span>","null","","","","","","","","","","","","","","","","","","","","","","","","","feedback",""
"","","","","","psychophysics","280","570842","0.0-7.5-0.5-0.129","841","","f","","","","","","","","","","","","","key","f","16.668067226890756","853.3333333333334","476","./1_3_Stimuli/S_ambi40.png","自我","Image","自我","Match","f","true","Practice",""
"","","","","","html-keyboard-response","281","571153","0.0-7.5-0.5-1.129","null","<span style='color:GreenYellow; font-size: 70px;'>正确! </span>","null","","","","","","","","","","","","","","","","","","","","","","","","","feedback",""
"","","","","","psychophysics","282","573739","0.0-7.5-0.5-0.130","1429","","f","","","","","","","","","","","","","key","f","16.666883116882815","853.3333333333334","476","./1_3_Stimuli/T_ambi40.png","他人","Word","他人","Match","f","true","Practice",""
"","","","","","html-keyboard-response","283","574053","0.0-7.5-0.5-1.130","null","<span style='color:GreenYellow; font-size: 70px;'>正确! </span>","null","","","","","","","","","","","","","","","","","","","","","","","","","feedback",""
"","","","","","psychophysics","284","576049","0.0-7.5-0.5-0.131","839","","f","","","","","","","","","","","","","key","f","16.663559322034292","853.3333333333334","476","./1_3_Stimuli/C_ambi40.png","朋友","Image","朋友","Match","f","true","Practice",""
"","","","","","html-keyboard-response","285","576364","0.0-7.5-0.5-1.131","null","<span style='color:GreenYellow; font-size: 70px;'>正确! </span>","null","","","","","","","","","","","","","","","","","","","","","","","","","feedback",""
"","","","","","psychophysics","286","578218","0.0-7.5-0.5-0.132","703","","j","","","","","","","","","","","","","key","j","16.65909090909091","853.3333333333334","476","./1_3_Stimuli/S_ambi40.png","他人","Word","自我","Mismatch","j","true","Practice",""
"","","","","","html-keyboard-response","287","578526","0.0-7.5-0.5-1.132","null","<span style='color:GreenYellow; font-size: 70px;'>正确! </span>","null","","","","","","","","","","","","","","","","","","","","","","","","","feedback",""
"","","","","","psychophysics","288","580268","0.0-7.5-0.5-0.133","582","","j","","","","","","","","","","","","","key","j","16.666990291261683","853.3333333333334","476","./1_3_Stimuli/S_ambi40.png","朋友","Image","自我","Mismatch","j","true","Practice",""
"","","","","","html-keyboard-response","289","580572","0.0-7.5-0.5-1.133","null","<span style='color:GreenYellow; font-size: 70px;'>正确! </span>","null","","","","","","","","","","","","","","","","","","","","","","","","","feedback",""
"","","","","","psychophysics","290","582387","0.0-7.5-0.5-0.134","661","","f","","","","","","","","","","","","","key","f","16.663888888889534","853.3333333333334","476","./1_3_Stimuli/C_ambi40.png","朋友","Word","朋友","Match","f","true","Practice",""
"","","","","","html-keyboard-response","291","582691","0.0-7.5-0.5-1.134","null","<span style='color:GreenYellow; font-size: 70px;'>正确! </span>","null","","","","","","","","","","","","","","","","","","","","","","","","","feedback",""
"","","","","","psychophysics","292","584753","0.0-7.5-0.5-0.135","910","","f","","","","","","","","","","","","","key","f","16.665853658536776","853.3333333333334","476","./1_3_Stimuli/T_ambi40.png","他人","Word","他人","Match","f","true","Practice",""
"","","","","","html-keyboard-response","293","585057","0.0-7.5-0.5-1.135","null","<span style='color:GreenYellow; font-size: 70px;'>正确! </span>","null","","","","","","","","","","","","","","","","","","","","","","","","","feedback",""
"","","","","","psychophysics","294","586862","0.0-7.5-0.5-0.136","650","","f","","","","","","","","","","","","","key","f","16.660747663550968","853.3333333333334","476","./1_3_Stimuli/C_ambi40.png","朋友","Image","朋友","Match","f","true","Practice",""
"","","","","","html-keyboard-response","295","587165","0.0-7.5-0.5-1.136","null","<span style='color:GreenYellow; font-size: 70px;'>正确! </span>","null","","","","","","","","","","","","","","","","","","","","","","","","","feedback",""
"","","","","","psychophysics","296","588974","0.0-7.5-0.5-0.137","656","","j","","","","","","","","","","","","","key","j","16.65185185185099","853.3333333333334","476","./1_3_Stimuli/S_ambi40.png","他人","Image","自我","Mismatch","j","true","Practice",""
"","","","","","html-keyboard-response","297","589283","0.0-7.5-0.5-1.137","null","<span style='color:GreenYellow; font-size: 70px;'>正确! </span>","null","","","","","","","","","","","","","","","","","","","","","","","","","feedback",""
"","","","","","psychophysics","298","591349","0.0-7.5-0.5-0.138","914","","j","","","","","","","","","","","","","key","j","16.66639344262333","853.3333333333334","476","./1_3_Stimuli/T_ambi40.png","朋友","Image","他人","Mismatch","j","true","Practice",""
"","","","","","html-keyboard-response","299","591654","0.0-7.5-0.5-1.138","null","<span style='color:GreenYellow; font-size: 70px;'>正确! </span>","null","","","","","","","","","","","","","","","","","","","","","","","","","feedback",""
"","","","","","psychophysics","300","593577","0.0-7.5-0.5-0.139","771","","j","","","","","","","","","","","","","key","j","16.665789473684416","853.3333333333334","476","./1_3_Stimuli/C_ambi40.png","他人","Word","朋友","Mismatch","j","true","Practice",""
"","","","","","html-keyboard-response","301","593878","0.0-7.5-0.5-1.139","null","<span style='color:GreenYellow; font-size: 70px;'>正确! </span>","null","","","","","","","","","","","","","","","","","","","","","","","","","feedback",""
"","","","","","psychophysics","302","596363","0.0-7.5-0.5-0.140","1328","","j","","","","","","","","","","","","","key","j","16.666891891892362","853.3333333333334","476","./1_3_Stimuli/C_ambi40.png","他人","Image","朋友","Mismatch","j","true","Practice",""
"","","","","","html-keyboard-response","303","596667","0.0-7.5-0.5-1.140","null","<span style='color:GreenYellow; font-size: 70px;'>正确! </span>","null","","","","","","","","","","","","","","","","","","","","","","","","","feedback",""
"","","","","","psychophysics","304","598558","0.0-7.5-0.5-0.141","738","","j","","","","","","","","","","","","","key","j","16.65221238938115","853.3333333333334","476","./1_3_Stimuli/T_ambi40.png","自我","Image","他人","Mismatch","j","true","Practice",""
"","","","","","html-keyboard-response","305","598867","0.0-7.5-0.5-1.141","null","<span style='color:GreenYellow; font-size: 70px;'>正确! </span>","null","","","","","","","","","","","","","","","","","","","","","","","","","feedback",""
"","","","","","psychophysics","306","601096","0.0-7.5-0.5-0.142","1076","","f","","","","","","","","","","","","","key","f","16.660902255638398","853.3333333333334","476","./1_3_Stimuli/C_ambi40.png","朋友","Word","朋友","Match","f","true","Practice",""
"","","","","","html-keyboard-response","307","601398","0.0-7.5-0.5-1.142","null","<span style='color:GreenYellow; font-size: 70px;'>正确! </span>","null","","","","","","","","","","","","","","","","","","","","","","","","","feedback",""
"","","","","","psychophysics","308","603064","0.0-7.5-0.5-0.143","512","","f","","","","","","","","","","","","","key","f","16.666666666666668","853.3333333333334","476","./1_3_Stimuli/S_ambi40.png","自我","Word","自我","Match","f","true","Practice",""
"","","","","","html-keyboard-response","309","603374","0.0-7.5-0.5-1.143","null","<span style='color:GreenYellow; font-size: 70px;'>正确! </span>","null","","","","","","","","","","","","","","","","","","","","","","","","","feedback",""
"","","","","","html-keyboard-response","310","607139","0.0-8.0","3762","<style>.context{color:white; font-size: 35px; line-height:40px}</style>                          <div><p class='context'>您正确回答了100% 的试次。</p><p class='context'>您的平均反应时为801毫秒。</p><p class='context'>恭喜您完成练习。现在请休息3~5分钟。</p><p class='context'>之后，按任意键进入正式实验。需要注意的是，正式实验将不再提供反应是否正确的反馈。</p><p class='footer' style='font-size: 35px; line-height:40px;'>请在进入正式实验实验之前将您的<span style='color: lightgreen;'>食指</span>放在电脑键盘的相应键位上进行按键。</p>"," ","","","","","","","","","","","","","","","","","","","","","","","","","",""
"","","","","","psychophysics","311","609853","0.0-9.0-0.0-0.0","null","","null","","","","","","","","","","","","","key","null","16.666049382716192","853.3333333333334","476","./1_3_Stimuli/S_ambi40.png","自我","Image","自我","Match","f","false","Formal",""
"","","","","","psychophysics","312","611713","0.0-9.0-0.0-0.1","708","","j","","","","","","","","","","","","","key","j","16.66545454545518","853.3333333333334","476","./1_3_Stimuli/C_ambi40.png","自我","Image","朋友","Mismatch","j","true","Formal",""
"","","","","","psychophysics","313","613516","0.0-9.0-0.0-0.2","647","","j","","","","","","","","","","","","","key","j","16.66448598130928","853.3333333333334","476","./1_3_Stimuli/S_ambi40.png","朋友","Image","自我","Mismatch","j","true","Formal",""
"","","","","","psychophysics","314","615587","0.0-9.0-0.0-0.3","918","","f","","","","","","","","","","","","","key","f","16.666129032257878","853.3333333333334","476","./1_3_Stimuli/C_ambi40.png","朋友","Word","朋友","Match","f","true","Formal",""
"","","","","","psychophysics","315","617559","0.0-9.0-0.0-0.4","816","","f","","","","","","","","","","","","","key","f","16.666666666666668","853.3333333333334","476","./1_3_Stimuli/T_ambi40.png","他人","Word","他人","Match","f","true","Formal",""
"","","","","","psychophysics","316","619417","0.0-9.0-0.0-0.5","697","","j","","","","","","","","","","","","","key","j","16.66636363636406","853.3333333333334","476","./1_3_Stimuli/T_ambi40.png","朋友","Word","他人","Mismatch","j","true","Formal",""
"","","","","","psychophysics","317","620942","0.0-9.0-0.0-0.6","372","","f","","","","","","","","","","","","","key","f","16.66777777777752","853.3333333333334","476","./1_3_Stimuli/S_ambi40.png","自我","Image","自我","Match","f","true","Formal",""
"","","","","","psychophysics","318","622516","0.0-9.0-0.0-0.7","418","","f","","","","","","","","","","","","","key","f","16.666666666666668","853.3333333333334","476","./1_3_Stimuli/S_ambi40.png","自我","Word","自我","Match","f","true","Formal",""
"","","","","","psychophysics","319","624177","0.0-9.0-0.0-0.8","509","","j","","","","","","","","","","","","","key","j","16.66632653061272","853.3333333333334","476","./1_3_Stimuli/T_ambi40.png","他人","Word","他人","Match","f","false","Formal",""
"","","","","","psychophysics","320","626055","0.0-9.0-0.0-0.9","720","","f","","","","","","","","","","","","","key","f","16.66696428571387","853.3333333333334","476","./1_3_Stimuli/S_ambi40.png","朋友","Word","自我","Mismatch","j","false","Formal",""
"","","","","","psychophysics","321","627863","0.0-9.0-0.0-0.10","643","","j","","","","","","","","","","","","","key","j","16.666355140186262","853.3333333333334","476","./1_3_Stimuli/C_ambi40.png","朋友","Image","朋友","Match","f","false","Formal",""
"","","","","","psychophysics","322","629341","0.0-9.0-0.0-0.11","321","","f","","","","","","","","","","","","","key","f","16.667045454544926","853.3333333333334","476","./1_3_Stimuli/S_ambi40.png","他人","Word","自我","Mismatch","j","false","Formal",""
"","","","","","psychophysics","323","631008","0.0-9.0-0.0-0.12","516","","j","","","","","","","","","","","","","key","j","16.6656565656568","853.3333333333334","476","./1_3_Stimuli/S_ambi40.png","他人","Image","自我","Mismatch","j","true","Formal",""
"","","","","","psychophysics","324","633358","0.0-9.0-0.0-0.13","1196","","j","","","","","","","","","","","","","key","j","16.667857142857144","853.3333333333334","476","./1_3_Stimuli/T_ambi40.png","自我","Image","他人","Mismatch","j","true","Formal",""
"","","","","","psychophysics","325","635082","0.0-9.0-0.0-0.14","571","","j","","","","","","","","","","","","","key","j","16.667647058824443","853.3333333333334","476","./1_3_Stimuli/C_ambi40.png","他人","Word","朋友","Mismatch","j","true","Formal",""
"","","","","","psychophysics","326","636705","0.0-9.0-0.0-0.15","470","","j","","","","","","","","","","","","","key","j","16.66597938144306","853.3333333333334","476","./1_3_Stimuli/C_ambi40.png","他人","Image","朋友","Mismatch","j","true","Formal",""
"","","","","","psychophysics","327","638441","0.0-9.0-0.0-0.16","580","","f","","","","","","","","","","","","","key","f","16.666990291262813","853.3333333333334","476","./1_3_Stimuli/S_ambi40.png","自我","Word","自我","Match","f","true","Formal",""
"","","","","","psychophysics","328","640505","0.0-9.0-0.0-0.17","911","","f","","","","","","","","","","","","","key","f","16.66747967479656","853.3333333333334","476","./1_3_Stimuli/C_ambi40.png","朋友","Image","朋友","Match","f","true","Formal",""
"","","","","","psychophysics","329","642208","0.0-9.0-0.0-0.18","544","","f","","","","","","","","","","","","","key","f","16.66633663366383","853.3333333333334","476","./1_3_Stimuli/C_ambi40.png","朋友","Word","朋友","Match","f","true","Formal",""
"","","","","","psychophysics","330","643720","0.0-9.0-0.0-0.19","351","","j","","","","","","","","","","","","","key","j","16.666666666666668","853.3333333333334","476","./1_3_Stimuli/T_ambi40.png","他人","Image","他人","Match","f","false","Formal",""
"","","","","","psychophysics","331","645441","0.0-9.0-0.0-0.20","560","","j","","","","","","","","","","","","","key","j","16.665686274510033","853.3333333333334","476","./1_3_Stimuli/T_ambi40.png","他人","Image","他人","Match","f","false","Formal",""
"","","","","","psychophysics","332","648151","0.0-9.0-0.0-0.21","null","","null","","","","","","","","","","","","","key","null","16.66645962732948","853.3333333333334","476","./1_3_Stimuli/T_ambi40.png","朋友","Image","他人","Mismatch","j","false","Formal",""
"","","","","","psychophysics","333","650768","0.0-9.0-0.0-0.22","1465","","f","","","","","","","","","","","","","key","f","16.6670967741937","853.3333333333334","476","./1_3_Stimuli/T_ambi40.png","自我","Word","他人","Mismatch","j","false","Formal",""
"","","","","","psychophysics","334","653260","0.0-9.0-0.0-0.23","1341","","j","","","","","","","","","","","","","key","j","16.66621621621606","853.3333333333334","476","./1_3_Stimuli/C_ambi40.png","自我","Word","朋友","Mismatch","j","true","Formal",""
"","","","","","psychophysics","335","655968","0.0-9.0-0.0-0.24","null","","null","","","","","","","","","","","","","key","null","16.66708074534176","853.3333333333334","476","./1_3_Stimuli/T_ambi40.png","他人","Image","他人","Match","f","false","Formal",""
"","","","","","psychophysics","336","657990","0.0-9.0-0.0-0.25","869","","j","","","","","","","","","","","","","key","j","16.667500000000775","853.3333333333334","476","./1_3_Stimuli/T_ambi40.png","自我","Word","他人","Mismatch","j","true","Formal",""
"","","","","","psychophysics","337","660033","0.0-9.0-0.0-0.26","889","","j","","","","","","","","","","","","","key","j","16.666942148759947","853.3333333333334","476","./1_3_Stimuli/T_ambi40.png","朋友","Image","他人","Mismatch","j","true","Formal",""
"","","","","","psychophysics","338","662281","0.0-9.0-0.0-0.27","1097","","f","","","","","","","","","","","","","key","f","16.666417910448107","853.3333333333334","476","./1_3_Stimuli/C_ambi40.png","他人","Image","朋友","Mismatch","j","false","Formal",""
"","","","","","psychophysics","339","664431","0.0-9.0-0.0-0.28","995","","j","","","","","","","","","","","","","key","j","16.666929133857902","853.3333333333334","476","./1_3_Stimuli/C_ambi40.png","他人","Word","朋友","Mismatch","j","true","Formal",""
"","","","","","psychophysics","340","666945","0.0-9.0-0.0-0.29","1360","","f","","","","","","","","","","","","","key","f","16.666000000000157","853.3333333333334","476","./1_3_Stimuli/T_ambi40.png","他人","Image","他人","Match","f","true","Formal",""
"","","","","","psychophysics","341","668893","0.0-9.0-0.0-0.30","791","","f","","","","","","","","","","","","","key","f","16.666379310344226","853.3333333333334","476","./1_3_Stimuli/T_ambi40.png","他人","Word","他人","Match","f","true","Formal",""
"","","","","","psychophysics","342","670610","0.0-9.0-0.0-0.31","558","","f","","","","","","","","","","","","","key","f","16.666666666666668","853.3333333333334","476","./1_3_Stimuli/S_ambi40.png","自我","Image","自我","Match","f","true","Formal",""
"","","","","","psychophysics","343","672209","0.0-9.0-0.0-0.32","441","","f","","","","","","","","","","","","","key","f","16.66842105263158","853.3333333333334","476","./1_3_Stimuli/S_ambi40.png","自我","Word","自我","Match","f","true","Formal",""
"","","","","","psychophysics","344","673796","0.0-9.0-0.0-0.33","430","","f","","","","","","","","","","","","","key","f","16.66702127659525","853.3333333333334","476","./1_3_Stimuli/S_ambi40.png","自我","Image","自我","Match","f","true","Formal",""
"","","","","","psychophysics","345","675661","0.0-9.0-0.0-0.34","713","","f","","","","","","","","","","","","","key","f","16.66756756756841","853.3333333333334","476","./1_3_Stimuli/C_ambi40.png","朋友","Image","朋友","Match","f","true","Formal",""
"","","","","","psychophysics","346","677453","0.0-9.0-0.0-0.35","635","","f","","","","","","","","","","","","","key","f","16.667289719626385","853.3333333333334","476","./1_3_Stimuli/S_ambi40.png","朋友","Image","自我","Mismatch","j","false","Formal",""
"","","","","","psychophysics","347","679147","0.0-9.0-0.0-0.36","533","","f","","","","","","","","","","","","","key","f","16.667999999999303","853.3333333333334","476","./1_3_Stimuli/S_ambi40.png","他人","Image","自我","Mismatch","j","false","Formal",""
"","","","","","psychophysics","348","680966","0.0-9.0-0.0-0.37","667","","f","","","","","","","","","","","","","key","f","16.666666666666668","853.3333333333334","476","./1_3_Stimuli/C_ambi40.png","朋友","Word","朋友","Match","f","true","Formal",""
"","","","","","psychophysics","349","682797","0.0-9.0-0.0-0.38","679","","f","","","","","","","","","","","","","key","f","16.665740740740958","853.3333333333334","476","./1_3_Stimuli/S_ambi40.png","自我","Word","自我","Match","f","true","Formal",""
"","","","","","psychophysics","350","684888","0.0-9.0-0.0-0.39","936","","j","","","","","","","","","","","","","key","j","16.668","853.3333333333334","476","./1_3_Stimuli/C_ambi40.png","自我","Image","朋友","Mismatch","j","true","Formal",""
"","","","","","psychophysics","351","686893","0.0-9.0-0.0-0.40","842","","j","","","","","","","","","","","","","key","j","16.665546218487982","853.3333333333334","476","./1_3_Stimuli/C_ambi40.png","自我","Word","朋友","Mismatch","j","true","Formal",""
"","","","","","psychophysics","352","689190","0.0-9.0-0.0-0.41","1145","","j","","","","","","","","","","","","","key","j","16.666423357664574","853.3333333333334","476","./1_3_Stimuli/S_ambi40.png","朋友","Word","自我","Mismatch","j","true","Formal",""
"","","","","","psychophysics","353","691227","0.0-9.0-0.0-0.42","885","","f","","","","","","","","","","","","","key","f","16.666115702479146","853.3333333333334","476","./1_3_Stimuli/C_ambi40.png","朋友","Word","朋友","Match","f","true","Formal",""
"","","","","","psychophysics","354","692977","0.0-9.0-0.0-0.43","593","","j","","","","","","","","","","","","","key","j","16.66634615384548","853.3333333333334","476","./1_3_Stimuli/T_ambi40.png","朋友","Word","他人","Mismatch","j","true","Formal",""
"","","","","","psychophysics","355","695456","0.0-9.0-0.0-0.44","1324","","j","","","","","","","","","","","","","key","j","16.666891891891577","853.3333333333334","476","./1_3_Stimuli/T_ambi40.png","自我","Image","他人","Mismatch","j","true","Formal",""
"","","","","","psychophysics","356","697681","0.0-9.0-0.0-0.45","1072","","f","","","","","","","","","","","","","key","f","16.666666666666668","853.3333333333334","476","./1_3_Stimuli/C_ambi40.png","朋友","Image","朋友","Match","f","true","Formal",""
"","","","","","psychophysics","357","699996","0.0-9.0-0.0-0.46","1161","","f","","","","","","","","","","","","","key","f","16.665942028985675","853.3333333333334","476","./1_3_Stimuli/T_ambi40.png","他人","Word","他人","Match","f","true","Formal",""
"","","","","","psychophysics","358","701859","0.0-9.0-0.0-0.47","708","","j","","","","","","","","","","","","","key","j","16.666666666666668","853.3333333333334","476","./1_3_Stimuli/S_ambi40.png","他人","Word","自我","Mismatch","j","true","Formal",""
"","","","","","psychophysics","359","703765","0.0-9.0-0.0-0.48","750","","j","","","","","","","","","","","","","key","j","16.66637168141634","853.3333333333334","476","./1_3_Stimuli/S_ambi40.png","朋友","Word","自我","Mismatch","j","true","Formal",""
"","","","","","psychophysics","360","705801","0.0-9.0-0.0-0.49","883","","f","","","","","","","","","","","","","key","f","16.66611570248011","853.3333333333334","476","./1_3_Stimuli/C_ambi40.png","朋友","Word","朋友","Match","f","true","Formal",""
"","","","","","psychophysics","361","707725","0.0-9.0-0.0-0.50","773","","f","","","","","","","","","","","","","key","f","16.665789473684416","853.3333333333334","476","./1_3_Stimuli/S_ambi40.png","自我","Word","自我","Match","f","true","Formal",""
"","","","","","psychophysics","362","709327","0.0-9.0-0.0-0.51","451","","f","","","","","","","","","","","","","key","f","16.66631578947295","853.3333333333334","476","./1_3_Stimuli/S_ambi40.png","自我","Image","自我","Match","f","true","Formal",""
"","","","","","psychophysics","363","711375","0.0-9.0-0.0-0.52","890","","j","","","","","","","","","","","","","key","j","16.66639344262238","853.3333333333334","476","./1_3_Stimuli/T_ambi40.png","他人","Word","他人","Match","f","false","Formal",""
"","","","","","psychophysics","364","713543","0.0-9.0-0.0-0.53","1009","","f","","","","","","","","","","","","","key","f","16.666666666666668","853.3333333333334","476","./1_3_Stimuli/C_ambi40.png","他人","Word","朋友","Mismatch","j","false","Formal",""
"","","","","","psychophysics","365","715417","0.0-9.0-0.0-0.54","716","","f","","","","","","","","","","","","","key","f","16.665765765765975","853.3333333333334","476","./1_3_Stimuli/C_ambi40.png","朋友","Word","朋友","Match","f","true","Formal",""
"","","","","","psychophysics","366","717336","0.0-9.0-0.0-0.55","768","","j","","","","","","","","","","","","","key","j","16.666666666666668","853.3333333333334","476","./1_3_Stimuli/T_ambi40.png","朋友","Word","他人","Mismatch","j","true","Formal",""
"","","","","","psychophysics","367","719175","0.0-9.0-0.0-0.56","674","","f","","","","","","","","","","","","","key","f","16.666055045871346","853.3333333333334","476","./1_3_Stimuli/C_ambi40.png","朋友","Image","朋友","Match","f","true","Formal",""
"","","","","","psychophysics","368","720875","0.0-9.0-0.0-0.57","540","","f","","","","","","","","","","","","","key","f","16.667326732673498","853.3333333333334","476","./1_3_Stimuli/S_ambi40.png","自我","Image","自我","Match","f","true","Formal",""
"","","","","","psychophysics","369","723047","0.0-9.0-0.0-0.58","1019","","f","","","","","","","","","","","","","key","f","16.666666666666668","853.3333333333334","476","./1_3_Stimuli/T_ambi40.png","他人","Image","他人","Match","f","true","Formal",""
"","","","","","psychophysics","370","725016","0.0-9.0-0.0-0.59","815","","f","","","","","","","","","","","","","key","f","16.667521367521168","853.3333333333334","476","./1_3_Stimuli/T_ambi40.png","他人","Word","他人","Match","f","true","Formal",""
"","","","","","psychophysics","371","726853","0.0-9.0-0.0-0.60","685","","j","","","","","","","","","","","","","key","j","16.66697247706486","853.3333333333334","476","./1_3_Stimuli/S_ambi40.png","朋友","Image","自我","Mismatch","j","true","Formal",""
"","","","","","psychophysics","372","729563","0.0-9.0-0.0-0.61","null","","null","","","","","","","","","","","","","key","null","16.66645962732948","853.3333333333334","476","./1_3_Stimuli/T_ambi40.png","自我","Word","他人","Mismatch","j","false","Formal",""
"","","","","","psychophysics","373","731772","0.0-9.0-0.0-0.62","1057","","j","","","","","","","","","","","","","key","j","16.665648854962367","853.3333333333334","476","./1_3_Stimuli/C_ambi40.png","自我","Word","朋友","Mismatch","j","true","Formal",""
"","","","","","psychophysics","374","734415","0.0-9.0-0.0-0.63","1487","","j","","","","","","","","","","","","","key","j","16.666878980892164","853.3333333333334","476","./1_3_Stimuli/T_ambi40.png","自我","Image","他人","Mismatch","j","true","Formal",""
"","","","","","psychophysics","375","736379","0.0-9.0-0.0-0.64","811","","j","","","","","","","","","","","","","key","j","16.666379310345228","853.3333333333334","476","./1_3_Stimuli/T_ambi40.png","朋友","Image","他人","Mismatch","j","true","Formal",""
"","","","","","psychophysics","376","738087","0.0-9.0-0.0-0.65","551","","f","","","","","","","","","","","","","key","f","16.666666666666668","853.3333333333334","476","./1_3_Stimuli/S_ambi40.png","自我","Word","自我","Match","f","true","Formal",""
"","","","","","psychophysics","377","740084","0.0-9.0-0.0-0.66","836","","j","","","","","","","","","","","","","key","j","16.666949152542966","853.3333333333334","476","./1_3_Stimuli/C_ambi40.png","他人","Image","朋友","Mismatch","j","true","Formal",""
"","","","","","psychophysics","378","742028","0.0-9.0-0.0-0.67","789","","j","","","","","","","","","","","","","key","j","16.66608695652255","853.3333333333334","476","./1_3_Stimuli/C_ambi40.png","自我","Image","朋友","Mismatch","j","true","Formal",""
"","","","","","psychophysics","379","744160","0.0-9.0-0.0-0.68","976","","j","","","","","","","","","","","","","key","j","16.666141732283283","853.3333333333334","476","./1_3_Stimuli/S_ambi40.png","他人","Image","自我","Mismatch","j","true","Formal",""
"","","","","","psychophysics","380","745842","0.0-9.0-0.0-0.69","525","","f","","","","","","","","","","","","","key","f","16.665","853.3333333333334","476","./1_3_Stimuli/C_ambi40.png","朋友","Image","朋友","Match","f","true","Formal",""
"","","","","","psychophysics","381","748266","0.0-9.0-0.0-0.70","1265","","f","","","","","","","","","","","","","key","f","16.665972222222383","853.3333333333334","476","./1_3_Stimuli/T_ambi40.png","他人","Image","他人","Match","f","true","Formal",""
"","","","","","psychophysics","382","750053","0.0-9.0-0.0-0.71","636","","j","","","","","","","","","","","","","key","j","16.666981132075033","853.3333333333334","476","./1_3_Stimuli/S_ambi40.png","他人","Word","自我","Mismatch","j","true","Formal",""
"","","","","","psychophysics","383","751665","0.0-9.0-0.0-0.72","447","","f","","","","","","","","","","","","","key","f","16.664210526315543","853.3333333333334","476","./1_3_Stimuli/C_ambi40.png","朋友","Image","朋友","Match","f","true","Formal",""
"","","","","","psychophysics","384","753759","0.0-9.0-0.0-0.73","941","","j","","","","","","","","","","","","","key","j","16.667200000000186","853.3333333333334","476","./1_3_Stimuli/S_ambi40.png","他人","Word","自我","Mismatch","j","true","Formal",""
"","","","","","psychophysics","385","756155","0.0-9.0-0.0-0.74","1242","","f","","","","","","","","","","","","","key","f","16.66713286713303","853.3333333333334","476","./1_3_Stimuli/T_ambi40.png","他人","Word","他人","Match","f","true","Formal",""
"","","","","","psychophysics","386","758191","0.0-9.0-0.0-0.75","873","","j","","","","","","","","","","","","","key","j","16.666115702479146","853.3333333333334","476","./1_3_Stimuli/S_ambi40.png","朋友","Image","自我","Mismatch","j","true","Formal",""
"","","","","","psychophysics","387","760521","0.0-9.0-0.0-0.76","1168","","j","","","","","","","","","","","","","key","j","16.666906474819807","853.3333333333334","476","./1_3_Stimuli/C_ambi40.png","自我","Word","朋友","Mismatch","j","true","Formal",""
"","","","","","psychophysics","388","762522","0.0-9.0-0.0-0.77","838","","j","","","","","","","","","","","","","key","j","16.66722689075552","853.3333333333334","476","./1_3_Stimuli/S_ambi40.png","自我","Word","自我","Match","f","false","Formal",""
"","","","","","psychophysics","389","764838","0.0-9.0-0.0-0.78","1157","","f","","","","","","","","","","","","","key","f","16.66231884057988","853.3333333333334","476","./1_3_Stimuli/C_ambi40.png","朋友","Word","朋友","Match","f","true","Formal",""
"","","","","","psychophysics","390","766874","0.0-9.0-0.0-0.79","874","","f","","","","","","","","","","","","","key","f","16.662809917354988","853.3333333333334","476","./1_3_Stimuli/S_ambi40.png","自我","Image","自我","Match","f","true","Formal",""
"","","","","","psychophysics","391","768799","0.0-9.0-0.0-0.80","771","","f","","","","","","","","","","","","","key","f","16.666666666666668","853.3333333333334","476","./1_3_Stimuli/S_ambi40.png","自我","Image","自我","Match","f","true","Formal",""
"","","","","","psychophysics","392","770607","0.0-9.0-0.0-0.81","657","","j","","","","","","","","","","","","","key","j","16.666666666666668","853.3333333333334","476","./1_3_Stimuli/S_ambi40.png","他人","Image","自我","Mismatch","j","true","Formal",""
"","","","","","psychophysics","393","772525","0.0-9.0-0.0-0.82","759","","f","","","","","","","","","","","","","key","f","16.665789473684416","853.3333333333334","476","./1_3_Stimuli/C_ambi40.png","朋友","Image","朋友","Match","f","true","Formal",""
"","","","","","psychophysics","394","775232","0.0-9.0-0.0-0.83","null","","null","","","","","","","","","","","","","key","null","16.663975155279648","853.3333333333334","476","./1_3_Stimuli/S_ambi40.png","朋友","Word","自我","Mismatch","j","false","Formal",""
"","","","","","psychophysics","395","777269","0.0-9.0-0.0-0.84","884","","f","","","","","","","","","","","","","key","f","16.666942148759947","853.3333333333334","476","./1_3_Stimuli/T_ambi40.png","他人","Image","他人","Match","f","true","Formal",""
"","","","","","psychophysics","396","779292","0.0-9.0-0.0-0.85","872","","f","","","","","","","","","","","","","key","f","16.664999999999417","853.3333333333334","476","./1_3_Stimuli/S_ambi40.png","自我","Word","自我","Match","f","true","Formal",""
"","","","","","psychophysics","397","781045","0.0-9.0-0.0-0.86","595","","j","","","","","","","","","","","","","key","j","16.665384615384166","853.3333333333334","476","./1_3_Stimuli/T_ambi40.png","自我","Word","他人","Mismatch","j","true","Formal",""
"","","","","","psychophysics","398","783332","0.0-9.0-0.0-0.87","1132","","j","","","","","","","","","","","","","key","j","16.666176470588063","853.3333333333334","476","./1_3_Stimuli/T_ambi40.png","朋友","Image","他人","Mismatch","j","true","Formal",""
"","","","","","psychophysics","399","785358","0.0-9.0-0.0-0.88","873","","j","","","","","","","","","","","","","key","j","16.667500000000775","853.3333333333334","476","./1_3_Stimuli/C_ambi40.png","他人","Word","朋友","Mismatch","j","true","Formal",""
"","","","","","psychophysics","400","787372","0.0-9.0-0.0-0.89","855","","f","","","","","","","","","","","","","key","f","16.666666666666668","853.3333333333334","476","./1_3_Stimuli/T_ambi40.png","他人","Image","他人","Match","f","true","Formal",""
