"success","timeout","failed_images","failed_audio","failed_video","trial_type","trial_index","time_elapsed","internal_node_id","rt","stimulus","response","value","item_width_mm","item_height_mm","item_width_px","px2mm","view_dist_mm","item_width_deg","px2deg","scale_factor","win_width_deg","win_height_deg","view_history","response_type","key_press","avg_frame_time","center_x","center_y","image","word","target","valence","matchness","correct_response","correct","exp_condition","question_order"
"true","false","[]","[]","[]","preload","0","2","0.0-0.0","","","","","","","","","","","","","","","","","","","","","","","","","","","","",""
"","","","","","html-keyboard-response","1","874","0.0-1.0","872","
     <p>您好，欢迎参加本次实验。</p>
     <p>为充分保障您的权利，请确保您已经知晓并同意《参与实验同意书》以及《数据公开知情同意书》。</p>
     <p>如果您未见过上述内容，请咨询实验员。</p>
     <p>如果您选择继续实验，则表示您已经清楚两份知情同意书的内容并同意。</p>
     <p> <div style = ""color: green""><按任意键至下页></div> </p>
     "," ","","","","","","","","","","","","","","","","","","","","","","","","","",""
"","","","","","html-keyboard-response","2","1127","0.0-2.0-0.0","253","
      <p>本实验首先需要您填写一些基本个人信息。</p>
      <p> <div style = ""color: green""><按任意键至下页></div></p>
      "," ","","","","","","","","","","","","","","","","","","","","","","","","","",""
"","","","","","call-function","3","1128","0.0-2.0-1.0","","","","","","","","","","","","","","","","","","","","","","","","","","","","",""
"","","","","","survey-html-form","4","3587","0.0-2.0-2.0","2459","","{""Q0"":""1024""}","","","","","","","","","","","","","","","","","","","","","","","","","",""
"","","","","","html-button-response","5","4071","0.0-2.0-3.0","483","<p style = 'color : white'>您的性别</p>","0","","","","","","","","","","","","","","","","","","","","","","","","","",""
"","","","","","survey-html-form","6","10217","0.0-2.0-4.0","6145","","{""Q0"":""2001""}","","","","","","","","","","","","","","","","","","","","","","","","","",""
"","","","","","survey-html-form","7","13930","0.0-2.0-5.0","3712","","{""Q0"":""5""}","","","","","","","","","","","","","","","","","","","","","","","","","",""
"","","","","","virtual-chinrest","8","124477","0.0-3.0","110545","","","","85.6","53.98","511.51147270152757","5.97660773367048","478.14","10.230229454030551","50","0.7428963381662684","30.56","15","","","","","","","","","","","","","","",""
"true","","","","","fullscreen","9","127461","0.0-4.0","","","","","","","","","","","","","","","","","","","","","","","","","","","","",""
"","","","","","instructions","10","185591","0.0-5.0","58128","","","","","","","","","","","","","","[{""page_index"":0,""viewing_time"":3896},{""page_index"":1,""viewing_time"":48817},{""page_index"":2,""viewing_time"":3633},{""page_index"":3,""viewing_time"":1782}]","","","","","","","","","","","","","",""
"","","","","","html-keyboard-response","11","189249","0.0-6.0","null","<count-down title=""""></count-down>","null","","","","","","","","","","","","","","","","","","","","","","","","","",""
"","","","","","psychophysics","12","192172","0.0-7.0-0.0-0.0","null","","null","","","","","","","","","","","","","key","null","6.944391408114586","768","428","./1_3_Stimuli/T_ambi40.png","朋友","Word","朋友","Match","f","false","Practice",""
"","","","","","html-keyboard-response","13","193178","0.0-7.0-0.0-1.0","null","<span class='add_' style='color:yellow; font-size: 70px;'> 太慢! </span>","null","","","","","","","","","","","","","","","","","","","","","","","","","feedback",""
"","","","","","psychophysics","14","195880","0.0-7.0-0.0-0.1","null","","null","","","","","","","","","","","","","key","null","6.944215938303387","768","428","./1_3_Stimuli/T_ambi40.png","他人","Image","朋友","Mismatch","j","false","Practice",""
"","","","","","html-keyboard-response","15","196184","0.0-7.0-0.0-1.1","null","<span class='add_' style='color:yellow; font-size: 70px;'> 太慢! </span>","null","","","","","","","","","","","","","","","","","","","","","","","","","feedback",""
"","","","","","psychophysics","16","198123","0.0-7.0-0.0-0.2","785","","j","","","","","","","","","","","","","key","j","6.942960288808601","768","428","./1_3_Stimuli/S_ambi40.png","自我","Image","自我","Match","f","false","Practice",""
"","","","","","html-keyboard-response","17","198424","0.0-7.0-0.0-1.2","null","<span style='color:red; font-size: 70px;'>错误! </span>","null","","","","","","","","","","","","","","","","","","","","","","","","","feedback",""
"","","","","","psychophysics","18","200263","0.0-7.0-0.0-0.3","688","","j","","","","","","","","","","","","","key","j","6.938867924528368","768","428","./1_3_Stimuli/S_ambi40.png","他人","Image","自我","Mismatch","j","true","Practice",""
"","","","","","html-keyboard-response","19","200574","0.0-7.0-0.0-1.3","null","<span style='color:GreenYellow; font-size: 70px;'>正确! </span>","null","","","","","","","","","","","","","","","","","","","","","","","","","feedback",""
"","","","","","psychophysics","20","202398","0.0-7.0-0.0-0.4","671","","f","","","","","","","","","","","","","key","f","6.970881226053618","768","428","./1_3_Stimuli/C_ambi40.png","他人","Word","他人","Match","f","true","Practice",""
"","","","","","html-keyboard-response","21","202708","0.0-7.0-0.0-1.4","null","<span style='color:GreenYellow; font-size: 70px;'>正确! </span>","null","","","","","","","","","","","","","","","","","","","","","","","","","feedback",""
"","","","","","psychophysics","22","204538","0.0-7.0-0.0-0.5","679","","j","","","","","","","","","","","","","key","j","6.944274809160283","768","428","./1_3_Stimuli/T_ambi40.png","自我","Image","朋友","Mismatch","j","true","Practice",""
"","","","","","html-keyboard-response","23","204848","0.0-7.0-0.0-1.5","null","<span style='color:GreenYellow; font-size: 70px;'>正确! </span>","null","","","","","","","","","","","","","","","","","","","","","","","","","feedback",""
"","","","","","psychophysics","24","206634","0.0-7.0-0.0-0.6","463","","f","","","","","","","","","","","","","key","f","6.9714843750000455","768","428","./1_3_Stimuli/C_ambi40.png","他人","Image","他人","Match","f","true","Practice",""
"","","","","","html-keyboard-response","25","206936","0.0-7.0-0.0-1.6","null","<span style='color:GreenYellow; font-size: 70px;'>正确! </span>","null","","","","","","","","","","","","","","","","","","","","","","","","","feedback",""
"","","","","","psychophysics","26","208666","0.0-7.0-0.0-0.7","578","","j","","","","","","","","","","","","","key","j","6.9385542168673995","768","428","./1_3_Stimuli/C_ambi40.png","自我","Word","他人","Mismatch","j","true","Practice",""
"","","","","","html-keyboard-response","27","208970","0.0-7.0-0.0-1.7","null","<span style='color:GreenYellow; font-size: 70px;'>正确! </span>","null","","","","","","","","","","","","","","","","","","","","","","","","","feedback",""
"","","","","","psychophysics","28","210650","0.0-7.0-0.0-0.8","528","","j","","","","","","","","","","","","","key","j","6.944166666666691","768","428","./1_3_Stimuli/S_ambi40.png","自我","Word","自我","Match","f","false","Practice",""
"","","","","","html-keyboard-response","29","210957","0.0-7.0-0.0-1.8","null","<span style='color:red; font-size: 70px;'>错误! </span>","null","","","","","","","","","","","","","","","","","","","","","","","","","feedback",""
"","","","","","psychophysics","30","212681","0.0-7.0-0.0-0.9","510","","f","","","","","","","","","","","","","key","f","6.9443548387097245","768","428","./1_3_Stimuli/S_ambi40.png","朋友","Image","自我","Mismatch","j","false","Practice",""
"","","","","","html-keyboard-response","31","212991","0.0-7.0-0.0-1.9","null","<span style='color:red; font-size: 70px;'>错误! </span>","null","","","","","","","","","","","","","","","","","","","","","","","","","feedback",""
"","","","","","psychophysics","32","214624","0.0-7.0-0.0-0.10","481","","j","","","","","","","","","","","","","key","j","6.945531914893543","768","428","./1_3_Stimuli/C_ambi40.png","自我","Image","他人","Mismatch","j","true","Practice",""
"","","","","","html-keyboard-response","33","214926","0.0-7.0-0.0-1.10","null","<span style='color:GreenYellow; font-size: 70px;'>正确! </span>","null","","","","","","","","","","","","","","","","","","","","","","","","","feedback",""
"","","","","","psychophysics","34","216958","0.0-7.0-0.0-0.11","878","","f","","","","","","","","","","","","","key","f","6.944329896907276","768","428","./1_3_Stimuli/C_ambi40.png","他人","Image","他人","Match","f","true","Practice",""
"","","","","","html-keyboard-response","35","217267","0.0-7.0-0.0-1.11","null","<span style='color:GreenYellow; font-size: 70px;'>正确! </span>","null","","","","","","","","","","","","","","","","","","","","","","","","","feedback",""
"","","","","","psychophysics","36","219554","0.0-7.0-0.0-0.12","656","","f","","","","","","","","","","","","","key","f","6.9445121951219155","768","428","./1_3_Stimuli/S_ambi40.png","自我","Image","自我","Match","f","true","Practice",""
"","","","","","html-keyboard-response","37","219870","0.0-7.0-0.0-1.12","null","<span style='color:GreenYellow; font-size: 70px;'>正确! </span>","null","","","","","","","","","","","","","","","","","","","","","","","","","feedback",""
"","","","","","psychophysics","38","221557","0.0-7.0-0.0-0.13","533","","j","","","","","","","","","","","","","key","j","6.944214876033058","768","428","./1_3_Stimuli/C_ambi40.png","朋友","Word","他人","Mismatch","j","true","Practice",""
"","","","","","html-keyboard-response","39","221873","0.0-7.0-0.0-1.13","null","<span style='color:GreenYellow; font-size: 70px;'>正确! </span>","null","","","","","","","","","","","","","","","","","","","","","","","","","feedback",""
"","","","","","psychophysics","40","223641","0.0-7.0-0.0-0.14","617","","j","","","","","","","","","","","","","key","j","6.94387351778663","768","428","./1_3_Stimuli/C_ambi40.png","朋友","Image","他人","Mismatch","j","true","Practice",""
"","","","","","html-keyboard-response","41","224176","0.0-7.0-0.0-1.14","null","<span style='color:GreenYellow; font-size: 70px;'>正确! </span>","null","","","","","","","","","","","","","","","","","","","","","","","","","feedback",""
"","","","","","psychophysics","42","226457","0.0-7.0-0.0-0.15","714","","f","","","","","","","","","","","","","key","f","6.944512195122004","768","428","./1_3_Stimuli/T_ambi40.png","朋友","Image","朋友","Match","f","true","Practice",""
"","","","","","html-keyboard-response","43","226764","0.0-7.0-0.0-1.15","null","<span style='color:GreenYellow; font-size: 70px;'>正确! </span>","null","","","","","","","","","","","","","","","","","","","","","","","","","feedback",""
"","","","","","psychophysics","44","228442","0.0-7.0-0.0-0.16","522","","j","","","","","","","","","","","","","key","j","6.967634854771832","768","428","./1_3_Stimuli/T_ambi40.png","他人","Word","朋友","Mismatch","j","true","Practice",""
"","","","","","html-keyboard-response","45","228745","0.0-7.0-0.0-1.16","null","<span style='color:GreenYellow; font-size: 70px;'>正确! </span>","null","","","","","","","","","","","","","","","","","","","","","","","","","feedback",""
"","","","","","psychophysics","46","230321","0.0-7.0-0.0-0.17","421","","j","","","","","","","","","","","","","key","j","6.944444444444445","768","428","./1_3_Stimuli/S_ambi40.png","朋友","Word","自我","Mismatch","j","true","Practice",""
"","","","","","html-keyboard-response","47","230633","0.0-7.0-0.0-1.17","null","<span style='color:GreenYellow; font-size: 70px;'>正确! </span>","null","","","","","","","","","","","","","","","","","","","","","","","","","feedback",""
"","","","","","psychophysics","48","232661","0.0-7.0-0.0-0.18","492","","f","","","","","","","","","","","","","key","f","6.94467353951888","768","428","./1_3_Stimuli/S_ambi40.png","自我","Word","自我","Match","f","true","Practice",""
"","","","","","html-keyboard-response","49","232973","0.0-7.0-0.0-1.18","null","<span style='color:GreenYellow; font-size: 70px;'>正确! </span>","null","","","","","","","","","","","","","","","","","","","","","","","","","feedback",""
"","","","","","psychophysics","50","234784","0.0-7.0-0.0-0.19","656","","j","","","","","","","","","","","","","key","j","6.9444015444015665","768","428","./1_3_Stimuli/C_ambi40.png","他人","Word","他人","Match","f","false","Practice",""
"","","","","","html-keyboard-response","51","235091","0.0-7.0-0.0-1.19","null","<span style='color:red; font-size: 70px;'>错误! </span>","null","","","","","","","","","","","","","","","","","","","","","","","","","feedback",""
"","","","","","psychophysics","52","236501","0.0-7.0-0.0-0.20","255","","f","","","","","","","","","","","","","key","f","6.942786069651741","768","428","./1_3_Stimuli/S_ambi40.png","他人","Word","自我","Mismatch","j","false","Practice",""
"","","","","","html-keyboard-response","53","236808","0.0-7.0-0.0-1.20","null","<span style='color:red; font-size: 70px;'>错误! </span>","null","","","","","","","","","","","","","","","","","","","","","","","","","feedback",""
"","","","","","psychophysics","54","238502","0.0-7.0-0.0-0.21","332","","f","","","","","","","","","","","","","key","f","6.944032921810676","768","428","./1_3_Stimuli/T_ambi40.png","自我","Word","朋友","Mismatch","j","false","Practice",""
"","","","","","html-keyboard-response","55","238810","0.0-7.0-0.0-1.21","null","<span style='color:red; font-size: 70px;'>错误! </span>","null","","","","","","","","","","","","","","","","","","","","","","","","","feedback",""
"","","","","","psychophysics","56","240361","0.0-7.0-0.0-0.22","400","","f","","","","","","","","","","","","","key","f","6.944394618834107","768","428","./1_3_Stimuli/T_ambi40.png","朋友","Image","朋友","Match","f","true","Practice",""
"","","","","","html-keyboard-response","57","240681","0.0-7.0-0.0-1.22","null","<span style='color:GreenYellow; font-size: 70px;'>正确! </span>","null","","","","","","","","","","","","","","","","","","","","","","","","","feedback",""
"","","","","","psychophysics","58","242214","0.0-7.0-0.0-0.23","377","","f","","","","","","","","","","","","","key","f","6.944090909090962","768","428","./1_3_Stimuli/T_ambi40.png","朋友","Word","朋友","Match","f","true","Practice",""
"","","","","","html-keyboard-response","59","242516","0.0-7.0-0.0-1.23","null","<span style='color:GreenYellow; font-size: 70px;'>正确! </span>","null","","","","","","","","","","","","","","","","","","","","","","","","","feedback",""
"","","","","","html-keyboard-response","60","251438","0.0-7.0-1.0-0.0","8920","<style>.context{color:white; font-size: 35px; line-height:40px}</style>                        <div><p class='context'>您正确回答了67% 的试次。</p><p class='context'>您的平均反应时为573毫秒。</p><p> <div style = 'color: green'><按空格键至下页></div></p>"," ","","","","","","","","","","","","","","","","","","","","","","","","","",""
"","","","","","instructions","61","259485","0.0-7.0-1.0-1.0","8044","","","","","","","","","","","","","","[{""page_index"":0,""viewing_time"":4888},{""page_index"":1,""viewing_time"":1563},{""page_index"":2,""viewing_time"":1593}]","","","","","","","","","","","","","",""
"","","","","","psychophysics","62","262191","0.0-7.1-0.1-0.24","null","","null","","","","","","","","","","","","","key","null","6.944730077120748","768","428","./1_3_Stimuli/S_ambi40.png","自我","Image","自我","Match","f","false","Practice",""
"","","","","","html-keyboard-response","63","262496","0.0-7.1-0.1-1.24","null","<span class='add_' style='color:yellow; font-size: 70px;'> 太慢! </span>","null","","","","","","","","","","","","","","","","","","","","","","","","","feedback",""
"","","","","","psychophysics","64","264507","0.0-7.1-0.1-0.25","338","","j","","","","","","","","","","","","","key","j","6.939446366782007","768","428","./1_3_Stimuli/C_ambi40.png","自我","Word","他人","Mismatch","j","true","Practice",""
"","","","","","html-keyboard-response","65","264822","0.0-7.1-0.1-1.25","null","<span style='color:GreenYellow; font-size: 70px;'>正确! </span>","null","","","","","","","","","","","","","","","","","","","","","","","","","feedback",""
"","","","","","psychophysics","66","266645","0.0-7.1-0.1-0.26","670","","f","","","","","","","","","","","","","key","f","6.944827586207031","768","428","./1_3_Stimuli/T_ambi40.png","他人","Word","朋友","Mismatch","j","false","Practice",""
"","","","","","html-keyboard-response","67","266958","0.0-7.1-0.1-1.26","null","<span style='color:red; font-size: 70px;'>错误! </span>","null","","","","","","","","","","","","","","","","","","","","","","","","","feedback",""
"","","","","","psychophysics","68","269341","0.0-7.1-0.1-0.27","1227","","f","","","","","","","","","","","","","key","f","6.964619883040833","768","428","./1_3_Stimuli/T_ambi40.png","朋友","Word","朋友","Match","f","true","Practice",""
"","","","","","html-keyboard-response","69","270178","0.0-7.1-0.1-1.27","null","<span style='color:GreenYellow; font-size: 70px;'>正确! </span>","null","","","","","","","","","","","","","","","","","","","","","","","","","feedback",""
"","","","","","psychophysics","70","272401","0.0-7.1-0.1-0.28","379","","f","","","","","","","","","","","","","key","f","6.944062499999927","768","428","./1_3_Stimuli/S_ambi40.png","自我","Word","自我","Match","f","true","Practice",""
"","","","","","html-keyboard-response","71","272712","0.0-7.1-0.1-1.28","null","<span style='color:GreenYellow; font-size: 70px;'>正确! </span>","null","","","","","","","","","","","","","","","","","","","","","","","","","feedback",""
"","","","","","psychophysics","72","275420","0.0-7.1-0.1-0.29","null","","null","","","","","","","","","","","","","key","null","6.944215938303461","768","428","./1_3_Stimuli/T_ambi40.png","朋友","Image","朋友","Match","f","false","Practice",""
"","","","","","html-keyboard-response","73","275739","0.0-7.1-0.1-1.29","null","<span class='add_' style='color:yellow; font-size: 70px;'> 太慢! </span>","null","","","","","","","","","","","","","","","","","","","","","","","","","feedback",""
"","","","","","psychophysics","74","277867","0.0-7.1-0.1-0.30","976","","f","","","","","","","","","","","","","key","f","6.944117647058899","768","428","./1_3_Stimuli/C_ambi40.png","朋友","Word","他人","Mismatch","j","false","Practice",""
"","","","","","html-keyboard-response","75","278174","0.0-7.1-0.1-1.30","null","<span style='color:red; font-size: 70px;'>错误! </span>","null","","","","","","","","","","","","","","","","","","","","","","","","","feedback",""
"","","","","","psychophysics","76","279998","0.0-7.1-0.1-0.31","669","","f","","","","","","","","","","","","","key","f","6.944656488549619","768","428","./1_3_Stimuli/T_ambi40.png","自我","Image","朋友","Mismatch","j","false","Practice",""
"","","","","","html-keyboard-response","77","280306","0.0-7.1-0.1-1.31","null","<span style='color:red; font-size: 70px;'>错误! </span>","null","","","","","","","","","","","","","","","","","","","","","","","","","feedback",""
"","","","","","psychophysics","78","281962","0.0-7.1-0.1-0.32","500","","f","","","","","","","","","","","","","key","f","6.943697478991499","768","428","./1_3_Stimuli/T_ambi40.png","自我","Word","朋友","Mismatch","j","false","Practice",""
"","","","","","html-keyboard-response","79","282278","0.0-7.1-0.1-1.32","null","<span style='color:red; font-size: 70px;'>错误! </span>","null","","","","","","","","","","","","","","","","","","","","","","","","","feedback",""
"","","","","","psychophysics","80","284437","0.0-7.1-0.1-0.33","548","","f","","","","","","","","","","","","","key","f","6.966774193548424","768","428","./1_3_Stimuli/C_ambi40.png","朋友","Image","他人","Mismatch","j","false","Practice",""
"","","","","","html-keyboard-response","81","284749","0.0-7.1-0.1-1.33","null","<span style='color:red; font-size: 70px;'>错误! </span>","null","","","","","","","","","","","","","","","","","","","","","","","","","feedback",""
"","","","","","psychophysics","82","286577","0.0-7.1-0.1-0.34","671","","j","","","","","","","","","","","","","key","j","6.97099236641208","768","428","./1_3_Stimuli/T_ambi40.png","朋友","Word","朋友","Match","f","false","Practice",""
"","","","","","html-keyboard-response","83","286883","0.0-7.1-0.1-1.34","null","<span style='color:red; font-size: 70px;'>错误! </span>","null","","","","","","","","","","","","","","","","","","","","","","","","","feedback",""
"","","","","","psychophysics","84","288606","0.0-7.1-0.1-0.35","568","","j","","","","","","","","","","","","","key","j","6.944308943089384","768","428","./1_3_Stimuli/C_ambi40.png","他人","Word","他人","Match","f","false","Practice",""
"","","","","","html-keyboard-response","85","289170","0.0-7.1-0.1-1.35","null","<span style='color:red; font-size: 70px;'>错误! </span>","null","","","","","","","","","","","","","","","","","","","","","","","","","feedback",""
"","","","","","psychophysics","86","291388","0.0-7.1-0.1-0.36","347","","j","","","","","","","","","","","","","key","j","6.944514106583036","768","428","./1_3_Stimuli/S_ambi40.png","朋友","Word","自我","Mismatch","j","true","Practice",""
"","","","","","html-keyboard-response","87","291689","0.0-7.1-0.1-1.36","null","<span style='color:GreenYellow; font-size: 70px;'>正确! </span>","null","","","","","","","","","","","","","","","","","","","","","","","","","feedback",""
"","","","","","psychophysics","88","293558","0.0-7.1-0.1-0.37","715","","f","","","","","","","","","","","","","key","f","6.9391791044774385","768","428","./1_3_Stimuli/S_ambi40.png","他人","Image","自我","Mismatch","j","false","Practice",""
"","","","","","html-keyboard-response","89","293861","0.0-7.1-0.1-1.37","null","<span style='color:red; font-size: 70px;'>错误! </span>","null","","","","","","","","","","","","","","","","","","","","","","","","","feedback",""
"","","","","","psychophysics","90","295662","0.0-7.1-0.1-0.38","649","","j","","","","","","","","","","","","","key","j","6.943579766536965","768","428","./1_3_Stimuli/C_ambi40.png","他人","Image","他人","Match","f","false","Practice",""
"","","","","","html-keyboard-response","91","295965","0.0-7.1-0.1-1.38","null","<span style='color:red; font-size: 70px;'>错误! </span>","null","","","","","","","","","","","","","","","","","","","","","","","","","feedback",""
"","","","","","psychophysics","92","297491","0.0-7.1-0.1-0.39","322","","f","","","","","","","","","","","","","key","f","6.944292237442869","768","428","./1_3_Stimuli/C_ambi40.png","他人","Image","他人","Match","f","true","Practice",""
"","","","","","html-keyboard-response","93","297799","0.0-7.1-0.1-1.39","null","<span style='color:GreenYellow; font-size: 70px;'>正确! </span>","null","","","","","","","","","","","","","","","","","","","","","","","","","feedback",""
"","","","","","psychophysics","94","299138","0.0-7.1-0.1-0.40","183","","f","","","","","","","","","","","","","key","f","6.944270833333273","768","428","./1_3_Stimuli/C_ambi40.png","自我","Image","他人","Mismatch","j","false","Practice",""
"","","","","","html-keyboard-response","95","299449","0.0-7.1-0.1-1.40","null","<span style='color:yellow; font-size: 70px;'>过快! </span>","null","","","","","","","","","","","","","","","","","","","","","","","","","feedback",""
"","","","","","psychophysics","96","301061","0.0-7.1-0.1-0.41","461","","f","","","","","","","","","","","","","key","f","6.945454545454647","768","428","./1_3_Stimuli/S_ambi40.png","朋友","Image","自我","Mismatch","j","false","Practice",""
"","","","","","html-keyboard-response","97","301362","0.0-7.1-0.1-1.41","null","<span style='color:red; font-size: 70px;'>错误! </span>","null","","","","","","","","","","","","","","","","","","","","","","","","","feedback",""
"","","","","","psychophysics","98","303234","0.0-7.1-0.1-0.42","63","","f","","","","","","","","","","","","","key","f","6.944609665427422","768","428","./1_3_Stimuli/T_ambi40.png","朋友","Image","朋友","Match","f","true","Practice",""
"","","","","","html-keyboard-response","99","303546","0.0-7.1-0.1-1.42","null","<span style='color:yellow; font-size: 70px;'>过快! </span>","null","","","","","","","","","","","","","","","","","","","","","","","","","feedback",""
"","","","","","psychophysics","100","305110","0.0-7.1-0.1-0.43","413","","f","","","","","","","","","","","","","key","f","6.944000000000104","768","428","./1_3_Stimuli/C_ambi40.png","他人","Word","他人","Match","f","true","Practice",""
"","","","","","html-keyboard-response","101","305413","0.0-7.1-0.1-1.43","null","<span style='color:GreenYellow; font-size: 70px;'>正确! </span>","null","","","","","","","","","","","","","","","","","","","","","","","","","feedback",""
"","","","","","psychophysics","102","307034","0.0-7.1-0.1-0.44","469","","j","","","","","","","","","","","","","key","j","6.943965517241379","768","428","./1_3_Stimuli/S_ambi40.png","自我","Word","自我","Match","f","false","Practice",""
"","","","","","html-keyboard-response","103","307349","0.0-7.1-0.1-1.44","null","<span style='color:red; font-size: 70px;'>错误! </span>","null","","","","","","","","","","","","","","","","","","","","","","","","","feedback",""
"","","","","","psychophysics","104","309454","0.0-7.1-0.1-0.45","381","","j","","","","","","","","","","","","","key","j","6.944701986754929","768","428","./1_3_Stimuli/T_ambi40.png","他人","Image","朋友","Mismatch","j","true","Practice",""
"","","","","","html-keyboard-response","105","309758","0.0-7.1-0.1-1.45","null","<span style='color:GreenYellow; font-size: 70px;'>正确! </span>","null","","","","","","","","","","","","","","","","","","","","","","","","","feedback",""
"","","","","","psychophysics","106","311297","0.0-7.1-0.1-0.46","385","","j","","","","","","","","","","","","","key","j","6.944796380090708","768","428","./1_3_Stimuli/S_ambi40.png","他人","Word","自我","Mismatch","j","true","Practice",""
"","","","","","html-keyboard-response","107","311606","0.0-7.1-0.1-1.46","null","<span style='color:GreenYellow; font-size: 70px;'>正确! </span>","null","","","","","","","","","","","","","","","","","","","","","","","","","feedback",""
"","","","","","psychophysics","108","313313","0.0-7.1-0.1-0.47","554","","j","","","","","","","","","","","","","key","j","6.9438524590163455","768","428","./1_3_Stimuli/S_ambi40.png","自我","Image","自我","Match","f","false","Practice",""
"","","","","","html-keyboard-response","109","313629","0.0-7.1-0.1-1.47","null","<span style='color:red; font-size: 70px;'>错误! </span>","null","","","","","","","","","","","","","","","","","","","","","","","","","feedback",""
"","","","","","html-keyboard-response","110","315074","0.0-7.1-1.1-0.1","1443","<style>.context{color:white; font-size: 35px; line-height:40px}</style>                        <div><p class='context'>您正确回答了38% 的试次。</p><p class='context'>您的平均反应时为428毫秒。</p><p> <div style = 'color: green'><按空格键至下页></div></p>"," ","","","","","","","","","","","","","","","","","","","","","","","","","",""
"","","","","","instructions","111","320546","0.0-7.1-1.1-1.1","5470","","","","","","","","","","","","","","[{""page_index"":0,""viewing_time"":1867},{""page_index"":1,""viewing_time"":1874},{""page_index"":2,""viewing_time"":1729}]","","","","","","","","","","","","","",""
"","","","","","psychophysics","112","322282","0.0-7.2-0.2-0.48","578","","f","","","","","","","","","","","","","key","f","6.945381526104278","768","428","./1_3_Stimuli/C_ambi40.png","他人","Word","他人","Match","f","true","Practice",""
"","","","","","html-keyboard-response","113","322585","0.0-7.2-0.2-1.48","null","<span style='color:GreenYellow; font-size: 70px;'>正确! </span>","null","","","","","","","","","","","","","","","","","","","","","","","","","feedback",""
"","","","","","psychophysics","114","324361","0.0-7.2-0.2-0.49","625","","f","","","","","","","","","","","","","key","f","6.93921568627451","768","428","./1_3_Stimuli/T_ambi40.png","朋友","Word","朋友","Match","f","true","Practice",""
"","","","","","html-keyboard-response","115","324669","0.0-7.2-0.2-1.49","null","<span style='color:GreenYellow; font-size: 70px;'>正确! </span>","null","","","","","","","","","","","","","","","","","","","","","","","","","feedback",""
"","","","","","psychophysics","116","326276","0.0-7.2-0.2-0.50","107","","j","","","","","","","","","","","","","key","j","6.945652173913044","768","428","./1_3_Stimuli/T_ambi40.png","他人","Image","朋友","Mismatch","j","true","Practice",""
"","","","","","html-keyboard-response","117","326585","0.0-7.2-0.2-1.50","null","<span style='color:yellow; font-size: 70px;'>过快! </span>","null","","","","","","","","","","","","","","","","","","","","","","","","","feedback",""
"","","","","","psychophysics","118","328397","0.0-7.2-0.2-0.51","660","","f","","","","","","","","","","","","","key","f","6.944230769230769","768","428","./1_3_Stimuli/S_ambi40.png","自我","Word","自我","Match","f","true","Practice",""
"","","","","","html-keyboard-response","119","328705","0.0-7.2-0.2-1.51","null","<span style='color:GreenYellow; font-size: 70px;'>正确! </span>","null","","","","","","","","","","","","","","","","","","","","","","","","","feedback",""
"","","","","","psychophysics","120","330441","0.0-7.2-0.2-0.52","584","","f","","","","","","","","","","","","","key","f","6.944399999999907","768","428","./1_3_Stimuli/C_ambi40.png","他人","Word","他人","Match","f","true","Practice",""
"","","","","","html-keyboard-response","121","330746","0.0-7.2-0.2-1.52","null","<span style='color:GreenYellow; font-size: 70px;'>正确! </span>","null","","","","","","","","","","","","","","","","","","","","","","","","","feedback",""
"","","","","","psychophysics","122","332446","0.0-7.2-0.2-0.53","277","","f","","","","","","","","","","","","","key","f","6.942975206611618","768","428","./1_3_Stimuli/S_ambi40.png","他人","Word","自我","Mismatch","j","false","Practice",""
"","","","","","html-keyboard-response","123","332761","0.0-7.2-0.2-1.53","null","<span style='color:red; font-size: 70px;'>错误! </span>","null","","","","","","","","","","","","","","","","","","","","","","","","","feedback",""
"","","","","","psychophysics","124","334617","0.0-7.2-0.2-0.54","699","","f","","","","","","","","","","","","","key","f","6.928838951310861","768","428","./1_3_Stimuli/T_ambi40.png","朋友","Image","朋友","Match","f","true","Practice",""
"","","","","","html-keyboard-response","125","334922","0.0-7.2-0.2-1.54","null","<span style='color:GreenYellow; font-size: 70px;'>正确! </span>","null","","","","","","","","","","","","","","","","","","","","","","","","","feedback",""
"","","","","","psychophysics","126","336521","0.0-7.2-0.2-0.55","445","","j","","","","","","","","","","","","","key","j","6.968558951965015","768","428","./1_3_Stimuli/C_ambi40.png","朋友","Word","他人","Mismatch","j","true","Practice",""
"","","","","","html-keyboard-response","127","336824","0.0-7.2-0.2-1.55","null","<span style='color:GreenYellow; font-size: 70px;'>正确! </span>","null","","","","","","","","","","","","","","","","","","","","","","","","","feedback",""
"","","","","","psychophysics","128","338810","0.0-7.2-0.2-0.56","641","","j","","","","","","","","","","","","","key","j","6.9442105263157075","768","428","./1_3_Stimuli/T_ambi40.png","他人","Word","朋友","Mismatch","j","true","Practice",""
"","","","","","html-keyboard-response","129","339121","0.0-7.2-0.2-1.56","null","<span style='color:GreenYellow; font-size: 70px;'>正确! </span>","null","","","","","","","","","","","","","","","","","","","","","","","","","feedback",""
"","","","","","psychophysics","130","340845","0.0-7.2-0.2-0.57","573","","f","","","","","","","","","","","","","key","f","6.943548387096774","768","428","./1_3_Stimuli/C_ambi40.png","自我","Image","他人","Mismatch","j","false","Practice",""
"","","","","","html-keyboard-response","131","341161","0.0-7.2-0.2-1.57","null","<span style='color:red; font-size: 70px;'>错误! </span>","null","","","","","","","","","","","","","","","","","","","","","","","","","feedback",""
"","","","","","psychophysics","132","342720","0.0-7.2-0.2-0.58","407","","f","","","","","","","","","","","","","key","f","6.944642857142753","768","428","./1_3_Stimuli/C_ambi40.png","他人","Image","他人","Match","f","true","Practice",""
"","","","","","html-keyboard-response","133","343033","0.0-7.2-0.2-1.58","null","<span style='color:GreenYellow; font-size: 70px;'>正确! </span>","null","","","","","","","","","","","","","","","","","","","","","","","","","feedback",""
"","","","","","psychophysics","134","345302","0.0-7.2-0.2-0.59","554","","j","","","","","","","","","","","","","key","j","6.944171779141069","768","428","./1_3_Stimuli/S_ambi40.png","朋友","Image","自我","Mismatch","j","true","Practice",""
"","","","","","html-keyboard-response","135","345616","0.0-7.2-0.2-1.59","null","<span style='color:GreenYellow; font-size: 70px;'>正确! </span>","null","","","","","","","","","","","","","","","","","","","","","","","","","feedback",""
"","","","","","psychophysics","136","347406","0.0-7.2-0.2-0.60","637","","f","","","","","","","","","","","","","key","f","6.970038910505791","768","428","./1_3_Stimuli/S_ambi40.png","他人","Image","自我","Mismatch","j","false","Practice",""
"","","","","","html-keyboard-response","137","347708","0.0-7.2-0.2-1.60","null","<span style='color:red; font-size: 70px;'>错误! </span>","null","","","","","","","","","","","","","","","","","","","","","","","","","feedback",""
"","","","","","psychophysics","138","349830","0.0-7.2-0.2-0.61","970","","j","","","","","","","","","","","","","key","j","6.939672131147655","768","428","./1_3_Stimuli/S_ambi40.png","朋友","Word","自我","Mismatch","j","true","Practice",""
"","","","","","html-keyboard-response","139","350139","0.0-7.2-0.2-1.61","null","<span style='color:GreenYellow; font-size: 70px;'>正确! </span>","null","","","","","","","","","","","","","","","","","","","","","","","","","feedback",""
"","","","","","psychophysics","140","351941","0.0-7.2-0.2-0.62","650","","j","","","","","","","","","","","","","key","j","6.943023255814134","768","428","./1_3_Stimuli/T_ambi40.png","自我","Image","朋友","Mismatch","j","true","Practice",""
"","","","","","html-keyboard-response","141","352257","0.0-7.2-0.2-1.62","null","<span style='color:GreenYellow; font-size: 70px;'>正确! </span>","null","","","","","","","","","","","","","","","","","","","","","","","","","feedback",""
"","","","","","psychophysics","142","354146","0.0-7.2-0.2-0.63","735","","j","","","","","","","","","","","","","key","j","6.944280442804514","768","428","./1_3_Stimuli/S_ambi40.png","自我","Image","自我","Match","f","false","Practice",""
"","","","","","html-keyboard-response","143","354456","0.0-7.2-0.2-1.63","null","<span style='color:red; font-size: 70px;'>错误! </span>","null","","","","","","","","","","","","","","","","","","","","","","","","","feedback",""
"","","","","","psychophysics","144","356229","0.0-7.2-0.2-0.64","61","","f","","","","","","","","","","","","","key","f","6.971259842519731","768","428","./1_3_Stimuli/C_ambi40.png","他人","Image","他人","Match","f","true","Practice",""
"","","","","","html-keyboard-response","145","356542","0.0-7.2-0.2-1.64","null","<span style='color:yellow; font-size: 70px;'>过快! </span>","null","","","","","","","","","","","","","","","","","","","","","","","","","feedback",""
"","","","","","psychophysics","146","358213","0.0-7.2-0.2-0.65","518","","j","","","","","","","","","","","","","key","j","6.944351464434952","768","428","./1_3_Stimuli/S_ambi40.png","自我","Image","自我","Match","f","false","Practice",""
"","","","","","html-keyboard-response","147","358520","0.0-7.2-0.2-1.65","null","<span style='color:red; font-size: 70px;'>错误! </span>","null","","","","","","","","","","","","","","","","","","","","","","","","","feedback",""
"","","","","","psychophysics","148","360241","0.0-7.2-0.2-0.66","567","","f","","","","","","","","","","","","","key","f","6.944129554655918","768","428","./1_3_Stimuli/T_ambi40.png","朋友","Image","朋友","Match","f","true","Practice",""
"","","","","","html-keyboard-response","149","360557","0.0-7.2-0.2-1.66","null","<span style='color:GreenYellow; font-size: 70px;'>正确! </span>","null","","","","","","","","","","","","","","","","","","","","","","","","","feedback",""
"","","","","","psychophysics","150","362205","0.0-7.2-0.2-0.67","37","","j","","","","","","","","","","","","","key","j","6.9447257383967225","768","428","./1_3_Stimuli/T_ambi40.png","自我","Word","朋友","Mismatch","j","true","Practice",""
"","","","","","html-keyboard-response","151","362517","0.0-7.2-0.2-1.67","null","<span style='color:yellow; font-size: 70px;'>过快! </span>","null","","","","","","","","","","","","","","","","","","","","","","","","","feedback",""
"","","","","","psychophysics","152","364388","0.0-7.2-0.2-0.68","720","","j","","","","","","","","","","","","","key","j","6.9440298507462686","768","428","./1_3_Stimuli/T_ambi40.png","朋友","Word","朋友","Match","f","false","Practice",""
"","","","","","html-keyboard-response","153","364700","0.0-7.2-0.2-1.68","null","<span style='color:red; font-size: 70px;'>错误! </span>","null","","","","","","","","","","","","","","","","","","","","","","","","","feedback",""
"","","","","","psychophysics","154","366409","0.0-7.2-0.2-0.69","556","","f","","","","","","","","","","","","","key","f","6.944081632653251","768","428","./1_3_Stimuli/C_ambi40.png","自我","Word","他人","Mismatch","j","false","Practice",""
"","","","","","html-keyboard-response","155","366714","0.0-7.2-0.2-1.69","null","<span style='color:red; font-size: 70px;'>错误! </span>","null","","","","","","","","","","","","","","","","","","","","","","","","","feedback",""
"","","","","","psychophysics","156","368670","0.0-7.2-0.2-0.70","502","","j","","","","","","","","","","","","","key","j","6.944128113878962","768","428","./1_3_Stimuli/C_ambi40.png","朋友","Image","他人","Mismatch","j","true","Practice",""
"","","","","","html-keyboard-response","157","368973","0.0-7.2-0.2-1.70","null","<span style='color:GreenYellow; font-size: 70px;'>正确! </span>","null","","","","","","","","","","","","","","","","","","","","","","","","","feedback",""
"","","","","","psychophysics","158","371081","0.0-7.2-0.2-0.71","955","","j","","","","","","","","","","","","","key","j","6.945364238410596","768","428","./1_3_Stimuli/S_ambi40.png","自我","Word","自我","Match","f","false","Practice",""
"","","","","","html-keyboard-response","159","371392","0.0-7.2-0.2-1.71","null","<span style='color:red; font-size: 70px;'>错误! </span>","null","","","","","","","","","","","","","","","","","","","","","","","","","feedback",""
"","","","","","html-keyboard-response","160","373134","0.0-7.2-1.2-0.2","1740","<style>.context{color:white; font-size: 35px; line-height:40px}</style>                        <div><p class='context'>您正确回答了67% 的试次。</p><p class='context'>您的平均反应时为505毫秒。</p><p> <div style = 'color: green'><按空格键至下页></div></p>"," ","","","","","","","","","","","","","","","","","","","","","","","","","",""
"","","","","","instructions","161","396720","0.0-7.2-1.2-1.2","23585","","","","","","","","","","","","","","[{""page_index"":0,""viewing_time"":1609},{""page_index"":1,""viewing_time"":20165},{""page_index"":2,""viewing_time"":1811}]","","","","","","","","","","","","","",""
"","","","","","psychophysics","162","398675","0.0-7.3-0.3-0.72","799","","f","","","","","","","","","","","","","key","f","6.944642857142857","768","428","./1_3_Stimuli/C_ambi40.png","他人","Image","他人","Match","f","true","Practice",""
"","","","","","html-keyboard-response","163","398987","0.0-7.3-0.3-1.72","null","<span style='color:GreenYellow; font-size: 70px;'>正确! </span>","null","","","","","","","","","","","","","","","","","","","","","","","","","feedback",""
"","","","","","psychophysics","164","400713","0.0-7.3-0.3-0.73","542","","j","","","","","","","","","","","","","key","j","6.9447580645160825","768","428","./1_3_Stimuli/C_ambi40.png","朋友","Word","他人","Mismatch","j","true","Practice",""
"","","","","","html-keyboard-response","165","401015","0.0-7.3-0.3-1.73","null","<span style='color:GreenYellow; font-size: 70px;'>正确! </span>","null","","","","","","","","","","","","","","","","","","","","","","","","","feedback",""
"","","","","","psychophysics","166","402725","0.0-7.3-0.3-0.74","558","","f","","","","","","","","","","","","","key","f","6.944489795918225","768","428","./1_3_Stimuli/S_ambi40.png","自我","Word","自我","Match","f","true","Practice",""
"","","","","","html-keyboard-response","167","403034","0.0-7.3-0.3-1.74","null","<span style='color:GreenYellow; font-size: 70px;'>正确! </span>","null","","","","","","","","","","","","","","","","","","","","","","","","","feedback",""
"","","","","","psychophysics","168","404983","0.0-7.3-0.3-0.75","795","","f","","","","","","","","","","","","","key","f","6.94392857142853","768","428","./1_3_Stimuli/C_ambi40.png","他人","Word","他人","Match","f","true","Practice",""
"","","","","","html-keyboard-response","169","405291","0.0-7.3-0.3-1.75","null","<span style='color:GreenYellow; font-size: 70px;'>正确! </span>","null","","","","","","","","","","","","","","","","","","","","","","","","","feedback",""
"","","","","","psychophysics","170","407544","0.0-7.3-0.3-0.76","395","","j","","","","","","","","","","","","","key","j","6.944444444444445","768","428","./1_3_Stimuli/S_ambi40.png","他人","Image","自我","Mismatch","j","true","Practice",""
"","","","","","html-keyboard-response","171","407852","0.0-7.3-0.3-1.76","null","<span style='color:GreenYellow; font-size: 70px;'>正确! </span>","null","","","","","","","","","","","","","","","","","","","","","","","","","feedback",""
"","","","","","psychophysics","172","409797","0.0-7.3-0.3-0.77","792","","f","","","","","","","","","","","","","key","f","6.943884892086415","768","428","./1_3_Stimuli/C_ambi40.png","朋友","Image","他人","Mismatch","j","false","Practice",""
"","","","","","html-keyboard-response","173","410113","0.0-7.3-0.3-1.77","null","<span style='color:red; font-size: 70px;'>错误! </span>","null","","","","","","","","","","","","","","","","","","","","","","","","","feedback",""
"","","","","","psychophysics","174","411974","0.0-7.3-0.3-0.78","709","","f","","","","","","","","","","","","","key","f","6.928731343283451","768","428","./1_3_Stimuli/S_ambi40.png","朋友","Image","自我","Mismatch","j","false","Practice",""
"","","","","","html-keyboard-response","175","412282","0.0-7.3-0.3-1.78","null","<span style='color:red; font-size: 70px;'>错误! </span>","null","","","","","","","","","","","","","","","","","","","","","","","","","feedback",""
"","","","","","psychophysics","176","414446","0.0-7.3-0.3-0.79","1012","","j","","","","","","","","","","","","","key","j","6.944694533762208","768","428","./1_3_Stimuli/T_ambi40.png","他人","Word","朋友","Mismatch","j","true","Practice",""
"","","","","","html-keyboard-response","177","414750","0.0-7.3-0.3-1.79","null","<span style='color:GreenYellow; font-size: 70px;'>正确! </span>","null","","","","","","","","","","","","","","","","","","","","","","","","","feedback",""
"","","","","","psychophysics","178","416766","0.0-7.3-0.3-0.80","864","","f","","","","","","","","","","","","","key","f","6.943252595155831","768","428","./1_3_Stimuli/C_ambi40.png","他人","Word","他人","Match","f","true","Practice",""
"","","","","","html-keyboard-response","179","417075","0.0-7.3-0.3-1.80","null","<span style='color:GreenYellow; font-size: 70px;'>正确! </span>","null","","","","","","","","","","","","","","","","","","","","","","","","","feedback",""
"","","","","","psychophysics","180","419137","0.0-7.3-0.3-0.81","328","","f","","","","","","","","","","","","","key","f","6.944256756756757","768","428","./1_3_Stimuli/T_ambi40.png","朋友","Image","朋友","Match","f","true","Practice",""
"","","","","","html-keyboard-response","181","419443","0.0-7.3-0.3-1.81","null","<span style='color:GreenYellow; font-size: 70px;'>正确! </span>","null","","","","","","","","","","","","","","","","","","","","","","","","","feedback",""
"","","","","","psychophysics","182","421193","0.0-7.3-0.3-0.82","596","","f","","","","","","","","","","","","","key","f","6.944621513944362","768","428","./1_3_Stimuli/T_ambi40.png","自我","Word","朋友","Mismatch","j","false","Practice",""
"","","","","","html-keyboard-response","183","421497","0.0-7.3-0.3-1.82","null","<span style='color:red; font-size: 70px;'>错误! </span>","null","","","","","","","","","","","","","","","","","","","","","","","","","feedback",""
"","","","","","psychophysics","184","423065","0.0-7.3-0.3-0.83","416","","f","","","","","","","","","","","","","key","f","6.94241071428561","768","428","./1_3_Stimuli/S_ambi40.png","自我","Image","自我","Match","f","true","Practice",""
"","","","","","html-keyboard-response","185","423369","0.0-7.3-0.3-1.83","null","<span style='color:GreenYellow; font-size: 70px;'>正确! </span>","null","","","","","","","","","","","","","","","","","","","","","","","","","feedback",""
"","","","","","psychophysics","186","425277","0.0-7.3-0.3-0.84","323","","j","","","","","","","","","","","","","key","j","6.939781021897811","768","428","./1_3_Stimuli/S_ambi40.png","朋友","Word","自我","Mismatch","j","true","Practice",""
"","","","","","html-keyboard-response","187","425579","0.0-7.3-0.3-1.84","null","<span style='color:GreenYellow; font-size: 70px;'>正确! </span>","null","","","","","","","","","","","","","","","","","","","","","","","","","feedback",""
"","","","","","psychophysics","188","427374","0.0-7.3-0.3-0.85","644","","f","","","","","","","","","","","","","key","f","6.966147859922134","768","428","./1_3_Stimuli/C_ambi40.png","自我","Image","他人","Mismatch","j","false","Practice",""
"","","","","","html-keyboard-response","189","427682","0.0-7.3-0.3-1.85","null","<span style='color:red; font-size: 70px;'>错误! </span>","null","","","","","","","","","","","","","","","","","","","","","","","","","feedback",""
"","","","","","psychophysics","190","429570","0.0-7.3-0.3-0.86","737","","f","","","","","","","","","","","","","key","f","6.943173431734231","768","428","./1_3_Stimuli/T_ambi40.png","自我","Image","朋友","Mismatch","j","false","Practice",""
"","","","","","html-keyboard-response","191","429884","0.0-7.3-0.3-1.86","null","<span style='color:red; font-size: 70px;'>错误! </span>","null","","","","","","","","","","","","","","","","","","","","","","","","","feedback",""
"","","","","","psychophysics","192","431502","0.0-7.3-0.3-0.87","328","","f","","","","","","","","","","","","","key","f","6.944206008583691","768","428","./1_3_Stimuli/T_ambi40.png","朋友","Word","朋友","Match","f","true","Practice",""
"","","","","","html-keyboard-response","193","431806","0.0-7.3-0.3-1.87","null","<span style='color:GreenYellow; font-size: 70px;'>正确! </span>","null","","","","","","","","","","","","","","","","","","","","","","","","","feedback",""
"","","","","","psychophysics","194","433657","0.0-7.3-0.3-0.88","698","","j","","","","","","","","","","","","","key","j","6.9445283018867485","768","428","./1_3_Stimuli/T_ambi40.png","朋友","Image","朋友","Match","f","false","Practice",""
"","","","","","html-keyboard-response","195","433971","0.0-7.3-0.3-1.88","null","<span style='color:red; font-size: 70px;'>错误! </span>","null","","","","","","","","","","","","","","","","","","","","","","","","","feedback",""
"","","","","","psychophysics","196","435793","0.0-7.3-0.3-0.89","668","","j","","","","","","","","","","","","","key","j","6.944061302681859","768","428","./1_3_Stimuli/C_ambi40.png","自我","Word","他人","Mismatch","j","true","Practice",""
"","","","","","html-keyboard-response","197","436100","0.0-7.3-0.3-1.89","null","<span style='color:GreenYellow; font-size: 70px;'>正确! </span>","null","","","","","","","","","","","","","","","","","","","","","","","","","feedback",""
"","","","","","psychophysics","198","438390","0.0-7.3-0.3-0.90","356","","f","","","","","","","","","","","","","key","f","6.961398176291758","768","428","./1_3_Stimuli/T_ambi40.png","朋友","Word","朋友","Match","f","true","Practice",""
"","","","","","html-keyboard-response","199","438701","0.0-7.3-0.3-1.90","null","<span style='color:GreenYellow; font-size: 70px;'>正确! </span>","null","","","","","","","","","","","","","","","","","","","","","","","","","feedback",""
"","","","","","psychophysics","200","440457","0.0-7.3-0.3-0.91","603","","j","","","","","","","","","","","","","key","j","6.94404761904748","768","428","./1_3_Stimuli/S_ambi40.png","自我","Image","自我","Match","f","false","Practice",""
"","","","","","html-keyboard-response","201","440773","0.0-7.3-0.3-1.91","null","<span style='color:red; font-size: 70px;'>错误! </span>","null","","","","","","","","","","","","","","","","","","","","","","","","","feedback",""
"","","","","","psychophysics","202","442461","0.0-7.3-0.3-0.92","537","","j","","","","","","","","","","","","","key","j","6.944214876033058","768","428","./1_3_Stimuli/S_ambi40.png","他人","Word","自我","Mismatch","j","true","Practice",""
"","","","","","html-keyboard-response","203","442777","0.0-7.3-0.3-1.92","null","<span style='color:GreenYellow; font-size: 70px;'>正确! </span>","null","","","","","","","","","","","","","","","","","","","","","","","","","feedback",""
"","","","","","psychophysics","204","444433","0.0-7.3-0.3-0.93","259","","f","","","","","","","","","","","","","key","f","6.944537815126002","768","428","./1_3_Stimuli/S_ambi40.png","自我","Word","自我","Match","f","true","Practice",""
"","","","","","html-keyboard-response","205","444742","0.0-7.3-0.3-1.93","null","<span style='color:GreenYellow; font-size: 70px;'>正确! </span>","null","","","","","","","","","","","","","","","","","","","","","","","","","feedback",""
"","","","","","psychophysics","206","446777","0.0-7.3-0.3-0.94","882","","j","","","","","","","","","","","","","key","j","6.942808219178042","768","428","./1_3_Stimuli/T_ambi40.png","他人","Image","朋友","Mismatch","j","true","Practice",""
"","","","","","html-keyboard-response","207","447083","0.0-7.3-0.3-1.94","null","<span style='color:GreenYellow; font-size: 70px;'>正确! </span>","null","","","","","","","","","","","","","","","","","","","","","","","","","feedback",""
"","","","","","psychophysics","208","448715","0.0-7.3-0.3-0.95","477","","f","","","","","","","","","","","","","key","f","6.944206008583691","768","428","./1_3_Stimuli/C_ambi40.png","他人","Image","他人","Match","f","true","Practice",""
"","","","","","html-keyboard-response","209","449031","0.0-7.3-0.3-1.95","null","<span style='color:GreenYellow; font-size: 70px;'>正确! </span>","null","","","","","","","","","","","","","","","","","","","","","","","","","feedback",""
"","","","","","html-keyboard-response","210","450258","0.0-7.3-1.3-0.3","1225","<style>.context{color:white; font-size: 35px; line-height:40px}</style>                        <div><p class='context'>您正确回答了71% 的试次。</p><p class='context'>您的平均反应时为561毫秒。</p><p> <div style = 'color: green'><按空格键至下页></div></p>"," ","","","","","","","","","","","","","","","","","","","","","","","","","",""
"","","","","","instructions","211","455877","0.0-7.3-1.3-1.3","5617","","","","","","","","","","","","","","[{""page_index"":0,""viewing_time"":2124},{""page_index"":1,""viewing_time"":2082},{""page_index"":2,""viewing_time"":1410}]","","","","","","","","","","","","","",""
"","","","","","psychophysics","212","457505","0.0-7.4-0.4-0.96","473","","f","","","","","","","","","","","","","key","f","6.94549356223171","768","428","./1_3_Stimuli/S_ambi40.png","自我","Image","自我","Match","f","true","Practice",""
"","","","","","html-keyboard-response","213","457810","0.0-7.4-0.4-1.96","null","<span style='color:GreenYellow; font-size: 70px;'>正确! </span>","null","","","","","","","","","","","","","","","","","","","","","","","","","feedback",""
"","","","","","psychophysics","214","459370","0.0-7.4-0.4-0.97","406","","j","","","","","","","","","","","","","key","j","6.944642857142753","768","428","./1_3_Stimuli/C_ambi40.png","自我","Word","他人","Mismatch","j","true","Practice",""
"","","","","","html-keyboard-response","215","459678","0.0-7.4-0.4-1.97","null","<span style='color:GreenYellow; font-size: 70px;'>正确! </span>","null","","","","","","","","","","","","","","","","","","","","","","","","","feedback",""
"","","","","","psychophysics","216","461418","0.0-7.4-0.4-0.98","245","","j","","","","","","","","","","","","","key","j","6.942570281124545","768","428","./1_3_Stimuli/S_ambi40.png","他人","Image","自我","Mismatch","j","true","Practice",""
"","","","","","html-keyboard-response","217","461722","0.0-7.4-0.4-1.98","null","<span style='color:GreenYellow; font-size: 70px;'>正确! </span>","null","","","","","","","","","","","","","","","","","","","","","","","","","feedback",""
"","","","","","psychophysics","218","463621","0.0-7.4-0.4-0.99","747","","f","","","","","","","","","","","","","key","f","6.93882783882801","768","428","./1_3_Stimuli/C_ambi40.png","他人","Image","他人","Match","f","true","Practice",""
"","","","","","html-keyboard-response","219","463934","0.0-7.4-0.4-1.99","null","<span style='color:GreenYellow; font-size: 70px;'>正确! </span>","null","","","","","","","","","","","","","","","","","","","","","","","","","feedback",""
"","","","","","psychophysics","220","465583","0.0-7.4-0.4-0.100","494","","j","","","","","","","","","","","","","key","j","6.974261603375625","768","428","./1_3_Stimuli/S_ambi40.png","他人","Word","自我","Mismatch","j","true","Practice",""
"","","","","","html-keyboard-response","221","465893","0.0-7.4-0.4-1.100","null","<span style='color:GreenYellow; font-size: 70px;'>正确! </span>","null","","","","","","","","","","","","","","","","","","","","","","","","","feedback",""
"","","","","","psychophysics","222","467558","0.0-7.4-0.4-0.101","388","","j","","","","","","","","","","","","","key","j","6.944537815126246","768","428","./1_3_Stimuli/T_ambi40.png","自我","Image","朋友","Mismatch","j","true","Practice",""
"","","","","","html-keyboard-response","223","467872","0.0-7.4-0.4-1.101","null","<span style='color:GreenYellow; font-size: 70px;'>正确! </span>","null","","","","","","","","","","","","","","","","","","","","","","","","","feedback",""
"","","","","","psychophysics","224","470099","0.0-7.4-0.4-0.102","1072","","f","","","","","","","","","","","","","key","f","6.944375000000036","768","428","./1_3_Stimuli/C_ambi40.png","他人","Image","他人","Match","f","true","Practice",""
"","","","","","html-keyboard-response","225","470405","0.0-7.4-0.4-1.102","null","<span style='color:GreenYellow; font-size: 70px;'>正确! </span>","null","","","","","","","","","","","","","","","","","","","","","","","","","feedback",""
"","","","","","psychophysics","226","471962","0.0-7.4-0.4-0.103","407","","j","","","","","","","","","","","","","key","j","6.938839285714233","768","428","./1_3_Stimuli/S_ambi40.png","自我","Word","自我","Match","f","false","Practice",""
"","","","","","html-keyboard-response","227","472273","0.0-7.4-0.4-1.103","null","<span style='color:red; font-size: 70px;'>错误! </span>","null","","","","","","","","","","","","","","","","","","","","","","","","","feedback",""
"","","","","","psychophysics","228","474165","0.0-7.4-0.4-0.104","348","","f","","","","","","","","","","","","","key","f","6.944074074074161","768","428","./1_3_Stimuli/S_ambi40.png","自我","Image","自我","Match","f","true","Practice",""
"","","","","","html-keyboard-response","229","474469","0.0-7.4-0.4-1.104","null","<span style='color:GreenYellow; font-size: 70px;'>正确! </span>","null","","","","","","","","","","","","","","","","","","","","","","","","","feedback",""
"","","","","","psychophysics","230","476174","0.0-7.4-0.4-0.105","550","","f","","","","","","","","","","","","","key","f","6.944897959183673","768","428","./1_3_Stimuli/C_ambi40.png","他人","Word","他人","Match","f","true","Practice",""
"","","","","","html-keyboard-response","231","476476","0.0-7.4-0.4-1.105","null","<span style='color:GreenYellow; font-size: 70px;'>正确! </span>","null","","","","","","","","","","","","","","","","","","","","","","","","","feedback",""
"","","","","","psychophysics","232","478022","0.0-7.4-0.4-0.106","395","","f","","","","","","","","","","","","","key","f","6.97477477477488","768","428","./1_3_Stimuli/T_ambi40.png","朋友","Word","朋友","Match","f","true","Practice",""
"","","","","","html-keyboard-response","233","478332","0.0-7.4-0.4-1.106","null","<span style='color:GreenYellow; font-size: 70px;'>正确! </span>","null","","","","","","","","","","","","","","","","","","","","","","","","","feedback",""
"","","","","","psychophysics","234","480480","0.0-7.4-0.4-0.107","359","","f","","","","","","","","","","","","","key","f","6.944805194805195","768","428","./1_3_Stimuli/S_ambi40.png","自我","Word","自我","Match","f","true","Practice",""
"","","","","","html-keyboard-response","235","480789","0.0-7.4-0.4-1.107","null","<span style='color:GreenYellow; font-size: 70px;'>正确! </span>","null","","","","","","","","","","","","","","","","","","","","","","","","","feedback",""
"","","","","","psychophysics","236","482517","0.0-7.4-0.4-0.108","574","","f","","","","","","","","","","","","","key","f","6.9447580645160825","768","428","./1_3_Stimuli/T_ambi40.png","朋友","Image","朋友","Match","f","true","Practice",""
"","","","","","html-keyboard-response","237","482824","0.0-7.4-0.4-1.108","null","<span style='color:GreenYellow; font-size: 70px;'>正确! </span>","null","","","","","","","","","","","","","","","","","","","","","","","","","feedback",""
"","","","","","psychophysics","238","485109","0.0-7.4-0.4-0.109","1132","","j","","","","","","","","","","","","","key","j","6.944817073170626","768","428","./1_3_Stimuli/S_ambi40.png","朋友","Image","自我","Mismatch","j","true","Practice",""
"","","","","","html-keyboard-response","239","485413","0.0-7.4-0.4-1.109","null","<span style='color:GreenYellow; font-size: 70px;'>正确! </span>","null","","","","","","","","","","","","","","","","","","","","","","","","","feedback",""
"","","","","","psychophysics","240","487466","0.0-7.4-0.4-0.110","898","","j","","","","","","","","","","","","","key","j","6.9445578231292915","768","428","./1_3_Stimuli/C_ambi40.png","自我","Image","他人","Mismatch","j","true","Practice",""
"","","","","","html-keyboard-response","241","487770","0.0-7.4-0.4-1.110","null","<span style='color:GreenYellow; font-size: 70px;'>正确! </span>","null","","","","","","","","","","","","","","","","","","","","","","","","","feedback",""
"","","","","","psychophysics","242","489472","0.0-7.4-0.4-0.111","551","","f","","","","","","","","","","","","","key","f","6.938367346938871","768","428","./1_3_Stimuli/T_ambi40.png","朋友","Image","朋友","Match","f","true","Practice",""
"","","","","","html-keyboard-response","243","489782","0.0-7.4-0.4-1.111","null","<span style='color:GreenYellow; font-size: 70px;'>正确! </span>","null","","","","","","","","","","","","","","","","","","","","","","","","","feedback",""
"","","","","","psychophysics","244","491450","0.0-7.4-0.4-0.112","278","","j","","","","","","","","","","","","","key","j","6.944351464435195","768","428","./1_3_Stimuli/T_ambi40.png","自我","Word","朋友","Mismatch","j","true","Practice",""
"","","","","","html-keyboard-response","245","491761","0.0-7.4-0.4-1.112","null","<span style='color:GreenYellow; font-size: 70px;'>正确! </span>","null","","","","","","","","","","","","","","","","","","","","","","","","","feedback",""
"","","","","","psychophysics","246","494222","0.0-7.4-0.4-0.113","1309","","j","","","","","","","","","","","","","key","j","6.944475920679788","768","428","./1_3_Stimuli/C_ambi40.png","朋友","Image","他人","Mismatch","j","true","Practice",""
"","","","","","html-keyboard-response","247","494536","0.0-7.4-0.4-1.113","null","<span style='color:GreenYellow; font-size: 70px;'>正确! </span>","null","","","","","","","","","","","","","","","","","","","","","","","","","feedback",""
"","","","","","psychophysics","248","496349","0.0-7.4-0.4-0.114","662","","j","","","","","","","","","","","","","key","j","6.944061302682082","768","428","./1_3_Stimuli/S_ambi40.png","朋友","Word","自我","Mismatch","j","true","Practice",""
"","","","","","html-keyboard-response","249","497170","0.0-7.4-0.4-1.114","null","<span style='color:GreenYellow; font-size: 70px;'>正确! </span>","null","","","","","","","","","","","","","","","","","","","","","","","","","feedback",""
"","","","","","psychophysics","250","499174","0.0-7.4-0.4-0.115","337","","f","","","","","","","","","","","","","key","f","6.944444444444445","768","428","./1_3_Stimuli/C_ambi40.png","他人","Word","他人","Match","f","true","Practice",""
"","","","","","html-keyboard-response","251","499488","0.0-7.4-0.4-1.115","null","<span style='color:GreenYellow; font-size: 70px;'>正确! </span>","null","","","","","","","","","","","","","","","","","","","","","","","","","feedback",""
"","","","","","psychophysics","252","501334","0.0-7.4-0.4-0.116","696","","j","","","","","","","","","","","","","key","j","6.943773584905572","768","428","./1_3_Stimuli/T_ambi40.png","他人","Word","朋友","Mismatch","j","true","Practice",""
"","","","","","html-keyboard-response","253","501640","0.0-7.4-0.4-1.116","null","<span style='color:GreenYellow; font-size: 70px;'>正确! </span>","null","","","","","","","","","","","","","","","","","","","","","","","","","feedback",""
"","","","","","psychophysics","254","503814","0.0-7.4-0.4-0.117","1023","","f","","","","","","","","","","","","","key","f","6.939936102236459","768","428","./1_3_Stimuli/T_ambi40.png","朋友","Word","朋友","Match","f","true","Practice",""
"","","","","","html-keyboard-response","255","504121","0.0-7.4-0.4-1.117","null","<span style='color:GreenYellow; font-size: 70px;'>正确! </span>","null","","","","","","","","","","","","","","","","","","","","","","","","","feedback",""
"","","","","","psychophysics","256","505761","0.0-7.4-0.4-0.118","487","","j","","","","","","","","","","","","","key","j","6.945106382978624","768","428","./1_3_Stimuli/T_ambi40.png","他人","Image","朋友","Mismatch","j","true","Practice",""
"","","","","","html-keyboard-response","257","506071","0.0-7.4-0.4-1.118","null","<span style='color:GreenYellow; font-size: 70px;'>正确! </span>","null","","","","","","","","","","","","","","","","","","","","","","","","","feedback",""
"","","","","","psychophysics","258","508053","0.0-7.4-0.4-0.119","831","","j","","","","","","","","","","","","","key","j","6.944014084506961","768","428","./1_3_Stimuli/C_ambi40.png","朋友","Word","他人","Mismatch","j","true","Practice",""
"","","","","","html-keyboard-response","259","508358","0.0-7.4-0.4-1.119","null","<span style='color:GreenYellow; font-size: 70px;'>正确! </span>","null","","","","","","","","","","","","","","","","","","","","","","","","","feedback",""
"","","","","","html-keyboard-response","260","575958","0.0-8.0","67598","<style>.context{color:white; font-size: 35px; line-height:40px}</style>                          <div><p class='context'>您正确回答了96% 的试次。</p><p class='context'>您的平均反应时为620毫秒。</p><p class='context'>恭喜您完成练习。现在请休息3~5分钟。</p><p class='context'>之后，按任意键进入正式实验。需要注意的是，正式实验将不再提供反应是否正确的反馈。</p><p class='footer' style='font-size: 35px; line-height:40px;'>请在进入正式实验实验之前将您的<span style='color: lightgreen;'>食指</span>放在电脑键盘的相应键位上进行按键。</p>"," ","","","","","","","","","","","","","","","","","","","","","","","","","",""
"","","","","","psychophysics","261","577940","0.0-9.0-0.0-0.0","825","","f","","","","","","","","","","","","","key","f","6.944366197183345","768","428","./1_3_Stimuli/T_ambi40.png","自我","Word","朋友","Mismatch","j","false","Formal",""
"","","","","","psychophysics","262","579694","0.0-9.0-0.0-0.1","600","","f","","","","","","","","","","","","","key","f","6.944223107569721","768","428","./1_3_Stimuli/T_ambi40.png","朋友","Word","朋友","Match","f","true","Formal",""
"","","","","","psychophysics","263","581577","0.0-9.0-0.0-0.2","732","","j","","","","","","","","","","","","","key","j","6.944074074073729","768","428","./1_3_Stimuli/C_ambi40.png","他人","Image","他人","Match","f","false","Formal",""
"","","","","","psychophysics","264","583506","0.0-9.0-0.0-0.3","771","","f","","","","","","","","","","","","","key","f","6.945126353790782","768","428","./1_3_Stimuli/T_ambi40.png","朋友","Word","朋友","Match","f","true","Formal",""
"","","","","","psychophysics","265","585459","0.0-9.0-0.0-0.4","803","","j","","","","","","","","","","","","","key","j","6.945357142857392","768","428","./1_3_Stimuli/S_ambi40.png","他人","Word","自我","Mismatch","j","true","Formal",""
"","","","","","psychophysics","266","587371","0.0-9.0-0.0-0.5","202","","j","","","","","","","","","","","","","key","j","6.944322344322515","768","428","./1_3_Stimuli/T_ambi40.png","自我","Image","朋友","Mismatch","j","true","Formal",""
"","","","","","psychophysics","267","589201","0.0-9.0-0.0-0.6","676","","f","","","","","","","","","","","","","key","f","6.944274809160394","768","428","./1_3_Stimuli/C_ambi40.png","他人","Image","他人","Match","f","true","Formal",""
"","","","","","psychophysics","268","590917","0.0-9.0-0.0-0.7","565","","f","","","","","","","","","","","","","key","f","6.94430894308962","768","428","./1_3_Stimuli/C_ambi40.png","他人","Word","他人","Match","f","true","Formal",""
"","","","","","psychophysics","269","592610","0.0-9.0-0.0-0.8","540","","j","","","","","","","","","","","","","key","j","6.944628099173938","768","428","./1_3_Stimuli/C_ambi40.png","自我","Image","他人","Mismatch","j","true","Formal",""
"","","","","","psychophysics","270","594701","0.0-9.0-0.0-0.9","940","","j","","","","","","","","","","","","","key","j","6.944666666666745","768","428","./1_3_Stimuli/C_ambi40.png","朋友","Image","他人","Mismatch","j","true","Formal",""
"","","","","","psychophysics","271","596217","0.0-9.0-0.0-0.10","365","","f","","","","","","","","","","","","","key","f","6.9442396313365125","768","428","./1_3_Stimuli/T_ambi40.png","朋友","Image","朋友","Match","f","true","Formal",""
"","","","","","psychophysics","272","598075","0.0-9.0-0.0-0.11","702","","j","","","","","","","","","","","","","key","j","6.944360902255902","768","428","./1_3_Stimuli/S_ambi40.png","自我","Word","自我","Match","f","false","Formal",""
"","","","","","psychophysics","273","599998","0.0-9.0-0.0-0.12","771","","j","","","","","","","","","","","","","key","j","6.944565217391135","768","428","./1_3_Stimuli/S_ambi40.png","朋友","Image","自我","Mismatch","j","true","Formal",""
"","","","","","psychophysics","274","601840","0.0-9.0-0.0-0.13","690","","j","","","","","","","","","","","","","key","j","6.944318181817917","768","428","./1_3_Stimuli/C_ambi40.png","朋友","Word","他人","Mismatch","j","true","Formal",""
"","","","","","psychophysics","275","603479","0.0-9.0-0.0-0.14","488","","f","","","","","","","","","","","","","key","f","6.944444444444445","768","428","./1_3_Stimuli/T_ambi40.png","他人","Word","朋友","Mismatch","j","false","Formal",""
"","","","","","psychophysics","276","605521","0.0-9.0-0.0-0.15","889","","j","","","","","","","","","","","","","key","j","6.94470989761108","768","428","./1_3_Stimuli/C_ambi40.png","自我","Word","他人","Mismatch","j","true","Formal",""
"","","","","","psychophysics","277","607396","0.0-9.0-0.0-0.16","721","","j","","","","","","","","","","","","","key","j","6.944237918215613","768","428","./1_3_Stimuli/S_ambi40.png","自我","Image","自我","Match","f","false","Formal",""
"","","","","","psychophysics","278","609266","0.0-9.0-0.0-0.17","96","","f","","","","","","","","","","","","","key","f","6.94419475655422","768","428","./1_3_Stimuli/T_ambi40.png","朋友","Image","朋友","Match","f","true","Formal",""
"","","","","","psychophysics","279","611029","0.0-9.0-0.0-0.18","609","","f","","","","","","","","","","","","","key","f","6.943873517786745","768","428","./1_3_Stimuli/C_ambi40.png","他人","Word","他人","Match","f","true","Formal",""
"","","","","","psychophysics","280","612821","0.0-9.0-0.0-0.19","638","","f","","","","","","","","","","","","","key","f","6.94396887159524","768","428","./1_3_Stimuli/S_ambi40.png","自我","Word","自我","Match","f","true","Formal",""
"","","","","","psychophysics","281","614644","0.0-9.0-0.0-0.20","671","","j","","","","","","","","","","","","","key","j","6.944444444444445","768","428","./1_3_Stimuli/S_ambi40.png","他人","Image","自我","Mismatch","j","true","Formal",""
"","","","","","psychophysics","282","616365","0.0-9.0-0.0-0.21","570","","j","","","","","","","","","","","","","key","j","6.9445344129556545","768","428","./1_3_Stimuli/S_ambi40.png","朋友","Word","自我","Mismatch","j","true","Formal",""
"","","","","","psychophysics","283","618217","0.0-9.0-0.0-0.22","700","","j","","","","","","","","","","","","","key","j","6.944528301886968","768","428","./1_3_Stimuli/T_ambi40.png","他人","Image","朋友","Mismatch","j","true","Formal",""
"","","","","","psychophysics","284","619877","0.0-9.0-0.0-0.23","506","","f","","","","","","","","","","","","","key","f","6.944725738396231","768","428","./1_3_Stimuli/S_ambi40.png","自我","Image","自我","Match","f","true","Formal",""
"","","","","","psychophysics","285","621602","0.0-9.0-0.0-0.24","571","","f","","","","","","","","","","","","","key","f","6.9445344129556545","768","428","./1_3_Stimuli/T_ambi40.png","朋友","Word","朋友","Match","f","true","Formal",""
"","","","","","psychophysics","286","623346","0.0-9.0-0.0-0.25","592","","j","","","","","","","","","","","","","key","j","6.94480000000028","768","428","./1_3_Stimuli/S_ambi40.png","自我","Image","自我","Match","f","false","Formal",""
"","","","","","psychophysics","287","624953","0.0-9.0-0.0-0.26","456","","f","","","","","","","","","","","","","key","f","6.94391304347816","768","428","./1_3_Stimuli/T_ambi40.png","朋友","Word","朋友","Match","f","true","Formal",""
"","","","","","psychophysics","288","626699","0.0-9.0-0.0-0.27","593","","j","","","","","","","","","","","","","key","j","6.944799999999813","768","428","./1_3_Stimuli/T_ambi40.png","自我","Word","朋友","Mismatch","j","true","Formal",""
"","","","","","psychophysics","289","628341","0.0-9.0-0.0-0.28","489","","f","","","","","","","","","","","","","key","f","6.945106382978624","768","428","./1_3_Stimuli/C_ambi40.png","朋友","Image","他人","Mismatch","j","false","Formal",""
"","","","","","psychophysics","290","630063","0.0-9.0-0.0-0.29","567","","f","","","","","","","","","","","","","key","f","6.94430894308962","768","428","./1_3_Stimuli/C_ambi40.png","他人","Word","他人","Match","f","true","Formal",""
"","","","","","psychophysics","291","631900","0.0-9.0-0.0-0.30","683","","j","","","","","","","","","","","","","key","j","6.944318181817917","768","428","./1_3_Stimuli/C_ambi40.png","自我","Word","他人","Mismatch","j","true","Formal",""
"","","","","","psychophysics","292","633717","0.0-9.0-0.0-0.31","665","","f","","","","","","","","","","","","","key","f","6.944615384615295","768","428","./1_3_Stimuli/S_ambi40.png","自我","Word","自我","Match","f","true","Formal",""
"","","","","","psychophysics","293","635374","0.0-9.0-0.0-0.32","502","","j","","","","","","","","","","","","","key","j","6.9451476793248945","768","428","./1_3_Stimuli/S_ambi40.png","他人","Image","自我","Mismatch","j","true","Formal",""
"","","","","","psychophysics","294","637377","0.0-9.0-0.0-0.33","852","","f","","","","","","","","","","","","","key","f","6.968881118881037","768","428","./1_3_Stimuli/C_ambi40.png","他人","Image","他人","Match","f","true","Formal",""
"","","","","","psychophysics","295","639252","0.0-9.0-0.0-0.34","722","","f","","","","","","","","","","","","","key","f","6.944402985074975","768","428","./1_3_Stimuli/S_ambi40.png","自我","Image","自我","Match","f","true","Formal",""
"","","","","","psychophysics","296","641962","0.0-9.0-0.0-0.35","null","","null","","","","","","","","","","","","","key","null","6.944329896907276","768","428","./1_3_Stimuli/S_ambi40.png","朋友","Image","自我","Mismatch","j","false","Formal",""
"","","","","","psychophysics","297","643706","0.0-9.0-0.0-0.36","591","","f","","","","","","","","","","","","","key","f","6.944799999999813","768","428","./1_3_Stimuli/C_ambi40.png","他人","Image","他人","Match","f","true","Formal",""
"","","","","","psychophysics","298","645909","0.0-9.0-0.0-0.37","1052","","f","","","","","","","","","","","","","key","f","6.944303797468428","768","428","./1_3_Stimuli/C_ambi40.png","自我","Image","他人","Mismatch","j","false","Formal",""
"","","","","","psychophysics","299","647877","0.0-9.0-0.0-0.38","707","","j","","","","","","","","","","","","","key","j","6.944128113878755","768","428","./1_3_Stimuli/T_ambi40.png","自我","Image","朋友","Mismatch","j","true","Formal",""
"","","","","","psychophysics","300","649921","0.0-9.0-0.0-0.39","891","","f","","","","","","","","","","","","","key","f","6.944368600682435","768","428","./1_3_Stimuli/T_ambi40.png","他人","Word","朋友","Mismatch","j","false","Formal",""
"","","","","","psychophysics","301","651881","0.0-9.0-0.0-0.40","808","","j","","","","","","","","","","","","","key","j","6.944839857651245","768","428","./1_3_Stimuli/C_ambi40.png","朋友","Word","他人","Mismatch","j","true","Formal",""
"","","","","","psychophysics","302","653742","0.0-9.0-0.0-0.41","573","","f","","","","","","","","","","","","","key","f","6.944736842105001","768","428","./1_3_Stimuli/T_ambi40.png","朋友","Image","朋友","Match","f","true","Formal",""
"","","","","","psychophysics","303","655436","0.0-9.0-0.0-0.42","537","","f","","","","","","","","","","","","","key","f","6.945267489711743","768","428","./1_3_Stimuli/S_ambi40.png","他人","Word","自我","Mismatch","j","false","Formal",""
"","","","","","psychophysics","304","657305","0.0-9.0-0.0-0.43","718","","j","","","","","","","","","","","","","key","j","6.9440298507462686","768","428","./1_3_Stimuli/T_ambi40.png","他人","Image","朋友","Mismatch","j","true","Formal",""
"","","","","","psychophysics","305","659065","0.0-9.0-0.0-0.44","603","","j","","","","","","","","","","","","","key","j","6.943824701195312","768","428","./1_3_Stimuli/S_ambi40.png","朋友","Word","自我","Mismatch","j","true","Formal",""
"","","","","","psychophysics","306","660490","0.0-9.0-0.0-0.45","272","","f","","","","","","","","","","","","","key","f","6.944607843137026","768","428","./1_3_Stimuli/S_ambi40.png","自我","Word","自我","Match","f","true","Formal",""
"","","","","","psychophysics","307","662196","0.0-9.0-0.0-0.46","555","","j","","","","","","","","","","","","","key","j","6.944262295082063","768","428","./1_3_Stimuli/C_ambi40.png","他人","Word","他人","Match","f","false","Formal",""
"","","","","","psychophysics","308","663801","0.0-9.0-0.0-0.47","451","","f","","","","","","","","","","","","","key","f","6.944104803493246","768","428","./1_3_Stimuli/T_ambi40.png","朋友","Image","朋友","Match","f","true","Formal",""
"","","","","","psychophysics","309","665493","0.0-9.0-0.0-0.48","324","","f","","","","","","","","","","","","","key","f","6.944214876033058","768","428","./1_3_Stimuli/C_ambi40.png","他人","Word","他人","Match","f","true","Formal",""
"","","","","","psychophysics","310","667209","0.0-9.0-0.0-0.49","560","","f","","","","","","","","","","","","","key","f","6.943495934959255","768","428","./1_3_Stimuli/C_ambi40.png","他人","Image","他人","Match","f","true","Formal",""
"","","","","","psychophysics","311","669409","0.0-9.0-0.0-0.50","1045","","j","","","","","","","","","","","","","key","j","6.944126984127058","768","428","./1_3_Stimuli/T_ambi40.png","朋友","Word","朋友","Match","f","false","Formal",""
"","","","","","psychophysics","312","671245","0.0-9.0-0.0-0.51","76","","f","","","","","","","","","","","","","key","f","6.944106463878504","768","428","./1_3_Stimuli/C_ambi40.png","他人","Word","他人","Match","f","true","Formal",""
"","","","","","psychophysics","313","673326","0.0-9.0-0.0-0.52","927","","f","","","","","","","","","","","","","key","f","6.944295302013501","768","428","./1_3_Stimuli/S_ambi40.png","朋友","Image","自我","Mismatch","j","false","Formal",""
"","","","","","psychophysics","314","675669","0.0-9.0-0.0-0.53","1186","","j","","","","","","","","","","","","","key","j","6.944179104477751","768","428","./1_3_Stimuli/T_ambi40.png","自我","Word","朋友","Mismatch","j","true","Formal",""
"","","","","","psychophysics","315","677541","0.0-9.0-0.0-0.54","372","","j","","","","","","","","","","","","","key","j","6.944776119403246","768","428","./1_3_Stimuli/C_ambi40.png","朋友","Word","他人","Mismatch","j","true","Formal",""
"","","","","","psychophysics","316","679181","0.0-9.0-0.0-0.55","485","","f","","","","","","","","","","","","","key","f","6.94468085106383","768","428","./1_3_Stimuli/T_ambi40.png","朋友","Image","朋友","Match","f","true","Formal",""
"","","","","","psychophysics","317","681653","0.0-9.0-0.0-0.56","1317","","j","","","","","","","","","","","","","key","j","6.9440677966103665","768","428","./1_3_Stimuli/C_ambi40.png","自我","Image","他人","Mismatch","j","true","Formal",""
"","","","","","psychophysics","318","683606","0.0-9.0-0.0-0.57","437","","j","","","","","","","","","","","","","key","j","6.944642857142857","768","428","./1_3_Stimuli/S_ambi40.png","他人","Image","自我","Mismatch","j","true","Formal",""
"","","","","","psychophysics","319","685361","0.0-9.0-0.0-0.58","602","","f","","","","","","","","","","","","","key","f","6.9430278884460295","768","428","./1_3_Stimuli/S_ambi40.png","自我","Word","自我","Match","f","true","Formal",""
"","","","","","psychophysics","320","687125","0.0-9.0-0.0-0.59","609","","j","","","","","","","","","","","","","key","j","6.944047619047711","768","428","./1_3_Stimuli/C_ambi40.png","自我","Word","他人","Mismatch","j","true","Formal",""
"","","","","","psychophysics","321","689268","0.0-9.0-0.0-0.60","988","","j","","","","","","","","","","","","","key","j","6.944480519480595","768","428","./1_3_Stimuli/S_ambi40.png","自我","Image","自我","Match","f","false","Formal",""
"","","","","","psychophysics","322","690865","0.0-9.0-0.0-0.61","446","","f","","","","","","","","","","","","","key","f","6.9441048034937545","768","428","./1_3_Stimuli/S_ambi40.png","自我","Word","自我","Match","f","true","Formal",""
"","","","","","psychophysics","323","693213","0.0-9.0-0.0-0.62","1196","","j","","","","","","","","","","","","","key","j","6.94451038575647","768","428","./1_3_Stimuli/C_ambi40.png","朋友","Image","他人","Mismatch","j","true","Formal",""
"","","","","","psychophysics","324","695174","0.0-9.0-0.0-0.63","2","","j","","","","","","","","","","","","","key","j","6.946975088967888","768","428","./1_3_Stimuli/S_ambi40.png","朋友","Word","自我","Mismatch","j","true","Formal",""
"","","","","","psychophysics","325","696853","0.0-9.0-0.0-0.64","524","","f","","","","","","","","","","","","","key","f","6.944813278008105","768","428","./1_3_Stimuli/S_ambi40.png","他人","Word","自我","Mismatch","j","false","Formal",""
"","","","","","psychophysics","326","698438","0.0-9.0-0.0-0.65","429","","f","","","","","","","","","","","","","key","f","6.9446902654867255","768","428","./1_3_Stimuli/C_ambi40.png","他人","Image","他人","Match","f","true","Formal",""
"","","","","","psychophysics","327","700351","0.0-9.0-0.0-0.66","760","","j","","","","","","","","","","","","","key","j","6.9445255474454255","768","428","./1_3_Stimuli/T_ambi40.png","他人","Image","朋友","Mismatch","j","true","Formal",""
"","","","","","psychophysics","328","702449","0.0-9.0-0.0-0.67","946","","f","","","","","","","","","","","","","key","f","6.944186046511473","768","428","./1_3_Stimuli/T_ambi40.png","朋友","Image","朋友","Match","f","true","Formal",""
"","","","","","psychophysics","329","704209","0.0-9.0-0.0-0.68","610","","j","","","","","","","","","","","","","key","j","6.944841269841177","768","428","./1_3_Stimuli/T_ambi40.png","他人","Word","朋友","Mismatch","j","true","Formal",""
"","","","","","psychophysics","330","706912","0.0-9.0-0.0-0.69","null","","null","","","","","","","","","","","","","key","null","6.944587628865979","768","428","./1_3_Stimuli/S_ambi40.png","自我","Image","自我","Match","f","false","Formal",""
"","","","","","psychophysics","331","708754","0.0-9.0-0.0-0.70","689","","j","","","","","","","","","","","","","key","j","6.944318181818359","768","428","./1_3_Stimuli/T_ambi40.png","朋友","Word","朋友","Match","f","false","Formal",""
"","","","","","psychophysics","332","710701","0.0-9.0-0.0-0.71","796","","j","","","","","","","","","","","","","key","j","6.94408602150546","768","428","./1_3_Stimuli/T_ambi40.png","自我","Image","朋友","Mismatch","j","true","Formal",""
"","","","","","psychophysics","333","712632","0.0-9.0-0.0-0.72","464","","f","","","","","","","","","","","","","key","f","6.944043321299639","768","428","./1_3_Stimuli/C_ambi40.png","他人","Image","他人","Match","f","true","Formal",""
"","","","","","psychophysics","334","714197","0.0-9.0-0.0-0.73","411","","f","","","","","","","","","","","","","key","f","6.944196428571429","768","428","./1_3_Stimuli/C_ambi40.png","他人","Word","他人","Match","f","true","Formal",""
"","","","","","psychophysics","335","715977","0.0-9.0-0.0-0.74","628","","f","","","","","","","","","","","","","key","f","6.9443137254899225","768","428","./1_3_Stimuli/S_ambi40.png","自我","Word","自我","Match","f","true","Formal",""
"","","","","","psychophysics","336","717921","0.0-9.0-0.0-0.75","788","","f","","","","","","","","","","","","","key","f","6.94408602150546","768","428","./1_3_Stimuli/T_ambi40.png","朋友","Word","朋友","Match","f","true","Formal",""
"","","","","","psychophysics","337","719692","0.0-9.0-0.0-0.76","616","","j","","","","","","","","","","","","","key","j","6.94409448818916","768","428","./1_3_Stimuli/S_ambi40.png","他人","Image","自我","Mismatch","j","true","Formal",""
"","","","","","psychophysics","338","721381","0.0-9.0-0.0-0.77","532","","f","","","","","","","","","","","","","key","f","6.944398340249349","768","428","./1_3_Stimuli/S_ambi40.png","自我","Word","自我","Match","f","true","Formal",""
"","","","","","psychophysics","339","723133","0.0-9.0-0.0-0.78","597","","f","","","","","","","","","","","","","key","f","6.944223107569721","768","428","./1_3_Stimuli/C_ambi40.png","朋友","Word","他人","Mismatch","j","false","Formal",""
"","","","","","psychophysics","340","725232","0.0-9.0-0.0-0.79","946","","j","","","","","","","","","","","","","key","j","6.9445182724254035","768","428","./1_3_Stimuli/T_ambi40.png","自我","Word","朋友","Mismatch","j","true","Formal",""
"","","","","","psychophysics","341","727171","0.0-9.0-0.0-0.80","787","","j","","","","","","","","","","","","","key","j","6.944604316546679","768","428","./1_3_Stimuli/S_ambi40.png","朋友","Image","自我","Mismatch","j","true","Formal",""
"","","","","","psychophysics","342","729876","0.0-9.0-0.0-0.81","null","","null","","","","","","","","","","","","","key","null","6.944329896907276","768","428","./1_3_Stimuli/T_ambi40.png","他人","Image","朋友","Mismatch","j","false","Formal",""
"","","","","","psychophysics","343","731693","0.0-9.0-0.0-0.82","663","","j","","","","","","","","","","","","","key","j","6.943846153846243","768","428","./1_3_Stimuli/C_ambi40.png","自我","Image","他人","Mismatch","j","true","Formal",""
"","","","","","psychophysics","344","733576","0.0-9.0-0.0-0.83","728","","f","","","","","","","","","","","","","key","f","6.944237918215613","768","428","./1_3_Stimuli/T_ambi40.png","朋友","Word","朋友","Match","f","true","Formal",""
"","","","","","psychophysics","345","735778","0.0-9.0-0.0-0.84","610","","j","","","","","","","","","","","","","key","j","6.944620253164557","768","428","./1_3_Stimuli/T_ambi40.png","他人","Word","朋友","Mismatch","j","true","Formal",""
"","","","","","psychophysics","346","737421","0.0-9.0-0.0-0.85","489","","f","","","","","","","","","","","","","key","f","6.944255319149035","768","428","./1_3_Stimuli/C_ambi40.png","他人","Image","他人","Match","f","true","Formal",""
"","","","","","psychophysics","347","739386","0.0-9.0-0.0-0.86","815","","f","","","","","","","","","","","","","key","f","6.943971631205922","768","428","./1_3_Stimuli/S_ambi40.png","自我","Image","自我","Match","f","true","Formal",""
"","","","","","psychophysics","348","741548","0.0-9.0-0.0-0.87","1006","","f","","","","","","","","","","","","","key","f","6.944193548386947","768","428","./1_3_Stimuli/C_ambi40.png","他人","Word","他人","Match","f","true","Formal",""
"","","","","","psychophysics","349","743245","0.0-9.0-0.0-0.88","543","","j","","","","","","","","","","","","","key","j","6.944855967078094","768","428","./1_3_Stimuli/S_ambi40.png","他人","Word","自我","Mismatch","j","true","Formal",""
"","","","","","psychophysics","350","745066","0.0-9.0-0.0-0.89","668","","f","","","","","","","","","","","","","key","f","6.944061302682082","768","428","./1_3_Stimuli/T_ambi40.png","朋友","Image","朋友","Match","f","true","Formal",""
"","","","","","psychophysics","351","746811","0.0-9.0-0.0-0.90","595","","j","","","","","","","","","","","","","key","j","6.953199999999721","768","428","./1_3_Stimuli/T_ambi40.png","自我","Image","朋友","Mismatch","j","true","Formal",""
"","","","","","psychophysics","352","748481","0.0-9.0-0.0-0.91","514","","f","","","","","","","","","","","","","key","f","6.944583333333624","768","428","./1_3_Stimuli/T_ambi40.png","朋友","Image","朋友","Match","f","true","Formal",""
"","","","","","psychophysics","353","750081","0.0-9.0-0.0-0.92","449","","f","","","","","","","","","","","","","key","f","6.9449781659384575","768","428","./1_3_Stimuli/C_ambi40.png","自我","Word","他人","Mismatch","j","false","Formal",""
"","","","","","psychophysics","354","751805","0.0-9.0-0.0-0.93","567","","f","","","","","","","","","","","","","key","f","6.9445344129556545","768","428","./1_3_Stimuli/S_ambi40.png","朋友","Word","自我","Mismatch","j","false","Formal",""
"","","","","","psychophysics","355","754157","0.0-9.0-0.0-0.94","1199","","f","","","","","","","","","","","","","key","f","6.944378698224714","768","428","./1_3_Stimuli/C_ambi40.png","朋友","Image","他人","Mismatch","j","false","Formal",""
"","","","","","psychophysics","356","756065","0.0-9.0-0.0-0.95","751","","f","","","","","","","","","","","","","key","f","6.970220588234952","768","428","./1_3_Stimuli/S_ambi40.png","自我","Image","自我","Match","f","true","Formal",""
"","","","","","psychophysics","357","758772","0.0-9.0-0.0-0.96","null","","null","","","","","","","","","","","","","key","null","6.944329896907276","768","428","./1_3_Stimuli/C_ambi40.png","他人","Image","他人","Match","f","false","Formal",""
"","","","","","psychophysics","358","760638","0.0-9.0-0.0-0.97","713","","j","","","","","","","","","","","","","key","j","6.9449438202244576","768","428","./1_3_Stimuli/T_ambi40.png","他人","Image","朋友","Mismatch","j","true","Formal",""
"","","","","","psychophysics","359","762240","0.0-9.0-0.0-0.98","447","","f","","","","","","","","","","","","","key","f","6.944104803493246","768","428","./1_3_Stimuli/T_ambi40.png","朋友","Word","朋友","Match","f","true","Formal",""
"","","","","","psychophysics","360","764861","0.0-9.0-0.0-0.99","692","","j","","","","","","","","","","","","","key","j","6.944414893616959","768","428","./1_3_Stimuli/S_ambi40.png","自我","Word","自我","Match","f","false","Formal",""
"","","","","","psychophysics","361","766746","0.0-9.0-0.0-0.100","730","","j","","","","","","","","","","","","","key","j","6.944280442804514","768","428","./1_3_Stimuli/C_ambi40.png","自我","Image","他人","Mismatch","j","true","Formal",""
"","","","","","psychophysics","362","768733","0.0-9.0-0.0-0.101","837","","j","","","","","","","","","","","","","key","j","6.9442105263157075","768","428","./1_3_Stimuli/S_ambi40.png","朋友","Image","自我","Mismatch","j","true","Formal",""
"","","","","","psychophysics","363","770338","0.0-9.0-0.0-0.102","163","","f","","","","","","","","","","","","","key","f","6.944347826086754","768","428","./1_3_Stimuli/C_ambi40.png","他人","Word","他人","Match","f","true","Formal",""
"","","","","","psychophysics","364","772136","0.0-9.0-0.0-0.103","642","","j","","","","","","","","","","","","","key","j","6.944186046511989","768","428","./1_3_Stimuli/C_ambi40.png","朋友","Image","他人","Mismatch","j","true","Formal",""
"","","","","","psychophysics","365","773966","0.0-9.0-0.0-0.104","679","","f","","","","","","","","","","","","","key","f","6.943893129770726","768","428","./1_3_Stimuli/S_ambi40.png","他人","Word","自我","Mismatch","j","false","Formal",""
"","","","","","psychophysics","366","776033","0.0-9.0-0.0-0.105","914","","j","","","","","","","","","","","","","key","j","6.944594594594516","768","428","./1_3_Stimuli/T_ambi40.png","自我","Image","朋友","Mismatch","j","true","Formal",""
"","","","","","psychophysics","367","778482","0.0-9.0-0.0-0.106","1294","","f","","","","","","","","","","","","","key","f","6.944318181818248","768","428","./1_3_Stimuli/T_ambi40.png","朋友","Word","朋友","Match","f","true","Formal",""
"","","","","","psychophysics","368","780393","0.0-9.0-0.0-0.107","760","","j","","","","","","","","","","","","","key","j","6.944160583941436","768","428","./1_3_Stimuli/T_ambi40.png","自我","Word","朋友","Mismatch","j","true","Formal",""
"","","","","","psychophysics","369","783098","0.0-9.0-0.0-0.108","null","","null","","","","","","","","","","","","","key","null","6.944587628865979","768","428","./1_3_Stimuli/S_ambi40.png","自我","Word","自我","Match","f","false","Formal",""
"","","","","","psychophysics","370","785262","0.0-9.0-0.0-0.109","1011","","f","","","","","","","","","","","","","key","f","6.944516129032032","768","428","./1_3_Stimuli/T_ambi40.png","朋友","Image","朋友","Match","f","true","Formal",""
"","","","","","psychophysics","371","786977","0.0-9.0-0.0-0.110","560","","f","","","","","","","","","","","","","key","f","6.944081632653251","768","428","./1_3_Stimuli/T_ambi40.png","朋友","Image","朋友","Match","f","true","Formal",""
"","","","","","psychophysics","372","788955","0.0-9.0-0.0-0.111","822","","j","","","","","","","","","","","","","key","j","6.944366197183345","768","428","./1_3_Stimuli/C_ambi40.png","朋友","Word","他人","Mismatch","j","true","Formal",""
"","","","","","psychophysics","373","790885","0.0-9.0-0.0-0.112","780","","j","","","","","","","","","","","","","key","j","6.944043321299639","768","428","./1_3_Stimuli/S_ambi40.png","他人","Image","自我","Mismatch","j","true","Formal",""
"","","","","","psychophysics","374","792713","0.0-9.0-0.0-0.113","677","","j","","","","","","","","","","","","","key","j","6.944274809160394","768","428","./1_3_Stimuli/C_ambi40.png","自我","Word","他人","Mismatch","j","true","Formal",""
"","","","","","psychophysics","375","794593","0.0-9.0-0.0-0.114","723","","f","","","","","","","","","","","","","key","f","6.944074074073729","768","428","./1_3_Stimuli/S_ambi40.png","自我","Image","自我","Match","f","true","Formal",""
"","","","","","psychophysics","376","796296","0.0-9.0-0.0-0.115","551","","j","","","","","","","","","","","","","key","j","6.944672131147541","768","428","./1_3_Stimuli/S_ambi40.png","朋友","Word","自我","Mismatch","j","true","Formal",""
"","","","","","psychophysics","377","798041","0.0-9.0-0.0-0.116","594","","j","","","","","","","","","","","","","key","j","6.944979919678902","768","428","./1_3_Stimuli/T_ambi40.png","他人","Word","朋友","Mismatch","j","true","Formal",""
"","","","","","psychophysics","378","799629","0.0-9.0-0.0-0.117","434","","f","","","","","","","","","","","","","key","f","6.944736842105366","768","428","./1_3_Stimuli/C_ambi40.png","他人","Image","他人","Match","f","true","Formal",""
"","","","","","psychophysics","379","801197","0.0-9.0-0.0-0.118","418","","f","","","","","","","","","","","","","key","f","6.943999999999586","768","428","./1_3_Stimuli/C_ambi40.png","他人","Word","他人","Match","f","true","Formal",""
"","","","","","psychophysics","380","802981","0.0-9.0-0.0-0.119","633","","j","","","","","","","","","","","","","key","j","6.944531250000182","768","428","./1_3_Stimuli/S_ambi40.png","自我","Image","自我","Match","f","false","Formal",""
"","","","","","html-keyboard-response","381","836911","0.0-9.0-1.0","33928","<style>.context{color:white; font-size: 35px; line-height:40px}</style>                        <div><p class='context'>您正确回答了77% 的试次。</p><p class='context'>您的平均反应时为638毫秒。</p><p> <div style = 'color: green'><按任意键进入休息></div></p>"," ","","","","","","","","","","","","","","","","","","","","","","","","","",""
"","","","","","html-button-response","382","899343","0.0-9.0-2.0","62425","
                  <p>您当前还剩余5组实验</p>
                  <p>现在是休息时间，当您结束休息后，您可以点击 结束休息 按钮 继续</p>
                  <p>建议休息时间还剩余<span id=""iii"">60</span>秒</p>","0","","","","","","","","","","","","","","","","","","","","","","","","","",""
"","","","","","psychophysics","383","901188","0.0-9.0-0.1-0.120","689","","j","","","","","","","","","","","","","key","j","6.944905660377446","768","428","./1_3_Stimuli/C_ambi40.png","朋友","Word","他人","Mismatch","j","true","Formal",""
"","","","","","psychophysics","384","902811","0.0-9.0-0.1-0.121","472","","f","","","","","","","","","","","","","key","f","6.944396551724037","768","428","./1_3_Stimuli/S_ambi40.png","自我","Word","自我","Match","f","true","Formal",""
"","","","","","psychophysics","385","904482","0.0-9.0-0.1-0.122","519","","f","","","","","","","","","","","","","key","f","6.943933054393208","768","428","./1_3_Stimuli/T_ambi40.png","朋友","Word","朋友","Match","f","true","Formal",""
"","","","","","psychophysics","386","906133","0.0-9.0-0.1-0.123","496","","j","","","","","","","","","","","","","key","j","6.944303797468551","768","428","./1_3_Stimuli/C_ambi40.png","自我","Word","他人","Mismatch","j","true","Formal",""
"","","","","","psychophysics","387","907621","0.0-9.0-0.1-0.124","337","","f","","","","","","","","","","","","","key","f","6.944600938966918","768","428","./1_3_Stimuli/C_ambi40.png","他人","Word","他人","Match","f","true","Formal",""
"","","","","","psychophysics","388","909262","0.0-9.0-0.1-0.125","486","","j","","","","","","","","","","","","","key","j","6.944444444444445","768","428","./1_3_Stimuli/T_ambi40.png","他人","Word","朋友","Mismatch","j","true","Formal",""
"","","","","","psychophysics","389","911964","0.0-9.0-0.1-0.126","null","","null","","","","","","","","","","","","","key","null","6.944444444444445","768","428","./1_3_Stimuli/S_ambi40.png","自我","Image","自我","Match","f","false","Formal",""
"","","","","","psychophysics","390","913704","0.0-9.0-0.1-0.127","588","","j","","","","","","","","","","","","","key","j","6.944578313253293","768","428","./1_3_Stimuli/T_ambi40.png","自我","Image","朋友","Mismatch","j","true","Formal",""
"","","","","","psychophysics","391","915341","0.0-9.0-0.1-0.128","481","","f","","","","","","","","","","","","","key","f","6.944444444444445","768","428","./1_3_Stimuli/S_ambi40.png","自我","Word","自我","Match","f","true","Formal",""
"","","","","","psychophysics","392","918047","0.0-9.0-0.1-0.129","null","","null","","","","","","","","","","","","","key","null","6.944587628865979","768","428","./1_3_Stimuli/S_ambi40.png","朋友","Image","自我","Mismatch","j","false","Formal",""
"","","","","","psychophysics","393","919670","0.0-9.0-0.1-0.130","471","","f","","","","","","","","","","","","","key","f","6.943103448276063","768","428","./1_3_Stimuli/T_ambi40.png","朋友","Image","朋友","Match","f","true","Formal",""
"","","","","","psychophysics","394","921321","0.0-9.0-0.1-0.131","496","","j","","","","","","","","","","","","","key","j","6.943220338982952","768","428","./1_3_Stimuli/S_ambi40.png","他人","Image","自我","Mismatch","j","true","Formal",""
"","","","","","psychophysics","395","924026","0.0-9.0-0.1-0.132","null","","null","","","","","","","","","","","","","key","null","6.944329896907276","768","428","./1_3_Stimuli/C_ambi40.png","他人","Image","他人","Match","f","false","Formal",""
"","","","","","psychophysics","396","925769","0.0-9.0-0.1-0.133","590","","f","","","","","","","","","","","","","key","f","6.943775100401607","768","428","./1_3_Stimuli/S_ambi40.png","自我","Image","自我","Match","f","true","Formal",""
"","","","","","psychophysics","397","927581","0.0-9.0-0.1-0.134","658","","j","","","","","","","","","","","","","key","j","6.944401544401455","768","428","./1_3_Stimuli/T_ambi40.png","他人","Image","朋友","Mismatch","j","true","Formal",""
"","","","","","psychophysics","398","930283","0.0-9.0-0.1-0.135","null","","null","","","","","","","","","","","","","key","null","6.944186046511688","768","428","./1_3_Stimuli/S_ambi40.png","朋友","Word","自我","Mismatch","j","false","Formal",""
"","","","","","psychophysics","399","931871","0.0-9.0-0.1-0.136","435","","f","","","","","","","","","","","","","key","f","6.945374449339105","768","428","./1_3_Stimuli/C_ambi40.png","他人","Word","他人","Match","f","true","Formal",""
"","","","","","psychophysics","400","933558","0.0-9.0-0.1-0.137","532","","j","","","","","","","","","","","","","key","j","6.944398340248866","768","428","./1_3_Stimuli/S_ambi40.png","他人","Word","自我","Mismatch","j","true","Formal",""
"","","","","","psychophysics","401","936262","0.0-9.0-0.1-0.138","null","","null","","","","","","","","","","","","","key","null","6.944473007712142","768","428","./1_3_Stimuli/T_ambi40.png","朋友","Image","朋友","Match","f","false","Formal",""
"","","","","","psychophysics","402","937981","0.0-9.0-0.1-0.139","566","","j","","","","","","","","","","","","","key","j","6.94430894308962","768","428","./1_3_Stimuli/C_ambi40.png","朋友","Image","他人","Mismatch","j","true","Formal",""
"","","","","","psychophysics","403","939441","0.0-9.0-0.1-0.140","307","","j","","","","","","","","","","","","","key","j","6.944230769230881","768","428","./1_3_Stimuli/T_ambi40.png","朋友","Word","朋友","Match","f","false","Formal",""
"","","","","","psychophysics","404","941317","0.0-9.0-0.1-0.141","722","","j","","","","","","","","","","","","","key","j","6.944237918215613","768","428","./1_3_Stimuli/C_ambi40.png","自我","Image","他人","Mismatch","j","true","Formal",""
"","","","","","psychophysics","405","943073","0.0-9.0-0.1-0.142","602","","j","","","","","","","","","","","","","key","j","6.9450199203190035","768","428","./1_3_Stimuli/T_ambi40.png","自我","Word","朋友","Mismatch","j","true","Formal",""
"","","","","","psychophysics","406","944681","0.0-9.0-0.1-0.143","453","","f","","","","","","","","","","","","","key","f","6.944782608695855","768","428","./1_3_Stimuli/C_ambi40.png","他人","Image","他人","Match","f","true","Formal",""
"","","","","","psychophysics","407","946661","0.0-9.0-0.1-0.144","490","","j","","","","","","","","","","","","","key","j","6.9443661971829345","768","428","./1_3_Stimuli/C_ambi40.png","朋友","Image","他人","Mismatch","j","true","Formal",""
"","","","","","psychophysics","408","948382","0.0-9.0-0.1-0.145","565","","f","","","","","","","","","","","","","key","f","6.944534412955183","768","428","./1_3_Stimuli/S_ambi40.png","自我","Image","自我","Match","f","true","Formal",""
"","","","","","psychophysics","409","949925","0.0-9.0-0.1-0.146","392","","f","","","","","","","","","","","","","key","f","6.944343891402505","768","428","./1_3_Stimuli/S_ambi40.png","自我","Image","自我","Match","f","true","Formal",""
"","","","","","psychophysics","410","951497","0.0-9.0-0.1-0.147","416","","j","","","","","","","","","","","","","key","j","6.944888888889303","768","428","./1_3_Stimuli/C_ambi40.png","他人","Image","他人","Match","f","false","Formal",""
"","","","","","psychophysics","411","953203","0.0-9.0-0.1-0.148","32","","j","","","","","","","","","","","","","key","j","6.944672131147541","768","428","./1_3_Stimuli/C_ambi40.png","朋友","Word","他人","Mismatch","j","true","Formal",""
"","","","","","psychophysics","412","955138","0.0-9.0-0.1-0.149","782","","f","","","","","","","","","","","","","key","f","6.944765342960121","768","428","./1_3_Stimuli/S_ambi40.png","朋友","Image","自我","Mismatch","j","false","Formal",""
"","","","","","psychophysics","413","957809","0.0-9.0-0.1-0.150","1519","","j","","","","","","","","","","","","","key","j","6.94438642297638","768","428","./1_3_Stimuli/T_ambi40.png","自我","Image","朋友","Mismatch","j","true","Formal",""
"","","","","","psychophysics","414","959913","0.0-9.0-0.1-0.151","741","","f","","","","","","","","","","","","","key","f","6.944039735099261","768","428","./1_3_Stimuli/C_ambi40.png","自我","Image","他人","Mismatch","j","false","Formal",""
"","","","","","psychophysics","415","961953","0.0-9.0-0.1-0.152","886","","f","","","","","","","","","","","","","key","f","6.944520547945365","768","428","./1_3_Stimuli/T_ambi40.png","朋友","Word","朋友","Match","f","true","Formal",""
