"success","timeout","failed_images","failed_audio","failed_video","trial_type","trial_index","time_elapsed","internal_node_id","rt","stimulus","response","value","item_width_mm","item_height_mm","item_width_px","px2mm","view_dist_mm","item_width_deg","px2deg","scale_factor","win_width_deg","win_height_deg","view_history","response_type","key_press","avg_frame_time","center_x","center_y","image","word","target","valence","matchness","correct_response","correct","exp_condition"
"true","false","[]","[]","[]","preload","0","1164","0.0-0.0","","","","","","","","","","","","","","","","","","","","","","","","","","","",""
"","","","","","html-keyboard-response","1","12028","0.0-1.0","10863","
     <p>您好，欢迎参加本次实验。</p>
     <p>为充分保障您的权利，请确保您已经知晓并同意《参与实验同意书》以及《数据公开知情同意书》。</p>
     <p>如果您未见过上述内容，请咨询实验员。</p>
     <p>如果您选择继续实验，则表示您已经清楚两份知情同意书的内容并同意。</p>
     <p> <div style = ""color: green""><按任意键至下页></div> </p>
     "," ","","","","","","","","","","","","","","","","","","","","","","","","",""
"","","","","","html-keyboard-response","2","13443","0.0-2.0-0.0","1414","
      <p>本实验首先需要您填写一些基本个人信息。</p>
      <p> <div style = ""color: green""><按任意键至下页></div></p>
      "," ","","","","","","","","","","","","","","","","","","","","","","","","",""
"","","","","","call-function","3","13443","0.0-2.0-1.0","","","","","","","","","","","","","","","","","","","","","","","","","","","",""
"","","","","","survey-html-form","4","30834","0.0-2.0-2.0","17389","","{""Q0"":""1009""}","","","","","","","","","","","","","","","","","","","","","","","","",""
"","","","","","html-button-response","5","32380","0.0-2.0-3.0","1545","<p style = 'color : white'>您的性别</p>","1","","","","","","","","","","","","","","","","","","","","","","","","",""
"","","","","","survey-html-form","6","38766","0.0-2.0-4.0","6385","","{""Q0"":""2003""}","","","","","","","","","","","","","","","","","","","","","","","","",""
"","","","","","survey-html-form","7","45637","0.0-2.0-5.0","6870","","{""Q0"":""5""}","","","","","","","","","","","","","","","","","","","","","","","","",""
"","","","","","virtual-chinrest","8","143595","0.0-3.0","97957","","","","85.6","53.98","547.1555160500186","6.387782557659416","446.82","10.943110321000372","50","0.7749167970760981","30.56","14.84","","","","","","","","","","","","","",""
"true","","","","","fullscreen","9","147025","0.0-4.0","","","","","","","","","","","","","","","","","","","","","","","","","","","",""
"","","","","","instructions","10","201115","0.0-5.0","54090","","","","","","","","","","","","","","[{""page_index"":0,""viewing_time"":8712},{""page_index"":1,""viewing_time"":30861},{""page_index"":2,""viewing_time"":11446},{""page_index"":3,""viewing_time"":3071}]","","","","","","","","","","","","",""
"","","","","","html-keyboard-response","11","204774","0.0-6.0","null","<count-down title=""""></count-down>","null","","","","","","","","","","","","","","","","","","","","","","","","",""
"","","","","","psychophysics","12","207481","0.0-7.0-0.0-0.0","null","","null","","","","","","","","","","","","","key","null","16.664720496894343","768","428","./1_3_Stimuli/S_ambi40.png","朋友","Image","他人","Mismatch","f","false","Practice"
"","","","","","html-keyboard-response","13","207793","0.0-7.0-0.0-1.0","null","<span class='add_' style='color:yellow; font-size: 70px;'> 太慢! </span>","null","","","","","","","","","","","","","","","","","","","","","","","","","feedback"
"","","","","","psychophysics","14","209389","0.0-7.0-0.0-0.1","437","","f","","","","","","","","","","","","","key","f","16.666563829787304","768","428","./1_3_Stimuli/T_ambi40.png","朋友","Image","朋友","Match","j","false","Practice"
"","","","","","html-keyboard-response","15","209698","0.0-7.0-0.0-1.1","null","<span style='color:red; font-size: 70px;'>错误! </span>","null","","","","","","","","","","","","","","","","","","","","","","","","","feedback"
"","","","","","psychophysics","16","211319","0.0-7.0-0.0-0.2","469","","f","","","","","","","","","","","","","key","f","16.66679166666654","768","428","./1_3_Stimuli/S_ambi40.png","他人","Image","他人","Match","j","false","Practice"
"","","","","","html-keyboard-response","17","211624","0.0-7.0-0.0-1.2","null","<span style='color:red; font-size: 70px;'>错误! </span>","null","","","","","","","","","","","","","","","","","","","","","","","","","feedback"
"","","","","","psychophysics","18","213372","0.0-7.0-0.0-0.3","597","","j","","","","","","","","","","","","","key","j","16.66729126213592","768","428","./1_3_Stimuli/C_ambi40.png","朋友","Word","自我","Mismatch","f","false","Practice"
"","","","","","html-keyboard-response","19","213682","0.0-7.0-0.0-1.3","null","<span style='color:red; font-size: 70px;'>错误! </span>","null","","","","","","","","","","","","","","","","","","","","","","","","","feedback"
"","","","","","psychophysics","20","215497","0.0-7.0-0.0-0.4","655","","f","","","","","","","","","","","","","key","f","16.66740740740729","768","428","./1_3_Stimuli/S_ambi40.png","自我","Word","他人","Mismatch","f","true","Practice"
"","","","","","html-keyboard-response","21","215798","0.0-7.0-0.0-1.4","null","<span style='color:GreenYellow; font-size: 70px;'>正确! </span>","null","","","","","","","","","","","","","","","","","","","","","","","","","feedback"
"","","","","","psychophysics","22","217444","0.0-7.0-0.0-0.5","487","","j","","","","","","","","","","","","","key","j","16.667326530612108","768","428","./1_3_Stimuli/S_ambi40.png","他人","Word","他人","Match","j","true","Practice"
"","","","","","html-keyboard-response","23","217749","0.0-7.0-0.0-1.5","null","<span style='color:GreenYellow; font-size: 70px;'>正确! </span>","null","","","","","","","","","","","","","","","","","","","","","","","","","feedback"
"","","","","","psychophysics","24","220339","0.0-7.0-0.0-0.6","1435","","j","","","","","","","","","","","","","key","j","16.665896103896166","768","428","./1_3_Stimuli/S_ambi40.png","他人","Image","他人","Match","j","true","Practice"
"","","","","","html-keyboard-response","25","220654","0.0-7.0-0.0-1.6","null","<span style='color:GreenYellow; font-size: 70px;'>正确! </span>","null","","","","","","","","","","","","","","","","","","","","","","","","","feedback"
"","","","","","psychophysics","26","222663","0.0-7.0-0.0-0.7","855","","f","","","","","","","","","","","","","key","f","16.667283333333277","768","428","./1_3_Stimuli/C_ambi40.png","自我","Word","自我","Match","j","false","Practice"
"","","","","","html-keyboard-response","27","222975","0.0-7.0-0.0-1.7","null","<span style='color:red; font-size: 70px;'>错误! </span>","null","","","","","","","","","","","","","","","","","","","","","","","","","feedback"
"","","","","","psychophysics","28","225680","0.0-7.0-0.0-0.8","null","","null","","","","","","","","","","","","","key","null","16.665540372670637","768","428","./1_3_Stimuli/S_ambi40.png","朋友","Word","他人","Mismatch","f","false","Practice"
"","","","","","html-keyboard-response","29","225991","0.0-7.0-0.0-1.8","null","<span class='add_' style='color:yellow; font-size: 70px;'> 太慢! </span>","null","","","","","","","","","","","","","","","","","","","","","","","","","feedback"
"","","","","","psychophysics","30","227902","0.0-7.0-0.0-0.9","760","","j","","","","","","","","","","","","","key","j","16.664327433628216","768","428","./1_3_Stimuli/C_ambi40.png","自我","Image","自我","Match","j","true","Practice"
"","","","","","html-keyboard-response","31","228211","0.0-7.0-0.0-1.9","null","<span style='color:GreenYellow; font-size: 70px;'>正确! </span>","null","","","","","","","","","","","","","","","","","","","","","","","","","feedback"
"","","","","","psychophysics","32","229909","0.0-7.0-0.0-0.10","535","","f","","","","","","","","","","","","","key","f","16.667940594059402","768","428","./1_3_Stimuli/C_ambi40.png","他人","Word","自我","Mismatch","f","true","Practice"
"","","","","","html-keyboard-response","33","230216","0.0-7.0-0.0-1.10","null","<span style='color:GreenYellow; font-size: 70px;'>正确! </span>","null","","","","","","","","","","","","","","","","","","","","","","","","","feedback"
"","","","","","psychophysics","34","232043","0.0-7.0-0.0-0.11","675","","f","","","","","","","","","","","","","key","f","16.66726605504604","768","428","./1_3_Stimuli/C_ambi40.png","他人","Image","自我","Mismatch","f","true","Practice"
"","","","","","html-keyboard-response","35","232348","0.0-7.0-0.0-1.11","null","<span style='color:GreenYellow; font-size: 70px;'>正确! </span>","null","","","","","","","","","","","","","","","","","","","","","","","","","feedback"
"","","","","","psychophysics","36","234236","0.0-7.0-0.0-0.12","732","","f","","","","","","","","","","","","","key","f","16.665071428571537","768","428","./1_3_Stimuli/T_ambi40.png","自我","Word","朋友","Mismatch","f","true","Practice"
"","","","","","html-keyboard-response","37","234547","0.0-7.0-0.0-1.12","null","<span style='color:GreenYellow; font-size: 70px;'>正确! </span>","null","","","","","","","","","","","","","","","","","","","","","","","","","feedback"
"","","","","","psychophysics","38","236767","0.0-7.0-0.0-0.13","1065","","j","","","","","","","","","","","","","key","j","16.667136363636406","768","428","./1_3_Stimuli/S_ambi40.png","他人","Word","他人","Match","j","true","Practice"
"","","","","","html-keyboard-response","39","237072","0.0-7.0-0.0-1.13","null","<span style='color:GreenYellow; font-size: 70px;'>正确! </span>","null","","","","","","","","","","","","","","","","","","","","","","","","","feedback"
"","","","","","psychophysics","40","239441","0.0-7.0-0.0-0.14","1218","","f","","","","","","","","","","","","","key","f","16.666971830986064","768","428","./1_3_Stimuli/T_ambi40.png","他人","Image","朋友","Mismatch","f","true","Practice"
"","","","","","html-keyboard-response","41","239742","0.0-7.0-0.0-1.14","null","<span style='color:GreenYellow; font-size: 70px;'>正确! </span>","null","","","","","","","","","","","","","","","","","","","","","","","","","feedback"
"","","","","","psychophysics","42","241965","0.0-7.0-0.0-0.15","1067","","j","","","","","","","","","","","","","key","j","16.66540909090911","768","428","./1_3_Stimuli/S_ambi40.png","自我","Image","他人","Mismatch","f","false","Practice"
"","","","","","html-keyboard-response","43","242267","0.0-7.0-0.0-1.15","null","<span style='color:red; font-size: 70px;'>错误! </span>","null","","","","","","","","","","","","","","","","","","","","","","","","","feedback"
"","","","","","psychophysics","44","244334","0.0-7.0-0.0-0.16","913","","j","","","","","","","","","","","","","key","j","16.666390243902324","768","428","./1_3_Stimuli/C_ambi40.png","自我","Image","自我","Match","j","true","Practice"
"","","","","","html-keyboard-response","45","244636","0.0-7.0-0.0-1.16","null","<span style='color:GreenYellow; font-size: 70px;'>正确! </span>","null","","","","","","","","","","","","","","","","","","","","","","","","","feedback"
"","","","","","psychophysics","46","246447","0.0-7.0-0.0-0.17","655","","j","","","","","","","","","","","","","key","j","16.667972222222254","768","428","./1_3_Stimuli/C_ambi40.png","自我","Word","自我","Match","j","true","Practice"
"","","","","","html-keyboard-response","47","246760","0.0-7.0-0.0-1.17","null","<span style='color:GreenYellow; font-size: 70px;'>正确! </span>","null","","","","","","","","","","","","","","","","","","","","","","","","","feedback"
"","","","","","psychophysics","48","249229","0.0-7.0-0.0-0.18","1314","","j","","","","","","","","","","","","","key","j","16.666204081632657","768","428","./1_3_Stimuli/T_ambi40.png","朋友","Word","朋友","Match","j","true","Practice"
"","","","","","html-keyboard-response","49","249536","0.0-7.0-0.0-1.18","null","<span style='color:GreenYellow; font-size: 70px;'>正确! </span>","null","","","","","","","","","","","","","","","","","","","","","","","","","feedback"
"","","","","","psychophysics","50","251361","0.0-7.0-0.0-0.19","670","","f","","","","","","","","","","","","","key","f","16.66766972477049","768","428","./1_3_Stimuli/T_ambi40.png","朋友","Word","朋友","Match","j","false","Practice"
"","","","","","html-keyboard-response","51","251668","0.0-7.0-0.0-1.19","null","<span style='color:red; font-size: 70px;'>错误! </span>","null","","","","","","","","","","","","","","","","","","","","","","","","","feedback"
"","","","","","psychophysics","52","253475","0.0-7.0-0.0-0.20","651","","j","","","","","","","","","","","","","key","j","16.666675925925826","768","428","./1_3_Stimuli/T_ambi40.png","朋友","Image","朋友","Match","j","true","Practice"
"","","","","","html-keyboard-response","53","253791","0.0-7.0-0.0-1.20","null","<span style='color:GreenYellow; font-size: 70px;'>正确! </span>","null","","","","","","","","","","","","","","","","","","","","","","","","","feedback"
"","","","","","psychophysics","54","255629","0.0-7.0-0.0-0.21","685","","f","","","","","","","","","","","","","key","f","16.666926605504653","768","428","./1_3_Stimuli/C_ambi40.png","朋友","Image","自我","Mismatch","f","true","Practice"
"","","","","","html-keyboard-response","55","255943","0.0-7.0-0.0-1.21","null","<span style='color:GreenYellow; font-size: 70px;'>正确! </span>","null","","","","","","","","","","","","","","","","","","","","","","","","","feedback"
"","","","","","psychophysics","56","257850","0.0-7.0-0.0-0.22","756","","j","","","","","","","","","","","","","key","j","16.66568141592928","768","428","./1_3_Stimuli/T_ambi40.png","自我","Image","朋友","Mismatch","f","false","Practice"
"","","","","","html-keyboard-response","57","258166","0.0-7.0-0.0-1.22","null","<span style='color:red; font-size: 70px;'>错误! </span>","null","","","","","","","","","","","","","","","","","","","","","","","","","feedback"
"","","","","","psychophysics","58","260875","0.0-7.0-0.0-0.23","null","","null","","","","","","","","","","","","","key","null","16.666062111801452","768","428","./1_3_Stimuli/T_ambi40.png","他人","Word","朋友","Mismatch","f","false","Practice"
"","","","","","html-keyboard-response","59","261176","0.0-7.0-0.0-1.23","null","<span class='add_' style='color:yellow; font-size: 70px;'> 太慢! </span>","null","","","","","","","","","","","","","","","","","","","","","","","","","feedback"
"","","","","","html-keyboard-response","60","268963","0.0-7.0-1.0-0.0","7786","<style>.context{color:white; font-size: 35px; line-height:40px}</style>                        <div><p class='context'>您正确回答了58% 的试次。</p><p class='context'>您的平均反应时为841毫秒。</p><p> <div style = 'color: green'><按空格键至下页></div></p>"," ","","","","","","","","","","","","","","","","","","","","","","","","",""
"","","","","","instructions","61","290070","0.0-7.0-1.0-1.0","21105","","","","","","","","","","","","","","[{""page_index"":0,""viewing_time"":2352},{""page_index"":1,""viewing_time"":12220},{""page_index"":2,""viewing_time"":3148},{""page_index"":1,""viewing_time"":1856},{""page_index"":2,""viewing_time"":1528}]","","","","","","","","","","","","",""
"","","","","","psychophysics","62","292035","0.0-7.1-0.1-0.24","812","","j","","","","","","","","","","","","","key","j","16.66974999999993","768","428","./1_3_Stimuli/T_ambi40.png","自我","Image","朋友","Mismatch","f","false","Practice"
"","","","","","html-keyboard-response","63","292347","0.0-7.1-0.1-1.24","null","<span style='color:red; font-size: 70px;'>错误! </span>","null","","","","","","","","","","","","","","","","","","","","","","","","","feedback"
"","","","","","psychophysics","64","294312","0.0-7.1-0.1-0.25","807","","j","","","","","","","","","","","","","key","j","16.66655555555575","768","428","./1_3_Stimuli/S_ambi40.png","他人","Image","他人","Match","j","true","Practice"
"","","","","","html-keyboard-response","65","294622","0.0-7.1-0.1-1.25","null","<span style='color:GreenYellow; font-size: 70px;'>正确! </span>","null","","","","","","","","","","","","","","","","","","","","","","","","","feedback"
"","","","","","psychophysics","66","297324","0.0-7.1-0.1-0.26","null","","null","","","","","","","","","","","","","key","null","16.66662111801243","768","428","./1_3_Stimuli/C_ambi40.png","朋友","Image","自我","Mismatch","f","false","Practice"
"","","","","","html-keyboard-response","67","297628","0.0-7.1-0.1-1.26","null","<span class='add_' style='color:yellow; font-size: 70px;'> 太慢! </span>","null","","","","","","","","","","","","","","","","","","","","","","","","","feedback"
"","","","","","psychophysics","68","299303","0.0-7.1-0.1-0.27","514","","j","","","","","","","","","","","","","key","j","16.665888888888986","768","428","./1_3_Stimuli/S_ambi40.png","自我","Image","他人","Mismatch","f","false","Practice"
"","","","","","html-keyboard-response","69","299609","0.0-7.1-0.1-1.27","null","<span style='color:red; font-size: 70px;'>错误! </span>","null","","","","","","","","","","","","","","","","","","","","","","","","","feedback"
"","","","","","psychophysics","70","301265","0.0-7.1-0.1-0.28","496","","f","","","","","","","","","","","","","key","f","16.664673469387523","768","428","./1_3_Stimuli/T_ambi40.png","他人","Word","朋友","Mismatch","f","true","Practice"
"","","","","","html-keyboard-response","71","301566","0.0-7.1-0.1-1.28","null","<span style='color:GreenYellow; font-size: 70px;'>正确! </span>","null","","","","","","","","","","","","","","","","","","","","","","","","","feedback"
"","","","","","psychophysics","72","303298","0.0-7.1-0.1-0.29","574","","j","","","","","","","","","","","","","key","j","16.665242718446784","768","428","./1_3_Stimuli/C_ambi40.png","自我","Word","自我","Match","j","true","Practice"
"","","","","","html-keyboard-response","73","303600","0.0-7.1-0.1-1.29","null","<span style='color:GreenYellow; font-size: 70px;'>正确! </span>","null","","","","","","","","","","","","","","","","","","","","","","","","","feedback"
"","","","","","psychophysics","74","305186","0.0-7.1-0.1-0.30","429","","j","","","","","","","","","","","","","key","j","16.66604255319157","768","428","./1_3_Stimuli/C_ambi40.png","自我","Word","自我","Match","j","true","Practice"
"","","","","","html-keyboard-response","75","305497","0.0-7.1-0.1-1.30","null","<span style='color:GreenYellow; font-size: 70px;'>正确! </span>","null","","","","","","","","","","","","","","","","","","","","","","","","","feedback"
"","","","","","psychophysics","76","308097","0.0-7.1-0.1-0.31","1449","","f","","","","","","","","","","","","","key","f","16.664509677419424","768","428","./1_3_Stimuli/T_ambi40.png","朋友","Word","朋友","Match","j","false","Practice"
"","","","","","html-keyboard-response","77","308401","0.0-7.1-0.1-1.31","null","<span style='color:red; font-size: 70px;'>错误! </span>","null","","","","","","","","","","","","","","","","","","","","","","","","","feedback"
"","","","","","psychophysics","78","310020","0.0-7.1-0.1-0.32","465","","j","","","","","","","","","","","","","key","j","16.668499999999767","768","428","./1_3_Stimuli/T_ambi40.png","朋友","Image","朋友","Match","j","true","Practice"
"","","","","","html-keyboard-response","79","310335","0.0-7.1-0.1-1.32","null","<span style='color:GreenYellow; font-size: 70px;'>正确! </span>","null","","","","","","","","","","","","","","","","","","","","","","","","","feedback"
"","","","","","psychophysics","80","312042","0.0-7.1-0.1-0.33","553","","f","","","","","","","","","","","","","key","f","16.66476470588275","768","428","./1_3_Stimuli/T_ambi40.png","他人","Image","朋友","Mismatch","f","true","Practice"
"","","","","","html-keyboard-response","81","312344","0.0-7.1-0.1-1.33","null","<span style='color:GreenYellow; font-size: 70px;'>正确! </span>","null","","","","","","","","","","","","","","","","","","","","","","","","","feedback"
"","","","","","psychophysics","82","314085","0.0-7.1-0.1-0.34","578","","j","","","","","","","","","","","","","key","j","16.666407766990428","768","428","./1_3_Stimuli/T_ambi40.png","朋友","Word","朋友","Match","j","true","Practice"
"","","","","","html-keyboard-response","83","314397","0.0-7.1-0.1-1.34","null","<span style='color:GreenYellow; font-size: 70px;'>正确! </span>","null","","","","","","","","","","","","","","","","","","","","","","","","","feedback"
"","","","","","psychophysics","84","316058","0.0-7.1-0.1-0.35","500","","j","","","","","","","","","","","","","key","j","16.664676767676912","768","428","./1_3_Stimuli/T_ambi40.png","自我","Word","朋友","Mismatch","f","false","Practice"
"","","","","","html-keyboard-response","85","316370","0.0-7.1-0.1-1.35","null","<span style='color:red; font-size: 70px;'>错误! </span>","null","","","","","","","","","","","","","","","","","","","","","","","","","feedback"
"","","","","","psychophysics","86","318050","0.0-7.1-0.1-0.36","526","","j","","","","","","","","","","","","","key","j","16.669340000000084","768","428","./1_3_Stimuli/C_ambi40.png","自我","Image","自我","Match","j","true","Practice"
"","","","","","html-keyboard-response","87","318360","0.0-7.1-0.1-1.36","null","<span style='color:GreenYellow; font-size: 70px;'>正确! </span>","null","","","","","","","","","","","","","","","","","","","","","","","","","feedback"
"","","","","","psychophysics","88","320213","0.0-7.1-0.1-0.37","689","","j","","","","","","","","","","","","","key","j","16.666454545454524","768","428","./1_3_Stimuli/C_ambi40.png","他人","Word","自我","Mismatch","f","false","Practice"
"","","","","","html-keyboard-response","89","320523","0.0-7.1-0.1-1.37","null","<span style='color:red; font-size: 70px;'>错误! </span>","null","","","","","","","","","","","","","","","","","","","","","","","","","feedback"
"","","","","","psychophysics","90","322467","0.0-7.1-0.1-0.38","793","","f","","","","","","","","","","","","","key","f","16.66586956521749","768","428","./1_3_Stimuli/S_ambi40.png","自我","Word","他人","Mismatch","f","true","Practice"
"","","","","","html-keyboard-response","91","322768","0.0-7.1-0.1-1.38","null","<span style='color:GreenYellow; font-size: 70px;'>正确! </span>","null","","","","","","","","","","","","","","","","","","","","","","","","","feedback"
"","","","","","psychophysics","92","324815","0.0-7.1-0.1-0.39","893","","f","","","","","","","","","","","","","key","f","16.66594262295078","768","428","./1_3_Stimuli/C_ambi40.png","朋友","Word","自我","Mismatch","f","true","Practice"
"","","","","","html-keyboard-response","93","325121","0.0-7.1-0.1-1.39","null","<span style='color:GreenYellow; font-size: 70px;'>正确! </span>","null","","","","","","","","","","","","","","","","","","","","","","","","","feedback"
"","","","","","psychophysics","94","327069","0.0-7.1-0.1-0.40","798","","j","","","","","","","","","","","","","key","j","16.667405172414245","768","428","./1_3_Stimuli/C_ambi40.png","自我","Image","自我","Match","j","true","Practice"
"","","","","","html-keyboard-response","95","327383","0.0-7.1-0.1-1.40","null","<span style='color:GreenYellow; font-size: 70px;'>正确! </span>","null","","","","","","","","","","","","","","","","","","","","","","","","","feedback"
"","","","","","psychophysics","96","329353","0.0-7.1-0.1-0.41","816","","j","","","","","","","","","","","","","key","j","16.665470085469966","768","428","./1_3_Stimuli/S_ambi40.png","他人","Word","他人","Match","j","true","Practice"
"","","","","","html-keyboard-response","97","329663","0.0-7.1-0.1-1.41","null","<span style='color:GreenYellow; font-size: 70px;'>正确! </span>","null","","","","","","","","","","","","","","","","","","","","","","","","","feedback"
"","","","","","psychophysics","98","331772","0.0-7.1-0.1-0.42","948","","j","","","","","","","","","","","","","key","j","16.666743999999948","768","428","./1_3_Stimuli/S_ambi40.png","他人","Image","他人","Match","j","true","Practice"
"","","","","","html-keyboard-response","99","332088","0.0-7.1-0.1-1.42","null","<span style='color:GreenYellow; font-size: 70px;'>正确! </span>","null","","","","","","","","","","","","","","","","","","","","","","","","","feedback"
"","","","","","psychophysics","100","334151","0.0-7.1-0.1-0.43","911","","j","","","","","","","","","","","","","key","j","16.666524590163867","768","428","./1_3_Stimuli/T_ambi40.png","朋友","Image","朋友","Match","j","true","Practice"
"","","","","","html-keyboard-response","101","334453","0.0-7.1-0.1-1.43","null","<span style='color:GreenYellow; font-size: 70px;'>正确! </span>","null","","","","","","","","","","","","","","","","","","","","","","","","","feedback"
"","","","","","psychophysics","102","336184","0.0-7.1-0.1-0.44","577","","f","","","","","","","","","","","","","key","f","16.66586407767021","768","428","./1_3_Stimuli/C_ambi40.png","他人","Image","自我","Mismatch","f","true","Practice"
"","","","","","html-keyboard-response","103","336492","0.0-7.1-0.1-1.44","null","<span style='color:GreenYellow; font-size: 70px;'>正确! </span>","null","","","","","","","","","","","","","","","","","","","","","","","","","feedback"
"","","","","","psychophysics","104","338912","0.0-7.1-0.1-0.45","1267","","f","","","","","","","","","","","","","key","f","16.666736111111177","768","428","./1_3_Stimuli/S_ambi40.png","朋友","Image","他人","Mismatch","f","true","Practice"
"","","","","","html-keyboard-response","105","339216","0.0-7.1-0.1-1.45","null","<span style='color:GreenYellow; font-size: 70px;'>正确! </span>","null","","","","","","","","","","","","","","","","","","","","","","","","","feedback"
"","","","","","psychophysics","106","341419","0.0-7.1-0.1-0.46","1045","","f","","","","","","","","","","","","","key","f","16.66546564885479","768","428","./1_3_Stimuli/S_ambi40.png","朋友","Word","他人","Mismatch","f","true","Practice"
"","","","","","html-keyboard-response","107","341720","0.0-7.1-0.1-1.46","null","<span style='color:GreenYellow; font-size: 70px;'>正确! </span>","null","","","","","","","","","","","","","","","","","","","","","","","","","feedback"
"","","","","","psychophysics","108","343467","0.0-7.1-0.1-0.47","594","","f","","","","","","","","","","","","","key","f","16.66790384615384","768","428","./1_3_Stimuli/S_ambi40.png","他人","Word","他人","Match","j","false","Practice"
"","","","","","html-keyboard-response","109","343780","0.0-7.1-0.1-1.47","null","<span style='color:red; font-size: 70px;'>错误! </span>","null","","","","","","","","","","","","","","","","","","","","","","","","","feedback"
"","","","","","html-keyboard-response","110","345861","0.0-7.1-1.1-0.1","2080","<style>.context{color:white; font-size: 35px; line-height:40px}</style>                        <div><p class='context'>您正确回答了71% 的试次。</p><p class='context'>您的平均反应时为734毫秒。</p><p> <div style = 'color: green'><按空格键至下页></div></p>"," ","","","","","","","","","","","","","","","","","","","","","","","","",""
"","","","","","instructions","111","361291","0.0-7.1-1.1-1.1","15428","","","","","","","","","","","","","","[{""page_index"":0,""viewing_time"":4051},{""page_index"":1,""viewing_time"":10573},{""page_index"":2,""viewing_time"":805}]","","","","","","","","","","","","",""
"","","","","","psychophysics","112","363093","0.0-7.2-0.2-0.48","637","","j","","","","","","","","","","","","","key","j","16.665364485981474","768","428","./1_3_Stimuli/S_ambi40.png","他人","Image","他人","Match","j","true","Practice"
"","","","","","html-keyboard-response","113","363408","0.0-7.2-0.2-1.48","null","<span style='color:GreenYellow; font-size: 70px;'>正确! </span>","null","","","","","","","","","","","","","","","","","","","","","","","","","feedback"
"","","","","","psychophysics","114","365697","0.0-7.2-0.2-0.49","1124","","f","","","","","","","","","","","","","key","f","16.666772058823828","768","428","./1_3_Stimuli/T_ambi40.png","朋友","Image","朋友","Match","j","false","Practice"
"","","","","","html-keyboard-response","115","366004","0.0-7.2-0.2-1.49","null","<span style='color:red; font-size: 70px;'>错误! </span>","null","","","","","","","","","","","","","","","","","","","","","","","","","feedback"
"","","","","","psychophysics","116","367850","0.0-7.2-0.2-0.50","694","","f","","","","","","","","","","","","","key","f","16.660165137615067","768","428","./1_3_Stimuli/T_ambi40.png","自我","Word","朋友","Mismatch","f","true","Practice"
"","","","","","html-keyboard-response","117","368157","0.0-7.2-0.2-1.50","null","<span style='color:GreenYellow; font-size: 70px;'>正确! </span>","null","","","","","","","","","","","","","","","","","","","","","","","","","feedback"
"","","","","","psychophysics","118","369748","0.0-7.2-0.2-0.51","436","","j","","","","","","","","","","","","","key","j","16.66623404255308","768","428","./1_3_Stimuli/C_ambi40.png","自我","Image","自我","Match","j","true","Practice"
"","","","","","html-keyboard-response","119","370064","0.0-7.2-0.2-1.51","null","<span style='color:GreenYellow; font-size: 70px;'>正确! </span>","null","","","","","","","","","","","","","","","","","","","","","","","","","feedback"
"","","","","","psychophysics","120","371915","0.0-7.2-0.2-0.52","698","","f","","","","","","","","","","","","","key","f","16.66699999999996","768","428","./1_3_Stimuli/S_ambi40.png","自我","Image","他人","Mismatch","f","true","Practice"
"","","","","","html-keyboard-response","121","372230","0.0-7.2-0.2-1.52","null","<span style='color:GreenYellow; font-size: 70px;'>正确! </span>","null","","","","","","","","","","","","","","","","","","","","","","","","","feedback"
"","","","","","psychophysics","122","374169","0.0-7.2-0.2-0.53","784","","f","","","","","","","","","","","","","key","f","16.667565217391466","768","428","./1_3_Stimuli/T_ambi40.png","他人","Image","朋友","Mismatch","f","true","Practice"
"","","","","","html-keyboard-response","123","374478","0.0-7.2-0.2-1.53","null","<span style='color:GreenYellow; font-size: 70px;'>正确! </span>","null","","","","","","","","","","","","","","","","","","","","","","","","","feedback"
"","","","","","psychophysics","124","376193","0.0-7.2-0.2-0.54","563","","j","","","","","","","","","","","","","key","j","16.664892156862347","768","428","./1_3_Stimuli/T_ambi40.png","朋友","Word","朋友","Match","j","true","Practice"
"","","","","","html-keyboard-response","125","376502","0.0-7.2-0.2-1.54","null","<span style='color:GreenYellow; font-size: 70px;'>正确! </span>","null","","","","","","","","","","","","","","","","","","","","","","","","","feedback"
"","","","","","psychophysics","126","378149","0.0-7.2-0.2-0.55","495","","j","","","","","","","","","","","","","key","j","16.66713265306138","768","428","./1_3_Stimuli/C_ambi40.png","自我","Word","自我","Match","j","true","Practice"
"","","","","","html-keyboard-response","127","378458","0.0-7.2-0.2-1.55","null","<span style='color:GreenYellow; font-size: 70px;'>正确! </span>","null","","","","","","","","","","","","","","","","","","","","","","","","","feedback"
"","","","","","psychophysics","128","380237","0.0-7.2-0.2-0.56","625","","j","","","","","","","","","","","","","key","j","16.66558095238094","768","428","./1_3_Stimuli/S_ambi40.png","他人","Image","他人","Match","j","true","Practice"
"","","","","","html-keyboard-response","129","380545","0.0-7.2-0.2-1.56","null","<span style='color:GreenYellow; font-size: 70px;'>正确! </span>","null","","","","","","","","","","","","","","","","","","","","","","","","","feedback"
"","","","","","psychophysics","130","382292","0.0-7.2-0.2-0.57","592","","f","","","","","","","","","","","","","key","f","16.66650000000048","768","428","./1_3_Stimuli/T_ambi40.png","朋友","Word","朋友","Match","j","false","Practice"
"","","","","","html-keyboard-response","131","382602","0.0-7.2-0.2-1.57","null","<span style='color:red; font-size: 70px;'>错误! </span>","null","","","","","","","","","","","","","","","","","","","","","","","","","feedback"
"","","","","","psychophysics","132","384679","0.0-7.2-0.2-0.58","923","","f","","","","","","","","","","","","","key","f","16.66809677419341","768","428","./1_3_Stimuli/C_ambi40.png","朋友","Word","自我","Mismatch","f","true","Practice"
"","","","","","html-keyboard-response","133","384984","0.0-7.2-0.2-1.58","null","<span style='color:GreenYellow; font-size: 70px;'>正确! </span>","null","","","","","","","","","","","","","","","","","","","","","","","","","feedback"
"","","","","","psychophysics","134","386974","0.0-7.2-0.2-0.59","835","","f","","","","","","","","","","","","","key","f","16.666144067796452","768","428","./1_3_Stimuli/T_ambi40.png","自我","Image","朋友","Mismatch","f","true","Practice"
"","","","","","html-keyboard-response","135","387287","0.0-7.2-0.2-1.59","null","<span style='color:GreenYellow; font-size: 70px;'>正确! </span>","null","","","","","","","","","","","","","","","","","","","","","","","","","feedback"
"","","","","","psychophysics","136","389186","0.0-7.2-0.2-0.60","747","","f","","","","","","","","","","","","","key","f","16.65495535714269","768","428","./1_3_Stimuli/S_ambi40.png","朋友","Word","他人","Mismatch","f","true","Practice"
"","","","","","html-keyboard-response","137","389498","0.0-7.2-0.2-1.60","null","<span style='color:GreenYellow; font-size: 70px;'>正确! </span>","null","","","","","","","","","","","","","","","","","","","","","","","","","feedback"
"","","","","","psychophysics","138","391184","0.0-7.2-0.2-0.61","528","","j","","","","","","","","","","","","","key","j","16.667789999999805","768","428","./1_3_Stimuli/C_ambi40.png","自我","Image","自我","Match","j","true","Practice"
"","","","","","html-keyboard-response","139","391492","0.0-7.2-0.2-1.61","null","<span style='color:GreenYellow; font-size: 70px;'>正确! </span>","null","","","","","","","","","","","","","","","","","","","","","","","","","feedback"
"","","","","","psychophysics","140","393087","0.0-7.2-0.2-0.62","439","","j","","","","","","","","","","","","","key","j","16.665191489361607","768","428","./1_3_Stimuli/C_ambi40.png","自我","Word","自我","Match","j","true","Practice"
"","","","","","html-keyboard-response","141","393396","0.0-7.2-0.2-1.62","null","<span style='color:GreenYellow; font-size: 70px;'>正确! </span>","null","","","","","","","","","","","","","","","","","","","","","","","","","feedback"
"","","","","","psychophysics","142","395111","0.0-7.2-0.2-0.63","562","","f","","","","","","","","","","","","","key","f","16.666009803921757","768","428","./1_3_Stimuli/C_ambi40.png","朋友","Image","自我","Mismatch","f","true","Practice"
"","","","","","html-keyboard-response","143","395419","0.0-7.2-0.2-1.63","null","<span style='color:GreenYellow; font-size: 70px;'>正确! </span>","null","","","","","","","","","","","","","","","","","","","","","","","","","feedback"
"","","","","","psychophysics","144","397337","0.0-7.2-0.2-0.64","765","","f","","","","","","","","","","","","","key","f","16.66598245614053","768","428","./1_3_Stimuli/T_ambi40.png","他人","Word","朋友","Mismatch","f","true","Practice"
"","","","","","html-keyboard-response","145","397649","0.0-7.2-0.2-1.64","null","<span style='color:GreenYellow; font-size: 70px;'>正确! </span>","null","","","","","","","","","","","","","","","","","","","","","","","","","feedback"
"","","","","","psychophysics","146","399365","0.0-7.2-0.2-0.65","561","","f","","","","","","","","","","","","","key","f","16.666352941176406","768","428","./1_3_Stimuli/S_ambi40.png","自我","Word","他人","Mismatch","f","true","Practice"
"","","","","","html-keyboard-response","147","399678","0.0-7.2-0.2-1.65","null","<span style='color:GreenYellow; font-size: 70px;'>正确! </span>","null","","","","","","","","","","","","","","","","","","","","","","","","","feedback"
"","","","","","psychophysics","148","401473","0.0-7.2-0.2-0.66","634","","f","","","","","","","","","","","","","key","f","16.66724299065438","768","428","./1_3_Stimuli/C_ambi40.png","他人","Word","自我","Mismatch","f","true","Practice"
"","","","","","html-keyboard-response","149","401777","0.0-7.2-0.2-1.66","null","<span style='color:GreenYellow; font-size: 70px;'>正确! </span>","null","","","","","","","","","","","","","","","","","","","","","","","","","feedback"
"","","","","","psychophysics","150","403516","0.0-7.2-0.2-0.67","585","","f","","","","","","","","","","","","","key","f","16.666281553398417","768","428","./1_3_Stimuli/S_ambi40.png","他人","Word","他人","Match","j","false","Practice"
"","","","","","html-keyboard-response","151","403830","0.0-7.2-0.2-1.67","null","<span style='color:red; font-size: 70px;'>错误! </span>","null","","","","","","","","","","","","","","","","","","","","","","","","","feedback"
"","","","","","psychophysics","152","406427","0.0-7.2-0.2-0.68","1441","","f","","","","","","","","","","","","","key","f","16.66583225806469","768","428","./1_3_Stimuli/S_ambi40.png","朋友","Image","他人","Mismatch","f","true","Practice"
"","","","","","html-keyboard-response","153","406730","0.0-7.2-0.2-1.68","null","<span style='color:GreenYellow; font-size: 70px;'>正确! </span>","null","","","","","","","","","","","","","","","","","","","","","","","","","feedback"
"","","","","","psychophysics","154","408440","0.0-7.2-0.2-0.69","559","","f","","","","","","","","","","","","","key","f","16.66547058823555","768","428","./1_3_Stimuli/C_ambi40.png","他人","Image","自我","Mismatch","f","true","Practice"
"","","","","","html-keyboard-response","155","408756","0.0-7.2-0.2-1.69","null","<span style='color:GreenYellow; font-size: 70px;'>正确! </span>","null","","","","","","","","","","","","","","","","","","","","","","","","","feedback"
"","","","","","psychophysics","156","410628","0.0-7.2-0.2-0.70","718","","j","","","","","","","","","","","","","key","j","16.66575675675654","768","428","./1_3_Stimuli/T_ambi40.png","朋友","Image","朋友","Match","j","true","Practice"
"","","","","","html-keyboard-response","157","410936","0.0-7.2-0.2-1.70","null","<span style='color:GreenYellow; font-size: 70px;'>正确! </span>","null","","","","","","","","","","","","","","","","","","","","","","","","","feedback"
"","","","","","psychophysics","158","412937","0.0-7.2-0.2-0.71","849","","j","","","","","","","","","","","","","key","j","16.667369747898803","768","428","./1_3_Stimuli/S_ambi40.png","他人","Word","他人","Match","j","true","Practice"
"","","","","","html-keyboard-response","159","413243","0.0-7.2-0.2-1.71","null","<span style='color:GreenYellow; font-size: 70px;'>正确! </span>","null","","","","","","","","","","","","","","","","","","","","","","","","","feedback"
"","","","","","html-keyboard-response","160","511389","0.0-8.0","98146","<style>.context{color:white; font-size: 35px; line-height:40px}</style>                          <div><p class='context'>您正确回答了88% 的试次。</p><p class='context'>您的平均反应时为690毫秒。</p><p class='context'>恭喜您完成练习。现在请休息3~5分钟。</p><p class='context'>之后，按任意键进入正式实验。需要注意的是，正式实验将不再提供反应是否正确的反馈。</p><p class='footer' style='font-size: 35px; line-height:40px;'>请在进入正式实验实验之前将您的<span style='color: lightgreen;'>食指</span>放在电脑键盘的相应键位上进行按键。</p>"," ","","","","","","","","","","","","","","","","","","","","","","","","",""
"","","","","","psychophysics","161","513342","0.0-9.0-0.0-0.0","790","","f","","","","","","","","","","","","","key","f","16.66573275862099","768","428","./1_3_Stimuli/S_ambi40.png","朋友","Word","他人","Mismatch","f","true","Formal"
"","","","","","psychophysics","162","515494","0.0-9.0-0.0-0.1","997","","j","","","","","","","","","","","","","key","j","16.665117187500073","768","428","./1_3_Stimuli/T_ambi40.png","朋友","Image","朋友","Match","j","true","Formal"
"","","","","","psychophysics","163","517517","0.0-9.0-0.0-0.2","868","","f","","","","","","","","","","","","","key","f","16.666349999999998","768","428","./1_3_Stimuli/S_ambi40.png","自我","Image","他人","Mismatch","f","true","Formal"
"","","","","","psychophysics","164","519364","0.0-9.0-0.0-0.3","695","","j","","","","","","","","","","","","","key","j","16.66585454545407","768","428","./1_3_Stimuli/S_ambi40.png","他人","Image","他人","Match","j","true","Formal"
"","","","","","psychophysics","165","521000","0.0-9.0-0.0-0.4","480","","j","","","","","","","","","","","","","key","j","16.663123711339345","768","428","./1_3_Stimuli/C_ambi40.png","自我","Word","自我","Match","j","true","Formal"
"","","","","","psychophysics","166","523089","0.0-9.0-0.0-0.5","936","","f","","","","","","","","","","","","","key","f","16.66630399999954","768","428","./1_3_Stimuli/T_ambi40.png","他人","Image","朋友","Mismatch","f","true","Formal"
"","","","","","psychophysics","167","525025","0.0-9.0-0.0-0.6","772","","f","","","","","","","","","","","","","key","f","16.668147826086447","768","428","./1_3_Stimuli/C_ambi40.png","朋友","Word","自我","Mismatch","f","true","Formal"
"","","","","","psychophysics","168","526662","0.0-9.0-0.0-0.7","479","","j","","","","","","","","","","","","","key","j","16.665597938143975","768","428","./1_3_Stimuli/S_ambi40.png","他人","Word","他人","Match","j","true","Formal"
"","","","","","psychophysics","169","528352","0.0-9.0-0.0-0.8","534","","f","","","","","","","","","","","","","key","f","16.667519999999787","768","428","./1_3_Stimuli/T_ambi40.png","自我","Word","朋友","Mismatch","f","true","Formal"
"","","","","","psychophysics","170","529983","0.0-9.0-0.0-0.9","481","","f","","","","","","","","","","","","","key","f","16.665562499999698","768","428","./1_3_Stimuli/S_ambi40.png","自我","Word","他人","Mismatch","f","true","Formal"
"","","","","","psychophysics","171","531810","0.0-9.0-0.0-0.10","674","","f","","","","","","","","","","","","","key","f","16.666629629628947","768","428","./1_3_Stimuli/T_ambi40.png","自我","Image","朋友","Mismatch","f","true","Formal"
"","","","","","psychophysics","172","533679","0.0-9.0-0.0-0.11","713","","j","","","","","","","","","","","","","key","j","16.66627027027032","768","428","./1_3_Stimuli/T_ambi40.png","朋友","Image","朋友","Match","j","true","Formal"
"","","","","","psychophysics","173","535609","0.0-9.0-0.0-0.12","773","","f","","","","","","","","","","","","","key","f","16.665113043478367","768","428","./1_3_Stimuli/T_ambi40.png","他人","Word","朋友","Mismatch","f","true","Formal"
"","","","","","psychophysics","174","537401","0.0-9.0-0.0-0.13","638","","j","","","","","","","","","","","","","key","j","16.66640566037704","768","428","./1_3_Stimuli/S_ambi40.png","他人","Image","他人","Match","j","true","Formal"
"","","","","","psychophysics","175","539368","0.0-9.0-0.0-0.14","815","","f","","","","","","","","","","","","","key","f","16.667258620689672","768","428","./1_3_Stimuli/C_ambi40.png","他人","Image","自我","Mismatch","f","true","Formal"
"","","","","","psychophysics","176","541322","0.0-9.0-0.0-0.15","803","","j","","","","","","","","","","","","","key","j","16.66633620689591","768","428","./1_3_Stimuli/C_ambi40.png","自我","Image","自我","Match","j","true","Formal"
"","","","","","psychophysics","177","543083","0.0-9.0-0.0-0.16","606","","f","","","","","","","","","","","","","key","f","16.66555769230763","768","428","./1_3_Stimuli/T_ambi40.png","朋友","Word","朋友","Match","j","false","Formal"
"","","","","","psychophysics","178","544985","0.0-9.0-0.0-0.17","749","","j","","","","","","","","","","","","","key","j","16.66771681415972","768","428","./1_3_Stimuli/C_ambi40.png","自我","Word","自我","Match","j","true","Formal"
"","","","","","psychophysics","179","547042","0.0-9.0-0.0-0.18","906","","f","","","","","","","","","","","","","key","f","16.665901639344185","768","428","./1_3_Stimuli/S_ambi40.png","朋友","Image","他人","Mismatch","f","true","Formal"
"","","","","","psychophysics","180","548674","0.0-9.0-0.0-0.19","473","","j","","","","","","","","","","","","","key","j","16.667484536081716","768","428","./1_3_Stimuli/C_ambi40.png","他人","Word","自我","Mismatch","f","false","Formal"
"","","","","","psychophysics","181","550515","0.0-9.0-0.0-0.20","678","","f","","","","","","","","","","","","","key","f","16.665614678899313","768","428","./1_3_Stimuli/C_ambi40.png","朋友","Image","自我","Mismatch","f","true","Formal"
"","","","","","psychophysics","182","552833","0.0-9.0-0.0-0.21","1164","","j","","","","","","","","","","","","","key","j","16.66621739130494","768","428","./1_3_Stimuli/C_ambi40.png","自我","Image","自我","Match","j","true","Formal"
"","","","","","psychophysics","183","554961","0.0-9.0-0.0-0.22","975","","j","","","","","","","","","","","","","key","j","16.66612698412722","768","428","./1_3_Stimuli/T_ambi40.png","朋友","Word","朋友","Match","j","true","Formal"
"","","","","","psychophysics","184","556834","0.0-9.0-0.0-0.23","715","","j","","","","","","","","","","","","","key","j","16.665396396395842","768","428","./1_3_Stimuli/S_ambi40.png","他人","Word","他人","Match","j","true","Formal"
"","","","","","psychophysics","185","558876","0.0-9.0-0.0-0.24","890","","j","","","","","","","","","","","","","key","j","16.665578512396962","768","428","./1_3_Stimuli/T_ambi40.png","朋友","Word","朋友","Match","j","true","Formal"
"","","","","","psychophysics","186","560604","0.0-9.0-0.0-0.25","574","","f","","","","","","","","","","","","","key","f","16.666466019416987","768","428","./1_3_Stimuli/S_ambi40.png","自我","Word","他人","Mismatch","f","true","Formal"
"","","","","","psychophysics","187","562384","0.0-9.0-0.0-0.26","629","","j","","","","","","","","","","","","","key","j","16.666942857142672","768","428","./1_3_Stimuli/T_ambi40.png","朋友","Word","朋友","Match","j","true","Formal"
"","","","","","psychophysics","188","564231","0.0-9.0-0.0-0.27","696","","f","","","","","","","","","","","","","key","f","16.667618181818927","768","428","./1_3_Stimuli/C_ambi40.png","朋友","Word","自我","Mismatch","f","true","Formal"
"","","","","","psychophysics","189","566374","0.0-9.0-0.0-0.28","988","","f","","","","","","","","","","","","","key","f","16.665609375000713","768","428","./1_3_Stimuli/T_ambi40.png","他人","Image","朋友","Mismatch","f","true","Formal"
"","","","","","psychophysics","190","568237","0.0-9.0-0.0-0.29","708","","f","","","","","","","","","","","","","key","f","16.667198198198275","768","428","./1_3_Stimuli/T_ambi40.png","他人","Word","朋友","Mismatch","f","true","Formal"
"","","","","","psychophysics","191","569953","0.0-9.0-0.0-0.30","558","","f","","","","","","","","","","","","","key","f","16.666245098039735","768","428","./1_3_Stimuli/C_ambi40.png","他人","Image","自我","Mismatch","f","true","Formal"
"","","","","","psychophysics","192","571563","0.0-9.0-0.0-0.31","448","","j","","","","","","","","","","","","","key","j","16.666684210525922","768","428","./1_3_Stimuli/C_ambi40.png","自我","Word","自我","Match","j","true","Formal"
"","","","","","psychophysics","193","573255","0.0-9.0-0.0-0.32","537","","f","","","","","","","","","","","","","key","f","16.66570297029621","768","428","./1_3_Stimuli/C_ambi40.png","朋友","Image","自我","Mismatch","f","true","Formal"
"","","","","","psychophysics","194","575136","0.0-9.0-0.0-0.33","723","","f","","","","","","","","","","","","","key","f","16.665785714285448","768","428","./1_3_Stimuli/S_ambi40.png","自我","Image","他人","Mismatch","f","true","Formal"
"","","","","","psychophysics","195","577406","0.0-9.0-0.0-0.34","1106","","j","","","","","","","","","","","","","key","j","16.66699259259255","768","428","./1_3_Stimuli/S_ambi40.png","他人","Image","他人","Match","j","true","Formal"
"","","","","","psychophysics","196","578996","0.0-9.0-0.0-0.35","431","","j","","","","","","","","","","","","","key","j","16.667457446807678","768","428","./1_3_Stimuli/C_ambi40.png","自我","Image","自我","Match","j","true","Formal"
"","","","","","psychophysics","197","580829","0.0-9.0-0.0-0.36","677","","j","","","","","","","","","","","","","key","j","16.665302752292877","768","428","./1_3_Stimuli/S_ambi40.png","他人","Word","他人","Match","j","true","Formal"
"","","","","","psychophysics","198","582500","0.0-9.0-0.0-0.37","516","","j","","","","","","","","","","","","","key","j","16.666171717171725","768","428","./1_3_Stimuli/S_ambi40.png","他人","Image","他人","Match","j","true","Formal"
"","","","","","psychophysics","199","584351","0.0-9.0-0.0-0.38","699","","j","","","","","","","","","","","","","key","j","16.66819266055138","768","428","./1_3_Stimuli/T_ambi40.png","朋友","Image","朋友","Match","j","true","Formal"
"","","","","","psychophysics","200","585978","0.0-9.0-0.0-0.39","476","","j","","","","","","","","","","","","","key","j","16.666562500001117","768","428","./1_3_Stimuli/C_ambi40.png","自我","Image","自我","Match","j","true","Formal"
"","","","","","psychophysics","201","587664","0.0-9.0-0.0-0.40","529","","f","","","","","","","","","","","","","key","f","16.666620000000112","768","428","./1_3_Stimuli/T_ambi40.png","自我","Word","朋友","Mismatch","f","true","Formal"
"","","","","","psychophysics","202","590009","0.0-9.0-0.0-0.41","1190","","f","","","","","","","","","","","","","key","f","16.665999999999933","768","428","./1_3_Stimuli/C_ambi40.png","他人","Word","自我","Mismatch","f","true","Formal"
"","","","","","psychophysics","203","591936","0.0-9.0-0.0-0.42","775","","f","","","","","","","","","","","","","key","f","16.667034782608972","768","428","./1_3_Stimuli/S_ambi40.png","朋友","Word","他人","Mismatch","f","true","Formal"
"","","","","","psychophysics","204","593718","0.0-9.0-0.0-0.43","629","","f","","","","","","","","","","","","","key","f","16.666342857143","768","428","./1_3_Stimuli/T_ambi40.png","朋友","Image","朋友","Match","j","false","Formal"
"","","","","","psychophysics","205","595505","0.0-9.0-0.0-0.44","637","","f","","","","","","","","","","","","","key","f","16.668537735848968","768","428","./1_3_Stimuli/S_ambi40.png","朋友","Image","他人","Mismatch","f","true","Formal"
"","","","","","psychophysics","206","597071","0.0-9.0-0.0-0.45","409","","j","","","","","","","","","","","","","key","j","16.666602150538324","768","428","./1_3_Stimuli/C_ambi40.png","自我","Word","自我","Match","j","true","Formal"
"","","","","","psychophysics","207","598681","0.0-9.0-0.0-0.46","453","","j","","","","","","","","","","","","","key","j","16.66522105263154","768","428","./1_3_Stimuli/T_ambi40.png","自我","Image","朋友","Mismatch","f","false","Formal"
"","","","","","psychophysics","208","600624","0.0-9.0-0.0-0.47","789","","j","","","","","","","","","","","","","key","j","16.666508620690177","768","428","./1_3_Stimuli/S_ambi40.png","他人","Word","他人","Match","j","true","Formal"
"","","","","","psychophysics","209","602291","0.0-9.0-0.0-0.48","506","","f","","","","","","","","","","","","","key","f","16.667353535353236","768","428","./1_3_Stimuli/S_ambi40.png","自我","Word","他人","Mismatch","f","true","Formal"
"","","","","","psychophysics","210","604203","0.0-9.0-0.0-0.49","750","","f","","","","","","","","","","","","","key","f","16.665701754386088","768","428","./1_3_Stimuli/C_ambi40.png","他人","Image","自我","Mismatch","f","true","Formal"
"","","","","","psychophysics","211","606140","0.0-9.0-0.0-0.50","782","","f","","","","","","","","","","","","","key","f","16.666434782608817","768","428","./1_3_Stimuli/T_ambi40.png","他人","Image","朋友","Mismatch","f","true","Formal"
"","","","","","psychophysics","212","607715","0.0-9.0-0.0-0.51","413","","j","","","","","","","","","","","","","key","j","16.665688172042852","768","428","./1_3_Stimuli/C_ambi40.png","自我","Word","自我","Match","j","true","Formal"
"","","","","","psychophysics","213","609633","0.0-9.0-0.0-0.52","764","","j","","","","","","","","","","","","","key","j","16.66571929824555","768","428","./1_3_Stimuli/C_ambi40.png","自我","Image","自我","Match","j","true","Formal"
"","","","","","psychophysics","214","611484","0.0-9.0-0.0-0.53","700","","j","","","","","","","","","","","","","key","j","16.66728440366916","768","428","./1_3_Stimuli/S_ambi40.png","他人","Word","他人","Match","j","true","Formal"
"","","","","","psychophysics","215","613166","0.0-9.0-0.0-0.54","531","","j","","","","","","","","","","","","","key","j","16.665959595960114","768","428","./1_3_Stimuli/S_ambi40.png","他人","Image","他人","Match","j","true","Formal"
"","","","","","psychophysics","216","615103","0.0-9.0-0.0-0.55","785","","f","","","","","","","","","","","","","key","f","16.66631896551779","768","428","./1_3_Stimuli/T_ambi40.png","自我","Word","朋友","Mismatch","f","true","Formal"
"","","","","","psychophysics","217","616931","0.0-9.0-0.0-0.56","663","","f","","","","","","","","","","","","","key","f","16.666842592592324","768","428","./1_3_Stimuli/C_ambi40.png","他人","Word","自我","Mismatch","f","true","Formal"
"","","","","","psychophysics","218","618979","0.0-9.0-0.0-0.57","893","","j","","","","","","","","","","","","","key","j","16.666409836065778","768","428","./1_3_Stimuli/T_ambi40.png","朋友","Word","朋友","Match","j","true","Formal"
"","","","","","psychophysics","219","621043","0.0-9.0-0.0-0.58","908","","f","","","","","","","","","","","","","key","f","16.666886178861805","768","428","./1_3_Stimuli/T_ambi40.png","他人","Word","朋友","Mismatch","f","true","Formal"
"","","","","","psychophysics","220","622980","0.0-9.0-0.0-0.59","783","","f","","","","","","","","","","","","","key","f","16.66720869565261","768","428","./1_3_Stimuli/S_ambi40.png","自我","Image","他人","Mismatch","f","true","Formal"
"","","","","","psychophysics","221","624657","0.0-9.0-0.0-0.60","522","","f","","","","","","","","","","","","","key","f","16.666159999999216","768","428","./1_3_Stimuli/S_ambi40.png","他人","Word","他人","Match","j","false","Formal"
"","","","","","psychophysics","222","626703","0.0-9.0-0.0-0.61","885","","f","","","","","","","","","","","","","key","f","16.66728688524578","768","428","./1_3_Stimuli/T_ambi40.png","自我","Image","朋友","Mismatch","f","true","Formal"
"","","","","","psychophysics","223","628806","0.0-9.0-0.0-0.62","944","","j","","","","","","","","","","","","","key","j","16.665359999999403","768","428","./1_3_Stimuli/T_ambi40.png","朋友","Image","朋友","Match","j","true","Formal"
"","","","","","psychophysics","224","630528","0.0-9.0-0.0-0.63","568","","j","","","","","","","","","","","","","key","j","16.66575490196085","768","428","./1_3_Stimuli/T_ambi40.png","朋友","Word","朋友","Match","j","true","Formal"
"","","","","","psychophysics","225","632515","0.0-9.0-0.0-0.64","830","","j","","","","","","","","","","","","","key","j","16.66800000000019","768","428","./1_3_Stimuli/C_ambi40.png","自我","Image","自我","Match","j","true","Formal"
"","","","","","psychophysics","226","634292","0.0-9.0-0.0-0.65","623","","f","","","","","","","","","","","","","key","f","16.665552380951564","768","428","./1_3_Stimuli/C_ambi40.png","朋友","Word","自我","Mismatch","f","true","Formal"
"","","","","","psychophysics","227","636294","0.0-9.0-0.0-0.66","844","","f","","","","","","","","","","","","","key","f","16.666184873949195","768","428","./1_3_Stimuli/S_ambi40.png","朋友","Word","他人","Mismatch","f","true","Formal"
"","","","","","psychophysics","228","638176","0.0-9.0-0.0-0.67","724","","f","","","","","","","","","","","","","key","f","16.668151785714144","768","428","./1_3_Stimuli/S_ambi40.png","朋友","Image","他人","Mismatch","f","true","Formal"
"","","","","","psychophysics","229","640155","0.0-9.0-0.0-0.68","820","","j","","","","","","","","","","","","","key","j","16.666398305084826","768","428","./1_3_Stimuli/C_ambi40.png","自我","Word","自我","Match","j","true","Formal"
"","","","","","psychophysics","230","642377","0.0-9.0-0.0-0.69","1062","","j","","","","","","","","","","","","","key","j","16.666878787879163","768","428","./1_3_Stimuli/T_ambi40.png","朋友","Image","朋友","Match","j","true","Formal"
"","","","","","psychophysics","231","644144","0.0-9.0-0.0-0.70","616","","j","","","","","","","","","","","","","key","j","16.66657142857134","768","428","./1_3_Stimuli/S_ambi40.png","他人","Image","他人","Match","j","true","Formal"
"","","","","","psychophysics","232","646022","0.0-9.0-0.0-0.71","720","","f","","","","","","","","","","","","","key","f","16.668026785713405","768","428","./1_3_Stimuli/C_ambi40.png","朋友","Image","自我","Mismatch","f","true","Formal"
"","","","","","psychophysics","233","647874","0.0-9.0-0.0-0.72","690","","f","","","","","","","","","","","","","key","f","16.668018181817818","768","428","./1_3_Stimuli/T_ambi40.png","朋友","Image","朋友","Match","j","false","Formal"
"","","","","","psychophysics","234","649895","0.0-9.0-0.0-0.73","861","","f","","","","","","","","","","","","","key","f","16.6658249999998","768","428","./1_3_Stimuli/S_ambi40.png","朋友","Image","他人","Mismatch","f","true","Formal"
"","","","","","psychophysics","235","651898","0.0-9.0-0.0-0.74","850","","j","","","","","","","","","","","","","key","j","16.66692436974742","768","428","./1_3_Stimuli/T_ambi40.png","朋友","Word","朋友","Match","j","true","Formal"
"","","","","","psychophysics","236","653871","0.0-9.0-0.0-0.75","820","","f","","","","","","","","","","","","","key","f","16.666830508474465","768","428","./1_3_Stimuli/C_ambi40.png","他人","Image","自我","Mismatch","f","true","Formal"
"","","","","","psychophysics","237","655677","0.0-9.0-0.0-0.76","647","","j","","","","","","","","","","","","","key","j","16.667794392523618","768","428","./1_3_Stimuli/C_ambi40.png","自我","Image","自我","Match","j","true","Formal"
"","","","","","psychophysics","238","657429","0.0-9.0-0.0-0.77","601","","f","","","","","","","","","","","","","key","f","16.666509615383873","768","428","./1_3_Stimuli/T_ambi40.png","自我","Image","朋友","Mismatch","f","true","Formal"
"","","","","","psychophysics","239","659372","0.0-9.0-0.0-0.78","787","","j","","","","","","","","","","","","","key","j","16.66706896551728","768","428","./1_3_Stimuli/T_ambi40.png","朋友","Image","朋友","Match","j","true","Formal"
"","","","","","psychophysics","240","661284","0.0-9.0-0.0-0.79","750","","f","","","","","","","","","","","","","key","f","16.665893805310112","768","428","./1_3_Stimuli/C_ambi40.png","他人","Word","自我","Mismatch","f","true","Formal"
"","","","","","psychophysics","241","663072","0.0-9.0-0.0-0.80","637","","f","","","","","","","","","","","","","key","f","16.66640566037704","768","428","./1_3_Stimuli/T_ambi40.png","他人","Word","朋友","Mismatch","f","true","Formal"
"","","","","","psychophysics","242","664731","0.0-9.0-0.0-0.81","496","","j","","","","","","","","","","","","","key","j","16.66527551020334","768","428","./1_3_Stimuli/S_ambi40.png","他人","Word","他人","Match","j","true","Formal"
"","","","","","psychophysics","243","666333","0.0-9.0-0.0-0.82","448","","j","","","","","","","","","","","","","key","j","16.663821052631217","768","428","./1_3_Stimuli/S_ambi40.png","他人","Image","他人","Match","j","true","Formal"
"","","","","","psychophysics","244","668130","0.0-9.0-0.0-0.83","646","","j","","","","","","","","","","","","","key","j","16.666698113207943","768","428","./1_3_Stimuli/C_ambi40.png","自我","Word","自我","Match","j","true","Formal"
"","","","","","psychophysics","245","669876","0.0-9.0-0.0-0.84","592","","f","","","","","","","","","","","","","key","f","16.665134615384606","768","428","./1_3_Stimuli/C_ambi40.png","朋友","Word","自我","Mismatch","f","true","Formal"
"","","","","","psychophysics","246","671608","0.0-9.0-0.0-0.85","573","","j","","","","","","","","","","","","","key","j","16.665194174757417","768","428","./1_3_Stimuli/T_ambi40.png","自我","Word","朋友","Mismatch","f","false","Formal"
"","","","","","psychophysics","247","673280","0.0-9.0-0.0-0.86","518","","j","","","","","","","","","","","","","key","j","16.667969696969266","768","428","./1_3_Stimuli/T_ambi40.png","朋友","Word","朋友","Match","j","true","Formal"
"","","","","","psychophysics","248","675121","0.0-9.0-0.0-0.87","690","","j","","","","","","","","","","","","","key","j","16.66496363636318","768","428","./1_3_Stimuli/C_ambi40.png","朋友","Image","自我","Mismatch","f","false","Formal"
"","","","","","psychophysics","249","677023","0.0-9.0-0.0-0.88","740","","f","","","","","","","","","","","","","key","f","16.664938053097657","768","428","./1_3_Stimuli/S_ambi40.png","自我","Image","他人","Mismatch","f","true","Formal"
"","","","","","psychophysics","250","678741","0.0-9.0-0.0-0.89","562","","f","","","","","","","","","","","","","key","f","16.669333333333306","768","428","./1_3_Stimuli/S_ambi40.png","他人","Image","他人","Match","j","false","Formal"
"","","","","","psychophysics","251","680769","0.0-9.0-0.0-0.90","868","","f","","","","","","","","","","","","","key","f","16.667768595041707","768","428","./1_3_Stimuli/T_ambi40.png","他人","Image","朋友","Mismatch","f","true","Formal"
"","","","","","psychophysics","252","682429","0.0-9.0-0.0-0.91","504","","j","","","","","","","","","","","","","key","j","16.665744897959353","768","428","./1_3_Stimuli/C_ambi40.png","自我","Image","自我","Match","j","true","Formal"
"","","","","","psychophysics","253","684065","0.0-9.0-0.0-0.92","482","","j","","","","","","","","","","","","","key","j","16.666412371133944","768","428","./1_3_Stimuli/C_ambi40.png","自我","Word","自我","Match","j","true","Formal"
"","","","","","psychophysics","254","686127","0.0-9.0-0.0-0.93","910","","f","","","","","","","","","","","","","key","f","16.667024390243856","768","428","./1_3_Stimuli/S_ambi40.png","朋友","Word","他人","Mismatch","f","true","Formal"
"","","","","","psychophysics","255","687990","0.0-9.0-0.0-0.94","710","","f","","","","","","","","","","","","","key","f","16.666288288288147","768","428","./1_3_Stimuli/S_ambi40.png","自我","Word","他人","Mismatch","f","true","Formal"
"","","","","","psychophysics","256","689892","0.0-9.0-0.0-0.95","742","","j","","","","","","","","","","","","","key","j","16.667318584070856","768","428","./1_3_Stimuli/S_ambi40.png","他人","Word","他人","Match","j","true","Formal"
"","","","","","psychophysics","257","691980","0.0-9.0-0.0-0.96","936","","f","","","","","","","","","","","","","key","f","16.66658064516096","768","428","./1_3_Stimuli/T_ambi40.png","自我","Word","朋友","Mismatch","f","true","Formal"
"","","","","","psychophysics","258","694057","0.0-9.0-0.0-0.97","925","","f","","","","","","","","","","","","","key","f","16.6658225806445","768","428","./1_3_Stimuli/S_ambi40.png","朋友","Image","他人","Mismatch","f","true","Formal"
"","","","","","psychophysics","259","695659","0.0-9.0-0.0-0.98","443","","j","","","","","","","","","","","","","key","j","16.664178947369127","768","428","./1_3_Stimuli/C_ambi40.png","自我","Word","自我","Match","j","true","Formal"
"","","","","","psychophysics","260","697365","0.0-9.0-0.0-0.99","549","","f","","","","","","","","","","","","","key","f","16.665851485147833","768","428","./1_3_Stimuli/C_ambi40.png","朋友","Word","自我","Mismatch","f","true","Formal"
"","","","","","psychophysics","261","699921","0.0-9.0-0.0-0.100","1404","","j","","","","","","","","","","","","","key","j","16.665467105263623","768","428","./1_3_Stimuli/S_ambi40.png","他人","Word","他人","Match","j","true","Formal"
"","","","","","psychophysics","262","701792","0.0-9.0-0.0-0.101","712","","f","","","","","","","","","","","","","key","f","16.66620720720636","768","428","./1_3_Stimuli/T_ambi40.png","自我","Image","朋友","Mismatch","f","true","Formal"
"","","","","","psychophysics","263","703584","0.0-9.0-0.0-0.102","634","","j","","","","","","","","","","","","","key","j","16.66659813084113","768","428","./1_3_Stimuli/T_ambi40.png","朋友","Word","朋友","Match","j","true","Formal"
"","","","","","psychophysics","264","705371","0.0-9.0-0.0-0.103","632","","f","","","","","","","","","","","","","key","f","16.666981132075033","768","428","./1_3_Stimuli/S_ambi40.png","朋友","Word","他人","Mismatch","f","true","Formal"
"","","","","","psychophysics","265","707132","0.0-9.0-0.0-0.104","604","","j","","","","","","","","","","","","","key","j","16.665586538461728","768","428","./1_3_Stimuli/C_ambi40.png","自我","Word","自我","Match","j","true","Formal"
"","","","","","psychophysics","266","709090","0.0-9.0-0.0-0.105","807","","j","","","","","","","","","","","","","key","j","16.66631034482772","768","428","./1_3_Stimuli/C_ambi40.png","自我","Image","自我","Match","j","true","Formal"
"","","","","","psychophysics","267","711163","0.0-9.0-0.0-0.106","922","","f","","","","","","","","","","","","","key","f","16.66701626016217","768","428","./1_3_Stimuli/S_ambi40.png","自我","Image","他人","Mismatch","f","true","Formal"
"","","","","","psychophysics","268","713196","0.0-9.0-0.0-0.107","879","","j","","","","","","","","","","","","","key","j","16.66645833333314","768","428","./1_3_Stimuli/C_ambi40.png","他人","Image","自我","Mismatch","f","false","Formal"
"","","","","","psychophysics","269","715023","0.0-9.0-0.0-0.108","673","","j","","","","","","","","","","","","","key","j","16.666715596330462","768","428","./1_3_Stimuli/S_ambi40.png","他人","Image","他人","Match","j","true","Formal"
"","","","","","psychophysics","270","716975","0.0-9.0-0.0-0.109","797","","j","","","","","","","","","","","","","key","j","16.66845689655145","768","428","./1_3_Stimuli/S_ambi40.png","他人","Word","他人","Match","j","true","Formal"
"","","","","","psychophysics","271","718578","0.0-9.0-0.0-0.110","445","","j","","","","","","","","","","","","","key","j","16.668021052630962","768","428","./1_3_Stimuli/S_ambi40.png","他人","Image","他人","Match","j","true","Formal"
"","","","","","psychophysics","272","721032","0.0-9.0-0.0-0.111","1302","","j","","","","","","","","","","","","","key","j","16.66759589041124","768","428","./1_3_Stimuli/T_ambi40.png","朋友","Word","朋友","Match","j","true","Formal"
"","","","","","psychophysics","273","723064","0.0-9.0-0.0-0.112","881","","j","","","","","","","","","","","","","key","j","16.663850000000092","768","428","./1_3_Stimuli/C_ambi40.png","自我","Image","自我","Match","j","true","Formal"
"","","","","","psychophysics","274","724902","0.0-9.0-0.0-0.113","685","","j","","","","","","","","","","","","","key","j","16.665412844035885","768","428","./1_3_Stimuli/T_ambi40.png","朋友","Image","朋友","Match","j","true","Formal"
"","","","","","psychophysics","275","726708","0.0-9.0-0.0-0.114","642","","f","","","","","","","","","","","","","key","f","16.6675607476625","768","428","./1_3_Stimuli/S_ambi40.png","自我","Word","他人","Mismatch","f","true","Formal"
"","","","","","psychophysics","276","728606","0.0-9.0-0.0-0.115","741","","j","","","","","","","","","","","","","key","j","16.665796460176868","768","428","./1_3_Stimuli/C_ambi40.png","朋友","Image","自我","Mismatch","f","false","Formal"
"","","","","","psychophysics","277","730554","0.0-9.0-0.0-0.116","788","","f","","","","","","","","","","","","","key","f","16.6666896551725","768","428","./1_3_Stimuli/T_ambi40.png","他人","Word","朋友","Mismatch","f","true","Formal"
"","","","","","psychophysics","278","732561","0.0-9.0-0.0-0.117","848","","j","","","","","","","","","","","","","key","j","16.665529411764496","768","428","./1_3_Stimuli/T_ambi40.png","朋友","Image","朋友","Match","j","true","Formal"
"","","","","","psychophysics","279","734298","0.0-9.0-0.0-0.118","582","","f","","","","","","","","","","","","","key","f","16.666213592232964","768","428","./1_3_Stimuli/T_ambi40.png","他人","Image","朋友","Mismatch","f","true","Formal"
"","","","","","psychophysics","280","736030","0.0-9.0-0.0-0.119","581","","f","","","","","","","","","","","","","key","f","16.66810784313723","768","428","./1_3_Stimuli/C_ambi40.png","他人","Word","自我","Mismatch","f","true","Formal"
"","","","","","html-keyboard-response","281","741265","0.0-9.0-1.0","5234","<style>.context{color:white; font-size: 35px; line-height:40px}</style>                        <div><p class='context'>您正确回答了91% 的试次。</p><p class='context'>您的平均反应时为726毫秒。</p><p> <div style = 'color: green'><按任意键进入休息></div></p>"," ","","","","","","","","","","","","","","","","","","","","","","","","",""
"","","","","","html-button-response","282","803634","0.0-9.0-2.0","62365","
                  <p>您当前还剩余5组实验</p>
                  <p>现在是休息时间，当您结束休息后，您可以点击 结束休息 按钮 继续</p>
                  <p>建议休息时间还剩余<span id=""iii"">60</span>秒</p>","0","","","","","","","","","","","","","","","","","","","","","","","","",""
"","","","","","psychophysics","283","805660","0.0-9.0-0.1-0.120","865","","f","","","","","","","","","","","","","key","f","16.667316666666498","768","428","./1_3_Stimuli/C_ambi40.png","他人","Image","自我","Mismatch","f","true","Formal"
"","","","","","psychophysics","284","807337","0.0-9.0-0.1-0.121","521","","j","","","","","","","","","","","","","key","j","16.667669999999926","768","428","./1_3_Stimuli/C_ambi40.png","自我","Image","自我","Match","j","true","Formal"
"","","","","","psychophysics","285","809122","0.0-9.0-0.1-0.122","627","","j","","","","","","","","","","","","","key","j","16.665396226415155","768","428","./1_3_Stimuli/T_ambi40.png","朋友","Image","朋友","Match","j","true","Formal"
"","","","","","psychophysics","286","810864","0.0-9.0-0.1-0.123","587","","f","","","","","","","","","","","","","key","f","16.66771844660217","768","428","./1_3_Stimuli/T_ambi40.png","自我","Image","朋友","Mismatch","f","true","Formal"
"","","","","","psychophysics","287","812887","0.0-9.0-0.1-0.124","872","","f","","","","","","","","","","","","","key","f","16.666908333333172","768","428","./1_3_Stimuli/C_ambi40.png","朋友","Image","自我","Mismatch","f","true","Formal"
"","","","","","psychophysics","288","814624","0.0-9.0-0.1-0.125","585","","f","","","","","","","","","","","","","key","f","16.666815533980873","768","428","./1_3_Stimuli/S_ambi40.png","朋友","Image","他人","Mismatch","f","true","Formal"
"","","","","","psychophysics","289","816571","0.0-9.0-0.1-0.126","795","","j","","","","","","","","","","","","","key","j","16.664862068966112","768","428","./1_3_Stimuli/S_ambi40.png","他人","Image","他人","Match","j","true","Formal"
"","","","","","psychophysics","290","818212","0.0-9.0-0.1-0.127","488","","j","","","","","","","","","","","","","key","j","16.66705154639203","768","428","./1_3_Stimuli/C_ambi40.png","自我","Word","自我","Match","j","true","Formal"
"","","","","","psychophysics","291","819870","0.0-9.0-0.1-0.128","504","","j","","","","","","","","","","","","","key","j","16.666418367347024","768","428","./1_3_Stimuli/C_ambi40.png","自我","Image","自我","Match","j","true","Formal"
"","","","","","psychophysics","292","821803","0.0-9.0-0.1-0.129","776","","j","","","","","","","","","","","","","key","j","16.66484347826032","768","428","./1_3_Stimuli/S_ambi40.png","他人","Image","他人","Match","j","true","Formal"
"","","","","","psychophysics","293","823368","0.0-9.0-0.1-0.130","406","","j","","","","","","","","","","","","","key","j","16.66706451612915","768","428","./1_3_Stimuli/T_ambi40.png","朋友","Word","朋友","Match","j","true","Formal"
"","","","","","psychophysics","294","825155","0.0-9.0-0.1-0.131","633","","f","","","","","","","","","","","","","key","f","16.66460377358467","768","428","./1_3_Stimuli/C_ambi40.png","他人","Word","自我","Mismatch","f","true","Formal"
"","","","","","psychophysics","295","827047","0.0-9.0-0.1-0.132","732","","j","","","","","","","","","","","","","key","j","16.66560714285671","768","428","./1_3_Stimuli/S_ambi40.png","他人","Word","他人","Match","j","true","Formal"
"","","","","","psychophysics","296","829104","0.0-9.0-0.1-0.133","905","","f","","","","","","","","","","","","","key","f","16.66757377049195","768","428","./1_3_Stimuli/S_ambi40.png","朋友","Word","他人","Mismatch","f","true","Formal"
"","","","","","psychophysics","297","831061","0.0-9.0-0.1-0.134","804","","j","","","","","","","","","","","","","key","j","16.668224137930746","768","428","./1_3_Stimuli/T_ambi40.png","他人","Word","朋友","Mismatch","f","false","Formal"
"","","","","","psychophysics","298","832747","0.0-9.0-0.1-0.135","532","","j","","","","","","","","","","","","","key","j","16.666770000000252","768","428","./1_3_Stimuli/C_ambi40.png","自我","Word","自我","Match","j","true","Formal"
"","","","","","psychophysics","299","834409","0.0-9.0-0.1-0.136","510","","f","","","","","","","","","","","","","key","f","16.667489795918264","768","428","./1_3_Stimuli/T_ambi40.png","自我","Word","朋友","Mismatch","f","true","Formal"
"","","","","","psychophysics","300","836431","0.0-9.0-0.1-0.137","868","","f","","","","","","","","","","","","","key","f","16.665429752066053","768","428","./1_3_Stimuli/T_ambi40.png","他人","Image","朋友","Mismatch","f","true","Formal"
"","","","","","psychophysics","301","838104","0.0-9.0-0.1-0.138","522","","j","","","","","","","","","","","","","key","j","16.666292929292815","768","428","./1_3_Stimuli/S_ambi40.png","他人","Word","他人","Match","j","true","Formal"
"","","","","","psychophysics","302","839871","0.0-9.0-0.1-0.139","615","","f","","","","","","","","","","","","","key","f","16.666342857143","768","428","./1_3_Stimuli/C_ambi40.png","朋友","Word","自我","Mismatch","f","true","Formal"
"","","","","","psychophysics","303","841797","0.0-9.0-0.1-0.140","766","","j","","","","","","","","","","","","","key","j","16.665421052631643","768","428","./1_3_Stimuli/T_ambi40.png","朋友","Image","朋友","Match","j","true","Formal"
"","","","","","psychophysics","304","843749","0.0-9.0-0.1-0.141","801","","f","","","","","","","","","","","","","key","f","16.66762068965432","768","428","./1_3_Stimuli/S_ambi40.png","自我","Word","他人","Mismatch","f","true","Formal"
"","","","","","psychophysics","305","845858","0.0-9.0-0.1-0.142","944","","f","","","","","","","","","","","","","key","f","16.6673200000003","768","428","./1_3_Stimuli/S_ambi40.png","自我","Image","他人","Mismatch","f","true","Formal"
"","","","","","psychophysics","306","847700","0.0-9.0-0.1-0.143","685","","j","","","","","","","","","","","","","key","j","16.666954545454463","768","428","./1_3_Stimuli/T_ambi40.png","朋友","Word","朋友","Match","j","true","Formal"
"","","","","","psychophysics","307","849702","0.0-9.0-0.1-0.144","845","","f","","","","","","","","","","","","","key","f","16.66684873949564","768","428","./1_3_Stimuli/C_ambi40.png","他人","Image","自我","Mismatch","f","true","Formal"
"","","","","","psychophysics","308","851419","0.0-9.0-0.1-0.145","564","","f","","","","","","","","","","","","","key","f","16.666186274509812","768","428","./1_3_Stimuli/S_ambi40.png","他人","Word","他人","Match","j","false","Formal"
"","","","","","psychophysics","309","853186","0.0-9.0-0.1-0.146","604","","f","","","","","","","","","","","","","key","f","16.66769523809531","768","428","./1_3_Stimuli/S_ambi40.png","自我","Image","他人","Mismatch","f","true","Formal"
"","","","","","psychophysics","310","854868","0.0-9.0-0.1-0.147","524","","j","","","","","","","","","","","","","key","j","16.667430000000167","768","428","./1_3_Stimuli/T_ambi40.png","朋友","Word","朋友","Match","j","true","Formal"
"","","","","","psychophysics","311","856609","0.0-9.0-0.1-0.148","588","","f","","","","","","","","","","","","","key","f","16.667825242719225","768","428","./1_3_Stimuli/C_ambi40.png","朋友","Word","自我","Mismatch","f","true","Formal"
"","","","","","psychophysics","312","858502","0.0-9.0-0.1-0.149","738","","f","","","","","","","","","","","","","key","f","16.66587610619526","768","428","./1_3_Stimuli/C_ambi40.png","他人","Word","自我","Mismatch","f","true","Formal"
"","","","","","psychophysics","313","860503","0.0-9.0-0.1-0.150","839","","j","","","","","","","","","","","","","key","j","16.663991596638773","768","428","./1_3_Stimuli/C_ambi40.png","自我","Word","自我","Match","j","true","Formal"
"","","","","","psychophysics","314","862526","0.0-9.0-0.1-0.151","868","","j","","","","","","","","","","","","","key","j","16.66901666666672","768","428","./1_3_Stimuli/S_ambi40.png","他人","Image","他人","Match","j","true","Formal"
"","","","","","psychophysics","315","864222","0.0-9.0-0.1-0.152","542","","f","","","","","","","","","","","","","key","f","16.668891089108524","768","428","./1_3_Stimuli/S_ambi40.png","自我","Word","他人","Mismatch","f","true","Formal"
"","","","","","psychophysics","316","866039","0.0-9.0-0.1-0.153","659","","f","","","","","","","","","","","","","key","f","16.665833333333634","768","428","./1_3_Stimuli/T_ambi40.png","自我","Word","朋友","Mismatch","f","true","Formal"
"","","","","","psychophysics","317","867972","0.0-9.0-0.1-0.154","779","","j","","","","","","","","","","","","","key","j","16.666800000000258","768","428","./1_3_Stimuli/T_ambi40.png","朋友","Word","朋友","Match","j","true","Formal"
"","","","","","psychophysics","318","869669","0.0-9.0-0.1-0.155","539","","f","","","","","","","","","","","","","key","f","16.669267326732868","768","428","./1_3_Stimuli/T_ambi40.png","他人","Word","朋友","Mismatch","f","true","Formal"
"","","","","","psychophysics","319","871625","0.0-9.0-0.1-0.156","797","","f","","","","","","","","","","","","","key","f","16.668844827586295","768","428","./1_3_Stimuli/S_ambi40.png","朋友","Image","他人","Mismatch","f","true","Formal"
"","","","","","psychophysics","320","873448","0.0-9.0-0.1-0.157","667","","f","","","","","","","","","","","","","key","f","16.665853211008987","768","428","./1_3_Stimuli/C_ambi40.png","朋友","Image","自我","Mismatch","f","true","Formal"
"","","","","","psychophysics","321","875480","0.0-9.0-0.1-0.158","879","","f","","","","","","","","","","","","","key","f","16.66664999999921","768","428","./1_3_Stimuli/T_ambi40.png","他人","Image","朋友","Mismatch","f","true","Formal"
"","","","","","psychophysics","322","877060","0.0-9.0-0.1-0.159","430","","j","","","","","","","","","","","","","key","j","16.666096774192766","768","428","./1_3_Stimuli/S_ambi40.png","他人","Image","他人","Match","j","true","Formal"
"","","","","","psychophysics","323","878762","0.0-9.0-0.1-0.160","548","","f","","","","","","","","","","","","","key","f","16.6659405940595","768","428","./1_3_Stimuli/T_ambi40.png","自我","Image","朋友","Mismatch","f","true","Formal"
"","","","","","psychophysics","324","880620","0.0-9.0-0.1-0.161","707","","j","","","","","","","","","","","","","key","j","16.66875454545423","768","428","./1_3_Stimuli/S_ambi40.png","他人","Word","他人","Match","j","true","Formal"
"","","","","","psychophysics","325","882221","0.0-9.0-0.1-0.162","440","","j","","","","","","","","","","","","","key","j","16.666484210526228","768","428","./1_3_Stimuli/C_ambi40.png","自我","Word","自我","Match","j","true","Formal"
"","","","","","psychophysics","326","883892","0.0-9.0-0.1-0.163","512","","f","","","","","","","","","","","","","key","f","16.66643434343389","768","428","./1_3_Stimuli/S_ambi40.png","朋友","Word","他人","Mismatch","f","true","Formal"
"","","","","","psychophysics","327","885534","0.0-9.0-0.1-0.164","488","","j","","","","","","","","","","","","","key","j","16.667244897959325","768","428","./1_3_Stimuli/C_ambi40.png","自我","Image","自我","Match","j","true","Formal"
"","","","","","psychophysics","328","887239","0.0-9.0-0.1-0.165","542","","j","","","","","","","","","","","","","key","j","16.66620792079219","768","428","./1_3_Stimuli/C_ambi40.png","自我","Image","自我","Match","j","true","Formal"
"","","","","","psychophysics","329","889062","0.0-9.0-0.1-0.166","666","","j","","","","","","","","","","","","","key","j","16.667435185185038","768","428","./1_3_Stimuli/T_ambi40.png","朋友","Image","朋友","Match","j","true","Formal"
"","","","","","psychophysics","330","890693","0.0-9.0-0.1-0.167","480","","j","","","","","","","","","","","","","key","j","16.666020833332976","768","428","./1_3_Stimuli/T_ambi40.png","朋友","Image","朋友","Match","j","true","Formal"
"","","","","","psychophysics","331","892419","0.0-9.0-0.1-0.168","572","","j","","","","","","","","","","","","","key","j","16.668650485437308","768","428","./1_3_Stimuli/S_ambi40.png","他人","Image","他人","Match","j","true","Formal"
"","","","","","psychophysics","332","894095","0.0-9.0-0.1-0.169","515","","j","","","","","","","","","","","","","key","j","16.6666363636361","768","428","./1_3_Stimuli/C_ambi40.png","自我","Word","自我","Match","j","true","Formal"
"","","","","","psychophysics","333","895746","0.0-9.0-0.1-0.170","499","","j","","","","","","","","","","","","","key","j","16.66514432989781","768","428","./1_3_Stimuli/C_ambi40.png","自我","Image","自我","Match","j","true","Formal"
"","","","","","psychophysics","334","897383","0.0-9.0-0.1-0.171","486","","f","","","","","","","","","","","","","key","f","16.666505154639903","768","428","./1_3_Stimuli/S_ambi40.png","自我","Word","他人","Mismatch","f","true","Formal"
"","","","","","psychophysics","335","899057","0.0-9.0-0.1-0.172","521","","j","","","","","","","","","","","","","key","j","16.66590909090956","768","428","./1_3_Stimuli/T_ambi40.png","自我","Image","朋友","Mismatch","f","false","Formal"
"","","","","","psychophysics","336","900868","0.0-9.0-0.1-0.173","654","","f","","","","","","","","","","","","","key","f","16.666703703704385","768","428","./1_3_Stimuli/S_ambi40.png","朋友","Image","他人","Mismatch","f","true","Formal"
"","","","","","psychophysics","337","902985","0.0-9.0-0.1-0.174","960","","f","","","","","","","","","","","","","key","f","16.666968253967795","768","428","./1_3_Stimuli/T_ambi40.png","他人","Image","朋友","Mismatch","f","true","Formal"
"","","","","","psychophysics","338","904670","0.0-9.0-0.1-0.175","531","","f","","","","","","","","","","","","","key","f","16.666199999999954","768","428","./1_3_Stimuli/C_ambi40.png","他人","Image","自我","Mismatch","f","true","Formal"
"","","","","","psychophysics","339","906397","0.0-9.0-0.1-0.176","567","","j","","","","","","","","","","","","","key","j","16.663252427183924","768","428","./1_3_Stimuli/S_ambi40.png","他人","Word","他人","Match","j","true","Formal"
"","","","","","psychophysics","340","908060","0.0-9.0-0.1-0.177","505","","j","","","","","","","","","","","","","key","j","16.667387755101842","768","428","./1_3_Stimuli/S_ambi40.png","他人","Word","他人","Match","j","true","Formal"
"","","","","","psychophysics","341","909845","0.0-9.0-0.1-0.178","632","","f","","","","","","","","","","","","","key","f","16.665481132075172","768","428","./1_3_Stimuli/T_ambi40.png","自我","Word","朋友","Mismatch","f","true","Formal"
"","","","","","psychophysics","342","911788","0.0-9.0-0.1-0.179","792","","f","","","","","","","","","","","","","key","f","16.666156521739197","768","428","./1_3_Stimuli/S_ambi40.png","自我","Image","他人","Mismatch","f","true","Formal"
"","","","","","psychophysics","343","913485","0.0-9.0-0.1-0.180","538","","j","","","","","","","","","","","","","key","j","16.66775247524838","768","428","./1_3_Stimuli/C_ambi40.png","自我","Word","自我","Match","j","true","Formal"
"","","","","","psychophysics","344","915637","0.0-9.0-0.1-0.181","999","","f","","","","","","","","","","","","","key","f","16.667710937499578","768","428","./1_3_Stimuli/T_ambi40.png","他人","Word","朋友","Mismatch","f","true","Formal"
"","","","","","psychophysics","345","917474","0.0-9.0-0.1-0.182","679","","j","","","","","","","","","","","","","key","j","16.66556880733964","768","428","./1_3_Stimuli/S_ambi40.png","他人","Image","他人","Match","j","true","Formal"
"","","","","","psychophysics","346","919418","0.0-9.0-0.1-0.183","788","","f","","","","","","","","","","","","","key","f","16.66613793103446","768","428","./1_3_Stimuli/C_ambi40.png","朋友","Image","自我","Mismatch","f","true","Formal"
"","","","","","psychophysics","347","921793","0.0-9.0-0.1-0.184","1223","","f","","","","","","","","","","","","","key","f","16.666085106382603","768","428","./1_3_Stimuli/T_ambi40.png","朋友","Word","朋友","Match","j","false","Formal"
"","","","","","psychophysics","348","923564","0.0-9.0-0.1-0.185","618","","j","","","","","","","","","","","","","key","j","16.666076190475863","768","428","./1_3_Stimuli/T_ambi40.png","朋友","Image","朋友","Match","j","true","Formal"
"","","","","","psychophysics","349","925224","0.0-9.0-0.1-0.186","499","","f","","","","","","","","","","","","","key","f","16.667081632652575","768","428","./1_3_Stimuli/C_ambi40.png","他人","Word","自我","Mismatch","f","true","Formal"
"","","","","","psychophysics","350","927041","0.0-9.0-0.1-0.187","662","","f","","","","","","","","","","","","","key","f","16.666064814814256","768","428","./1_3_Stimuli/C_ambi40.png","朋友","Word","自我","Mismatch","f","true","Formal"
"","","","","","psychophysics","351","928672","0.0-9.0-0.1-0.188","477","","j","","","","","","","","","","","","","key","j","16.66615463917494","768","428","./1_3_Stimuli/C_ambi40.png","自我","Image","自我","Match","j","true","Formal"
"","","","","","psychophysics","352","930810","0.0-9.0-0.1-0.189","981","","j","","","","","","","","","","","","","key","j","16.667472440944653","768","428","./1_3_Stimuli/T_ambi40.png","朋友","Image","朋友","Match","j","true","Formal"
"","","","","","psychophysics","353","932392","0.0-9.0-0.1-0.190","429","","j","","","","","","","","","","","","","key","j","16.666138297872013","768","428","./1_3_Stimuli/T_ambi40.png","朋友","Word","朋友","Match","j","true","Formal"
"","","","","","psychophysics","354","934073","0.0-9.0-0.1-0.191","530","","f","","","","","","","","","","","","","key","f","16.66544444444519","768","428","./1_3_Stimuli/S_ambi40.png","朋友","Word","他人","Mismatch","f","true","Formal"
"","","","","","psychophysics","355","935917","0.0-9.0-0.1-0.192","691","","j","","","","","","","","","","","","","key","j","16.667172727272423","768","428","./1_3_Stimuli/S_ambi40.png","他人","Image","他人","Match","j","true","Formal"
"","","","","","psychophysics","356","937548","0.0-9.0-0.1-0.193","469","","f","","","","","","","","","","","","","key","f","16.66611340206198","768","428","./1_3_Stimuli/T_ambi40.png","自我","Word","朋友","Mismatch","f","true","Formal"
"","","","","","psychophysics","357","939485","0.0-9.0-0.1-0.194","784","","f","","","","","","","","","","","","","key","f","16.666034782609053","768","428","./1_3_Stimuli/C_ambi40.png","他人","Image","自我","Mismatch","f","true","Formal"
"","","","","","psychophysics","358","941442","0.0-9.0-0.1-0.195","796","","f","","","","","","","","","","","","","key","f","16.66513793103413","768","428","./1_3_Stimuli/C_ambi40.png","朋友","Word","自我","Mismatch","f","true","Formal"
"","","","","","psychophysics","359","943405","0.0-9.0-0.1-0.196","809","","j","","","","","","","","","","","","","key","j","16.66727350427347","768","428","./1_3_Stimuli/T_ambi40.png","朋友","Image","朋友","Match","j","true","Formal"
"","","","","","psychophysics","360","945168","0.0-9.0-0.1-0.197","606","","j","","","","","","","","","","","","","key","j","16.666209523809986","768","428","./1_3_Stimuli/C_ambi40.png","自我","Word","自我","Match","j","true","Formal"
"","","","","","psychophysics","361","947560","0.0-9.0-0.1-0.198","1238","","f","","","","","","","","","","","","","key","f","16.667683098591457","768","428","./1_3_Stimuli/S_ambi40.png","朋友","Image","他人","Mismatch","f","true","Formal"
"","","","","","psychophysics","362","949714","0.0-9.0-0.1-0.199","1001","","f","","","","","","","","","","","","","key","f","16.667488372093246","768","428","./1_3_Stimuli/C_ambi40.png","朋友","Image","自我","Mismatch","f","true","Formal"
"","","","","","psychophysics","363","951588","0.0-9.0-0.1-0.200","710","","j","","","","","","","","","","","","","key","j","16.6670000000001","768","428","./1_3_Stimuli/S_ambi40.png","他人","Word","他人","Match","j","true","Formal"
"","","","","","psychophysics","364","953318","0.0-9.0-0.1-0.201","573","","f","","","","","","","","","","","","","key","f","16.66570873786379","768","428","./1_3_Stimuli/S_ambi40.png","朋友","Word","他人","Mismatch","f","true","Formal"
"","","","","","psychophysics","365","954970","0.0-9.0-0.1-0.202","501","","j","","","","","","","","","","","","","key","j","16.66612244897869","768","428","./1_3_Stimuli/C_ambi40.png","自我","Word","自我","Match","j","true","Formal"
"","","","","","psychophysics","366","956947","0.0-9.0-0.1-0.203","819","","j","","","","","","","","","","","","","key","j","16.666779661017383","768","428","./1_3_Stimuli/S_ambi40.png","他人","Word","他人","Match","j","true","Formal"
"","","","","","psychophysics","367","959476","0.0-9.0-0.1-0.204","1368","","f","","","","","","","","","","","","","key","f","16.66676666666676","768","428","./1_3_Stimuli/T_ambi40.png","自我","Image","朋友","Mismatch","f","true","Formal"
"","","","","","psychophysics","368","961190","0.0-9.0-0.1-0.205","561","","j","","","","","","","","","","","","","key","j","16.666558823529996","768","428","./1_3_Stimuli/S_ambi40.png","他人","Image","他人","Match","j","true","Formal"
"","","","","","psychophysics","369","963187","0.0-9.0-0.1-0.206","841","","f","","","","","","","","","","","","","key","f","16.6649999999991","768","428","./1_3_Stimuli/T_ambi40.png","他人","Image","朋友","Mismatch","f","true","Formal"
"","","","","","psychophysics","370","964928","0.0-9.0-0.1-0.207","582","","j","","","","","","","","","","","","","key","j","16.665902912621252","768","428","./1_3_Stimuli/C_ambi40.png","自我","Image","自我","Match","j","true","Formal"
"","","","","","psychophysics","371","966780","0.0-9.0-0.1-0.208","702","","f","","","","","","","","","","","","","key","f","16.664927272727205","768","428","./1_3_Stimuli/T_ambi40.png","朋友","Word","朋友","Match","j","false","Formal"
"","","","","","psychophysics","372","968608","0.0-9.0-0.1-0.209","668","","f","","","","","","","","","","","","","key","f","16.66549074074094","768","428","./1_3_Stimuli/C_ambi40.png","他人","Word","自我","Mismatch","f","true","Formal"
"","","","","","psychophysics","373","970268","0.0-9.0-0.1-0.210","507","","j","","","","","","","","","","","","","key","j","16.670737373736696","768","428","./1_3_Stimuli/C_ambi40.png","自我","Image","自我","Match","j","true","Formal"
"","","","","","psychophysics","374","972050","0.0-9.0-0.1-0.211","628","","f","","","","","","","","","","","","","key","f","16.665547169811962","768","428","./1_3_Stimuli/T_ambi40.png","他人","Word","朋友","Mismatch","f","true","Formal"
"","","","","","psychophysics","375","974053","0.0-9.0-0.1-0.212","842","","f","","","","","","","","","","","","","key","f","16.66674789915961","768","428","./1_3_Stimuli/S_ambi40.png","自我","Image","他人","Mismatch","f","true","Formal"
"","","","","","psychophysics","376","976021","0.0-9.0-0.1-0.213","811","","j","","","","","","","","","","","","","key","j","16.666282051281694","768","428","./1_3_Stimuli/T_ambi40.png","朋友","Image","朋友","Match","j","true","Formal"
"","","","","","psychophysics","377","977822","0.0-9.0-0.1-0.214","645","","f","","","","","","","","","","","","","key","f","16.667457943924738","768","428","./1_3_Stimuli/S_ambi40.png","自我","Word","他人","Mismatch","f","true","Formal"
"","","","","","psychophysics","378","979882","0.0-9.0-0.1-0.215","903","","j","","","","","","","","","","","","","key","j","16.666357723577704","768","428","./1_3_Stimuli/T_ambi40.png","朋友","Word","朋友","Match","j","true","Formal"
"","","","","","psychophysics","379","981628","0.0-9.0-0.1-0.216","593","","f","","","","","","","","","","","","","key","f","16.66387499999949","768","428","./1_3_Stimuli/T_ambi40.png","他人","Image","朋友","Mismatch","f","true","Formal"
"","","","","","psychophysics","380","983516","0.0-9.0-0.1-0.217","735","","j","","","","","","","","","","","","","key","j","16.66692857142854","768","428","./1_3_Stimuli/S_ambi40.png","他人","Image","他人","Match","j","true","Formal"
"","","","","","psychophysics","381","985739","0.0-9.0-0.1-0.218","1060","","f","","","","","","","","","","","","","key","f","16.66584848484843","768","428","./1_3_Stimuli/T_ambi40.png","自我","Word","朋友","Mismatch","f","true","Formal"
"","","","","","psychophysics","382","987481","0.0-9.0-0.1-0.219","587","","f","","","","","","","","","","","","","key","f","16.66699038461509","768","428","./1_3_Stimuli/S_ambi40.png","自我","Image","他人","Mismatch","f","true","Formal"
"","","","","","psychophysics","383","989293","0.0-9.0-0.1-0.220","649","","f","","","","","","","","","","","","","key","f","16.66606542056048","768","428","./1_3_Stimuli/S_ambi40.png","自我","Word","他人","Mismatch","f","true","Formal"
"","","","","","psychophysics","384","991105","0.0-9.0-0.1-0.221","659","","j","","","","","","","","","","","","","key","j","16.664775700935067","768","428","./1_3_Stimuli/T_ambi40.png","朋友","Image","朋友","Match","j","true","Formal"
"","","","","","psychophysics","385","992978","0.0-9.0-0.1-0.222","721","","j","","","","","","","","","","","","","key","j","16.670396396396303","768","428","./1_3_Stimuli/S_ambi40.png","他人","Word","他人","Match","j","true","Formal"
"","","","","","psychophysics","386","994630","0.0-9.0-0.1-0.223","501","","j","","","","","","","","","","","","","key","j","16.66510204081566","768","428","./1_3_Stimuli/S_ambi40.png","他人","Word","他人","Match","j","true","Formal"
"","","","","","psychophysics","387","996340","0.0-9.0-0.1-0.224","552","","f","","","","","","","","","","","","","key","f","16.668346534653722","768","428","./1_3_Stimuli/T_ambi40.png","他人","Word","朋友","Mismatch","f","true","Formal"
"","","","","","psychophysics","388","998207","0.0-9.0-0.1-0.225","712","","f","","","","","","","","","","","","","key","f","16.667261261262233","768","428","./1_3_Stimuli/C_ambi40.png","朋友","Image","自我","Mismatch","f","true","Formal"
"","","","","","psychophysics","389","999994","0.0-9.0-0.1-0.226","634","","f","","","","","","","","","","","","","key","f","16.667443396227064","768","428","./1_3_Stimuli/C_ambi40.png","他人","Image","自我","Mismatch","f","true","Formal"
"","","","","","psychophysics","390","1001782","0.0-9.0-0.1-0.227","637","","j","","","","","","","","","","","","","key","j","16.66627358490566","768","428","./1_3_Stimuli/T_ambi40.png","朋友","Image","朋友","Match","j","true","Formal"
"","","","","","psychophysics","391","1003430","0.0-9.0-0.1-0.228","494","","j","","","","","","","","","","","","","key","j","16.665561224489558","768","428","./1_3_Stimuli/C_ambi40.png","自我","Word","自我","Match","j","true","Formal"
"","","","","","psychophysics","392","1005235","0.0-9.0-0.1-0.229","648","","f","","","","","","","","","","","","","key","f","16.66548598130782","768","428","./1_3_Stimuli/C_ambi40.png","朋友","Word","自我","Mismatch","f","true","Formal"
"","","","","","psychophysics","393","1007327","0.0-9.0-0.1-0.230","942","","f","","","","","","","","","","","","","key","f","16.667072580645666","768","428","./1_3_Stimuli/S_ambi40.png","朋友","Image","他人","Mismatch","f","true","Formal"
"","","","","","psychophysics","394","1009101","0.0-9.0-0.1-0.231","623","","f","","","","","","","","","","","","","key","f","16.66675238095202","768","428","./1_3_Stimuli/T_ambi40.png","自我","Image","朋友","Mismatch","f","true","Formal"
"","","","","","psychophysics","395","1010832","0.0-9.0-0.1-0.232","570","","j","","","","","","","","","","","","","key","j","16.665553398058496","768","428","./1_3_Stimuli/C_ambi40.png","自我","Image","自我","Match","j","true","Formal"
"","","","","","psychophysics","396","1012609","0.0-9.0-0.1-0.233","617","","f","","","","","","","","","","","","","key","f","16.667076190475687","768","428","./1_3_Stimuli/C_ambi40.png","自我","Image","自我","Match","j","false","Formal"
"","","","","","psychophysics","397","1014366","0.0-9.0-0.1-0.234","604","","f","","","","","","","","","","","","","key","f","16.66792380952476","768","428","./1_3_Stimuli/S_ambi40.png","朋友","Word","他人","Mismatch","f","true","Formal"
"","","","","","psychophysics","398","1016052","0.0-9.0-0.1-0.235","527","","f","","","","","","","","","","","","","key","f","16.66508000000031","768","428","./1_3_Stimuli/C_ambi40.png","他人","Word","自我","Mismatch","f","true","Formal"
"","","","","","psychophysics","399","1017866","0.0-9.0-0.1-0.236","663","","j","","","","","","","","","","","","","key","j","16.66435185185185","768","428","./1_3_Stimuli/T_ambi40.png","朋友","Word","朋友","Match","j","true","Formal"
"","","","","","psychophysics","400","1019440","0.0-9.0-0.1-0.237","416","","j","","","","","","","","","","","","","key","j","16.666043010753107","768","428","./1_3_Stimuli/T_ambi40.png","朋友","Word","朋友","Match","j","true","Formal"
"","","","","","psychophysics","401","1021252","0.0-9.0-0.1-0.238","656","","j","","","","","","","","","","","","","key","j","16.66657407407399","768","428","./1_3_Stimuli/S_ambi40.png","他人","Image","他人","Match","j","true","Formal"
"","","","","","psychophysics","402","1022698","0.0-9.0-0.1-0.239","286","","j","","","","","","","","","","","","","key","j","16.664325581395154","768","428","./1_3_Stimuli/C_ambi40.png","自我","Word","自我","Match","j","true","Formal"
"","","","","","html-keyboard-response","403","1025427","0.0-9.0-1.1","2727","<style>.context{color:white; font-size: 35px; line-height:40px}</style>                        <div><p class='context'>您正确回答了95% 的试次。</p><p class='context'>您的平均反应时为666毫秒。</p><p> <div style = 'color: green'><按任意键进入休息></div></p>"," ","","","","","","","","","","","","","","","","","","","","","","","","",""
"","","","","","html-button-response","404","1098814","0.0-9.0-2.1","73383","
                  <p>您当前还剩余4组实验</p>
                  <p>现在是休息时间，当您结束休息后，您可以点击 结束休息 按钮 继续</p>
                  <p>建议休息时间还剩余<span id=""iii"">60</span>秒</p>","0","","","","","","","","","","","","","","","","","","","","","","","","",""
"","","","","","psychophysics","405","1100667","0.0-9.0-0.2-0.240","700","","j","","","","","","","","","","","","","key","j","16.667618181818927","768","428","./1_3_Stimuli/T_ambi40.png","朋友","Image","朋友","Match","j","true","Formal"
"","","","","","psychophysics","406","1102445","0.0-9.0-0.2-0.241","620","","f","","","","","","","","","","","","","key","f","16.66825471698298","768","428","./1_3_Stimuli/S_ambi40.png","朋友","Image","他人","Mismatch","f","true","Formal"
"","","","","","psychophysics","407","1104031","0.0-9.0-0.2-0.242","427","","j","","","","","","","","","","","","","key","j","16.665585106382384","768","428","./1_3_Stimuli/C_ambi40.png","自我","Word","自我","Match","j","true","Formal"
"","","","","","psychophysics","408","1105843","0.0-9.0-0.2-0.243","650","","j","","","","","","","","","","","","","key","j","16.667514018692668","768","428","./1_3_Stimuli/S_ambi40.png","他人","Word","他人","Match","j","true","Formal"
"","","","","","psychophysics","409","1107499","0.0-9.0-0.2-0.244","505","","j","","","","","","","","","","","","","key","j","16.664520408164673","768","428","./1_3_Stimuli/T_ambi40.png","朋友","Word","朋友","Match","j","true","Formal"
"","","","","","psychophysics","410","1109220","0.0-9.0-0.2-0.245","563","","f","","","","","","","","","","","","","key","f","16.66636274509844","768","428","./1_3_Stimuli/C_ambi40.png","他人","Word","自我","Mismatch","f","true","Formal"
"","","","","","psychophysics","411","1111027","0.0-9.0-0.2-0.246","650","","j","","","","","","","","","","","","","key","j","16.66517757009236","768","428","./1_3_Stimuli/T_ambi40.png","自我","Image","朋友","Mismatch","f","false","Formal"
"","","","","","psychophysics","412","1112657","0.0-9.0-0.2-0.247","480","","j","","","","","","","","","","","","","key","j","16.6670624999994","768","428","./1_3_Stimuli/C_ambi40.png","自我","Image","自我","Match","j","true","Formal"
"","","","","","psychophysics","413","1114410","0.0-9.0-0.2-0.248","601","","j","","","","","","","","","","","","","key","j","16.664269230769534","768","428","./1_3_Stimuli/S_ambi40.png","他人","Image","他人","Match","j","true","Formal"
"","","","","","psychophysics","414","1116171","0.0-9.0-0.2-0.249","607","","f","","","","","","","","","","","","","key","f","16.666230769230214","768","428","./1_3_Stimuli/C_ambi40.png","他人","Image","自我","Mismatch","f","true","Formal"
"","","","","","psychophysics","415","1118058","0.0-9.0-0.2-0.250","732","","f","","","","","","","","","","","","","key","f","16.666803571426758","768","428","./1_3_Stimuli/T_ambi40.png","自我","Word","朋友","Mismatch","f","true","Formal"
"","","","","","psychophysics","416","1119891","0.0-9.0-0.2-0.251","681","","j","","","","","","","","","","","","","key","j","16.668240740742206","768","428","./1_3_Stimuli/C_ambi40.png","自我","Image","自我","Match","j","true","Formal"
"","","","","","psychophysics","417","1121647","0.0-9.0-0.2-0.252","604","","f","","","","","","","","","","","","","key","f","16.666999999999202","768","428","./1_3_Stimuli/C_ambi40.png","自我","Word","自我","Match","j","false","Formal"
"","","","","","psychophysics","418","1123433","0.0-9.0-0.2-0.253","624","","f","","","","","","","","","","","","","key","f","16.668283018867818","768","428","./1_3_Stimuli/T_ambi40.png","他人","Word","朋友","Mismatch","f","true","Formal"
"","","","","","psychophysics","419","1125211","0.0-9.0-0.2-0.254","617","","f","","","","","","","","","","","","","key","f","16.66839622641597","768","428","./1_3_Stimuli/S_ambi40.png","自我","Image","他人","Mismatch","f","true","Formal"
"","","","","","psychophysics","420","1126898","0.0-9.0-0.2-0.255","535","","f","","","","","","","","","","","","","key","f","16.666120000001975","768","428","./1_3_Stimuli/T_ambi40.png","他人","Image","朋友","Mismatch","f","true","Formal"
"","","","","","psychophysics","421","1128703","0.0-9.0-0.2-0.256","654","","f","","","","","","","","","","","","","key","f","16.667028037382934","768","428","./1_3_Stimuli/S_ambi40.png","自我","Word","他人","Mismatch","f","true","Formal"
