"Subject","Block","Trial","Shape","Label","Matching","Label_Identity","Origin_Identity","English_Identity","Standarlized_Identity","Response","RT_ms","RT_sec","ACC"
14,1,1,"Tra.bmp","你","Matching","Self","你","Self","Self",2,914,0.914,1
14,1,2,"D.bmp","生人","Matching","Stranger","生人","Stranger","Stranger",1,882,0.882,0
14,1,3,"D.bmp","生人","Matching","Stranger","生人","Stranger","Stranger",NA,0,0,0
14,1,4,"D.bmp","生人","Matching","Stranger","生人","Stranger","Stranger",2,892,0.892,1
14,1,5,"Tra.bmp","你","Matching","Self","你","Self","Self",2,685,0.685,1
14,1,6,"D.bmp","生人","Matching","Stranger","生人","Stranger","Stranger",2,829,0.829,1
14,1,7,"D.bmp","你","Nonmatching","Self","生人","Stranger","Stranger",1,950,0.95,1
14,1,8,"D.bmp","你","Nonmatching","Self","生人","Stranger","Stranger",NA,0,0,0
14,1,9,"Tra.bmp","你","Matching","Self","你","Self","Self",2,684,0.684,1
14,1,10,"D.bmp","生人","Matching","Stranger","生人","Stranger","Stranger",2,892,0.892,1
14,1,11,"Tra.bmp","你","Matching","Self","你","Self","Self",2,702,0.702,1
14,1,12,"Tra.bmp","生人","Nonmatching","Stranger","你","Self","Self",1,863,0.863,1
14,1,13,"D.bmp","生人","Matching","Stranger","生人","Stranger","Stranger",2,783,0.783,1
14,1,14,"Tra.bmp","你","Matching","Self","你","Self","Self",2,671,0.671,1
14,1,15,"Tra.bmp","生人","Nonmatching","Stranger","你","Self","Self",1,959,0.959,1
14,1,16,"Tra.bmp","你","Matching","Self","你","Self","Self",2,583,0.583,1
14,2,17,"D.bmp","生人","Matching","Stranger","生人","Stranger","Stranger",2,887,0.887,1
14,2,18,"D.bmp","生人","Matching","Stranger","生人","Stranger","Stranger",2,721,0.721,1
14,2,19,"D.bmp","生人","Matching","Stranger","生人","Stranger","Stranger",2,706,0.706,1
14,2,20,"D.bmp","你","Nonmatching","Self","生人","Stranger","Stranger",1,962,0.962,1
14,2,21,"D.bmp","生人","Matching","Stranger","生人","Stranger","Stranger",2,794,0.794,1
14,2,22,"Tra.bmp","你","Matching","Self","你","Self","Self",2,514,0.514,1
14,2,23,"D.bmp","生人","Matching","Stranger","生人","Stranger","Stranger",2,858,0.858,1
14,2,24,"Tra.bmp","你","Matching","Self","你","Self","Self",2,698,0.698,1
14,2,25,"D.bmp","你","Nonmatching","Self","生人","Stranger","Stranger",1,899,0.899,1
14,2,26,"D.bmp","生人","Matching","Stranger","生人","Stranger","Stranger",2,795,0.795,1
14,2,27,"Tra.bmp","你","Matching","Self","你","Self","Self",2,755,0.755,1
14,2,28,"Tra.bmp","你","Matching","Self","你","Self","Self",2,570,0.57,1
14,2,29,"Tra.bmp","生人","Nonmatching","Stranger","你","Self","Self",1,882,0.882,1
14,2,30,"Tra.bmp","生人","Nonmatching","Stranger","你","Self","Self",1,850,0.85,1
14,2,31,"Tra.bmp","你","Matching","Self","你","Self","Self",2,698,0.698,1
14,2,32,"Tra.bmp","你","Matching","Self","你","Self","Self",2,962,0.962,1
14,3,33,"Tra.bmp","你","Matching","Self","你","Self","Self",2,604,0.604,1
14,3,34,"Tra.bmp","生人","Nonmatching","Stranger","你","Self","Self",1,749,0.749,1
14,3,35,"Tra.bmp","你","Matching","Self","你","Self","Self",2,677,0.677,1
14,3,36,"Tra.bmp","你","Matching","Self","你","Self","Self",2,653,0.653,1
14,3,37,"D.bmp","生人","Matching","Stranger","生人","Stranger","Stranger",2,805,0.805,1
14,3,38,"D.bmp","生人","Matching","Stranger","生人","Stranger","Stranger",2,1053,1.053,1
14,3,39,"D.bmp","生人","Matching","Stranger","生人","Stranger","Stranger",2,517,0.517,1
14,3,40,"D.bmp","生人","Matching","Stranger","生人","Stranger","Stranger",2,615,0.615,1
14,3,41,"D.bmp","你","Nonmatching","Self","生人","Stranger","Stranger",2,592,0.592,0
14,3,42,"Tra.bmp","生人","Nonmatching","Stranger","你","Self","Self",1,848,0.848,1
14,3,43,"D.bmp","生人","Matching","Stranger","生人","Stranger","Stranger",2,808,0.808,1
14,3,44,"Tra.bmp","你","Matching","Self","你","Self","Self",2,712,0.712,1
14,3,45,"Tra.bmp","你","Matching","Self","你","Self","Self",2,496,0.496,1
14,3,46,"Tra.bmp","你","Matching","Self","你","Self","Self",2,559,0.559,1
14,3,47,"D.bmp","生人","Matching","Stranger","生人","Stranger","Stranger",2,832,0.832,1
14,3,48,"D.bmp","你","Nonmatching","Self","生人","Stranger","Stranger",2,504,0.504,0
14,4,49,"Tra.bmp","生人","Nonmatching","Stranger","你","Self","Self",1,842,0.842,1
14,4,50,"D.bmp","生人","Matching","Stranger","生人","Stranger","Stranger",2,874,0.874,1
14,4,51,"Tra.bmp","你","Matching","Self","你","Self","Self",2,594,0.594,1
14,4,52,"Tra.bmp","生人","Nonmatching","Stranger","你","Self","Self",1,740,0.74,1
14,4,53,"D.bmp","生人","Matching","Stranger","生人","Stranger","Stranger",2,685,0.685,1
14,4,54,"Tra.bmp","你","Matching","Self","你","Self","Self",2,789,0.789,1
14,4,55,"D.bmp","你","Nonmatching","Self","生人","Stranger","Stranger",1,661,0.661,1
14,4,56,"D.bmp","生人","Matching","Stranger","生人","Stranger","Stranger",2,789,0.789,1
14,4,57,"D.bmp","你","Nonmatching","Self","生人","Stranger","Stranger",1,773,0.773,1
14,4,58,"Tra.bmp","你","Matching","Self","你","Self","Self",2,565,0.565,1
14,4,59,"Tra.bmp","你","Matching","Self","你","Self","Self",2,726,0.726,1
14,4,60,"D.bmp","生人","Matching","Stranger","生人","Stranger","Stranger",2,1007,1.007,1
14,4,61,"D.bmp","生人","Matching","Stranger","生人","Stranger","Stranger",2,592,0.592,1
14,4,62,"Tra.bmp","你","Matching","Self","你","Self","Self",2,680,0.68,1
14,4,63,"Tra.bmp","你","Matching","Self","你","Self","Self",2,577,0.577,1
14,4,64,"D.bmp","生人","Matching","Stranger","生人","Stranger","Stranger",2,855,0.855,1
14,5,65,"D.bmp","生人","Matching","Stranger","生人","Stranger","Stranger",2,591,0.591,1
14,5,66,"Tra.bmp","你","Matching","Self","你","Self","Self",2,479,0.479,1
14,5,67,"D.bmp","生人","Matching","Stranger","生人","Stranger","Stranger",2,721,0.721,1
14,5,68,"D.bmp","你","Nonmatching","Self","生人","Stranger","Stranger",1,730,0.73,1
14,5,69,"Tra.bmp","你","Matching","Self","你","Self","Self",2,546,0.546,1
14,5,70,"Tra.bmp","你","Matching","Self","你","Self","Self",2,538,0.538,1
14,5,71,"Tra.bmp","你","Matching","Self","你","Self","Self",2,482,0.482,1
14,5,72,"D.bmp","生人","Matching","Stranger","生人","Stranger","Stranger",1,730,0.73,0
14,5,73,"Tra.bmp","生人","Nonmatching","Stranger","你","Self","Self",1,946,0.946,1
14,5,74,"Tra.bmp","生人","Nonmatching","Stranger","你","Self","Self",1,812,0.812,1
14,5,75,"D.bmp","你","Nonmatching","Self","生人","Stranger","Stranger",2,655,0.655,0
14,5,76,"D.bmp","生人","Matching","Stranger","生人","Stranger","Stranger",2,743,0.743,1
14,5,77,"Tra.bmp","你","Matching","Self","你","Self","Self",2,607,0.607,1
14,5,78,"D.bmp","生人","Matching","Stranger","生人","Stranger","Stranger",2,783,0.783,1
14,5,79,"Tra.bmp","你","Matching","Self","你","Self","Self",2,639,0.639,1
14,5,80,"D.bmp","生人","Matching","Stranger","生人","Stranger","Stranger",2,823,0.823,1
14,6,81,"D.bmp","生人","Matching","Stranger","生人","Stranger","Stranger",2,712,0.712,1
14,6,82,"Tra.bmp","你","Matching","Self","你","Self","Self",2,655,0.655,1
14,6,83,"D.bmp","生人","Matching","Stranger","生人","Stranger","Stranger",2,679,0.679,1
14,6,84,"D.bmp","生人","Matching","Stranger","生人","Stranger","Stranger",2,615,0.615,1
14,6,85,"Tra.bmp","你","Matching","Self","你","Self","Self",2,671,0.671,1
14,6,86,"Tra.bmp","你","Matching","Self","你","Self","Self",2,567,0.567,1
14,6,87,"D.bmp","你","Nonmatching","Self","生人","Stranger","Stranger",1,775,0.775,1
14,6,88,"D.bmp","生人","Matching","Stranger","生人","Stranger","Stranger",2,888,0.888,1
14,6,89,"D.bmp","生人","Matching","Stranger","生人","Stranger","Stranger",2,737,0.737,1
14,6,90,"D.bmp","生人","Matching","Stranger","生人","Stranger","Stranger",2,570,0.57,1
14,6,91,"D.bmp","你","Nonmatching","Self","生人","Stranger","Stranger",1,810,0.81,1
14,6,92,"Tra.bmp","你","Matching","Self","你","Self","Self",2,594,0.594,1
14,6,93,"Tra.bmp","生人","Nonmatching","Stranger","你","Self","Self",NA,0,0,0
14,6,94,"Tra.bmp","你","Matching","Self","你","Self","Self",2,530,0.53,1
14,6,95,"Tra.bmp","你","Matching","Self","你","Self","Self",2,482,0.482,1
14,6,96,"Tra.bmp","生人","Nonmatching","Stranger","你","Self","Self",1,883,0.883,1
14,NA,NA,"D.bmp","你","Nonmatching","Self","生人","Stranger","Stranger",NA,0,0,0
14,NA,NA,"D.bmp","生人","Matching","Stranger","生人","Stranger","Stranger",NA,0,0,0
14,NA,NA,"Tra.bmp","生人","Nonmatching","Stranger","你","Self","Self",2,967,0.967,0
14,NA,NA,"Tra.bmp","你","Matching","Self","你","Self","Self",1,930,0.93,0
15,1,1,"Tra.bmp","生人","Nonmatching","Stranger","你","Self","Self",2,753,0.753,1
15,1,2,"P.bmp","生人","Matching","Stranger","生人","Stranger","Stranger",1,1089,1.089,1
15,1,3,"Tra.bmp","你","Matching","Self","你","Self","Self",1,601,0.601,1
15,1,4,"P.bmp","生人","Matching","Stranger","生人","Stranger","Stranger",1,779,0.779,1
15,1,5,"P.bmp","你","Nonmatching","Self","生人","Stranger","Stranger",NA,0,0,0
15,1,6,"P.bmp","你","Nonmatching","Self","生人","Stranger","Stranger",NA,0,0,0
15,1,7,"Tra.bmp","你","Matching","Self","你","Self","Self",1,561,0.561,1
15,1,8,"P.bmp","生人","Matching","Stranger","生人","Stranger","Stranger",1,563,0.563,1
15,1,9,"Tra.bmp","生人","Nonmatching","Stranger","你","Self","Self",2,812,0.812,1
15,1,10,"Tra.bmp","你","Matching","Self","你","Self","Self",1,732,0.732,1
15,1,11,"P.bmp","生人","Matching","Stranger","生人","Stranger","Stranger",1,516,0.516,1
15,1,12,"Tra.bmp","你","Matching","Self","你","Self","Self",1,476,0.476,1
15,1,13,"Tra.bmp","你","Matching","Self","你","Self","Self",1,812,0.812,1
15,1,14,"Tra.bmp","你","Matching","Self","你","Self","Self",1,644,0.644,1
15,1,15,"P.bmp","生人","Matching","Stranger","生人","Stranger","Stranger",1,526,0.526,1
15,1,16,"P.bmp","生人","Matching","Stranger","生人","Stranger","Stranger",1,591,0.591,1
15,2,17,"P.bmp","生人","Matching","Stranger","生人","Stranger","Stranger",1,486,0.486,1
15,2,18,"Tra.bmp","你","Matching","Self","你","Self","Self",1,766,0.766,1
15,2,19,"Tra.bmp","你","Matching","Self","你","Self","Self",1,518,0.518,1
15,2,20,"Tra.bmp","你","Matching","Self","你","Self","Self",2,622,0.622,0
15,2,21,"P.bmp","生人","Matching","Stranger","生人","Stranger","Stranger",1,654,0.654,1
15,2,22,"Tra.bmp","你","Matching","Self","你","Self","Self",1,712,0.712,1
15,2,23,"Tra.bmp","生人","Nonmatching","Stranger","你","Self","Self",2,961,0.961,1
15,2,24,"Tra.bmp","生人","Nonmatching","Stranger","你","Self","Self",2,793,0.793,1
15,2,25,"P.bmp","生人","Matching","Stranger","生人","Stranger","Stranger",1,665,0.665,1
15,2,26,"P.bmp","生人","Matching","Stranger","生人","Stranger","Stranger",1,569,0.569,1
15,2,27,"Tra.bmp","你","Matching","Self","你","Self","Self",1,593,0.593,1
15,2,28,"P.bmp","生人","Matching","Stranger","生人","Stranger","Stranger",1,649,0.649,1
15,2,29,"P.bmp","生人","Matching","Stranger","生人","Stranger","Stranger",1,714,0.714,1
15,2,30,"P.bmp","你","Nonmatching","Self","生人","Stranger","Stranger",2,738,0.738,1
15,2,31,"Tra.bmp","你","Matching","Self","你","Self","Self",1,482,0.482,1
15,2,32,"P.bmp","你","Nonmatching","Self","生人","Stranger","Stranger",2,714,0.714,1
15,3,33,"Tra.bmp","你","Matching","Self","你","Self","Self",1,586,0.586,1
15,3,34,"Tra.bmp","你","Matching","Self","你","Self","Self",1,602,0.602,1
15,3,35,"P.bmp","生人","Matching","Stranger","生人","Stranger","Stranger",1,921,0.921,1
15,3,36,"P.bmp","生人","Matching","Stranger","生人","Stranger","Stranger",1,649,0.649,1
15,3,37,"Tra.bmp","你","Matching","Self","你","Self","Self",1,660,0.66,1
15,3,38,"Tra.bmp","你","Matching","Self","你","Self","Self",1,684,0.684,1
15,3,39,"Tra.bmp","你","Matching","Self","你","Self","Self",1,508,0.508,1
15,3,40,"P.bmp","你","Nonmatching","Self","生人","Stranger","Stranger",2,924,0.924,1
15,3,41,"P.bmp","生人","Matching","Stranger","生人","Stranger","Stranger",1,604,0.604,1
15,3,42,"Tra.bmp","你","Matching","Self","你","Self","Self",1,644,0.644,1
15,3,43,"P.bmp","生人","Matching","Stranger","生人","Stranger","Stranger",1,724,0.724,1
15,3,44,"Tra.bmp","生人","Nonmatching","Stranger","你","Self","Self",2,829,0.829,1
15,3,45,"P.bmp","生人","Matching","Stranger","生人","Stranger","Stranger",1,733,0.733,1
15,3,46,"P.bmp","你","Nonmatching","Self","生人","Stranger","Stranger",2,709,0.709,1
15,3,47,"Tra.bmp","生人","Nonmatching","Stranger","你","Self","Self",2,837,0.837,1
15,3,48,"P.bmp","生人","Matching","Stranger","生人","Stranger","Stranger",1,781,0.781,1
15,4,49,"P.bmp","生人","Matching","Stranger","生人","Stranger","Stranger",1,633,0.633,1
15,4,50,"P.bmp","生人","Matching","Stranger","生人","Stranger","Stranger",1,777,0.777,1
15,4,51,"Tra.bmp","你","Matching","Self","你","Self","Self",1,425,0.425,1
15,4,52,"P.bmp","生人","Matching","Stranger","生人","Stranger","Stranger",1,547,0.547,1
15,4,53,"P.bmp","你","Nonmatching","Self","生人","Stranger","Stranger",2,716,0.716,1
15,4,54,"Tra.bmp","你","Matching","Self","你","Self","Self",1,588,0.588,1
15,4,55,"Tra.bmp","你","Matching","Self","你","Self","Self",1,532,0.532,1
15,4,56,"P.bmp","生人","Matching","Stranger","生人","Stranger","Stranger",1,492,0.492,1
15,4,57,"P.bmp","生人","Matching","Stranger","生人","Stranger","Stranger",1,564,0.564,1
15,4,58,"Tra.bmp","你","Matching","Self","你","Self","Self",1,732,0.732,1
15,4,59,"Tra.bmp","生人","Nonmatching","Stranger","你","Self","Self",2,526,0.526,1
15,4,60,"P.bmp","你","Nonmatching","Self","生人","Stranger","Stranger",1,647,0.647,0
15,4,61,"P.bmp","生人","Matching","Stranger","生人","Stranger","Stranger",1,679,0.679,1
15,4,62,"Tra.bmp","生人","Nonmatching","Stranger","你","Self","Self",1,623,0.623,0
15,4,63,"Tra.bmp","你","Matching","Self","你","Self","Self",1,959,0.959,1
15,4,64,"Tra.bmp","你","Matching","Self","你","Self","Self",1,655,0.655,1
15,5,65,"Tra.bmp","生人","Nonmatching","Stranger","你","Self","Self",2,783,0.783,1
15,5,66,"Tra.bmp","你","Matching","Self","你","Self","Self",1,489,0.489,1
15,5,67,"Tra.bmp","你","Matching","Self","你","Self","Self",1,539,0.539,1
15,5,68,"P.bmp","生人","Matching","Stranger","生人","Stranger","Stranger",1,675,0.675,1
15,5,69,"Tra.bmp","你","Matching","Self","你","Self","Self",1,547,0.547,1
15,5,70,"Tra.bmp","你","Matching","Self","你","Self","Self",1,755,0.755,1
15,5,71,"P.bmp","生人","Matching","Stranger","生人","Stranger","Stranger",1,483,0.483,1
15,5,72,"P.bmp","生人","Matching","Stranger","生人","Stranger","Stranger",1,763,0.763,1
15,5,73,"Tra.bmp","你","Matching","Self","你","Self","Self",1,572,0.572,1
15,5,74,"Tra.bmp","你","Matching","Self","你","Self","Self",1,589,0.589,1
15,5,75,"Tra.bmp","生人","Nonmatching","Stranger","你","Self","Self",1,542,0.542,0
15,5,76,"P.bmp","生人","Matching","Stranger","生人","Stranger","Stranger",1,750,0.75,1
15,5,77,"P.bmp","生人","Matching","Stranger","生人","Stranger","Stranger",1,574,0.574,1
15,5,78,"P.bmp","你","Nonmatching","Self","生人","Stranger","Stranger",2,1086,1.086,1
15,5,79,"P.bmp","你","Nonmatching","Self","生人","Stranger","Stranger",2,670,0.67,1
15,5,80,"P.bmp","生人","Matching","Stranger","生人","Stranger","Stranger",1,678,0.678,1
15,6,81,"Tra.bmp","你","Matching","Self","你","Self","Self",1,513,0.513,1
15,6,82,"P.bmp","生人","Matching","Stranger","生人","Stranger","Stranger",1,641,0.641,1
15,6,83,"P.bmp","你","Nonmatching","Self","生人","Stranger","Stranger",2,793,0.793,1
15,6,84,"Tra.bmp","你","Matching","Self","你","Self","Self",1,465,0.465,1
15,6,85,"Tra.bmp","生人","Nonmatching","Stranger","你","Self","Self",1,512,0.512,0
15,6,86,"P.bmp","生人","Matching","Stranger","生人","Stranger","Stranger",1,720,0.72,1
15,6,87,"P.bmp","生人","Matching","Stranger","生人","Stranger","Stranger",1,761,0.761,1
15,6,88,"P.bmp","生人","Matching","Stranger","生人","Stranger","Stranger",1,530,0.53,1
15,6,89,"Tra.bmp","你","Matching","Self","你","Self","Self",1,805,0.805,1
15,6,90,"P.bmp","生人","Matching","Stranger","生人","Stranger","Stranger",1,541,0.541,1
15,6,91,"P.bmp","你","Nonmatching","Self","生人","Stranger","Stranger",2,621,0.621,1
15,6,92,"Tra.bmp","你","Matching","Self","你","Self","Self",1,525,0.525,1
15,6,93,"Tra.bmp","你","Matching","Self","你","Self","Self",1,981,0.981,1
15,6,94,"P.bmp","生人","Matching","Stranger","生人","Stranger","Stranger",1,437,0.437,1
15,6,95,"Tra.bmp","你","Matching","Self","你","Self","Self",1,526,0.526,1
15,6,96,"Tra.bmp","生人","Nonmatching","Stranger","你","Self","Self",2,582,0.582,1
15,NA,NA,"Tra.bmp","生人","Nonmatching","Stranger","你","Self","Self",NA,0,0,0
15,NA,NA,"Tra.bmp","你","Matching","Self","你","Self","Self",1,1065,1.065,1
15,NA,NA,"P.bmp","你","Nonmatching","Self","生人","Stranger","Stranger",2,818,0.818,1
15,NA,NA,"P.bmp","生人","Matching","Stranger","生人","Stranger","Stranger",1,1010,1.01,1
16,1,1,"P.bmp","生人","Matching","Stranger","生人","Stranger","Stranger",NA,0,0,0
16,1,2,"S.bmp","你","Matching","Self","你","Self","Self",2,16,0.016,1
16,1,3,"P.bmp","生人","Matching","Stranger","生人","Stranger","Stranger",NA,0,0,0
16,1,4,"S.bmp","你","Matching","Self","你","Self","Self",2,668,0.668,1
16,1,5,"S.bmp","你","Matching","Self","你","Self","Self",2,462,0.462,1
16,1,6,"S.bmp","你","Matching","Self","你","Self","Self",2,464,0.464,1
16,1,7,"P.bmp","生人","Matching","Stranger","生人","Stranger","Stranger",1,922,0.922,0
16,1,8,"P.bmp","你","Nonmatching","Self","生人","Stranger","Stranger",1,916,0.916,1
16,1,9,"S.bmp","生人","Nonmatching","Stranger","你","Self","Self",1,830,0.83,1
16,1,10,"P.bmp","生人","Matching","Stranger","生人","Stranger","Stranger",2,1000,1,1
16,1,11,"P.bmp","你","Nonmatching","Self","生人","Stranger","Stranger",1,779,0.779,1
16,1,12,"P.bmp","生人","Matching","Stranger","生人","Stranger","Stranger",2,1011,1.011,1
16,1,13,"S.bmp","你","Matching","Self","你","Self","Self",2,581,0.581,1
16,1,14,"S.bmp","生人","Nonmatching","Stranger","你","Self","Self",1,767,0.767,1
16,1,15,"S.bmp","你","Matching","Self","你","Self","Self",2,657,0.657,1
16,1,16,"P.bmp","生人","Matching","Stranger","生人","Stranger","Stranger",2,843,0.843,1
16,2,17,"P.bmp","生人","Matching","Stranger","生人","Stranger","Stranger",2,997,0.997,1
16,2,18,"P.bmp","生人","Matching","Stranger","生人","Stranger","Stranger",2,767,0.767,1
16,2,19,"P.bmp","你","Nonmatching","Self","生人","Stranger","Stranger",1,609,0.609,1
16,2,20,"P.bmp","生人","Matching","Stranger","生人","Stranger","Stranger",2,819,0.819,1
16,2,21,"S.bmp","你","Matching","Self","你","Self","Self",2,525,0.525,1
16,2,22,"S.bmp","生人","Nonmatching","Stranger","你","Self","Self",1,584,0.584,1
16,2,23,"S.bmp","你","Matching","Self","你","Self","Self",2,650,0.65,1
16,2,24,"S.bmp","你","Matching","Self","你","Self","Self",2,380,0.38,1
16,2,25,"S.bmp","你","Matching","Self","你","Self","Self",2,366,0.366,1
16,2,26,"P.bmp","生人","Matching","Stranger","生人","Stranger","Stranger",2,1096,1.096,1
16,2,27,"S.bmp","你","Matching","Self","你","Self","Self",2,386,0.386,1
16,2,28,"P.bmp","生人","Matching","Stranger","生人","Stranger","Stranger",2,700,0.7,1
16,2,29,"P.bmp","你","Nonmatching","Self","生人","Stranger","Stranger",1,630,0.63,1
16,2,30,"S.bmp","你","Matching","Self","你","Self","Self",2,376,0.376,1
16,2,31,"S.bmp","生人","Nonmatching","Stranger","你","Self","Self",1,770,0.77,1
16,2,32,"P.bmp","生人","Matching","Stranger","生人","Stranger","Stranger",2,1068,1.068,1
16,3,33,"S.bmp","你","Matching","Self","你","Self","Self",2,478,0.478,1
16,3,34,"P.bmp","生人","Matching","Stranger","生人","Stranger","Stranger",2,920,0.92,1
16,3,35,"P.bmp","生人","Matching","Stranger","生人","Stranger","Stranger",2,810,0.81,1
16,3,36,"S.bmp","生人","Nonmatching","Stranger","你","Self","Self",1,652,0.652,1
16,3,37,"S.bmp","你","Matching","Self","你","Self","Self",2,374,0.374,1
16,3,38,"P.bmp","生人","Matching","Stranger","生人","Stranger","Stranger",2,760,0.76,1
16,3,39,"S.bmp","你","Matching","Self","你","Self","Self",2,474,0.474,1
16,3,40,"S.bmp","你","Matching","Self","你","Self","Self",2,380,0.38,1
16,3,41,"P.bmp","生人","Matching","Stranger","生人","Stranger","Stranger",2,534,0.534,1
16,3,42,"S.bmp","你","Matching","Self","你","Self","Self",2,352,0.352,1
16,3,43,"P.bmp","你","Nonmatching","Self","生人","Stranger","Stranger",1,674,0.674,1
16,3,44,"S.bmp","生人","Nonmatching","Stranger","你","Self","Self",2,420,0.42,0
16,3,45,"P.bmp","你","Nonmatching","Self","生人","Stranger","Stranger",NA,0,0,0
16,3,46,"P.bmp","生人","Matching","Stranger","生人","Stranger","Stranger",NA,0,0,0
16,3,47,"P.bmp","生人","Matching","Stranger","生人","Stranger","Stranger",NA,0,0,0
16,3,48,"S.bmp","你","Matching","Self","你","Self","Self",2,939,0.939,1
16,4,49,"P.bmp","生人","Matching","Stranger","生人","Stranger","Stranger",2,908,0.908,1
16,4,50,"S.bmp","生人","Nonmatching","Stranger","你","Self","Self",1,630,0.63,1
16,4,51,"S.bmp","你","Matching","Self","你","Self","Self",2,448,0.448,1
16,4,52,"P.bmp","生人","Matching","Stranger","生人","Stranger","Stranger",2,714,0.714,1
16,4,53,"P.bmp","你","Nonmatching","Self","生人","Stranger","Stranger",1,820,0.82,1
16,4,54,"P.bmp","生人","Matching","Stranger","生人","Stranger","Stranger",2,910,0.91,1
16,4,55,"P.bmp","生人","Matching","Stranger","生人","Stranger","Stranger",2,593,0.593,1
16,4,56,"S.bmp","你","Matching","Self","你","Self","Self",2,650,0.65,1
16,4,57,"S.bmp","你","Matching","Self","你","Self","Self",2,348,0.348,1
16,4,58,"P.bmp","生人","Matching","Stranger","生人","Stranger","Stranger",2,558,0.558,1
16,4,59,"S.bmp","你","Matching","Self","你","Self","Self",2,464,0.464,1
16,4,60,"S.bmp","你","Matching","Self","你","Self","Self",2,594,0.594,1
16,4,61,"S.bmp","你","Matching","Self","你","Self","Self",2,556,0.556,1
16,4,62,"P.bmp","你","Nonmatching","Self","生人","Stranger","Stranger",1,758,0.758,1
16,4,63,"S.bmp","生人","Nonmatching","Stranger","你","Self","Self",1,1048,1.048,1
16,4,64,"P.bmp","生人","Matching","Stranger","生人","Stranger","Stranger",2,882,0.882,1
16,5,65,"P.bmp","生人","Matching","Stranger","生人","Stranger","Stranger",2,996,0.996,1
16,5,66,"S.bmp","你","Matching","Self","你","Self","Self",2,558,0.558,1
16,5,67,"S.bmp","你","Matching","Self","你","Self","Self",2,416,0.416,1
16,5,68,"P.bmp","生人","Matching","Stranger","生人","Stranger","Stranger",2,554,0.554,1
16,5,69,"P.bmp","生人","Matching","Stranger","生人","Stranger","Stranger",2,748,0.748,1
16,5,70,"S.bmp","生人","Nonmatching","Stranger","你","Self","Self",1,670,0.67,1
16,5,71,"P.bmp","生人","Matching","Stranger","生人","Stranger","Stranger",2,832,0.832,1
16,5,72,"P.bmp","生人","Matching","Stranger","生人","Stranger","Stranger",2,746,0.746,1
16,5,73,"S.bmp","你","Matching","Self","你","Self","Self",2,525,0.525,1
16,5,74,"S.bmp","生人","Nonmatching","Stranger","你","Self","Self",1,919,0.919,1
16,5,75,"P.bmp","生人","Matching","Stranger","生人","Stranger","Stranger",2,545,0.545,1
16,5,76,"S.bmp","你","Matching","Self","你","Self","Self",2,499,0.499,1
16,5,77,"S.bmp","你","Matching","Self","你","Self","Self",2,365,0.365,1
16,5,78,"S.bmp","你","Matching","Self","你","Self","Self",2,455,0.455,1
16,5,79,"P.bmp","你","Nonmatching","Self","生人","Stranger","Stranger",1,689,0.689,1
16,5,80,"P.bmp","你","Nonmatching","Self","生人","Stranger","Stranger",1,810,0.81,1
16,6,81,"S.bmp","你","Matching","Self","你","Self","Self",2,508,0.508,1
16,6,82,"S.bmp","你","Matching","Self","你","Self","Self",2,510,0.51,1
16,6,83,"P.bmp","你","Nonmatching","Self","生人","Stranger","Stranger",1,968,0.968,1
16,6,84,"S.bmp","你","Matching","Self","你","Self","Self",2,810,0.81,1
16,6,85,"S.bmp","你","Matching","Self","你","Self","Self",2,524,0.524,1
16,6,86,"P.bmp","生人","Matching","Stranger","生人","Stranger","Stranger",2,918,0.918,1
16,6,87,"S.bmp","生人","Nonmatching","Stranger","你","Self","Self",1,720,0.72,1
16,6,88,"S.bmp","你","Matching","Self","你","Self","Self",2,498,0.498,1
16,6,89,"P.bmp","你","Nonmatching","Self","生人","Stranger","Stranger",2,372,0.372,0
16,6,90,"S.bmp","你","Matching","Self","你","Self","Self",2,590,0.59,1
16,6,91,"S.bmp","生人","Nonmatching","Stranger","你","Self","Self",1,888,0.888,1
16,6,92,"P.bmp","生人","Matching","Stranger","生人","Stranger","Stranger",2,762,0.762,1
16,6,93,"P.bmp","生人","Matching","Stranger","生人","Stranger","Stranger",NA,0,0,0
16,6,94,"P.bmp","生人","Matching","Stranger","生人","Stranger","Stranger",2,926,0.926,1
16,6,95,"P.bmp","生人","Matching","Stranger","生人","Stranger","Stranger",NA,0,0,0
16,6,96,"P.bmp","生人","Matching","Stranger","生人","Stranger","Stranger",2,666,0.666,1
16,NA,NA,"P.bmp","生人","Matching","Stranger","生人","Stranger","Stranger",NA,0,0,0
16,NA,NA,"S.bmp","生人","Nonmatching","Stranger","你","Self","Self",1,787,0.787,1
16,NA,NA,"P.bmp","你","Nonmatching","Self","生人","Stranger","Stranger",NA,0,0,0
16,NA,NA,"S.bmp","你","Matching","Self","你","Self","Self",NA,0,0,0
16,NA,NA,"S.bmp","你","Matching","Self","你","Self","Self",NA,0,0,0
16,NA,NA,"S.bmp","生人","Nonmatching","Stranger","你","Self","Self",1,847,0.847,1
16,NA,NA,"P.bmp","生人","Matching","Stranger","生人","Stranger","Stranger",2,937,0.937,1
16,NA,NA,"P.bmp","你","Nonmatching","Self","生人","Stranger","Stranger",1,787,0.787,1
17,1,1,"T.bmp","生人","Matching","Stranger","生人","Stranger","Stranger",1,735,0.735,1
17,1,2,"S.bmp","你","Matching","Self","你","Self","Self",1,447,0.447,1
17,1,3,"S.bmp","生人","Nonmatching","Stranger","你","Self","Self",2,703,0.703,1
17,1,4,"S.bmp","生人","Nonmatching","Stranger","你","Self","Self",2,935,0.935,1
17,1,5,"T.bmp","生人","Matching","Stranger","生人","Stranger","Stranger",1,560,0.56,1
17,1,6,"S.bmp","你","Matching","Self","你","Self","Self",1,482,0.482,1
17,1,7,"T.bmp","生人","Matching","Stranger","生人","Stranger","Stranger",1,1050,1.05,1
17,1,8,"S.bmp","你","Matching","Self","你","Self","Self",1,546,0.546,1
17,1,9,"T.bmp","生人","Matching","Stranger","生人","Stranger","Stranger",1,562,0.562,1
17,1,10,"S.bmp","你","Matching","Self","你","Self","Self",1,634,0.634,1
17,1,11,"S.bmp","你","Matching","Self","你","Self","Self",1,578,0.578,1
17,1,12,"T.bmp","你","Nonmatching","Self","生人","Stranger","Stranger",1,570,0.57,0
17,1,13,"T.bmp","你","Nonmatching","Self","生人","Stranger","Stranger",1,596,0.596,0
17,1,14,"S.bmp","你","Matching","Self","你","Self","Self",1,413,0.413,1
17,1,15,"T.bmp","生人","Matching","Stranger","生人","Stranger","Stranger",1,741,0.741,1
17,1,16,"T.bmp","生人","Matching","Stranger","生人","Stranger","Stranger",1,637,0.637,1
17,2,17,"T.bmp","生人","Matching","Stranger","生人","Stranger","Stranger",1,477,0.477,1
17,2,18,"S.bmp","你","Matching","Self","你","Self","Self",1,525,0.525,1
17,2,19,"S.bmp","你","Matching","Self","你","Self","Self",1,549,0.549,1
17,2,20,"T.bmp","生人","Matching","Stranger","生人","Stranger","Stranger",1,837,0.837,1
17,2,21,"S.bmp","生人","Nonmatching","Stranger","你","Self","Self",2,823,0.823,1
17,2,22,"S.bmp","你","Matching","Self","你","Self","Self",1,567,0.567,1
17,2,23,"T.bmp","生人","Matching","Stranger","生人","Stranger","Stranger",1,481,0.481,1
17,2,24,"S.bmp","生人","Nonmatching","Stranger","你","Self","Self",1,511,0.511,0
17,2,25,"S.bmp","你","Matching","Self","你","Self","Self",1,583,0.583,1
17,2,26,"T.bmp","你","Nonmatching","Self","生人","Stranger","Stranger",1,671,0.671,0
17,2,27,"S.bmp","你","Matching","Self","你","Self","Self",1,591,0.591,1
17,2,28,"T.bmp","你","Nonmatching","Self","生人","Stranger","Stranger",2,791,0.791,1
17,2,29,"S.bmp","你","Matching","Self","你","Self","Self",1,641,0.641,1
17,2,30,"T.bmp","生人","Matching","Stranger","生人","Stranger","Stranger",1,618,0.618,1
17,2,31,"T.bmp","生人","Matching","Stranger","生人","Stranger","Stranger",1,786,0.786,1
17,2,32,"T.bmp","生人","Matching","Stranger","生人","Stranger","Stranger",1,626,0.626,1
17,3,33,"T.bmp","生人","Matching","Stranger","生人","Stranger","Stranger",1,450,0.45,1
17,3,34,"T.bmp","生人","Matching","Stranger","生人","Stranger","Stranger",1,530,0.53,1
17,3,35,"S.bmp","你","Matching","Self","你","Self","Self",1,890,0.89,1
17,3,36,"S.bmp","你","Matching","Self","你","Self","Self",1,394,0.394,1
17,3,37,"S.bmp","生人","Nonmatching","Stranger","你","Self","Self",1,420,0.42,0
17,3,38,"T.bmp","你","Nonmatching","Self","生人","Stranger","Stranger",1,421,0.421,0
17,3,39,"S.bmp","你","Matching","Self","你","Self","Self",1,421,0.421,1
17,3,40,"T.bmp","生人","Matching","Stranger","生人","Stranger","Stranger",1,573,0.573,1
17,3,41,"T.bmp","生人","Matching","Stranger","生人","Stranger","Stranger",1,549,0.549,1
17,3,42,"T.bmp","你","Nonmatching","Self","生人","Stranger","Stranger",1,621,0.621,0
17,3,43,"S.bmp","你","Matching","Self","你","Self","Self",1,557,0.557,1
17,3,44,"S.bmp","生人","Nonmatching","Stranger","你","Self","Self",2,982,0.982,1
17,3,45,"T.bmp","生人","Matching","Stranger","生人","Stranger","Stranger",1,512,0.512,1
17,3,46,"S.bmp","你","Matching","Self","你","Self","Self",1,567,0.567,1
17,3,47,"T.bmp","生人","Matching","Stranger","生人","Stranger","Stranger",1,743,0.743,1
17,3,48,"S.bmp","你","Matching","Self","你","Self","Self",1,559,0.559,1
17,4,49,"S.bmp","生人","Nonmatching","Stranger","你","Self","Self",NA,0,0,0
17,4,50,"S.bmp","你","Matching","Self","你","Self","Self",1,634,0.634,1
17,4,51,"T.bmp","生人","Matching","Stranger","生人","Stranger","Stranger",1,579,0.579,1
17,4,52,"S.bmp","你","Matching","Self","你","Self","Self",1,500,0.5,1
17,4,53,"T.bmp","生人","Matching","Stranger","生人","Stranger","Stranger",1,540,0.54,1
17,4,54,"T.bmp","生人","Matching","Stranger","生人","Stranger","Stranger",1,540,0.54,1
17,4,55,"S.bmp","你","Matching","Self","你","Self","Self",1,372,0.372,1
17,4,56,"T.bmp","生人","Matching","Stranger","生人","Stranger","Stranger",1,556,0.556,1
17,4,57,"T.bmp","你","Nonmatching","Self","生人","Stranger","Stranger",1,548,0.548,0
17,4,58,"T.bmp","生人","Matching","Stranger","生人","Stranger","Stranger",1,605,0.605,1
17,4,59,"T.bmp","生人","Matching","Stranger","生人","Stranger","Stranger",1,469,0.469,1
17,4,60,"S.bmp","你","Matching","Self","你","Self","Self",1,565,0.565,1
17,4,61,"T.bmp","你","Nonmatching","Self","生人","Stranger","Stranger",1,621,0.621,0
17,4,62,"S.bmp","你","Matching","Self","你","Self","Self",1,501,0.501,1
17,4,63,"S.bmp","你","Matching","Self","你","Self","Self",1,525,0.525,1
17,4,64,"S.bmp","生人","Nonmatching","Stranger","你","Self","Self",1,565,0.565,0
17,5,65,"S.bmp","你","Matching","Self","你","Self","Self",1,1013,1.013,1
17,5,66,"S.bmp","你","Matching","Self","你","Self","Self",1,526,0.526,1
17,5,67,"T.bmp","生人","Matching","Stranger","生人","Stranger","Stranger",1,551,0.551,1
17,5,68,"T.bmp","生人","Matching","Stranger","生人","Stranger","Stranger",1,943,0.943,1
17,5,69,"S.bmp","生人","Nonmatching","Stranger","你","Self","Self",2,855,0.855,1
17,5,70,"T.bmp","你","Nonmatching","Self","生人","Stranger","Stranger",1,559,0.559,0
17,5,71,"T.bmp","生人","Matching","Stranger","生人","Stranger","Stranger",1,623,0.623,1
17,5,72,"S.bmp","生人","Nonmatching","Stranger","你","Self","Self",2,999,0.999,1
17,5,73,"S.bmp","你","Matching","Self","你","Self","Self",1,807,0.807,1
17,5,74,"S.bmp","你","Matching","Self","你","Self","Self",1,497,0.497,1
17,5,75,"S.bmp","你","Matching","Self","你","Self","Self",1,394,0.394,1
17,5,76,"T.bmp","生人","Matching","Stranger","生人","Stranger","Stranger",1,650,0.65,1
17,5,77,"T.bmp","生人","Matching","Stranger","生人","Stranger","Stranger",1,434,0.434,1
17,5,78,"T.bmp","生人","Matching","Stranger","生人","Stranger","Stranger",1,602,0.602,1
17,5,79,"T.bmp","你","Nonmatching","Self","生人","Stranger","Stranger",1,530,0.53,0
17,5,80,"S.bmp","你","Matching","Self","你","Self","Self",1,450,0.45,1
17,6,81,"T.bmp","你","Nonmatching","Self","生人","Stranger","Stranger",2,634,0.634,1
17,6,82,"S.bmp","你","Matching","Self","你","Self","Self",1,532,0.532,1
17,6,83,"S.bmp","你","Matching","Self","你","Self","Self",1,581,0.581,1
17,6,84,"S.bmp","生人","Nonmatching","Stranger","你","Self","Self",2,621,0.621,1
17,6,85,"S.bmp","你","Matching","Self","你","Self","Self",1,429,0.429,1
17,6,86,"S.bmp","生人","Nonmatching","Stranger","你","Self","Self",2,773,0.773,1
17,6,87,"S.bmp","你","Matching","Self","你","Self","Self",1,613,0.613,1
17,6,88,"S.bmp","你","Matching","Self","你","Self","Self",1,781,0.781,1
17,6,89,"T.bmp","生人","Matching","Stranger","生人","Stranger","Stranger",1,541,0.541,1
17,6,90,"S.bmp","你","Matching","Self","你","Self","Self",1,573,0.573,1
17,6,91,"T.bmp","生人","Matching","Stranger","生人","Stranger","Stranger",1,677,0.677,1
17,6,92,"T.bmp","生人","Matching","Stranger","生人","Stranger","Stranger",1,549,0.549,1
17,6,93,"T.bmp","生人","Matching","Stranger","生人","Stranger","Stranger",1,797,0.797,1
17,6,94,"T.bmp","生人","Matching","Stranger","生人","Stranger","Stranger",1,445,0.445,1
17,6,95,"T.bmp","你","Nonmatching","Self","生人","Stranger","Stranger",2,629,0.629,1
17,6,96,"T.bmp","生人","Matching","Stranger","生人","Stranger","Stranger",1,517,0.517,1
17,NA,NA,"S.bmp","生人","Nonmatching","Stranger","你","Self","Self",2,835,0.835,1
17,NA,NA,"T.bmp","生人","Matching","Stranger","生人","Stranger","Stranger",1,723,0.723,1
17,NA,NA,"S.bmp","你","Matching","Self","你","Self","Self",1,483,0.483,1
17,NA,NA,"T.bmp","你","Nonmatching","Self","生人","Stranger","Stranger",2,708,0.708,1
18,1,1,"T.bmp","生人","Matching","Stranger","生人","Stranger","Stranger",NA,0,0,0
18,1,2,"T.bmp","生人","Matching","Stranger","生人","Stranger","Stranger",NA,0,0,0
18,1,3,"T.bmp","你","Nonmatching","Self","生人","Stranger","Stranger",1,1008,1.008,1
18,1,4,"T.bmp","生人","Matching","Stranger","生人","Stranger","Stranger",1,970,0.97,0
18,1,5,"C.bmp","你","Matching","Self","你","Self","Self",2,684,0.684,1
18,1,6,"C.bmp","生人","Nonmatching","Stranger","你","Self","Self",1,870,0.87,1
18,1,7,"C.bmp","你","Matching","Self","你","Self","Self",2,624,0.624,1
18,1,8,"C.bmp","生人","Nonmatching","Stranger","你","Self","Self",1,802,0.802,1
18,1,9,"C.bmp","你","Matching","Self","你","Self","Self",2,628,0.628,1
18,1,10,"T.bmp","你","Nonmatching","Self","生人","Stranger","Stranger",NA,0,0,0
18,1,11,"T.bmp","生人","Matching","Stranger","生人","Stranger","Stranger",NA,0,0,0
18,1,12,"C.bmp","你","Matching","Self","你","Self","Self",2,731,0.731,1
18,1,13,"C.bmp","你","Matching","Self","你","Self","Self",2,661,0.661,1
18,1,14,"T.bmp","生人","Matching","Stranger","生人","Stranger","Stranger",2,719,0.719,1
18,1,15,"T.bmp","生人","Matching","Stranger","生人","Stranger","Stranger",2,888,0.888,1
18,1,16,"C.bmp","你","Matching","Self","你","Self","Self",2,651,0.651,1
18,2,17,"C.bmp","生人","Nonmatching","Stranger","你","Self","Self",NA,0,0,0
18,2,18,"C.bmp","你","Matching","Self","你","Self","Self",2,718,0.718,1
18,2,19,"T.bmp","你","Nonmatching","Self","生人","Stranger","Stranger",1,832,0.832,1
18,2,20,"C.bmp","你","Matching","Self","你","Self","Self",2,626,0.626,1
18,2,21,"C.bmp","你","Matching","Self","你","Self","Self",2,596,0.596,1
18,2,22,"T.bmp","生人","Matching","Stranger","生人","Stranger","Stranger",2,998,0.998,1
18,2,23,"C.bmp","你","Matching","Self","你","Self","Self",2,632,0.632,1
18,2,24,"T.bmp","生人","Matching","Stranger","生人","Stranger","Stranger",2,643,0.643,1
18,2,25,"T.bmp","你","Nonmatching","Self","生人","Stranger","Stranger",1,981,0.981,1
18,2,26,"T.bmp","生人","Matching","Stranger","生人","Stranger","Stranger",2,903,0.903,1
18,2,27,"T.bmp","生人","Matching","Stranger","生人","Stranger","Stranger",2,705,0.705,1
18,2,28,"C.bmp","生人","Nonmatching","Stranger","你","Self","Self",1,995,0.995,1
18,2,29,"T.bmp","生人","Matching","Stranger","生人","Stranger","Stranger",2,820,0.82,1
18,2,30,"C.bmp","你","Matching","Self","你","Self","Self",2,422,0.422,1
18,2,31,"T.bmp","生人","Matching","Stranger","生人","Stranger","Stranger",2,648,0.648,1
18,2,32,"C.bmp","你","Matching","Self","你","Self","Self",2,554,0.554,1
18,3,33,"C.bmp","你","Matching","Self","你","Self","Self",2,636,0.636,1
18,3,34,"T.bmp","生人","Matching","Stranger","生人","Stranger","Stranger",2,590,0.59,1
18,3,35,"T.bmp","生人","Matching","Stranger","生人","Stranger","Stranger",2,480,0.48,1
18,3,36,"C.bmp","你","Matching","Self","你","Self","Self",2,499,0.499,1
18,3,37,"T.bmp","你","Nonmatching","Self","生人","Stranger","Stranger",2,613,0.613,0
18,3,38,"T.bmp","生人","Matching","Stranger","生人","Stranger","Stranger",2,807,0.807,1
18,3,39,"T.bmp","生人","Matching","Stranger","生人","Stranger","Stranger",2,737,0.737,1
18,3,40,"C.bmp","你","Matching","Self","你","Self","Self",2,507,0.507,1
18,3,41,"C.bmp","生人","Nonmatching","Stranger","你","Self","Self",1,813,0.813,1
18,3,42,"C.bmp","你","Matching","Self","你","Self","Self",2,583,0.583,1
18,3,43,"T.bmp","生人","Matching","Stranger","生人","Stranger","Stranger",2,1009,1.009,1
18,3,44,"C.bmp","生人","Nonmatching","Stranger","你","Self","Self",1,770,0.77,1
18,3,45,"T.bmp","你","Nonmatching","Self","生人","Stranger","Stranger",2,508,0.508,0
18,3,46,"C.bmp","你","Matching","Self","你","Self","Self",2,574,0.574,1
18,3,47,"T.bmp","生人","Matching","Stranger","生人","Stranger","Stranger",2,720,0.72,1
18,3,48,"C.bmp","你","Matching","Self","你","Self","Self",2,594,0.594,1
18,4,49,"T.bmp","你","Nonmatching","Self","生人","Stranger","Stranger",1,941,0.941,1
18,4,50,"T.bmp","生人","Matching","Stranger","生人","Stranger","Stranger",2,711,0.711,1
18,4,51,"C.bmp","你","Matching","Self","你","Self","Self",2,497,0.497,1
18,4,52,"T.bmp","生人","Matching","Stranger","生人","Stranger","Stranger",2,739,0.739,1
18,4,53,"T.bmp","生人","Matching","Stranger","生人","Stranger","Stranger",2,573,0.573,1
18,4,54,"T.bmp","你","Nonmatching","Self","生人","Stranger","Stranger",1,799,0.799,1
18,4,55,"C.bmp","你","Matching","Self","你","Self","Self",2,457,0.457,1
18,4,56,"C.bmp","生人","Nonmatching","Stranger","你","Self","Self",NA,0,0,0
18,4,57,"T.bmp","生人","Matching","Stranger","生人","Stranger","Stranger",2,804,0.804,1
18,4,58,"T.bmp","生人","Matching","Stranger","生人","Stranger","Stranger",2,774,0.774,1
18,4,59,"C.bmp","你","Matching","Self","你","Self","Self",2,600,0.6,1
18,4,60,"C.bmp","你","Matching","Self","你","Self","Self",2,579,0.579,1
18,4,61,"T.bmp","生人","Matching","Stranger","生人","Stranger","Stranger",2,541,0.541,1
18,4,62,"C.bmp","你","Matching","Self","你","Self","Self",2,479,0.479,1
18,4,63,"C.bmp","生人","Nonmatching","Stranger","你","Self","Self",1,809,0.809,1
18,4,64,"C.bmp","你","Matching","Self","你","Self","Self",2,515,0.515,1
18,5,65,"T.bmp","生人","Matching","Stranger","生人","Stranger","Stranger",2,557,0.557,1
18,5,66,"C.bmp","你","Matching","Self","你","Self","Self",2,583,0.583,1
18,5,67,"T.bmp","生人","Matching","Stranger","生人","Stranger","Stranger",2,825,0.825,1
18,5,68,"C.bmp","你","Matching","Self","你","Self","Self",2,643,0.643,1
18,5,69,"T.bmp","生人","Matching","Stranger","生人","Stranger","Stranger",2,733,0.733,1
18,5,70,"T.bmp","你","Nonmatching","Self","生人","Stranger","Stranger",2,799,0.799,0
18,5,71,"T.bmp","你","Nonmatching","Self","生人","Stranger","Stranger",NA,0,0,0
18,5,72,"T.bmp","生人","Matching","Stranger","生人","Stranger","Stranger",2,867,0.867,1
18,5,73,"T.bmp","生人","Matching","Stranger","生人","Stranger","Stranger",2,749,0.749,1
18,5,74,"C.bmp","你","Matching","Self","你","Self","Self",2,463,0.463,1
18,5,75,"C.bmp","你","Matching","Self","你","Self","Self",2,513,0.513,1
18,5,76,"T.bmp","生人","Matching","Stranger","生人","Stranger","Stranger",2,659,0.659,1
18,5,77,"C.bmp","你","Matching","Self","你","Self","Self",2,517,0.517,1
18,5,78,"C.bmp","生人","Nonmatching","Stranger","你","Self","Self",2,639,0.639,0
18,5,79,"C.bmp","生人","Nonmatching","Stranger","你","Self","Self",NA,0,0,0
18,5,80,"C.bmp","你","Matching","Self","你","Self","Self",2,539,0.539,1
18,6,81,"T.bmp","生人","Matching","Stranger","生人","Stranger","Stranger",2,541,0.541,1
18,6,82,"T.bmp","你","Nonmatching","Self","生人","Stranger","Stranger",1,791,0.791,1
18,6,83,"C.bmp","生人","Nonmatching","Stranger","你","Self","Self",2,473,0.473,0
18,6,84,"T.bmp","你","Nonmatching","Self","生人","Stranger","Stranger",1,875,0.875,1
18,6,85,"T.bmp","生人","Matching","Stranger","生人","Stranger","Stranger",2,702,0.702,1
18,6,86,"T.bmp","生人","Matching","Stranger","生人","Stranger","Stranger",2,631,0.631,1
18,6,87,"T.bmp","生人","Matching","Stranger","生人","Stranger","Stranger",NA,0,0,0
18,6,88,"C.bmp","你","Matching","Self","你","Self","Self",2,515,0.515,1
18,6,89,"C.bmp","你","Matching","Self","你","Self","Self",2,397,0.397,1
18,6,90,"T.bmp","生人","Matching","Stranger","生人","Stranger","Stranger",2,623,0.623,1
18,6,91,"C.bmp","你","Matching","Self","你","Self","Self",2,641,0.641,1
18,6,92,"T.bmp","生人","Matching","Stranger","生人","Stranger","Stranger",2,547,0.547,1
18,6,93,"C.bmp","你","Matching","Self","你","Self","Self",2,485,0.485,1
18,6,94,"C.bmp","生人","Nonmatching","Stranger","你","Self","Self",2,383,0.383,0
18,6,95,"C.bmp","你","Matching","Self","你","Self","Self",2,521,0.521,1
18,6,96,"C.bmp","你","Matching","Self","你","Self","Self",2,587,0.587,1
18,NA,NA,"T.bmp","生人","Matching","Stranger","生人","Stranger","Stranger",NA,0,0,0
18,NA,NA,"C.bmp","你","Matching","Self","你","Self","Self",2,912,0.912,1
18,NA,NA,"T.bmp","你","Nonmatching","Self","生人","Stranger","Stranger",1,866,0.866,1
18,NA,NA,"C.bmp","生人","Nonmatching","Stranger","你","Self","Self",1,940,0.94,1
19,1,1,"D.bmp","你","Nonmatching","Self","生人","Stranger","Stranger",2,775,0.775,1
19,1,2,"D.bmp","生人","Matching","Stranger","生人","Stranger","Stranger",1,839,0.839,1
19,1,3,"C.bmp","你","Matching","Self","你","Self","Self",1,559,0.559,1
19,1,4,"C.bmp","你","Matching","Self","你","Self","Self",1,504,0.504,1
19,1,5,"C.bmp","你","Matching","Self","你","Self","Self",1,832,0.832,1
19,1,6,"D.bmp","生人","Matching","Stranger","生人","Stranger","Stranger",1,800,0.8,1
19,1,7,"C.bmp","你","Matching","Self","你","Self","Self",1,704,0.704,1
19,1,8,"C.bmp","你","Matching","Self","你","Self","Self",1,544,0.544,1
19,1,9,"D.bmp","生人","Matching","Stranger","生人","Stranger","Stranger",1,712,0.712,1
19,1,10,"D.bmp","生人","Matching","Stranger","生人","Stranger","Stranger",1,864,0.864,1
19,1,11,"D.bmp","你","Nonmatching","Self","生人","Stranger","Stranger",2,681,0.681,1
19,1,12,"D.bmp","生人","Matching","Stranger","生人","Stranger","Stranger",1,746,0.746,1
19,1,13,"C.bmp","你","Matching","Self","你","Self","Self",1,571,0.571,1
19,1,14,"C.bmp","生人","Nonmatching","Stranger","你","Self","Self",2,642,0.642,1
19,1,15,"C.bmp","生人","Nonmatching","Stranger","你","Self","Self",1,802,0.802,0
19,1,16,"D.bmp","生人","Matching","Stranger","生人","Stranger","Stranger",NA,0,0,0
19,2,17,"D.bmp","生人","Matching","Stranger","生人","Stranger","Stranger",NA,0,0,0
19,2,18,"C.bmp","你","Matching","Self","你","Self","Self",1,802,0.802,1
19,2,19,"C.bmp","你","Matching","Self","你","Self","Self",1,460,0.46,1
19,2,20,"D.bmp","生人","Matching","Stranger","生人","Stranger","Stranger",1,725,0.725,1
19,2,21,"C.bmp","生人","Nonmatching","Stranger","你","Self","Self",2,933,0.933,1
19,2,22,"D.bmp","你","Nonmatching","Self","生人","Stranger","Stranger",2,717,0.717,1
19,2,23,"C.bmp","生人","Nonmatching","Stranger","你","Self","Self",1,485,0.485,0
19,2,24,"C.bmp","你","Matching","Self","你","Self","Self",1,549,0.549,1
19,2,25,"C.bmp","你","Matching","Self","你","Self","Self",1,557,0.557,1
19,2,26,"C.bmp","你","Matching","Self","你","Self","Self",1,485,0.485,1
19,2,27,"C.bmp","你","Matching","Self","你","Self","Self",1,456,0.456,1
19,2,28,"D.bmp","生人","Matching","Stranger","生人","Stranger","Stranger",1,864,0.864,1
19,2,29,"D.bmp","你","Nonmatching","Self","生人","Stranger","Stranger",2,592,0.592,1
19,2,30,"D.bmp","生人","Matching","Stranger","生人","Stranger","Stranger",1,712,0.712,1
19,2,31,"D.bmp","生人","Matching","Stranger","生人","Stranger","Stranger",1,929,0.929,1
19,2,32,"D.bmp","生人","Matching","Stranger","生人","Stranger","Stranger",1,680,0.68,1
19,3,33,"C.bmp","你","Matching","Self","你","Self","Self",1,552,0.552,1
19,3,34,"D.bmp","生人","Matching","Stranger","生人","Stranger","Stranger",1,800,0.8,1
19,3,35,"D.bmp","生人","Matching","Stranger","生人","Stranger","Stranger",1,714,0.714,1
19,3,36,"C.bmp","生人","Nonmatching","Stranger","你","Self","Self",1,507,0.507,0
19,3,37,"D.bmp","你","Nonmatching","Self","生人","Stranger","Stranger",1,570,0.57,0
19,3,38,"D.bmp","生人","Matching","Stranger","生人","Stranger","Stranger",1,746,0.746,1
19,3,39,"C.bmp","你","Matching","Self","你","Self","Self",1,532,0.532,1
19,3,40,"C.bmp","你","Matching","Self","你","Self","Self",1,450,0.45,1
19,3,41,"C.bmp","你","Matching","Self","你","Self","Self",1,490,0.49,1
19,3,42,"C.bmp","生人","Nonmatching","Stranger","你","Self","Self",2,650,0.65,1
19,3,43,"C.bmp","你","Matching","Self","你","Self","Self",1,868,0.868,1
19,3,44,"D.bmp","生人","Matching","Stranger","生人","Stranger","Stranger",1,765,0.765,1
19,3,45,"D.bmp","生人","Matching","Stranger","生人","Stranger","Stranger",1,565,0.565,1
19,3,46,"D.bmp","你","Nonmatching","Self","生人","Stranger","Stranger",2,733,0.733,1
19,3,47,"C.bmp","你","Matching","Self","你","Self","Self",1,605,0.605,1
19,3,48,"D.bmp","生人","Matching","Stranger","生人","Stranger","Stranger",1,749,0.749,1
19,4,49,"C.bmp","生人","Nonmatching","Stranger","你","Self","Self",1,568,0.568,0
19,4,50,"D.bmp","你","Nonmatching","Self","生人","Stranger","Stranger",NA,0,0,0
19,4,51,"D.bmp","你","Nonmatching","Self","生人","Stranger","Stranger",2,968,0.968,1
19,4,52,"C.bmp","你","Matching","Self","你","Self","Self",1,608,0.608,1
19,4,53,"C.bmp","你","Matching","Self","你","Self","Self",1,496,0.496,1
19,4,54,"C.bmp","生人","Nonmatching","Stranger","你","Self","Self",2,680,0.68,1
19,4,55,"D.bmp","生人","Matching","Stranger","生人","Stranger","Stranger",1,768,0.768,1
19,4,56,"D.bmp","生人","Matching","Stranger","生人","Stranger","Stranger",1,961,0.961,1
19,4,57,"C.bmp","你","Matching","Self","你","Self","Self",1,546,0.546,1
19,4,58,"D.bmp","生人","Matching","Stranger","生人","Stranger","Stranger",2,675,0.675,0
19,4,59,"C.bmp","你","Matching","Self","你","Self","Self",1,530,0.53,1
19,4,60,"D.bmp","生人","Matching","Stranger","生人","Stranger","Stranger",1,930,0.93,1
19,4,61,"C.bmp","你","Matching","Self","你","Self","Self",1,706,0.706,1
19,4,62,"D.bmp","生人","Matching","Stranger","生人","Stranger","Stranger",1,642,0.642,1
19,4,63,"C.bmp","你","Matching","Self","你","Self","Self",1,538,0.538,1
19,4,64,"D.bmp","生人","Matching","Stranger","生人","Stranger","Stranger",1,876,0.876,1
19,5,65,"D.bmp","你","Nonmatching","Self","生人","Stranger","Stranger",2,909,0.909,1
19,5,66,"C.bmp","你","Matching","Self","你","Self","Self",1,541,0.541,1
19,5,67,"D.bmp","你","Nonmatching","Self","生人","Stranger","Stranger",2,957,0.957,1
19,5,68,"C.bmp","生人","Nonmatching","Stranger","你","Self","Self",2,813,0.813,1
19,5,69,"C.bmp","你","Matching","Self","你","Self","Self",1,581,0.581,1
19,5,70,"D.bmp","生人","Matching","Stranger","生人","Stranger","Stranger",2,765,0.765,0
19,5,71,"D.bmp","生人","Matching","Stranger","生人","Stranger","Stranger",1,845,0.845,1
19,5,72,"C.bmp","你","Matching","Self","你","Self","Self",1,504,0.504,1
19,5,73,"C.bmp","你","Matching","Self","你","Self","Self",1,504,0.504,1
19,5,74,"D.bmp","生人","Matching","Stranger","生人","Stranger","Stranger",1,952,0.952,1
19,5,75,"C.bmp","你","Matching","Self","你","Self","Self",1,488,0.488,1
19,5,76,"D.bmp","生人","Matching","Stranger","生人","Stranger","Stranger",2,760,0.76,0
19,5,77,"D.bmp","生人","Matching","Stranger","生人","Stranger","Stranger",1,584,0.584,1
19,5,78,"C.bmp","你","Matching","Self","你","Self","Self",1,416,0.416,1
19,5,79,"D.bmp","生人","Matching","Stranger","生人","Stranger","Stranger",1,872,0.872,1
19,5,80,"C.bmp","生人","Nonmatching","Stranger","你","Self","Self",2,738,0.738,1
19,6,81,"C.bmp","生人","Nonmatching","Stranger","你","Self","Self",2,730,0.73,1
19,6,82,"C.bmp","生人","Nonmatching","Stranger","你","Self","Self",2,554,0.554,1
19,6,83,"C.bmp","你","Matching","Self","你","Self","Self",1,562,0.562,1
19,6,84,"D.bmp","生人","Matching","Stranger","生人","Stranger","Stranger",1,1034,1.034,1
19,6,85,"D.bmp","你","Nonmatching","Self","生人","Stranger","Stranger",2,738,0.738,1
19,6,86,"C.bmp","你","Matching","Self","你","Self","Self",1,586,0.586,1
19,6,87,"C.bmp","你","Matching","Self","你","Self","Self",1,394,0.394,1
19,6,88,"D.bmp","生人","Matching","Stranger","生人","Stranger","Stranger",2,565,0.565,0
19,6,89,"D.bmp","生人","Matching","Stranger","生人","Stranger","Stranger",1,693,0.693,1
19,6,90,"C.bmp","你","Matching","Self","你","Self","Self",1,581,0.581,1
19,6,91,"D.bmp","生人","Matching","Stranger","生人","Stranger","Stranger",1,725,0.725,1
19,6,92,"D.bmp","生人","Matching","Stranger","生人","Stranger","Stranger",1,477,0.477,1
19,6,93,"D.bmp","生人","Matching","Stranger","生人","Stranger","Stranger",1,694,0.694,1
19,6,94,"C.bmp","你","Matching","Self","你","Self","Self",1,454,0.454,1
19,6,95,"C.bmp","你","Matching","Self","你","Self","Self",1,502,0.502,1
19,6,96,"D.bmp","你","Nonmatching","Self","生人","Stranger","Stranger",2,582,0.582,1
19,NA,NA,"C.bmp","你","Matching","Self","你","Self","Self",1,599,0.599,1
19,NA,NA,"D.bmp","你","Nonmatching","Self","生人","Stranger","Stranger",2,959,0.959,1
19,NA,NA,"C.bmp","生人","Nonmatching","Stranger","你","Self","Self",1,1055,1.055,0
19,NA,NA,"D.bmp","生人","Matching","Stranger","生人","Stranger","Stranger",NA,0,0,0
19,NA,NA,"D.bmp","你","Nonmatching","Self","生人","Stranger","Stranger",2,859,0.859,1
19,NA,NA,"D.bmp","生人","Matching","Stranger","生人","Stranger","Stranger",NA,0,0,0
19,NA,NA,"C.bmp","生人","Nonmatching","Stranger","你","Self","Self",NA,0,0,0
19,NA,NA,"C.bmp","你","Matching","Self","你","Self","Self",1,827,0.827,1
19,NA,NA,"C.bmp","你","Matching","Self","你","Self","Self",1,530,0.53,1
19,NA,NA,"D.bmp","你","Nonmatching","Self","生人","Stranger","Stranger",NA,0,0,0
19,NA,NA,"D.bmp","生人","Matching","Stranger","生人","Stranger","Stranger",1,1052,1.052,1
19,NA,NA,"C.bmp","生人","Nonmatching","Stranger","你","Self","Self",NA,0,0,0
19,NA,NA,"C.bmp","生人","Nonmatching","Stranger","你","Self","Self",2,792,0.792,1
19,NA,NA,"D.bmp","你","Nonmatching","Self","生人","Stranger","Stranger",1,802,0.802,0
19,NA,NA,"D.bmp","生人","Matching","Stranger","生人","Stranger","Stranger",1,779,0.779,1
19,NA,NA,"C.bmp","你","Matching","Self","你","Self","Self",1,779,0.779,1
19,NA,NA,"C.bmp","生人","Nonmatching","Stranger","你","Self","Self",2,818,0.818,1
19,NA,NA,"C.bmp","你","Matching","Self","你","Self","Self",1,634,0.634,1
19,NA,NA,"D.bmp","你","Nonmatching","Self","生人","Stranger","Stranger",2,762,0.762,1
19,NA,NA,"D.bmp","生人","Matching","Stranger","生人","Stranger","Stranger",1,874,0.874,1
20,1,1,"Tra.bmp","生人","Nonmatching","Stranger","你","Self","Self",1,758,0.758,1
20,1,2,"D.bmp","你","Nonmatching","Self","生人","Stranger","Stranger",1,942,0.942,1
20,1,3,"D.bmp","生人","Matching","Stranger","生人","Stranger","Stranger",2,528,0.528,1
20,1,4,"Tra.bmp","你","Matching","Self","你","Self","Self",1,777,0.777,0
20,1,5,"D.bmp","生人","Matching","Stranger","生人","Stranger","Stranger",2,657,0.657,1
20,1,6,"D.bmp","你","Nonmatching","Self","生人","Stranger","Stranger",1,625,0.625,1
20,1,7,"Tra.bmp","你","Matching","Self","你","Self","Self",2,553,0.553,1
20,1,8,"Tra.bmp","你","Matching","Self","你","Self","Self",2,601,0.601,1
20,1,9,"D.bmp","生人","Matching","Stranger","生人","Stranger","Stranger",2,560,0.56,1
20,1,10,"Tra.bmp","你","Matching","Self","你","Self","Self",2,801,0.801,1
20,1,11,"Tra.bmp","你","Matching","Self","你","Self","Self",2,603,0.603,1
20,1,12,"D.bmp","生人","Matching","Stranger","生人","Stranger","Stranger",2,595,0.595,1
20,1,13,"Tra.bmp","生人","Nonmatching","Stranger","你","Self","Self",1,771,0.771,1
20,1,14,"D.bmp","生人","Matching","Stranger","生人","Stranger","Stranger",2,603,0.603,1
20,1,15,"Tra.bmp","你","Matching","Self","你","Self","Self",2,595,0.595,1
20,1,16,"D.bmp","生人","Matching","Stranger","生人","Stranger","Stranger",2,595,0.595,1
20,2,17,"Tra.bmp","你","Matching","Self","你","Self","Self",2,531,0.531,1
20,2,18,"D.bmp","你","Nonmatching","Self","生人","Stranger","Stranger",NA,0,0,0
20,2,19,"D.bmp","生人","Matching","Stranger","生人","Stranger","Stranger",2,636,0.636,1
20,2,20,"D.bmp","生人","Matching","Stranger","生人","Stranger","Stranger",2,676,0.676,1
20,2,21,"Tra.bmp","你","Matching","Self","你","Self","Self",2,684,0.684,1
20,2,22,"D.bmp","生人","Matching","Stranger","生人","Stranger","Stranger",2,540,0.54,1
20,2,23,"D.bmp","生人","Matching","Stranger","生人","Stranger","Stranger",2,556,0.556,1
20,2,24,"Tra.bmp","你","Matching","Self","你","Self","Self",2,564,0.564,1
20,2,25,"D.bmp","生人","Matching","Stranger","生人","Stranger","Stranger",2,524,0.524,1
20,2,26,"Tra.bmp","生人","Nonmatching","Stranger","你","Self","Self",2,494,0.494,0
20,2,27,"D.bmp","生人","Matching","Stranger","生人","Stranger","Stranger",2,663,0.663,1
20,2,28,"D.bmp","你","Nonmatching","Self","生人","Stranger","Stranger",2,559,0.559,0
20,2,29,"Tra.bmp","你","Matching","Self","你","Self","Self",2,519,0.519,1
20,2,30,"Tra.bmp","你","Matching","Self","你","Self","Self",2,639,0.639,1
20,2,31,"Tra.bmp","你","Matching","Self","你","Self","Self",2,751,0.751,1
20,2,32,"Tra.bmp","生人","Nonmatching","Stranger","你","Self","Self",1,830,0.83,1
20,3,33,"D.bmp","你","Nonmatching","Self","生人","Stranger","Stranger",2,558,0.558,0
20,3,34,"Tra.bmp","你","Matching","Self","你","Self","Self",2,576,0.576,1
20,3,35,"Tra.bmp","你","Matching","Self","你","Self","Self",2,587,0.587,1
20,3,36,"D.bmp","生人","Matching","Stranger","生人","Stranger","Stranger",2,643,0.643,1
20,3,37,"D.bmp","生人","Matching","Stranger","生人","Stranger","Stranger",2,627,0.627,1
20,3,38,"Tra.bmp","生人","Nonmatching","Stranger","你","Self","Self",1,691,0.691,1
20,3,39,"Tra.bmp","生人","Nonmatching","Stranger","你","Self","Self",1,579,0.579,1
20,3,40,"Tra.bmp","你","Matching","Self","你","Self","Self",2,747,0.747,1
20,3,41,"D.bmp","你","Nonmatching","Self","生人","Stranger","Stranger",1,843,0.843,1
20,3,42,"D.bmp","生人","Matching","Stranger","生人","Stranger","Stranger",2,597,0.597,1
20,3,43,"Tra.bmp","你","Matching","Self","你","Self","Self",1,534,0.534,0
20,3,44,"D.bmp","生人","Matching","Stranger","生人","Stranger","Stranger",2,726,0.726,1
20,3,45,"D.bmp","生人","Matching","Stranger","生人","Stranger","Stranger",1,758,0.758,0
20,3,46,"Tra.bmp","你","Matching","Self","你","Self","Self",2,590,0.59,1
20,3,47,"D.bmp","生人","Matching","Stranger","生人","Stranger","Stranger",2,622,0.622,1
20,3,48,"Tra.bmp","你","Matching","Self","你","Self","Self",2,566,0.566,1
20,4,49,"D.bmp","生人","Matching","Stranger","生人","Stranger","Stranger",2,635,0.635,1
20,4,50,"Tra.bmp","你","Matching","Self","你","Self","Self",2,587,0.587,1
20,4,51,"D.bmp","你","Nonmatching","Self","生人","Stranger","Stranger",2,651,0.651,0
20,4,52,"Tra.bmp","你","Matching","Self","你","Self","Self",2,499,0.499,1
20,4,53,"D.bmp","生人","Matching","Stranger","生人","Stranger","Stranger",2,554,0.554,1
20,4,54,"Tra.bmp","你","Matching","Self","你","Self","Self",2,586,0.586,1
20,4,55,"Tra.bmp","你","Matching","Self","你","Self","Self",2,659,0.659,1
20,4,56,"D.bmp","生人","Matching","Stranger","生人","Stranger","Stranger",2,539,0.539,1
20,4,57,"Tra.bmp","生人","Nonmatching","Stranger","你","Self","Self",1,627,0.627,1
20,4,58,"D.bmp","生人","Matching","Stranger","生人","Stranger","Stranger",2,683,0.683,1
20,4,59,"D.bmp","你","Nonmatching","Self","生人","Stranger","Stranger",1,699,0.699,1
20,4,60,"Tra.bmp","你","Matching","Self","你","Self","Self",2,739,0.739,1
20,4,61,"D.bmp","生人","Matching","Stranger","生人","Stranger","Stranger",2,659,0.659,1
20,4,62,"Tra.bmp","生人","Nonmatching","Stranger","你","Self","Self",2,691,0.691,0
20,4,63,"D.bmp","生人","Matching","Stranger","生人","Stranger","Stranger",2,655,0.655,1
20,4,64,"Tra.bmp","你","Matching","Self","你","Self","Self",2,782,0.782,1
20,5,65,"Tra.bmp","生人","Nonmatching","Stranger","你","Self","Self",1,670,0.67,1
20,5,66,"D.bmp","生人","Matching","Stranger","生人","Stranger","Stranger",2,918,0.918,1
20,5,67,"Tra.bmp","你","Matching","Self","你","Self","Self",2,542,0.542,1
20,5,68,"D.bmp","生人","Matching","Stranger","生人","Stranger","Stranger",2,1062,1.062,1
20,5,69,"Tra.bmp","你","Matching","Self","你","Self","Self",2,670,0.67,1
20,5,70,"D.bmp","生人","Matching","Stranger","生人","Stranger","Stranger",2,662,0.662,1
20,5,71,"Tra.bmp","你","Matching","Self","你","Self","Self",2,560,0.56,1
20,5,72,"D.bmp","生人","Matching","Stranger","生人","Stranger","Stranger",2,602,0.602,1
20,5,73,"D.bmp","你","Nonmatching","Self","生人","Stranger","Stranger",1,803,0.803,1
20,5,74,"Tra.bmp","你","Matching","Self","你","Self","Self",2,522,0.522,1
20,5,75,"Tra.bmp","你","Matching","Self","你","Self","Self",2,579,0.579,1
20,5,76,"D.bmp","生人","Matching","Stranger","生人","Stranger","Stranger",2,522,0.522,1
20,5,77,"Tra.bmp","生人","Nonmatching","Stranger","你","Self","Self",2,482,0.482,0
20,5,78,"Tra.bmp","你","Matching","Self","你","Self","Self",2,594,0.594,1
20,5,79,"D.bmp","生人","Matching","Stranger","生人","Stranger","Stranger",2,564,0.564,1
20,5,80,"D.bmp","你","Nonmatching","Self","生人","Stranger","Stranger",1,765,0.765,1
20,6,81,"Tra.bmp","生人","Nonmatching","Stranger","你","Self","Self",2,557,0.557,0
20,6,82,"Tra.bmp","你","Matching","Self","你","Self","Self",2,533,0.533,1
20,6,83,"Tra.bmp","生人","Nonmatching","Stranger","你","Self","Self",2,669,0.669,0
20,6,84,"Tra.bmp","你","Matching","Self","你","Self","Self",2,581,0.581,1
20,6,85,"D.bmp","生人","Matching","Stranger","生人","Stranger","Stranger",2,741,0.741,1
20,6,86,"D.bmp","生人","Matching","Stranger","生人","Stranger","Stranger",2,645,0.645,1
20,6,87,"Tra.bmp","你","Matching","Self","你","Self","Self",2,630,0.63,1
20,6,88,"Tra.bmp","你","Matching","Self","你","Self","Self",2,990,0.99,1
20,6,89,"D.bmp","生人","Matching","Stranger","生人","Stranger","Stranger",2,694,0.694,1
20,6,90,"D.bmp","生人","Matching","Stranger","生人","Stranger","Stranger",2,830,0.83,1
20,6,91,"D.bmp","你","Nonmatching","Self","生人","Stranger","Stranger",1,598,0.598,1
20,6,92,"Tra.bmp","你","Matching","Self","你","Self","Self",2,646,0.646,1
20,6,93,"D.bmp","生人","Matching","Stranger","生人","Stranger","Stranger",2,734,0.734,1
20,6,94,"D.bmp","你","Nonmatching","Self","生人","Stranger","Stranger",1,807,0.807,1
20,6,95,"D.bmp","生人","Matching","Stranger","生人","Stranger","Stranger",2,607,0.607,1
20,6,96,"Tra.bmp","你","Matching","Self","你","Self","Self",2,775,0.775,1
20,NA,NA,"Tra.bmp","你","Matching","Self","你","Self","Self",2,1035,1.035,1
20,NA,NA,"Tra.bmp","生人","Nonmatching","Stranger","你","Self","Self",1,732,0.732,1
20,NA,NA,"D.bmp","你","Nonmatching","Self","生人","Stranger","Stranger",NA,0,0,0
20,NA,NA,"D.bmp","生人","Matching","Stranger","生人","Stranger","Stranger",2,1005,1.005,1
20,NA,NA,"D.bmp","你","Nonmatching","Self","生人","Stranger","Stranger",NA,0,0,0
20,NA,NA,"Tra.bmp","你","Matching","Self","你","Self","Self",2,669,0.669,1
20,NA,NA,"Tra.bmp","生人","Nonmatching","Stranger","你","Self","Self",1,637,0.637,1
20,NA,NA,"D.bmp","生人","Matching","Stranger","生人","Stranger","Stranger",2,847,0.847,1
21,1,1,"P.bmp","生人","Matching","Stranger","生人","Stranger","Stranger",NA,0,0,0
21,1,2,"Tra.bmp","你","Matching","Self","你","Self","Self",2,854,0.854,0
21,1,3,"Tra.bmp","你","Matching","Self","你","Self","Self",NA,0,0,0
21,1,4,"P.bmp","生人","Matching","Stranger","生人","Stranger","Stranger",1,894,0.894,1
21,1,5,"Tra.bmp","你","Matching","Self","你","Self","Self",NA,0,0,0
21,1,6,"P.bmp","你","Nonmatching","Self","生人","Stranger","Stranger",1,521,0.521,0
21,1,7,"P.bmp","生人","Matching","Stranger","生人","Stranger","Stranger",NA,0,0,0
21,1,8,"P.bmp","你","Nonmatching","Self","生人","Stranger","Stranger",2,873,0.873,1
21,1,9,"Tra.bmp","生人","Nonmatching","Stranger","你","Self","Self",NA,0,0,0
21,1,10,"Tra.bmp","你","Matching","Self","你","Self","Self",2,913,0.913,0
21,1,11,"Tra.bmp","生人","Nonmatching","Stranger","你","Self","Self",NA,0,0,0
21,1,12,"P.bmp","生人","Matching","Stranger","生人","Stranger","Stranger",1,794,0.794,1
21,1,13,"Tra.bmp","你","Matching","Self","你","Self","Self",NA,0,0,0
21,1,14,"P.bmp","生人","Matching","Stranger","生人","Stranger","Stranger",1,739,0.739,1
21,1,15,"P.bmp","生人","Matching","Stranger","生人","Stranger","Stranger",NA,0,0,0
21,1,16,"Tra.bmp","你","Matching","Self","你","Self","Self",1,907,0.907,1
21,2,17,"Tra.bmp","你","Matching","Self","你","Self","Self",NA,0,0,0
21,2,18,"P.bmp","你","Nonmatching","Self","生人","Stranger","Stranger",1,731,0.731,0
21,2,19,"P.bmp","生人","Matching","Stranger","生人","Stranger","Stranger",NA,0,0,0
21,2,20,"Tra.bmp","你","Matching","Self","你","Self","Self",1,651,0.651,1
21,2,21,"P.bmp","生人","Matching","Stranger","生人","Stranger","Stranger",NA,0,0,0
21,2,22,"Tra.bmp","生人","Nonmatching","Stranger","你","Self","Self",2,796,0.796,1
21,2,23,"P.bmp","生人","Matching","Stranger","生人","Stranger","Stranger",NA,0,0,0
21,2,24,"Tra.bmp","你","Matching","Self","你","Self","Self",2,756,0.756,0
21,2,25,"Tra.bmp","生人","Nonmatching","Stranger","你","Self","Self",NA,0,0,0
21,2,26,"P.bmp","生人","Matching","Stranger","生人","Stranger","Stranger",NA,0,0,0
21,2,27,"Tra.bmp","你","Matching","Self","你","Self","Self",NA,0,0,0
21,2,28,"P.bmp","你","Nonmatching","Self","生人","Stranger","Stranger",2,846,0.846,1
21,2,29,"P.bmp","生人","Matching","Stranger","生人","Stranger","Stranger",NA,0,0,0
21,2,30,"P.bmp","生人","Matching","Stranger","生人","Stranger","Stranger",2,807,0.807,0
21,2,31,"Tra.bmp","你","Matching","Self","你","Self","Self",NA,0,0,0
21,2,32,"Tra.bmp","你","Matching","Self","你","Self","Self",1,711,0.711,1
21,3,33,"Tra.bmp","你","Matching","Self","你","Self","Self",NA,0,0,0
21,3,34,"Tra.bmp","生人","Nonmatching","Stranger","你","Self","Self",1,766,0.766,0
21,3,35,"Tra.bmp","你","Matching","Self","你","Self","Self",NA,0,0,0
21,3,36,"P.bmp","生人","Matching","Stranger","生人","Stranger","Stranger",1,915,0.915,1
21,3,37,"P.bmp","生人","Matching","Stranger","生人","Stranger","Stranger",NA,0,0,0
21,3,38,"P.bmp","你","Nonmatching","Self","生人","Stranger","Stranger",2,635,0.635,1
21,3,39,"Tra.bmp","你","Matching","Self","你","Self","Self",NA,0,0,0
21,3,40,"P.bmp","生人","Matching","Stranger","生人","Stranger","Stranger",1,875,0.875,1
21,3,41,"Tra.bmp","你","Matching","Self","你","Self","Self",NA,0,0,0
21,3,42,"P.bmp","生人","Matching","Stranger","生人","Stranger","Stranger",2,868,0.868,0
21,3,43,"P.bmp","生人","Matching","Stranger","生人","Stranger","Stranger",NA,0,0,0
21,3,44,"P.bmp","生人","Matching","Stranger","生人","Stranger","Stranger",2,686,0.686,0
21,3,45,"P.bmp","你","Nonmatching","Self","生人","Stranger","Stranger",NA,0,0,0
21,3,46,"Tra.bmp","生人","Nonmatching","Stranger","你","Self","Self",1,510,0.51,0
21,3,47,"Tra.bmp","你","Matching","Self","你","Self","Self",NA,0,0,0
21,3,48,"Tra.bmp","你","Matching","Self","你","Self","Self",1,526,0.526,1
21,4,49,"Tra.bmp","你","Matching","Self","你","Self","Self",NA,0,0,0
21,4,50,"Tra.bmp","你","Matching","Self","你","Self","Self",1,601,0.601,1
21,4,51,"Tra.bmp","你","Matching","Self","你","Self","Self",NA,0,0,0
21,4,52,"P.bmp","你","Nonmatching","Self","生人","Stranger","Stranger",2,672,0.672,1
21,4,53,"Tra.bmp","你","Matching","Self","你","Self","Self",NA,0,0,0
21,4,54,"P.bmp","生人","Matching","Stranger","生人","Stranger","Stranger",1,738,0.738,1
21,4,55,"P.bmp","生人","Matching","Stranger","生人","Stranger","Stranger",NA,0,0,0
21,4,56,"P.bmp","生人","Matching","Stranger","生人","Stranger","Stranger",2,795,0.795,0
21,4,57,"Tra.bmp","你","Matching","Self","你","Self","Self",NA,0,0,0
21,4,58,"P.bmp","生人","Matching","Stranger","生人","Stranger","Stranger",2,643,0.643,0
21,4,59,"P.bmp","你","Nonmatching","Self","生人","Stranger","Stranger",NA,0,0,0
21,4,60,"Tra.bmp","生人","Nonmatching","Stranger","你","Self","Self",1,963,0.963,0
21,4,61,"P.bmp","生人","Matching","Stranger","生人","Stranger","Stranger",NA,0,0,0
21,4,62,"Tra.bmp","生人","Nonmatching","Stranger","你","Self","Self",1,885,0.885,0
21,4,63,"Tra.bmp","你","Matching","Self","你","Self","Self",NA,0,0,0
21,4,64,"P.bmp","生人","Matching","Stranger","生人","Stranger","Stranger",2,598,0.598,0
21,5,65,"Tra.bmp","你","Matching","Self","你","Self","Self",NA,0,0,0
21,5,66,"Tra.bmp","生人","Nonmatching","Stranger","你","Self","Self",1,710,0.71,0
21,5,67,"P.bmp","生人","Matching","Stranger","生人","Stranger","Stranger",NA,0,0,0
21,5,68,"P.bmp","生人","Matching","Stranger","生人","Stranger","Stranger",1,782,0.782,1
21,5,69,"Tra.bmp","你","Matching","Self","你","Self","Self",NA,0,0,0
21,5,70,"Tra.bmp","你","Matching","Self","你","Self","Self",1,505,0.505,1
21,5,71,"P.bmp","你","Nonmatching","Self","生人","Stranger","Stranger",NA,0,0,0
21,5,72,"P.bmp","你","Nonmatching","Self","生人","Stranger","Stranger",1,768,0.768,0
21,5,73,"Tra.bmp","你","Matching","Self","你","Self","Self",NA,0,0,0
21,5,74,"Tra.bmp","生人","Nonmatching","Stranger","你","Self","Self",1,776,0.776,0
21,5,75,"P.bmp","生人","Matching","Stranger","生人","Stranger","Stranger",NA,0,0,0
21,5,76,"P.bmp","生人","Matching","Stranger","生人","Stranger","Stranger",1,945,0.945,1
21,5,77,"Tra.bmp","你","Matching","Self","你","Self","Self",NA,0,0,0
21,5,78,"P.bmp","生人","Matching","Stranger","生人","Stranger","Stranger",2,561,0.561,0
21,5,79,"Tra.bmp","你","Matching","Self","你","Self","Self",NA,0,0,0
21,5,80,"P.bmp","生人","Matching","Stranger","生人","Stranger","Stranger",1,705,0.705,1
21,6,81,"Tra.bmp","你","Matching","Self","你","Self","Self",NA,0,0,0
21,6,82,"Tra.bmp","你","Matching","Self","你","Self","Self",2,961,0.961,0
21,6,83,"P.bmp","生人","Matching","Stranger","生人","Stranger","Stranger",NA,0,0,0
21,6,84,"P.bmp","生人","Matching","Stranger","生人","Stranger","Stranger",1,763,0.763,1
21,6,85,"Tra.bmp","生人","Nonmatching","Stranger","你","Self","Self",NA,0,0,0
21,6,86,"Tra.bmp","你","Matching","Self","你","Self","Self",NA,0,0,0
21,6,87,"Tra.bmp","你","Matching","Self","你","Self","Self",NA,0,0,0
21,6,88,"Tra.bmp","生人","Nonmatching","Stranger","你","Self","Self",2,1076,1.076,1
21,6,89,"P.bmp","生人","Matching","Stranger","生人","Stranger","Stranger",NA,0,0,0
21,6,90,"P.bmp","生人","Matching","Stranger","生人","Stranger","Stranger",1,684,0.684,1
21,6,91,"P.bmp","你","Nonmatching","Self","生人","Stranger","Stranger",NA,0,0,0
21,6,92,"P.bmp","你","Nonmatching","Self","生人","Stranger","Stranger",2,781,0.781,1
21,6,93,"Tra.bmp","你","Matching","Self","你","Self","Self",NA,0,0,0
21,6,94,"P.bmp","生人","Matching","Stranger","生人","Stranger","Stranger",1,1062,1.062,1
21,6,95,"Tra.bmp","你","Matching","Self","你","Self","Self",NA,0,0,0
21,6,96,"P.bmp","生人","Matching","Stranger","生人","Stranger","Stranger",1,934,0.934,1
21,NA,NA,"P.bmp","你","Nonmatching","Self","生人","Stranger","Stranger",NA,0,0,0
21,NA,NA,"P.bmp","生人","Matching","Stranger","生人","Stranger","Stranger",1,949,0.949,1
21,NA,NA,"Tra.bmp","你","Matching","Self","你","Self","Self",NA,0,0,0
21,NA,NA,"Tra.bmp","生人","Nonmatching","Stranger","你","Self","Self",1,838,0.838,0
22,1,1,"S.bmp","你","Matching","Self","你","Self","Self",2,613,0.613,1
22,1,2,"P.bmp","生人","Matching","Stranger","生人","Stranger","Stranger",1,647,0.647,0
22,1,3,"P.bmp","生人","Matching","Stranger","生人","Stranger","Stranger",2,833,0.833,1
22,1,4,"S.bmp","生人","Nonmatching","Stranger","你","Self","Self",1,739,0.739,1
22,1,5,"S.bmp","你","Matching","Self","你","Self","Self",2,661,0.661,1
22,1,6,"S.bmp","你","Matching","Self","你","Self","Self",2,639,0.639,1
22,1,7,"P.bmp","你","Nonmatching","Self","生人","Stranger","Stranger",1,761,0.761,1
22,1,8,"S.bmp","你","Matching","Self","你","Self","Self",2,523,0.523,1
22,1,9,"P.bmp","生人","Matching","Stranger","生人","Stranger","Stranger",1,830,0.83,0
22,1,10,"P.bmp","生人","Matching","Stranger","生人","Stranger","Stranger",1,816,0.816,0
22,1,11,"P.bmp","你","Nonmatching","Self","生人","Stranger","Stranger",NA,0,0,0
22,1,12,"P.bmp","生人","Matching","Stranger","生人","Stranger","Stranger",1,980,0.98,0
22,1,13,"S.bmp","你","Matching","Self","你","Self","Self",2,934,0.934,1
22,1,14,"S.bmp","生人","Nonmatching","Stranger","你","Self","Self",1,888,0.888,1
22,1,15,"P.bmp","生人","Matching","Stranger","生人","Stranger","Stranger",NA,0,0,0
22,1,16,"S.bmp","你","Matching","Self","你","Self","Self",2,883,0.883,1
22,2,17,"S.bmp","你","Matching","Self","你","Self","Self",2,653,0.653,1
22,2,18,"P.bmp","生人","Matching","Stranger","生人","Stranger","Stranger",1,615,0.615,0
22,2,19,"P.bmp","生人","Matching","Stranger","生人","Stranger","Stranger",2,577,0.577,1
22,2,20,"S.bmp","你","Matching","Self","你","Self","Self",2,587,0.587,1
22,2,21,"P.bmp","你","Nonmatching","Self","生人","Stranger","Stranger",1,693,0.693,1
22,2,22,"P.bmp","生人","Matching","Stranger","生人","Stranger","Stranger",2,679,0.679,1
22,2,23,"S.bmp","你","Matching","Self","你","Self","Self",2,585,0.585,1
22,2,24,"P.bmp","生人","Matching","Stranger","生人","Stranger","Stranger",2,467,0.467,1
22,2,25,"S.bmp","你","Matching","Self","你","Self","Self",2,774,0.774,1
22,2,26,"S.bmp","你","Matching","Self","你","Self","Self",2,624,0.624,1
22,2,27,"S.bmp","生人","Nonmatching","Stranger","你","Self","Self",2,450,0.45,0
22,2,28,"S.bmp","生人","Nonmatching","Stranger","你","Self","Self",NA,0,0,0
22,2,29,"P.bmp","生人","Matching","Stranger","生人","Stranger","Stranger",2,990,0.99,1
22,2,30,"S.bmp","你","Matching","Self","你","Self","Self",2,560,0.56,1
22,2,31,"P.bmp","生人","Matching","Stranger","生人","Stranger","Stranger",2,650,0.65,1
22,2,32,"P.bmp","你","Nonmatching","Self","生人","Stranger","Stranger",1,652,0.652,1
22,3,33,"P.bmp","生人","Matching","Stranger","生人","Stranger","Stranger",2,726,0.726,1
22,3,34,"P.bmp","生人","Matching","Stranger","生人","Stranger","Stranger",2,552,0.552,1
22,3,35,"S.bmp","你","Matching","Self","你","Self","Self",2,649,0.649,1
22,3,36,"S.bmp","你","Matching","Self","你","Self","Self",2,603,0.603,1
22,3,37,"P.bmp","生人","Matching","Stranger","生人","Stranger","Stranger",2,621,0.621,1
22,3,38,"P.bmp","生人","Matching","Stranger","生人","Stranger","Stranger",2,519,0.519,1
22,3,39,"P.bmp","你","Nonmatching","Self","生人","Stranger","Stranger",1,657,0.657,1
22,3,40,"S.bmp","生人","Nonmatching","Stranger","你","Self","Self",1,763,0.763,1
22,3,41,"S.bmp","你","Matching","Self","你","Self","Self",2,638,0.638,1
22,3,42,"S.bmp","你","Matching","Self","你","Self","Self",2,688,0.688,1
22,3,43,"S.bmp","你","Matching","Self","你","Self","Self",2,554,0.554,1
22,3,44,"P.bmp","生人","Matching","Stranger","生人","Stranger","Stranger",2,564,0.564,1
22,3,45,"S.bmp","生人","Nonmatching","Stranger","你","Self","Self",1,638,0.638,1
22,3,46,"P.bmp","生人","Matching","Stranger","生人","Stranger","Stranger",1,720,0.72,0
22,3,47,"S.bmp","你","Matching","Self","你","Self","Self",2,554,0.554,1
22,3,48,"P.bmp","你","Nonmatching","Self","生人","Stranger","Stranger",1,668,0.668,1
22,4,49,"P.bmp","生人","Matching","Stranger","生人","Stranger","Stranger",2,714,0.714,1
22,4,50,"P.bmp","生人","Matching","Stranger","生人","Stranger","Stranger",2,651,0.651,1
22,4,51,"S.bmp","你","Matching","Self","你","Self","Self",2,453,0.453,1
22,4,52,"S.bmp","生人","Nonmatching","Stranger","你","Self","Self",2,447,0.447,0
22,4,53,"P.bmp","生人","Matching","Stranger","生人","Stranger","Stranger",2,586,0.586,1
22,4,54,"P.bmp","你","Nonmatching","Self","生人","Stranger","Stranger",1,604,0.604,1
22,4,55,"P.bmp","生人","Matching","Stranger","生人","Stranger","Stranger",2,638,0.638,1
22,4,56,"P.bmp","生人","Matching","Stranger","生人","Stranger","Stranger",2,584,0.584,1
22,4,57,"P.bmp","你","Nonmatching","Self","生人","Stranger","Stranger",1,666,0.666,1
22,4,58,"S.bmp","你","Matching","Self","你","Self","Self",2,556,0.556,1
22,4,59,"S.bmp","你","Matching","Self","你","Self","Self",2,446,0.446,1
22,4,60,"S.bmp","你","Matching","Self","你","Self","Self",2,424,0.424,1
22,4,61,"S.bmp","你","Matching","Self","你","Self","Self",2,474,0.474,1
22,4,62,"S.bmp","生人","Nonmatching","Stranger","你","Self","Self",2,404,0.404,0
22,4,63,"S.bmp","你","Matching","Self","你","Self","Self",2,494,0.494,1
22,4,64,"P.bmp","生人","Matching","Stranger","生人","Stranger","Stranger",2,712,0.712,1
22,5,65,"S.bmp","生人","Nonmatching","Stranger","你","Self","Self",1,690,0.69,1
22,5,66,"P.bmp","你","Nonmatching","Self","生人","Stranger","Stranger",1,924,0.924,1
22,5,67,"P.bmp","生人","Matching","Stranger","生人","Stranger","Stranger",2,686,0.686,1
22,5,68,"P.bmp","生人","Matching","Stranger","生人","Stranger","Stranger",2,663,0.663,1
22,5,69,"P.bmp","生人","Matching","Stranger","生人","Stranger","Stranger",2,578,0.578,1
22,5,70,"S.bmp","你","Matching","Self","你","Self","Self",1,684,0.684,0
22,5,71,"S.bmp","你","Matching","Self","你","Self","Self",2,526,0.526,1
22,5,72,"P.bmp","生人","Matching","Stranger","生人","Stranger","Stranger",2,688,0.688,1
22,5,73,"S.bmp","你","Matching","Self","你","Self","Self",2,578,0.578,1
22,5,74,"S.bmp","你","Matching","Self","你","Self","Self",2,564,0.564,1
22,5,75,"P.bmp","生人","Matching","Stranger","生人","Stranger","Stranger",2,542,0.542,1
22,5,76,"S.bmp","你","Matching","Self","你","Self","Self",2,520,0.52,1
22,5,77,"S.bmp","你","Matching","Self","你","Self","Self",2,618,0.618,1
22,5,78,"P.bmp","生人","Matching","Stranger","生人","Stranger","Stranger",2,596,0.596,1
22,5,79,"P.bmp","你","Nonmatching","Self","生人","Stranger","Stranger",1,726,0.726,1
22,5,80,"S.bmp","生人","Nonmatching","Stranger","你","Self","Self",2,768,0.768,0
22,6,81,"P.bmp","生人","Matching","Stranger","生人","Stranger","Stranger",2,698,0.698,1
22,6,82,"P.bmp","生人","Matching","Stranger","生人","Stranger","Stranger",2,716,0.716,1
22,6,83,"S.bmp","你","Matching","Self","你","Self","Self",2,526,0.526,1
22,6,84,"P.bmp","生人","Matching","Stranger","生人","Stranger","Stranger",2,552,0.552,1
22,6,85,"P.bmp","你","Nonmatching","Self","生人","Stranger","Stranger",1,771,0.771,1
22,6,86,"S.bmp","生人","Nonmatching","Stranger","你","Self","Self",1,733,0.733,1
22,6,87,"S.bmp","你","Matching","Self","你","Self","Self",2,606,0.606,1
22,6,88,"P.bmp","生人","Matching","Stranger","生人","Stranger","Stranger",2,416,0.416,1
22,6,89,"S.bmp","生人","Nonmatching","Stranger","你","Self","Self",2,754,0.754,0
22,6,90,"S.bmp","你","Matching","Self","你","Self","Self",2,484,0.484,1
22,6,91,"S.bmp","你","Matching","Self","你","Self","Self",2,518,0.518,1
22,6,92,"P.bmp","你","Nonmatching","Self","生人","Stranger","Stranger",1,1080,1.08,1
22,6,93,"S.bmp","你","Matching","Self","你","Self","Self",2,610,0.61,1
22,6,94,"P.bmp","生人","Matching","Stranger","生人","Stranger","Stranger",2,700,0.7,1
22,6,95,"S.bmp","你","Matching","Self","你","Self","Self",2,558,0.558,1
22,6,96,"P.bmp","生人","Matching","Stranger","生人","Stranger","Stranger",2,696,0.696,1
22,NA,NA,"S.bmp","你","Matching","Self","你","Self","Self",2,827,0.827,1
22,NA,NA,"P.bmp","你","Nonmatching","Self","生人","Stranger","Stranger",1,877,0.877,1
22,NA,NA,"P.bmp","生人","Matching","Stranger","生人","Stranger","Stranger",1,751,0.751,0
22,NA,NA,"S.bmp","生人","Nonmatching","Stranger","你","Self","Self",1,1081,1.081,1
22,NA,NA,"P.bmp","生人","Matching","Stranger","生人","Stranger","Stranger",2,965,0.965,1
22,NA,NA,"S.bmp","你","Matching","Self","你","Self","Self",2,775,0.775,1
22,NA,NA,"P.bmp","你","Nonmatching","Self","生人","Stranger","Stranger",2,985,0.985,0
22,NA,NA,"S.bmp","生人","Nonmatching","Stranger","你","Self","Self",1,1060,1.06,1
22,NA,NA,"P.bmp","你","Nonmatching","Self","生人","Stranger","Stranger",1,1025,1.025,1
22,NA,NA,"S.bmp","你","Matching","Self","你","Self","Self",2,715,0.715,1
22,NA,NA,"P.bmp","生人","Matching","Stranger","生人","Stranger","Stranger",NA,0,0,0
22,NA,NA,"S.bmp","生人","Nonmatching","Stranger","你","Self","Self",2,911,0.911,0
23,1,1,"S.bmp","你","Matching","Self","你","Self","Self",1,686,0.686,1
23,1,2,"T.bmp","生人","Matching","Stranger","生人","Stranger","Stranger",1,712,0.712,1
23,1,3,"S.bmp","你","Matching","Self","你","Self","Self",1,513,0.513,1
23,1,4,"S.bmp","生人","Nonmatching","Stranger","你","Self","Self",1,569,0.569,0
23,1,5,"S.bmp","你","Matching","Self","你","Self","Self",1,569,0.569,1
23,1,6,"S.bmp","生人","Nonmatching","Stranger","你","Self","Self",2,529,0.529,1
23,1,7,"S.bmp","你","Matching","Self","你","Self","Self",1,497,0.497,1
23,1,8,"T.bmp","生人","Matching","Stranger","生人","Stranger","Stranger",1,673,0.673,1
23,1,9,"S.bmp","你","Matching","Self","你","Self","Self",1,507,0.507,1
23,1,10,"T.bmp","生人","Matching","Stranger","生人","Stranger","Stranger",1,452,0.452,1
23,1,11,"T.bmp","你","Nonmatching","Self","生人","Stranger","Stranger",2,675,0.675,1
23,1,12,"T.bmp","你","Nonmatching","Self","生人","Stranger","Stranger",2,963,0.963,1
23,1,13,"T.bmp","生人","Matching","Stranger","生人","Stranger","Stranger",1,827,0.827,1
23,1,14,"T.bmp","生人","Matching","Stranger","生人","Stranger","Stranger",1,563,0.563,1
23,1,15,"S.bmp","你","Matching","Self","你","Self","Self",1,555,0.555,1
23,1,16,"T.bmp","生人","Matching","Stranger","生人","Stranger","Stranger",1,795,0.795,1
23,2,17,"T.bmp","生人","Matching","Stranger","生人","Stranger","Stranger",1,477,0.477,1
23,2,18,"S.bmp","你","Matching","Self","你","Self","Self",1,526,0.526,1
23,2,19,"S.bmp","生人","Nonmatching","Stranger","你","Self","Self",1,430,0.43,0
23,2,20,"T.bmp","你","Nonmatching","Self","生人","Stranger","Stranger",1,526,0.526,0
23,2,21,"S.bmp","你","Matching","Self","你","Self","Self",1,494,0.494,1
23,2,22,"S.bmp","你","Matching","Self","你","Self","Self",1,430,0.43,1
23,2,23,"S.bmp","你","Matching","Self","你","Self","Self",1,606,0.606,1
23,2,24,"T.bmp","生人","Matching","Stranger","生人","Stranger","Stranger",1,679,0.679,1
23,2,25,"T.bmp","你","Nonmatching","Self","生人","Stranger","Stranger",2,833,0.833,1
23,2,26,"T.bmp","生人","Matching","Stranger","生人","Stranger","Stranger",1,585,0.585,1
23,2,27,"T.bmp","生人","Matching","Stranger","生人","Stranger","Stranger",1,513,0.513,1
23,2,28,"S.bmp","你","Matching","Self","你","Self","Self",1,793,0.793,1
23,2,29,"T.bmp","生人","Matching","Stranger","生人","Stranger","Stranger",1,761,0.761,1
23,2,30,"S.bmp","你","Matching","Self","你","Self","Self",1,465,0.465,1
23,2,31,"T.bmp","生人","Matching","Stranger","生人","Stranger","Stranger",1,481,0.481,1
23,2,32,"S.bmp","生人","Nonmatching","Stranger","你","Self","Self",2,770,0.77,1
23,3,33,"T.bmp","生人","Matching","Stranger","生人","Stranger","Stranger",1,595,0.595,1
23,3,34,"S.bmp","你","Matching","Self","你","Self","Self",1,483,0.483,1
23,3,35,"T.bmp","生人","Matching","Stranger","生人","Stranger","Stranger",1,699,0.699,1
23,3,36,"S.bmp","你","Matching","Self","你","Self","Self",1,563,0.563,1
23,3,37,"S.bmp","你","Matching","Self","你","Self","Self",1,403,0.403,1
23,3,38,"S.bmp","你","Matching","Self","你","Self","Self",1,371,0.371,1
23,3,39,"T.bmp","生人","Matching","Stranger","生人","Stranger","Stranger",1,460,0.46,1
23,3,40,"S.bmp","你","Matching","Self","你","Self","Self",1,500,0.5,1
23,3,41,"S.bmp","生人","Nonmatching","Stranger","你","Self","Self",2,636,0.636,1
23,3,42,"T.bmp","你","Nonmatching","Self","生人","Stranger","Stranger",2,860,0.86,1
23,3,43,"T.bmp","你","Nonmatching","Self","生人","Stranger","Stranger",2,1077,1.077,1
23,3,44,"T.bmp","生人","Matching","Stranger","生人","Stranger","Stranger",1,612,0.612,1
23,3,45,"S.bmp","生人","Nonmatching","Stranger","你","Self","Self",2,620,0.62,1
23,3,46,"T.bmp","生人","Matching","Stranger","生人","Stranger","Stranger",1,796,0.796,1
23,3,47,"T.bmp","生人","Matching","Stranger","生人","Stranger","Stranger",1,710,0.71,1
23,3,48,"S.bmp","你","Matching","Self","你","Self","Self",1,615,0.615,1
23,4,49,"T.bmp","生人","Matching","Stranger","生人","Stranger","Stranger",1,752,0.752,1
23,4,50,"S.bmp","你","Matching","Self","你","Self","Self",1,536,0.536,1
23,4,51,"S.bmp","你","Matching","Self","你","Self","Self",1,555,0.555,1
23,4,52,"S.bmp","生人","Nonmatching","Stranger","你","Self","Self",2,723,0.723,1
23,4,53,"S.bmp","你","Matching","Self","你","Self","Self",1,515,0.515,1
23,4,54,"S.bmp","生人","Nonmatching","Stranger","你","Self","Self",2,915,0.915,1
23,4,55,"S.bmp","你","Matching","Self","你","Self","Self",1,555,0.555,1
23,4,56,"S.bmp","你","Matching","Self","你","Self","Self",1,571,0.571,1
23,4,57,"S.bmp","你","Matching","Self","你","Self","Self",1,507,0.507,1
23,4,58,"T.bmp","生人","Matching","Stranger","生人","Stranger","Stranger",1,581,0.581,1
23,4,59,"T.bmp","生人","Matching","Stranger","生人","Stranger","Stranger",1,686,0.686,1
23,4,60,"T.bmp","生人","Matching","Stranger","生人","Stranger","Stranger",1,518,0.518,1
23,4,61,"T.bmp","你","Nonmatching","Self","生人","Stranger","Stranger",1,574,0.574,0
23,4,62,"T.bmp","生人","Matching","Stranger","生人","Stranger","Stranger",1,742,0.742,1
23,4,63,"T.bmp","生人","Matching","Stranger","生人","Stranger","Stranger",1,566,0.566,1
23,4,64,"T.bmp","你","Nonmatching","Self","生人","Stranger","Stranger",2,862,0.862,1
23,5,65,"S.bmp","你","Matching","Self","你","Self","Self",1,414,0.414,1
23,5,66,"S.bmp","你","Matching","Self","你","Self","Self",1,431,0.431,1
23,5,67,"S.bmp","你","Matching","Self","你","Self","Self",1,455,0.455,1
23,5,68,"S.bmp","你","Matching","Self","你","Self","Self",1,471,0.471,1
23,5,69,"S.bmp","生人","Nonmatching","Stranger","你","Self","Self",2,607,0.607,1
23,5,70,"S.bmp","你","Matching","Self","你","Self","Self",1,718,0.718,1
23,5,71,"T.bmp","你","Nonmatching","Self","生人","Stranger","Stranger",2,830,0.83,1
23,5,72,"T.bmp","生人","Matching","Stranger","生人","Stranger","Stranger",1,678,0.678,1
23,5,73,"T.bmp","生人","Matching","Stranger","生人","Stranger","Stranger",1,503,0.503,1
23,5,74,"T.bmp","生人","Matching","Stranger","生人","Stranger","Stranger",1,463,0.463,1
23,5,75,"T.bmp","生人","Matching","Stranger","生人","Stranger","Stranger",1,487,0.487,1
23,5,76,"T.bmp","你","Nonmatching","Self","生人","Stranger","Stranger",2,791,0.791,1
23,5,77,"S.bmp","你","Matching","Self","你","Self","Self",1,415,0.415,1
23,5,78,"S.bmp","生人","Nonmatching","Stranger","你","Self","Self",2,871,0.871,1
23,5,79,"T.bmp","生人","Matching","Stranger","生人","Stranger","Stranger",1,631,0.631,1
23,5,80,"T.bmp","生人","Matching","Stranger","生人","Stranger","Stranger",1,535,0.535,1
23,6,81,"T.bmp","你","Nonmatching","Self","生人","Stranger","Stranger",2,840,0.84,1
23,6,82,"S.bmp","你","Matching","Self","你","Self","Self",1,432,0.432,1
23,6,83,"T.bmp","生人","Matching","Stranger","生人","Stranger","Stranger",1,664,0.664,1
23,6,84,"S.bmp","你","Matching","Self","你","Self","Self",1,656,0.656,1
23,6,85,"T.bmp","生人","Matching","Stranger","生人","Stranger","Stranger",1,696,0.696,1
23,6,86,"S.bmp","生人","Nonmatching","Stranger","你","Self","Self",2,664,0.664,1
23,6,87,"T.bmp","你","Nonmatching","Self","生人","Stranger","Stranger",1,464,0.464,0
23,6,88,"S.bmp","你","Matching","Self","你","Self","Self",1,537,0.537,1
23,6,89,"T.bmp","生人","Matching","Stranger","生人","Stranger","Stranger",1,602,0.602,1
23,6,90,"T.bmp","生人","Matching","Stranger","生人","Stranger","Stranger",1,731,0.731,1
23,6,91,"S.bmp","你","Matching","Self","你","Self","Self",1,530,0.53,1
23,6,92,"S.bmp","你","Matching","Self","你","Self","Self",1,474,0.474,1
23,6,93,"T.bmp","生人","Matching","Stranger","生人","Stranger","Stranger",1,682,0.682,1
23,6,94,"S.bmp","你","Matching","Self","你","Self","Self",1,490,0.49,1
23,6,95,"S.bmp","生人","Nonmatching","Stranger","你","Self","Self",2,818,0.818,1
23,6,96,"T.bmp","生人","Matching","Stranger","生人","Stranger","Stranger",1,684,0.684,1
23,NA,NA,"S.bmp","你","Matching","Self","你","Self","Self",1,578,0.578,1
23,NA,NA,"T.bmp","你","Nonmatching","Self","生人","Stranger","Stranger",1,1074,1.074,0
23,NA,NA,"S.bmp","生人","Nonmatching","Stranger","你","Self","Self",NA,0,0,0
23,NA,NA,"T.bmp","生人","Matching","Stranger","生人","Stranger","Stranger",NA,0,0,0
23,NA,NA,"T.bmp","生人","Matching","Stranger","生人","Stranger","Stranger",1,945,0.945,1
23,NA,NA,"T.bmp","你","Nonmatching","Self","生人","Stranger","Stranger",2,938,0.938,1
23,NA,NA,"S.bmp","你","Matching","Self","你","Self","Self",1,642,0.642,1
23,NA,NA,"S.bmp","生人","Nonmatching","Stranger","你","Self","Self",2,714,0.714,1
23,NA,NA,"T.bmp","生人","Matching","Stranger","生人","Stranger","Stranger",1,733,0.733,1
23,NA,NA,"T.bmp","你","Nonmatching","Self","生人","Stranger","Stranger",2,832,0.832,1
23,NA,NA,"S.bmp","你","Matching","Self","你","Self","Self",1,640,0.64,1
23,NA,NA,"S.bmp","生人","Nonmatching","Stranger","你","Self","Self",2,689,0.689,1
24,1,1,"T.bmp","生人","Matching","Stranger","生人","Stranger","Stranger",2,585,0.585,1
24,1,2,"C.bmp","你","Matching","Self","你","Self","Self",2,537,0.537,1
24,1,3,"C.bmp","你","Matching","Self","你","Self","Self",2,689,0.689,1
24,1,4,"T.bmp","生人","Matching","Stranger","生人","Stranger","Stranger",2,809,0.809,1
24,1,5,"C.bmp","你","Matching","Self","你","Self","Self",2,745,0.745,1
24,1,6,"C.bmp","你","Matching","Self","你","Self","Self",2,612,0.612,1
24,1,7,"C.bmp","你","Matching","Self","你","Self","Self",2,588,0.588,1
24,1,8,"C.bmp","你","Matching","Self","你","Self","Self",2,548,0.548,1
24,1,9,"T.bmp","你","Nonmatching","Self","生人","Stranger","Stranger",1,684,0.684,1
24,1,10,"T.bmp","你","Nonmatching","Self","生人","Stranger","Stranger",1,700,0.7,1
24,1,11,"T.bmp","生人","Matching","Stranger","生人","Stranger","Stranger",2,580,0.58,1
24,1,12,"C.bmp","生人","Nonmatching","Stranger","你","Self","Self",1,812,0.812,1
24,1,13,"T.bmp","生人","Matching","Stranger","生人","Stranger","Stranger",2,893,0.893,1
24,1,14,"T.bmp","生人","Matching","Stranger","生人","Stranger","Stranger",2,661,0.661,1
24,1,15,"C.bmp","生人","Nonmatching","Stranger","你","Self","Self",1,709,0.709,1
24,1,16,"T.bmp","生人","Matching","Stranger","生人","Stranger","Stranger",2,741,0.741,1
24,2,17,"C.bmp","生人","Nonmatching","Stranger","你","Self","Self",1,797,0.797,1
24,2,18,"T.bmp","生人","Matching","Stranger","生人","Stranger","Stranger",2,860,0.86,1
24,2,19,"C.bmp","你","Matching","Self","你","Self","Self",2,597,0.597,1
24,2,20,"C.bmp","你","Matching","Self","你","Self","Self",2,580,0.58,1
24,2,21,"T.bmp","你","Nonmatching","Self","生人","Stranger","Stranger",1,695,0.695,1
24,2,22,"T.bmp","你","Nonmatching","Self","生人","Stranger","Stranger",1,663,0.663,1
24,2,23,"T.bmp","生人","Matching","Stranger","生人","Stranger","Stranger",2,775,0.775,1
24,2,24,"C.bmp","你","Matching","Self","你","Self","Self",2,543,0.543,1
24,2,25,"T.bmp","生人","Matching","Stranger","生人","Stranger","Stranger",2,807,0.807,1
24,2,26,"T.bmp","生人","Matching","Stranger","生人","Stranger","Stranger",2,720,0.72,1
24,2,27,"C.bmp","你","Matching","Self","你","Self","Self",2,655,0.655,1
24,2,28,"C.bmp","生人","Nonmatching","Stranger","你","Self","Self",1,896,0.896,1
24,2,29,"C.bmp","你","Matching","Self","你","Self","Self",2,608,0.608,1
24,2,30,"T.bmp","生人","Matching","Stranger","生人","Stranger","Stranger",2,656,0.656,1
24,2,31,"C.bmp","你","Matching","Self","你","Self","Self",2,640,0.64,1
24,2,32,"T.bmp","生人","Matching","Stranger","生人","Stranger","Stranger",2,680,0.68,1
24,3,33,"T.bmp","生人","Matching","Stranger","生人","Stranger","Stranger",2,776,0.776,1
24,3,34,"T.bmp","生人","Matching","Stranger","生人","Stranger","Stranger",2,720,0.72,1
24,3,35,"T.bmp","生人","Matching","Stranger","生人","Stranger","Stranger",2,592,0.592,1
24,3,36,"T.bmp","你","Nonmatching","Self","生人","Stranger","Stranger",1,875,0.875,1
24,3,37,"C.bmp","生人","Nonmatching","Stranger","你","Self","Self",1,899,0.899,1
24,3,38,"T.bmp","生人","Matching","Stranger","生人","Stranger","Stranger",2,707,0.707,1
24,3,39,"C.bmp","你","Matching","Self","你","Self","Self",2,571,0.571,1
24,3,40,"C.bmp","你","Matching","Self","你","Self","Self",2,523,0.523,1
24,3,41,"C.bmp","你","Matching","Self","你","Self","Self",2,546,0.546,1
24,3,42,"C.bmp","你","Matching","Self","你","Self","Self",2,722,0.722,1
24,3,43,"T.bmp","你","Nonmatching","Self","生人","Stranger","Stranger",1,907,0.907,1
24,3,44,"C.bmp","你","Matching","Self","你","Self","Self",2,661,0.661,1
24,3,45,"C.bmp","你","Matching","Self","你","Self","Self",2,557,0.557,1
24,3,46,"T.bmp","生人","Matching","Stranger","生人","Stranger","Stranger",2,813,0.813,1
24,3,47,"C.bmp","生人","Nonmatching","Stranger","你","Self","Self",1,781,0.781,1
24,3,48,"T.bmp","生人","Matching","Stranger","生人","Stranger","Stranger",2,757,0.757,1
24,4,49,"T.bmp","生人","Matching","Stranger","生人","Stranger","Stranger",2,578,0.578,1
24,4,50,"T.bmp","生人","Matching","Stranger","生人","Stranger","Stranger",2,978,0.978,1
24,4,51,"C.bmp","生人","Nonmatching","Stranger","你","Self","Self",1,962,0.962,1
24,4,52,"C.bmp","你","Matching","Self","你","Self","Self",2,642,0.642,1
24,4,53,"T.bmp","生人","Matching","Stranger","生人","Stranger","Stranger",2,802,0.802,1
24,4,54,"T.bmp","生人","Matching","Stranger","生人","Stranger","Stranger",2,586,0.586,1
24,4,55,"C.bmp","你","Matching","Self","你","Self","Self",2,597,0.597,1
24,4,56,"C.bmp","你","Matching","Self","你","Self","Self",2,700,0.7,1
24,4,57,"C.bmp","你","Matching","Self","你","Self","Self",2,493,0.493,1
24,4,58,"T.bmp","生人","Matching","Stranger","生人","Stranger","Stranger",NA,0,0,0
24,4,59,"C.bmp","生人","Nonmatching","Stranger","你","Self","Self",1,988,0.988,1
24,4,60,"C.bmp","你","Matching","Self","你","Self","Self",2,620,0.62,1
24,4,61,"T.bmp","你","Nonmatching","Self","生人","Stranger","Stranger",1,796,0.796,1
24,4,62,"C.bmp","你","Matching","Self","你","Self","Self",2,599,0.599,1
24,4,63,"T.bmp","生人","Matching","Stranger","生人","Stranger","Stranger",2,1021,1.021,1
24,4,64,"T.bmp","你","Nonmatching","Self","生人","Stranger","Stranger",1,781,0.781,1
24,5,65,"T.bmp","生人","Matching","Stranger","生人","Stranger","Stranger",2,597,0.597,1
24,5,66,"C.bmp","生人","Nonmatching","Stranger","你","Self","Self",1,733,0.733,1
24,5,67,"T.bmp","生人","Matching","Stranger","生人","Stranger","Stranger",2,1029,1.029,1
24,5,68,"T.bmp","生人","Matching","Stranger","生人","Stranger","Stranger",2,677,0.677,1
24,5,69,"C.bmp","你","Matching","Self","你","Self","Self",2,581,0.581,1
24,5,70,"C.bmp","你","Matching","Self","你","Self","Self",2,527,0.527,1
24,5,71,"T.bmp","生人","Matching","Stranger","生人","Stranger","Stranger",2,713,0.713,1
24,5,72,"C.bmp","你","Matching","Self","你","Self","Self",2,634,0.634,1
24,5,73,"T.bmp","生人","Matching","Stranger","生人","Stranger","Stranger",2,530,0.53,1
24,5,74,"T.bmp","你","Nonmatching","Self","生人","Stranger","Stranger",1,1002,1.002,1
24,5,75,"C.bmp","你","Matching","Self","你","Self","Self",2,642,0.642,1
24,5,76,"C.bmp","生人","Nonmatching","Stranger","你","Self","Self",1,850,0.85,1
24,5,77,"T.bmp","你","Nonmatching","Self","生人","Stranger","Stranger",2,635,0.635,0
24,5,78,"C.bmp","你","Matching","Self","你","Self","Self",2,675,0.675,1
24,5,79,"C.bmp","你","Matching","Self","你","Self","Self",2,596,0.596,1
24,5,80,"T.bmp","生人","Matching","Stranger","生人","Stranger","Stranger",2,924,0.924,1
24,6,81,"T.bmp","生人","Matching","Stranger","生人","Stranger","Stranger",2,772,0.772,1
24,6,82,"C.bmp","你","Matching","Self","你","Self","Self",2,668,0.668,1
24,6,83,"C.bmp","你","Matching","Self","你","Self","Self",2,804,0.804,1
24,6,84,"C.bmp","你","Matching","Self","你","Self","Self",2,484,0.484,1
24,6,85,"T.bmp","你","Nonmatching","Self","生人","Stranger","Stranger",1,582,0.582,1
24,6,86,"T.bmp","生人","Matching","Stranger","生人","Stranger","Stranger",2,697,0.697,1
24,6,87,"C.bmp","生人","Nonmatching","Stranger","你","Self","Self",1,785,0.785,1
24,6,88,"T.bmp","生人","Matching","Stranger","生人","Stranger","Stranger",2,761,0.761,1
24,6,89,"C.bmp","生人","Nonmatching","Stranger","你","Self","Self",1,817,0.817,1
24,6,90,"C.bmp","你","Matching","Self","你","Self","Self",2,601,0.601,1
24,6,91,"T.bmp","生人","Matching","Stranger","生人","Stranger","Stranger",2,649,0.649,1
24,6,92,"C.bmp","你","Matching","Self","你","Self","Self",2,714,0.714,1
24,6,93,"T.bmp","生人","Matching","Stranger","生人","Stranger","Stranger",2,787,0.787,1
24,6,94,"C.bmp","你","Matching","Self","你","Self","Self",2,628,0.628,1
24,6,95,"T.bmp","生人","Matching","Stranger","生人","Stranger","Stranger",2,724,0.724,1
24,6,96,"T.bmp","你","Nonmatching","Self","生人","Stranger","Stranger",1,852,0.852,1
24,NA,NA,"T.bmp","你","Nonmatching","Self","生人","Stranger","Stranger",2,1042,1.042,0
24,NA,NA,"C.bmp","生人","Nonmatching","Stranger","你","Self","Self",NA,0,0,0
24,NA,NA,"T.bmp","生人","Matching","Stranger","生人","Stranger","Stranger",NA,0,0,0
24,NA,NA,"C.bmp","你","Matching","Self","你","Self","Self",1,1085,1.085,0
24,NA,NA,"C.bmp","你","Matching","Self","你","Self","Self",2,635,0.635,1
24,NA,NA,"C.bmp","生人","Nonmatching","Stranger","你","Self","Self",1,868,0.868,1
24,NA,NA,"T.bmp","你","Nonmatching","Self","生人","Stranger","Stranger",1,942,0.942,1
24,NA,NA,"T.bmp","生人","Matching","Stranger","生人","Stranger","Stranger",NA,0,0,0
24,NA,NA,"C.bmp","你","Matching","Self","你","Self","Self",2,957,0.957,1
24,NA,NA,"C.bmp","生人","Nonmatching","Stranger","你","Self","Self",1,773,0.773,1
24,NA,NA,"T.bmp","生人","Matching","Stranger","生人","Stranger","Stranger",2,693,0.693,1
24,NA,NA,"T.bmp","你","Nonmatching","Self","生人","Stranger","Stranger",1,767,0.767,1
24,NA,NA,"C.bmp","你","Matching","Self","你","Self","Self",2,670,0.67,1
24,NA,NA,"T.bmp","生人","Matching","Stranger","生人","Stranger","Stranger",2,544,0.544,1
24,NA,NA,"T.bmp","你","Nonmatching","Self","生人","Stranger","Stranger",1,672,0.672,1
24,NA,NA,"C.bmp","生人","Nonmatching","Stranger","你","Self","Self",1,760,0.76,1
24,NA,NA,"C.bmp","生人","Nonmatching","Stranger","你","Self","Self",1,811,0.811,1
24,NA,NA,"T.bmp","生人","Matching","Stranger","生人","Stranger","Stranger",2,789,0.789,1
24,NA,NA,"C.bmp","你","Matching","Self","你","Self","Self",2,509,0.509,1
24,NA,NA,"T.bmp","你","Nonmatching","Self","生人","Stranger","Stranger",1,821,0.821,1
25,1,1,"C.bmp","你","Matching","Self","你","Self","Self",1,424,0.424,1
25,1,2,"C.bmp","你","Matching","Self","你","Self","Self",1,552,0.552,1
25,1,3,"C.bmp","生人","Nonmatching","Stranger","你","Self","Self",2,530,0.53,1
25,1,4,"D.bmp","生人","Matching","Stranger","生人","Stranger","Stranger",2,587,0.587,0
25,1,5,"C.bmp","你","Matching","Self","你","Self","Self",1,603,0.603,1
25,1,6,"D.bmp","你","Nonmatching","Self","生人","Stranger","Stranger",2,707,0.707,1
25,1,7,"C.bmp","生人","Nonmatching","Stranger","你","Self","Self",2,819,0.819,1
25,1,8,"C.bmp","你","Matching","Self","你","Self","Self",1,571,0.571,1
25,1,9,"C.bmp","你","Matching","Self","你","Self","Self",1,635,0.635,1
25,1,10,"D.bmp","生人","Matching","Stranger","生人","Stranger","Stranger",2,1051,1.051,0
25,1,11,"D.bmp","生人","Matching","Stranger","生人","Stranger","Stranger",1,771,0.771,1
25,1,12,"C.bmp","你","Matching","Self","你","Self","Self",1,461,0.461,1
25,1,13,"D.bmp","生人","Matching","Stranger","生人","Stranger","Stranger",1,494,0.494,1
25,1,14,"D.bmp","你","Nonmatching","Self","生人","Stranger","Stranger",1,990,0.99,0
25,1,15,"D.bmp","生人","Matching","Stranger","生人","Stranger","Stranger",1,998,0.998,1
25,1,16,"D.bmp","生人","Matching","Stranger","生人","Stranger","Stranger",1,846,0.846,1
25,2,17,"D.bmp","你","Nonmatching","Self","生人","Stranger","Stranger",2,750,0.75,1
25,2,18,"C.bmp","生人","Nonmatching","Stranger","你","Self","Self",2,982,0.982,1
25,2,19,"D.bmp","生人","Matching","Stranger","生人","Stranger","Stranger",1,798,0.798,1
25,2,20,"D.bmp","生人","Matching","Stranger","生人","Stranger","Stranger",1,710,0.71,1
25,2,21,"D.bmp","你","Nonmatching","Self","生人","Stranger","Stranger",2,720,0.72,1
25,2,22,"C.bmp","你","Matching","Self","你","Self","Self",1,571,0.571,1
25,2,23,"C.bmp","生人","Nonmatching","Stranger","你","Self","Self",2,779,0.779,1
25,2,24,"C.bmp","你","Matching","Self","你","Self","Self",1,435,0.435,1
25,2,25,"D.bmp","生人","Matching","Stranger","生人","Stranger","Stranger",NA,0,0,0
25,2,26,"C.bmp","你","Matching","Self","你","Self","Self",1,650,0.65,1
25,2,27,"C.bmp","你","Matching","Self","你","Self","Self",1,706,0.706,1
25,2,28,"C.bmp","你","Matching","Self","你","Self","Self",1,690,0.69,1
25,2,29,"D.bmp","生人","Matching","Stranger","生人","Stranger","Stranger",1,722,0.722,1
25,2,30,"C.bmp","你","Matching","Self","你","Self","Self",1,875,0.875,1
25,2,31,"D.bmp","生人","Matching","Stranger","生人","Stranger","Stranger",1,684,0.684,1
25,2,32,"D.bmp","生人","Matching","Stranger","生人","Stranger","Stranger",1,517,0.517,1
25,3,33,"D.bmp","生人","Matching","Stranger","生人","Stranger","Stranger",1,509,0.509,1
25,3,34,"D.bmp","你","Nonmatching","Self","生人","Stranger","Stranger",1,405,0.405,0
25,3,35,"D.bmp","生人","Matching","Stranger","生人","Stranger","Stranger",1,685,0.685,1
25,3,36,"C.bmp","你","Matching","Self","你","Self","Self",1,549,0.549,1
25,3,37,"C.bmp","你","Matching","Self","你","Self","Self",1,397,0.397,1
25,3,38,"C.bmp","你","Matching","Self","你","Self","Self",1,389,0.389,1
25,3,39,"C.bmp","生人","Nonmatching","Stranger","你","Self","Self",1,373,0.373,0
25,3,40,"D.bmp","你","Nonmatching","Self","生人","Stranger","Stranger",2,807,0.807,1
25,3,41,"C.bmp","你","Matching","Self","你","Self","Self",1,744,0.744,1
25,3,42,"C.bmp","你","Matching","Self","你","Self","Self",1,688,0.688,1
25,3,43,"D.bmp","生人","Matching","Stranger","生人","Stranger","Stranger",1,784,0.784,1
25,3,44,"C.bmp","生人","Nonmatching","Stranger","你","Self","Self",2,688,0.688,1
25,3,45,"D.bmp","生人","Matching","Stranger","生人","Stranger","Stranger",1,760,0.76,1
25,3,46,"D.bmp","生人","Matching","Stranger","生人","Stranger","Stranger",1,888,0.888,1
25,3,47,"D.bmp","生人","Matching","Stranger","生人","Stranger","Stranger",1,624,0.624,1
25,3,48,"C.bmp","你","Matching","Self","你","Self","Self",1,672,0.672,1
25,4,49,"D.bmp","生人","Matching","Stranger","生人","Stranger","Stranger",1,821,0.821,1
25,4,50,"D.bmp","生人","Matching","Stranger","生人","Stranger","Stranger",1,693,0.693,1
25,4,51,"C.bmp","你","Matching","Self","你","Self","Self",1,501,0.501,1
25,4,52,"D.bmp","生人","Matching","Stranger","生人","Stranger","Stranger",1,533,0.533,1
25,4,53,"D.bmp","生人","Matching","Stranger","生人","Stranger","Stranger",1,493,0.493,1
25,4,54,"C.bmp","你","Matching","Self","你","Self","Self",1,333,0.333,1
25,4,55,"D.bmp","生人","Matching","Stranger","生人","Stranger","Stranger",1,439,0.439,1
25,4,56,"C.bmp","你","Matching","Self","你","Self","Self",1,512,0.512,1
25,4,57,"C.bmp","生人","Nonmatching","Stranger","你","Self","Self",2,784,0.784,1
25,4,58,"D.bmp","你","Nonmatching","Self","生人","Stranger","Stranger",1,536,0.536,0
25,4,59,"C.bmp","你","Matching","Self","你","Self","Self",1,496,0.496,1
25,4,60,"C.bmp","生人","Nonmatching","Stranger","你","Self","Self",2,800,0.8,1
25,4,61,"D.bmp","生人","Matching","Stranger","生人","Stranger","Stranger",1,648,0.648,1
25,4,62,"C.bmp","你","Matching","Self","你","Self","Self",1,408,0.408,1
25,4,63,"C.bmp","你","Matching","Self","你","Self","Self",1,512,0.512,1
25,4,64,"D.bmp","你","Nonmatching","Self","生人","Stranger","Stranger",2,897,0.897,1
25,5,65,"D.bmp","生人","Matching","Stranger","生人","Stranger","Stranger",1,874,0.874,1
25,5,66,"C.bmp","生人","Nonmatching","Stranger","你","Self","Self",2,746,0.746,1
25,5,67,"D.bmp","生人","Matching","Stranger","生人","Stranger","Stranger",1,810,0.81,1
25,5,68,"C.bmp","你","Matching","Self","你","Self","Self",1,386,0.386,1
25,5,69,"D.bmp","生人","Matching","Stranger","生人","Stranger","Stranger",1,506,0.506,1
25,5,70,"C.bmp","你","Matching","Self","你","Self","Self",1,660,0.66,1
25,5,71,"D.bmp","生人","Matching","Stranger","生人","Stranger","Stranger",2,746,0.746,0
25,5,72,"D.bmp","生人","Matching","Stranger","生人","Stranger","Stranger",1,410,0.41,1
25,5,73,"D.bmp","你","Nonmatching","Self","生人","Stranger","Stranger",2,772,0.772,1
25,5,74,"C.bmp","你","Matching","Self","你","Self","Self",1,645,0.645,1
25,5,75,"D.bmp","生人","Matching","Stranger","生人","Stranger","Stranger",2,781,0.781,0
25,5,76,"C.bmp","生人","Nonmatching","Stranger","你","Self","Self",2,813,0.813,1
25,5,77,"D.bmp","你","Nonmatching","Self","生人","Stranger","Stranger",1,549,0.549,0
25,5,78,"C.bmp","你","Matching","Self","你","Self","Self",1,510,0.51,1
25,5,79,"C.bmp","你","Matching","Self","你","Self","Self",1,421,0.421,1
25,5,80,"C.bmp","你","Matching","Self","你","Self","Self",1,493,0.493,1
25,6,81,"D.bmp","你","Nonmatching","Self","生人","Stranger","Stranger",2,765,0.765,1
25,6,82,"C.bmp","你","Matching","Self","你","Self","Self",1,630,0.63,1
25,6,83,"D.bmp","生人","Matching","Stranger","生人","Stranger","Stranger",1,679,0.679,1
25,6,84,"D.bmp","生人","Matching","Stranger","生人","Stranger","Stranger",1,528,0.528,1
25,6,85,"D.bmp","生人","Matching","Stranger","生人","Stranger","Stranger",1,376,0.376,1
25,6,86,"C.bmp","你","Matching","Self","你","Self","Self",1,576,0.576,1
25,6,87,"C.bmp","生人","Nonmatching","Stranger","你","Self","Self",2,800,0.8,1
25,6,88,"C.bmp","你","Matching","Self","你","Self","Self",1,648,0.648,1
25,6,89,"D.bmp","生人","Matching","Stranger","生人","Stranger","Stranger",1,680,0.68,1
25,6,90,"C.bmp","你","Matching","Self","你","Self","Self",1,544,0.544,1
25,6,91,"D.bmp","你","Nonmatching","Self","生人","Stranger","Stranger",2,992,0.992,1
25,6,92,"C.bmp","你","Matching","Self","你","Self","Self",1,594,0.594,1
25,6,93,"D.bmp","生人","Matching","Stranger","生人","Stranger","Stranger",1,637,0.637,1
25,6,94,"C.bmp","生人","Nonmatching","Stranger","你","Self","Self",2,830,0.83,1
25,6,95,"C.bmp","你","Matching","Self","你","Self","Self",1,733,0.733,1
25,6,96,"D.bmp","生人","Matching","Stranger","生人","Stranger","Stranger",1,709,0.709,1
25,NA,NA,"D.bmp","你","Nonmatching","Self","生人","Stranger","Stranger",2,753,0.753,1
25,NA,NA,"C.bmp","你","Matching","Self","你","Self","Self",1,617,0.617,1
25,NA,NA,"D.bmp","生人","Matching","Stranger","生人","Stranger","Stranger",1,755,0.755,1
25,NA,NA,"C.bmp","生人","Nonmatching","Stranger","你","Self","Self",2,597,0.597,1
26,1,1,"Tra.bmp","你","Matching","Self","你","Self","Self",NA,0,0,0
26,1,2,"Tra.bmp","生人","Nonmatching","Stranger","你","Self","Self",NA,0,0,0
26,1,3,"Tra.bmp","你","Matching","Self","你","Self","Self",NA,0,0,0
26,1,4,"Tra.bmp","你","Matching","Self","你","Self","Self",NA,0,0,0
26,1,5,"D.bmp","生人","Matching","Stranger","生人","Stranger","Stranger",NA,0,0,0
26,1,6,"D.bmp","生人","Matching","Stranger","生人","Stranger","Stranger",NA,0,0,0
26,1,7,"D.bmp","生人","Matching","Stranger","生人","Stranger","Stranger",NA,0,0,0
26,1,8,"D.bmp","生人","Matching","Stranger","生人","Stranger","Stranger",1,176,0.176,0
26,1,9,"Tra.bmp","你","Matching","Self","你","Self","Self",2,882,0.882,1
26,1,10,"D.bmp","你","Nonmatching","Self","生人","Stranger","Stranger",NA,0,0,0
26,1,11,"D.bmp","生人","Matching","Stranger","生人","Stranger","Stranger",1,989,0.989,0
26,1,12,"D.bmp","你","Nonmatching","Self","生人","Stranger","Stranger",2,901,0.901,0
26,1,13,"Tra.bmp","你","Matching","Self","你","Self","Self",2,925,0.925,1
26,1,14,"Tra.bmp","生人","Nonmatching","Stranger","你","Self","Self",NA,0,0,0
26,1,15,"D.bmp","生人","Matching","Stranger","生人","Stranger","Stranger",NA,0,0,0
26,1,16,"Tra.bmp","你","Matching","Self","你","Self","Self",2,1045,1.045,1
26,2,17,"Tra.bmp","你","Matching","Self","你","Self","Self",2,949,0.949,1
26,2,18,"Tra.bmp","生人","Nonmatching","Stranger","你","Self","Self",1,991,0.991,1
26,2,19,"D.bmp","生人","Matching","Stranger","生人","Stranger","Stranger",NA,0,0,0
26,2,20,"D.bmp","生人","Matching","Stranger","生人","Stranger","Stranger",NA,0,0,0
26,2,21,"D.bmp","生人","Matching","Stranger","生人","Stranger","Stranger",NA,0,0,0
26,2,22,"Tra.bmp","你","Matching","Self","你","Self","Self",2,978,0.978,1
26,2,23,"Tra.bmp","生人","Nonmatching","Stranger","你","Self","Self",NA,0,0,0
26,2,24,"D.bmp","生人","Matching","Stranger","生人","Stranger","Stranger",NA,0,0,0
26,2,25,"D.bmp","生人","Matching","Stranger","生人","Stranger","Stranger",NA,0,0,0
26,2,26,"D.bmp","你","Nonmatching","Self","生人","Stranger","Stranger",NA,0,0,0
26,2,27,"Tra.bmp","你","Matching","Self","你","Self","Self",2,1003,1.003,1
26,2,28,"D.bmp","生人","Matching","Stranger","生人","Stranger","Stranger",NA,0,0,0
26,2,29,"Tra.bmp","你","Matching","Self","你","Self","Self",1,391,0.391,0
26,2,30,"D.bmp","你","Nonmatching","Self","生人","Stranger","Stranger",NA,0,0,0
26,2,31,"Tra.bmp","你","Matching","Self","你","Self","Self",NA,0,0,0
