"Subject","Trial","Shape","Label","Matching","Label_Origin_Identity","Label_English_Identity","Label_Standardized_Identity","Shape_Origin_Identity","Shape_English_Identity","Shape_Standardized_Identity","RT_ms","RT_sec","ACC"
1,1,"Kreis.png","Fremder","Matching","Fremder","Stranger","Stranger","Fremder","Stranger","Stranger",2298,2.298,0
1,2,"Dreieck.png","Fremder","Nonmatching","Fremder","Stranger","Stranger","Ich","Self","Self",3343,3.343,1
1,3,"Dreieck.png","Ich","Matching","Ich","Self","Self","Ich","Self","Self",916,0.916,1
1,4,"Kreis.png","Ich","Nonmatching","Ich","Self","Self","Fremder","Stranger","Stranger",1222,1.222,1
1,5,"Kreis.png","Fremder","Matching","Fremder","Stranger","Stranger","Fremder","Stranger","Stranger",1219,1.219,1
1,6,"Kreis.png","Ich","Nonmatching","Ich","Self","Self","Fremder","Stranger","Stranger",1185,1.185,1
1,7,"Dreieck.png","Fremder","Nonmatching","Fremder","Stranger","Stranger","Ich","Self","Self",1115,1.115,1
1,8,"Dreieck.png","Ich","Matching","Ich","Self","Self","Ich","Self","Self",781,0.781,1
1,9,"Kreis.png","Fremder","Matching","Fremder","Stranger","Stranger","Fremder","Stranger","Stranger",1718,1.718,1
1,10,"Kreis.png","Ich","Nonmatching","Ich","Self","Self","Fremder","Stranger","Stranger",1469,1.469,1
1,11,"Dreieck.png","Ich","Matching","Ich","Self","Self","Ich","Self","Self",903,0.903,1
1,12,"Dreieck.png","Fremder","Nonmatching","Fremder","Stranger","Stranger","Ich","Self","Self",1918,1.918,1
1,13,"Dreieck.png","Ich","Matching","Ich","Self","Self","Ich","Self","Self",739,0.739,1
1,14,"Dreieck.png","Fremder","Nonmatching","Fremder","Stranger","Stranger","Ich","Self","Self",1478,1.478,1
1,15,"Kreis.png","Ich","Nonmatching","Ich","Self","Self","Fremder","Stranger","Stranger",929,0.929,1
1,16,"Kreis.png","Fremder","Matching","Fremder","Stranger","Stranger","Fremder","Stranger","Stranger",1252,1.252,1
1,17,"Dreieck.png","Ich","Matching","Ich","Self","Self","Ich","Self","Self",958,0.958,1
1,18,"Kreis.png","Ich","Nonmatching","Ich","Self","Self","Fremder","Stranger","Stranger",816,0.816,1
1,19,"Kreis.png","Fremder","Matching","Fremder","Stranger","Stranger","Fremder","Stranger","Stranger",1297,1.297,1
1,20,"Dreieck.png","Fremder","Nonmatching","Fremder","Stranger","Stranger","Ich","Self","Self",1834,1.834,1
1,21,"Kreis.png","Fremder","Matching","Fremder","Stranger","Stranger","Fremder","Stranger","Stranger",1212,1.212,1
1,22,"Dreieck.png","Ich","Matching","Ich","Self","Self","Ich","Self","Self",756,0.756,1
1,23,"Kreis.png","Ich","Nonmatching","Ich","Self","Self","Fremder","Stranger","Stranger",984,0.984,1
1,24,"Dreieck.png","Fremder","Nonmatching","Fremder","Stranger","Stranger","Ich","Self","Self",630,0.63,1
1,25,"Kreis.png","Fremder","Matching","Fremder","Stranger","Stranger","Fremder","Stranger","Stranger",1316,1.316,1
1,26,"Dreieck.png","Fremder","Nonmatching","Fremder","Stranger","Stranger","Ich","Self","Self",1088,1.088,0
1,27,"Kreis.png","Ich","Nonmatching","Ich","Self","Self","Fremder","Stranger","Stranger",1060,1.06,1
1,28,"Dreieck.png","Ich","Matching","Ich","Self","Self","Ich","Self","Self",787,0.787,1
1,29,"Kreis.png","Fremder","Matching","Fremder","Stranger","Stranger","Fremder","Stranger","Stranger",1166,1.166,1
1,30,"Kreis.png","Ich","Nonmatching","Ich","Self","Self","Fremder","Stranger","Stranger",1726,1.726,1
1,31,"Dreieck.png","Ich","Matching","Ich","Self","Self","Ich","Self","Self",754,0.754,1
1,32,"Dreieck.png","Fremder","Nonmatching","Fremder","Stranger","Stranger","Ich","Self","Self",639,0.639,1
1,33,"Dreieck.png","Fremder","Nonmatching","Fremder","Stranger","Stranger","Ich","Self","Self",1149,1.149,1
1,34,"Kreis.png","Fremder","Matching","Fremder","Stranger","Stranger","Fremder","Stranger","Stranger",1236,1.236,1
1,35,"Kreis.png","Ich","Nonmatching","Ich","Self","Self","Fremder","Stranger","Stranger",966,0.966,1
1,36,"Dreieck.png","Ich","Matching","Ich","Self","Self","Ich","Self","Self",606,0.606,1
1,37,"Dreieck.png","Fremder","Nonmatching","Fremder","Stranger","Stranger","Ich","Self","Self",1233,1.233,1
1,38,"Kreis.png","Ich","Nonmatching","Ich","Self","Self","Fremder","Stranger","Stranger",846,0.846,1
1,39,"Kreis.png","Fremder","Matching","Fremder","Stranger","Stranger","Fremder","Stranger","Stranger",1102,1.102,1
1,40,"Dreieck.png","Ich","Matching","Ich","Self","Self","Ich","Self","Self",919,0.919,1
1,41,"Kreis.png","Fremder","Matching","Fremder","Stranger","Stranger","Fremder","Stranger","Stranger",1177,1.177,1
1,42,"Dreieck.png","Ich","Matching","Ich","Self","Self","Ich","Self","Self",897,0.897,1
1,43,"Kreis.png","Ich","Nonmatching","Ich","Self","Self","Fremder","Stranger","Stranger",866,0.866,1
1,44,"Dreieck.png","Fremder","Nonmatching","Fremder","Stranger","Stranger","Ich","Self","Self",1090,1.09,1
1,45,"Dreieck.png","Ich","Matching","Ich","Self","Self","Ich","Self","Self",644,0.644,1
1,46,"Kreis.png","Fremder","Matching","Fremder","Stranger","Stranger","Fremder","Stranger","Stranger",1002,1.002,1
1,47,"Kreis.png","Ich","Nonmatching","Ich","Self","Self","Fremder","Stranger","Stranger",859,0.859,1
1,48,"Dreieck.png","Fremder","Nonmatching","Fremder","Stranger","Stranger","Ich","Self","Self",1237,1.237,1
1,49,"Dreieck.png","Ich","Matching","Ich","Self","Self","Ich","Self","Self",1043,1.043,1
1,50,"Dreieck.png","Fremder","Nonmatching","Fremder","Stranger","Stranger","Ich","Self","Self",651,0.651,1
1,51,"Kreis.png","Ich","Nonmatching","Ich","Self","Self","Fremder","Stranger","Stranger",727,0.727,1
1,52,"Kreis.png","Fremder","Matching","Fremder","Stranger","Stranger","Fremder","Stranger","Stranger",953,0.953,0
1,53,"Kreis.png","Ich","Nonmatching","Ich","Self","Self","Fremder","Stranger","Stranger",735,0.735,1
1,54,"Kreis.png","Fremder","Matching","Fremder","Stranger","Stranger","Fremder","Stranger","Stranger",1303,1.303,1
1,55,"Dreieck.png","Fremder","Nonmatching","Fremder","Stranger","Stranger","Ich","Self","Self",1822,1.822,1
1,56,"Dreieck.png","Ich","Matching","Ich","Self","Self","Ich","Self","Self",881,0.881,1
1,57,"Kreis.png","Fremder","Matching","Fremder","Stranger","Stranger","Fremder","Stranger","Stranger",985,0.985,1
1,58,"Kreis.png","Ich","Nonmatching","Ich","Self","Self","Fremder","Stranger","Stranger",936,0.936,1
1,59,"Dreieck.png","Fremder","Nonmatching","Fremder","Stranger","Stranger","Ich","Self","Self",1221,1.221,1
1,60,"Dreieck.png","Ich","Matching","Ich","Self","Self","Ich","Self","Self",743,0.743,1
1,61,"Kreis.png","Fremder","Matching","Fremder","Stranger","Stranger","Fremder","Stranger","Stranger",986,0.986,1
1,62,"Dreieck.png","Ich","Matching","Ich","Self","Self","Ich","Self","Self",676,0.676,1
1,63,"Kreis.png","Ich","Nonmatching","Ich","Self","Self","Fremder","Stranger","Stranger",714,0.714,1
1,64,"Dreieck.png","Fremder","Nonmatching","Fremder","Stranger","Stranger","Ich","Self","Self",1250,1.25,1
1,65,"Kreis.png","Fremder","Matching","Fremder","Stranger","Stranger","Fremder","Stranger","Stranger",1158,1.158,1
1,66,"Kreis.png","Ich","Nonmatching","Ich","Self","Self","Fremder","Stranger","Stranger",933,0.933,1
1,67,"Dreieck.png","Ich","Matching","Ich","Self","Self","Ich","Self","Self",551,0.551,1
1,68,"Dreieck.png","Fremder","Nonmatching","Fremder","Stranger","Stranger","Ich","Self","Self",1076,1.076,0
1,69,"Dreieck.png","Fremder","Nonmatching","Fremder","Stranger","Stranger","Ich","Self","Self",1034,1.034,0
1,70,"Kreis.png","Ich","Nonmatching","Ich","Self","Self","Fremder","Stranger","Stranger",775,0.775,1
1,71,"Kreis.png","Fremder","Matching","Fremder","Stranger","Stranger","Fremder","Stranger","Stranger",1036,1.036,1
1,72,"Dreieck.png","Ich","Matching","Ich","Self","Self","Ich","Self","Self",873,0.873,1
1,73,"Kreis.png","Fremder","Matching","Fremder","Stranger","Stranger","Fremder","Stranger","Stranger",1099,1.099,1
1,74,"Dreieck.png","Fremder","Nonmatching","Fremder","Stranger","Stranger","Ich","Self","Self",983,0.983,1
1,75,"Dreieck.png","Ich","Matching","Ich","Self","Self","Ich","Self","Self",547,0.547,1
1,76,"Kreis.png","Ich","Nonmatching","Ich","Self","Self","Fremder","Stranger","Stranger",782,0.782,1
1,77,"Dreieck.png","Fremder","Nonmatching","Fremder","Stranger","Stranger","Ich","Self","Self",959,0.959,1
1,78,"Kreis.png","Ich","Nonmatching","Ich","Self","Self","Fremder","Stranger","Stranger",772,0.772,1
1,79,"Dreieck.png","Ich","Matching","Ich","Self","Self","Ich","Self","Self",570,0.57,1
1,80,"Kreis.png","Fremder","Matching","Fremder","Stranger","Stranger","Fremder","Stranger","Stranger",1088,1.088,1
1,81,"Kreis.png","Ich","Nonmatching","Ich","Self","Self","Fremder","Stranger","Stranger",702,0.702,1
1,82,"Dreieck.png","Fremder","Nonmatching","Fremder","Stranger","Stranger","Ich","Self","Self",995,0.995,1
1,83,"Kreis.png","Fremder","Matching","Fremder","Stranger","Stranger","Fremder","Stranger","Stranger",1056,1.056,1
1,84,"Dreieck.png","Ich","Matching","Ich","Self","Self","Ich","Self","Self",618,0.618,1
1,85,"Dreieck.png","Fremder","Nonmatching","Fremder","Stranger","Stranger","Ich","Self","Self",824,0.824,0
1,86,"Kreis.png","Fremder","Matching","Fremder","Stranger","Stranger","Fremder","Stranger","Stranger",1022,1.022,1
1,87,"Dreieck.png","Ich","Matching","Ich","Self","Self","Ich","Self","Self",664,0.664,1
1,88,"Kreis.png","Ich","Nonmatching","Ich","Self","Self","Fremder","Stranger","Stranger",733,0.733,1
1,89,"Dreieck.png","Fremder","Nonmatching","Fremder","Stranger","Stranger","Ich","Self","Self",828,0.828,1
1,90,"Kreis.png","Fremder","Matching","Fremder","Stranger","Stranger","Fremder","Stranger","Stranger",1081,1.081,1
1,91,"Kreis.png","Ich","Nonmatching","Ich","Self","Self","Fremder","Stranger","Stranger",706,0.706,1
1,92,"Dreieck.png","Ich","Matching","Ich","Self","Self","Ich","Self","Self",1340,1.34,1
1,93,"Dreieck.png","Fremder","Nonmatching","Fremder","Stranger","Stranger","Ich","Self","Self",929,0.929,1
1,94,"Kreis.png","Fremder","Matching","Fremder","Stranger","Stranger","Fremder","Stranger","Stranger",818,0.818,1
1,95,"Kreis.png","Ich","Nonmatching","Ich","Self","Self","Fremder","Stranger","Stranger",729,0.729,1
1,96,"Dreieck.png","Ich","Matching","Ich","Self","Self","Ich","Self","Self",583,0.583,1
1,97,"Kreis.png","Ich","Nonmatching","Ich","Self","Self","Fremder","Stranger","Stranger",591,0.591,1
1,98,"Kreis.png","Fremder","Matching","Fremder","Stranger","Stranger","Fremder","Stranger","Stranger",1313,1.313,1
1,99,"Dreieck.png","Ich","Matching","Ich","Self","Self","Ich","Self","Self",561,0.561,1
1,100,"Dreieck.png","Fremder","Nonmatching","Fremder","Stranger","Stranger","Ich","Self","Self",708,0.708,1
1,101,"Kreis.png","Fremder","Matching","Fremder","Stranger","Stranger","Fremder","Stranger","Stranger",688,0.688,1
1,102,"Dreieck.png","Ich","Matching","Ich","Self","Self","Ich","Self","Self",622,0.622,1
1,103,"Dreieck.png","Fremder","Nonmatching","Fremder","Stranger","Stranger","Ich","Self","Self",686,0.686,1
1,104,"Kreis.png","Ich","Nonmatching","Ich","Self","Self","Fremder","Stranger","Stranger",681,0.681,1
1,105,"Dreieck.png","Ich","Matching","Ich","Self","Self","Ich","Self","Self",655,0.655,1
1,106,"Kreis.png","Ich","Nonmatching","Ich","Self","Self","Fremder","Stranger","Stranger",787,0.787,1
1,107,"Dreieck.png","Fremder","Nonmatching","Fremder","Stranger","Stranger","Ich","Self","Self",690,0.69,1
1,108,"Kreis.png","Fremder","Matching","Fremder","Stranger","Stranger","Fremder","Stranger","Stranger",654,0.654,0
1,109,"Dreieck.png","Fremder","Nonmatching","Fremder","Stranger","Stranger","Ich","Self","Self",1145,1.145,1
1,110,"Dreieck.png","Ich","Matching","Ich","Self","Self","Ich","Self","Self",556,0.556,1
1,111,"Kreis.png","Fremder","Matching","Fremder","Stranger","Stranger","Fremder","Stranger","Stranger",942,0.942,1
1,112,"Kreis.png","Ich","Nonmatching","Ich","Self","Self","Fremder","Stranger","Stranger",638,0.638,1
1,113,"Dreieck.png","Fremder","Nonmatching","Fremder","Stranger","Stranger","Ich","Self","Self",1034,1.034,1
1,114,"Dreieck.png","Ich","Matching","Ich","Self","Self","Ich","Self","Self",614,0.614,1
1,115,"Kreis.png","Ich","Nonmatching","Ich","Self","Self","Fremder","Stranger","Stranger",695,0.695,1
1,116,"Kreis.png","Fremder","Matching","Fremder","Stranger","Stranger","Fremder","Stranger","Stranger",1251,1.251,1
1,117,"Kreis.png","Ich","Nonmatching","Ich","Self","Self","Fremder","Stranger","Stranger",1019,1.019,1
1,118,"Dreieck.png","Fremder","Nonmatching","Fremder","Stranger","Stranger","Ich","Self","Self",1091,1.091,1
1,119,"Kreis.png","Fremder","Matching","Fremder","Stranger","Stranger","Fremder","Stranger","Stranger",739,0.739,1
1,120,"Dreieck.png","Ich","Matching","Ich","Self","Self","Ich","Self","Self",667,0.667,1
1,121,"Kreis.png","Fremder","Matching","Fremder","Stranger","Stranger","Fremder","Stranger","Stranger",1114,1.114,0
1,122,"Dreieck.png","Ich","Matching","Ich","Self","Self","Ich","Self","Self",537,0.537,1
1,123,"Kreis.png","Ich","Nonmatching","Ich","Self","Self","Fremder","Stranger","Stranger",726,0.726,1
1,124,"Dreieck.png","Fremder","Nonmatching","Fremder","Stranger","Stranger","Ich","Self","Self",2023,2.023,1
1,125,"Kreis.png","Ich","Nonmatching","Ich","Self","Self","Fremder","Stranger","Stranger",616,0.616,1
1,126,"Dreieck.png","Fremder","Nonmatching","Fremder","Stranger","Stranger","Ich","Self","Self",642,0.642,1
1,127,"Kreis.png","Fremder","Matching","Fremder","Stranger","Stranger","Fremder","Stranger","Stranger",1132,1.132,1
1,128,"Dreieck.png","Ich","Matching","Ich","Self","Self","Ich","Self","Self",896,0.896,1
2,1,"Dreieck.png","Fremder","Matching","Fremder","Stranger","Stranger","Ich","Self","Self",998,0.998,1
2,2,"Dreieck.png","Ich","Nonmatching","Ich","Self","Self","Ich","Self","Self",1333,1.333,1
2,3,"Kreis.png","Fremder","Nonmatching","Fremder","Stranger","Stranger","Fremder","Stranger","Stranger",1278,1.278,1
2,4,"Kreis.png","Ich","Matching","Ich","Self","Self","Fremder","Stranger","Stranger",860,0.86,1
2,5,"Kreis.png","Fremder","Nonmatching","Fremder","Stranger","Stranger","Fremder","Stranger","Stranger",1214,1.214,1
2,6,"Kreis.png","Ich","Matching","Ich","Self","Self","Fremder","Stranger","Stranger",500,0.5,1
2,7,"Dreieck.png","Ich","Nonmatching","Ich","Self","Self","Ich","Self","Self",2373,2.373,1
2,8,"Dreieck.png","Fremder","Matching","Fremder","Stranger","Stranger","Ich","Self","Self",2212,2.212,1
2,9,"Kreis.png","Fremder","Nonmatching","Fremder","Stranger","Stranger","Fremder","Stranger","Stranger",1138,1.138,1
2,10,"Dreieck.png","Ich","Nonmatching","Ich","Self","Self","Ich","Self","Self",1119,1.119,1
2,11,"Kreis.png","Ich","Matching","Ich","Self","Self","Fremder","Stranger","Stranger",712,0.712,1
2,12,"Dreieck.png","Fremder","Matching","Fremder","Stranger","Stranger","Ich","Self","Self",1025,1.025,0
2,13,"Kreis.png","Ich","Matching","Ich","Self","Self","Fremder","Stranger","Stranger",742,0.742,1
2,14,"Dreieck.png","Ich","Nonmatching","Ich","Self","Self","Ich","Self","Self",1068,1.068,1
2,15,"Kreis.png","Fremder","Nonmatching","Fremder","Stranger","Stranger","Fremder","Stranger","Stranger",1440,1.44,0
2,16,"Dreieck.png","Fremder","Matching","Fremder","Stranger","Stranger","Ich","Self","Self",986,0.986,1
2,17,"Dreieck.png","Ich","Nonmatching","Ich","Self","Self","Ich","Self","Self",935,0.935,1
2,18,"Kreis.png","Fremder","Nonmatching","Fremder","Stranger","Stranger","Fremder","Stranger","Stranger",1986,1.986,1
2,19,"Dreieck.png","Fremder","Matching","Fremder","Stranger","Stranger","Ich","Self","Self",683,0.683,0
2,20,"Kreis.png","Ich","Matching","Ich","Self","Self","Fremder","Stranger","Stranger",640,0.64,1
2,21,"Kreis.png","Fremder","Nonmatching","Fremder","Stranger","Stranger","Fremder","Stranger","Stranger",800,0.8,1
2,22,"Dreieck.png","Ich","Nonmatching","Ich","Self","Self","Ich","Self","Self",1481,1.481,1
2,23,"Kreis.png","Ich","Matching","Ich","Self","Self","Fremder","Stranger","Stranger",803,0.803,1
2,24,"Dreieck.png","Fremder","Matching","Fremder","Stranger","Stranger","Ich","Self","Self",961,0.961,1
2,25,"Kreis.png","Ich","Matching","Ich","Self","Self","Fremder","Stranger","Stranger",967,0.967,1
2,26,"Kreis.png","Fremder","Nonmatching","Fremder","Stranger","Stranger","Fremder","Stranger","Stranger",1243,1.243,1
2,27,"Dreieck.png","Fremder","Matching","Fremder","Stranger","Stranger","Ich","Self","Self",1556,1.556,1
2,28,"Dreieck.png","Ich","Nonmatching","Ich","Self","Self","Ich","Self","Self",1000,1,1
2,29,"Kreis.png","Fremder","Nonmatching","Fremder","Stranger","Stranger","Fremder","Stranger","Stranger",1099,1.099,0
2,30,"Dreieck.png","Ich","Nonmatching","Ich","Self","Self","Ich","Self","Self",1119,1.119,1
2,31,"Dreieck.png","Fremder","Matching","Fremder","Stranger","Stranger","Ich","Self","Self",1357,1.357,1
2,32,"Kreis.png","Ich","Matching","Ich","Self","Self","Fremder","Stranger","Stranger",657,0.657,1
2,33,"Dreieck.png","Fremder","Matching","Fremder","Stranger","Stranger","Ich","Self","Self",875,0.875,0
2,34,"Kreis.png","Ich","Matching","Ich","Self","Self","Fremder","Stranger","Stranger",317,0.317,1
2,35,"Kreis.png","Fremder","Nonmatching","Fremder","Stranger","Stranger","Fremder","Stranger","Stranger",1019,1.019,1
2,36,"Dreieck.png","Ich","Nonmatching","Ich","Self","Self","Ich","Self","Self",1053,1.053,1
2,37,"Dreieck.png","Fremder","Matching","Fremder","Stranger","Stranger","Ich","Self","Self",1043,1.043,1
2,38,"Kreis.png","Fremder","Nonmatching","Fremder","Stranger","Stranger","Fremder","Stranger","Stranger",762,0.762,1
2,39,"Kreis.png","Ich","Matching","Ich","Self","Self","Fremder","Stranger","Stranger",905,0.905,1
2,40,"Dreieck.png","Ich","Nonmatching","Ich","Self","Self","Ich","Self","Self",1031,1.031,1
2,41,"Dreieck.png","Fremder","Matching","Fremder","Stranger","Stranger","Ich","Self","Self",1286,1.286,1
2,42,"Dreieck.png","Ich","Nonmatching","Ich","Self","Self","Ich","Self","Self",1484,1.484,1
2,43,"Kreis.png","Fremder","Nonmatching","Fremder","Stranger","Stranger","Fremder","Stranger","Stranger",800,0.8,1
2,44,"Kreis.png","Ich","Matching","Ich","Self","Self","Fremder","Stranger","Stranger",546,0.546,1
2,45,"Kreis.png","Ich","Matching","Ich","Self","Self","Fremder","Stranger","Stranger",764,0.764,1
2,46,"Kreis.png","Fremder","Nonmatching","Fremder","Stranger","Stranger","Fremder","Stranger","Stranger",899,0.899,1
2,47,"Dreieck.png","Fremder","Matching","Fremder","Stranger","Stranger","Ich","Self","Self",811,0.811,1
2,48,"Dreieck.png","Ich","Nonmatching","Ich","Self","Self","Ich","Self","Self",805,0.805,1
2,49,"Dreieck.png","Fremder","Matching","Fremder","Stranger","Stranger","Ich","Self","Self",730,0.73,1
2,50,"Dreieck.png","Ich","Nonmatching","Ich","Self","Self","Ich","Self","Self",952,0.952,1
2,51,"Kreis.png","Fremder","Nonmatching","Fremder","Stranger","Stranger","Fremder","Stranger","Stranger",1177,1.177,1
2,52,"Kreis.png","Ich","Matching","Ich","Self","Self","Fremder","Stranger","Stranger",432,0.432,1
2,53,"Kreis.png","Ich","Matching","Ich","Self","Self","Fremder","Stranger","Stranger",669,0.669,1
2,54,"Dreieck.png","Fremder","Matching","Fremder","Stranger","Stranger","Ich","Self","Self",946,0.946,0
2,55,"Kreis.png","Fremder","Nonmatching","Fremder","Stranger","Stranger","Fremder","Stranger","Stranger",638,0.638,1
2,56,"Dreieck.png","Ich","Nonmatching","Ich","Self","Self","Ich","Self","Self",854,0.854,1
2,57,"Dreieck.png","Ich","Nonmatching","Ich","Self","Self","Ich","Self","Self",983,0.983,1
2,58,"Dreieck.png","Fremder","Matching","Fremder","Stranger","Stranger","Ich","Self","Self",1098,1.098,1
2,59,"Kreis.png","Fremder","Nonmatching","Fremder","Stranger","Stranger","Fremder","Stranger","Stranger",962,0.962,1
2,60,"Kreis.png","Ich","Matching","Ich","Self","Self","Fremder","Stranger","Stranger",714,0.714,1
2,61,"Dreieck.png","Ich","Nonmatching","Ich","Self","Self","Ich","Self","Self",1400,1.4,1
2,62,"Kreis.png","Ich","Matching","Ich","Self","Self","Fremder","Stranger","Stranger",519,0.519,1
2,63,"Dreieck.png","Fremder","Matching","Fremder","Stranger","Stranger","Ich","Self","Self",1241,1.241,1
2,64,"Kreis.png","Fremder","Nonmatching","Fremder","Stranger","Stranger","Fremder","Stranger","Stranger",1488,1.488,1
2,65,"Kreis.png","Ich","Matching","Ich","Self","Self","Fremder","Stranger","Stranger",899,0.899,1
2,66,"Kreis.png","Fremder","Nonmatching","Fremder","Stranger","Stranger","Fremder","Stranger","Stranger",898,0.898,1
2,67,"Dreieck.png","Fremder","Matching","Fremder","Stranger","Stranger","Ich","Self","Self",955,0.955,1
2,68,"Dreieck.png","Ich","Nonmatching","Ich","Self","Self","Ich","Self","Self",854,0.854,1
2,69,"Kreis.png","Fremder","Nonmatching","Fremder","Stranger","Stranger","Fremder","Stranger","Stranger",1140,1.14,1
2,70,"Kreis.png","Ich","Matching","Ich","Self","Self","Fremder","Stranger","Stranger",552,0.552,1
2,71,"Dreieck.png","Ich","Nonmatching","Ich","Self","Self","Ich","Self","Self",868,0.868,1
2,72,"Dreieck.png","Fremder","Matching","Fremder","Stranger","Stranger","Ich","Self","Self",804,0.804,1
2,73,"Dreieck.png","Ich","Nonmatching","Ich","Self","Self","Ich","Self","Self",721,0.721,1
2,74,"Dreieck.png","Fremder","Matching","Fremder","Stranger","Stranger","Ich","Self","Self",752,0.752,1
2,75,"Kreis.png","Fremder","Nonmatching","Fremder","Stranger","Stranger","Fremder","Stranger","Stranger",882,0.882,1
2,76,"Kreis.png","Ich","Matching","Ich","Self","Self","Fremder","Stranger","Stranger",612,0.612,1
2,77,"Dreieck.png","Fremder","Matching","Fremder","Stranger","Stranger","Ich","Self","Self",915,0.915,0
2,78,"Kreis.png","Fremder","Nonmatching","Fremder","Stranger","Stranger","Fremder","Stranger","Stranger",847,0.847,1
2,79,"Dreieck.png","Ich","Nonmatching","Ich","Self","Self","Ich","Self","Self",867,0.867,1
2,80,"Kreis.png","Ich","Matching","Ich","Self","Self","Fremder","Stranger","Stranger",1010,1.01,1
2,81,"Kreis.png","Ich","Matching","Ich","Self","Self","Fremder","Stranger","Stranger",639,0.639,1
2,82,"Dreieck.png","Ich","Nonmatching","Ich","Self","Self","Ich","Self","Self",736,0.736,1
2,83,"Dreieck.png","Fremder","Matching","Fremder","Stranger","Stranger","Ich","Self","Self",1003,1.003,1
2,84,"Kreis.png","Fremder","Nonmatching","Fremder","Stranger","Stranger","Fremder","Stranger","Stranger",804,0.804,0
2,85,"Dreieck.png","Ich","Nonmatching","Ich","Self","Self","Ich","Self","Self",1167,1.167,1
2,86,"Dreieck.png","Fremder","Matching","Fremder","Stranger","Stranger","Ich","Self","Self",830,0.83,1
2,87,"Kreis.png","Ich","Matching","Ich","Self","Self","Fremder","Stranger","Stranger",622,0.622,1
2,88,"Kreis.png","Fremder","Nonmatching","Fremder","Stranger","Stranger","Fremder","Stranger","Stranger",942,0.942,1
2,89,"Kreis.png","Fremder","Nonmatching","Fremder","Stranger","Stranger","Fremder","Stranger","Stranger",1070,1.07,1
2,90,"Dreieck.png","Ich","Nonmatching","Ich","Self","Self","Ich","Self","Self",1006,1.006,1
2,91,"Dreieck.png","Fremder","Matching","Fremder","Stranger","Stranger","Ich","Self","Self",847,0.847,1
2,92,"Kreis.png","Ich","Matching","Ich","Self","Self","Fremder","Stranger","Stranger",674,0.674,1
2,93,"Dreieck.png","Fremder","Matching","Fremder","Stranger","Stranger","Ich","Self","Self",720,0.72,1
2,94,"Dreieck.png","Ich","Nonmatching","Ich","Self","Self","Ich","Self","Self",868,0.868,1
2,95,"Kreis.png","Ich","Matching","Ich","Self","Self","Fremder","Stranger","Stranger",654,0.654,1
2,96,"Kreis.png","Fremder","Nonmatching","Fremder","Stranger","Stranger","Fremder","Stranger","Stranger",830,0.83,1
2,97,"Kreis.png","Ich","Matching","Ich","Self","Self","Fremder","Stranger","Stranger",513,0.513,1
2,98,"Dreieck.png","Ich","Nonmatching","Ich","Self","Self","Ich","Self","Self",796,0.796,1
2,99,"Dreieck.png","Fremder","Matching","Fremder","Stranger","Stranger","Ich","Self","Self",1233,1.233,1
2,100,"Kreis.png","Fremder","Nonmatching","Fremder","Stranger","Stranger","Fremder","Stranger","Stranger",861,0.861,1
2,101,"Dreieck.png","Fremder","Matching","Fremder","Stranger","Stranger","Ich","Self","Self",634,0.634,0
2,102,"Dreieck.png","Ich","Nonmatching","Ich","Self","Self","Ich","Self","Self",1212,1.212,1
2,103,"Kreis.png","Ich","Matching","Ich","Self","Self","Fremder","Stranger","Stranger",753,0.753,1
2,104,"Kreis.png","Fremder","Nonmatching","Fremder","Stranger","Stranger","Fremder","Stranger","Stranger",676,0.676,1
2,105,"Kreis.png","Ich","Matching","Ich","Self","Self","Fremder","Stranger","Stranger",574,0.574,1
2,106,"Kreis.png","Fremder","Nonmatching","Fremder","Stranger","Stranger","Fremder","Stranger","Stranger",612,0.612,1
2,107,"Dreieck.png","Ich","Nonmatching","Ich","Self","Self","Ich","Self","Self",1060,1.06,1
2,108,"Dreieck.png","Fremder","Matching","Fremder","Stranger","Stranger","Ich","Self","Self",656,0.656,1
2,109,"Dreieck.png","Fremder","Matching","Fremder","Stranger","Stranger","Ich","Self","Self",781,0.781,1
2,110,"Dreieck.png","Ich","Nonmatching","Ich","Self","Self","Ich","Self","Self",843,0.843,1
2,111,"Kreis.png","Fremder","Nonmatching","Fremder","Stranger","Stranger","Fremder","Stranger","Stranger",943,0.943,1
2,112,"Kreis.png","Ich","Matching","Ich","Self","Self","Fremder","Stranger","Stranger",746,0.746,1
2,113,"Dreieck.png","Fremder","Matching","Fremder","Stranger","Stranger","Ich","Self","Self",731,0.731,1
2,114,"Dreieck.png","Ich","Nonmatching","Ich","Self","Self","Ich","Self","Self",774,0.774,1
2,115,"Kreis.png","Fremder","Nonmatching","Fremder","Stranger","Stranger","Fremder","Stranger","Stranger",902,0.902,1
2,116,"Kreis.png","Ich","Matching","Ich","Self","Self","Fremder","Stranger","Stranger",404,0.404,1
2,117,"Dreieck.png","Ich","Nonmatching","Ich","Self","Self","Ich","Self","Self",660,0.66,1
2,118,"Kreis.png","Fremder","Nonmatching","Fremder","Stranger","Stranger","Fremder","Stranger","Stranger",737,0.737,1
2,119,"Dreieck.png","Fremder","Matching","Fremder","Stranger","Stranger","Ich","Self","Self",554,0.554,0
2,120,"Kreis.png","Ich","Matching","Ich","Self","Self","Fremder","Stranger","Stranger",768,0.768,0
2,121,"Dreieck.png","Fremder","Matching","Fremder","Stranger","Stranger","Ich","Self","Self",851,0.851,0
2,122,"Kreis.png","Fremder","Nonmatching","Fremder","Stranger","Stranger","Fremder","Stranger","Stranger",844,0.844,1
2,123,"Kreis.png","Ich","Matching","Ich","Self","Self","Fremder","Stranger","Stranger",521,0.521,1
2,124,"Dreieck.png","Ich","Nonmatching","Ich","Self","Self","Ich","Self","Self",766,0.766,1
2,125,"Dreieck.png","Fremder","Matching","Fremder","Stranger","Stranger","Ich","Self","Self",643,0.643,0
2,126,"Kreis.png","Fremder","Nonmatching","Fremder","Stranger","Stranger","Fremder","Stranger","Stranger",878,0.878,1
2,127,"Dreieck.png","Ich","Nonmatching","Ich","Self","Self","Ich","Self","Self",798,0.798,1
2,128,"Kreis.png","Ich","Matching","Ich","Self","Self","Fremder","Stranger","Stranger",715,0.715,1
3,1,"Dreieck.png","Fremder","Nonmatching","Fremder","Stranger","Stranger","Ich","Self","Self",1031,1.031,0
3,2,"Kreis.png","Fremder","Matching","Fremder","Stranger","Stranger","Fremder","Stranger","Stranger",576,0.576,0
3,3,"Kreis.png","Ich","Nonmatching","Ich","Self","Self","Fremder","Stranger","Stranger",1126,1.126,1
3,4,"Dreieck.png","Ich","Matching","Ich","Self","Self","Ich","Self","Self",856,0.856,1
3,5,"Kreis.png","Ich","Nonmatching","Ich","Self","Self","Fremder","Stranger","Stranger",1152,1.152,1
3,6,"Dreieck.png","Fremder","Nonmatching","Fremder","Stranger","Stranger","Ich","Self","Self",795,0.795,1
3,7,"Dreieck.png","Ich","Matching","Ich","Self","Self","Ich","Self","Self",886,0.886,0
3,8,"Kreis.png","Fremder","Matching","Fremder","Stranger","Stranger","Fremder","Stranger","Stranger",1300,1.3,0
3,9,"Kreis.png","Ich","Nonmatching","Ich","Self","Self","Fremder","Stranger","Stranger",764,0.764,0
3,10,"Kreis.png","Fremder","Matching","Fremder","Stranger","Stranger","Fremder","Stranger","Stranger",1119,1.119,1
3,11,"Dreieck.png","Fremder","Nonmatching","Fremder","Stranger","Stranger","Ich","Self","Self",1089,1.089,1
3,12,"Dreieck.png","Ich","Matching","Ich","Self","Self","Ich","Self","Self",630,0.63,1
3,13,"Dreieck.png","Ich","Matching","Ich","Self","Self","Ich","Self","Self",936,0.936,1
3,14,"Kreis.png","Ich","Nonmatching","Ich","Self","Self","Fremder","Stranger","Stranger",746,0.746,1
3,15,"Dreieck.png","Fremder","Nonmatching","Fremder","Stranger","Stranger","Ich","Self","Self",835,0.835,1
3,16,"Kreis.png","Fremder","Matching","Fremder","Stranger","Stranger","Fremder","Stranger","Stranger",792,0.792,1
3,17,"Dreieck.png","Fremder","Nonmatching","Fremder","Stranger","Stranger","Ich","Self","Self",731,0.731,1
3,18,"Dreieck.png","Ich","Matching","Ich","Self","Self","Ich","Self","Self",627,0.627,1
3,19,"Kreis.png","Fremder","Matching","Fremder","Stranger","Stranger","Fremder","Stranger","Stranger",1171,1.171,1
3,20,"Kreis.png","Ich","Nonmatching","Ich","Self","Self","Fremder","Stranger","Stranger",847,0.847,1
3,21,"Dreieck.png","Fremder","Nonmatching","Fremder","Stranger","Stranger","Ich","Self","Self",1083,1.083,0
3,22,"Dreieck.png","Ich","Matching","Ich","Self","Self","Ich","Self","Self",642,0.642,1
3,23,"Kreis.png","Ich","Nonmatching","Ich","Self","Self","Fremder","Stranger","Stranger",682,0.682,1
3,24,"Kreis.png","Fremder","Matching","Fremder","Stranger","Stranger","Fremder","Stranger","Stranger",1496,1.496,1
3,25,"Kreis.png","Ich","Nonmatching","Ich","Self","Self","Fremder","Stranger","Stranger",1080,1.08,1
3,26,"Kreis.png","Fremder","Matching","Fremder","Stranger","Stranger","Fremder","Stranger","Stranger",1346,1.346,1
3,27,"Dreieck.png","Ich","Matching","Ich","Self","Self","Ich","Self","Self",663,0.663,1
3,28,"Dreieck.png","Fremder","Nonmatching","Fremder","Stranger","Stranger","Ich","Self","Self",827,0.827,1
3,29,"Dreieck.png","Ich","Matching","Ich","Self","Self","Ich","Self","Self",616,0.616,1
3,30,"Kreis.png","Ich","Nonmatching","Ich","Self","Self","Fremder","Stranger","Stranger",852,0.852,1
3,31,"Dreieck.png","Fremder","Nonmatching","Fremder","Stranger","Stranger","Ich","Self","Self",1193,1.193,1
3,32,"Kreis.png","Fremder","Matching","Fremder","Stranger","Stranger","Fremder","Stranger","Stranger",1107,1.107,1
3,33,"Kreis.png","Fremder","Matching","Fremder","Stranger","Stranger","Fremder","Stranger","Stranger",1492,1.492,1
3,34,"Dreieck.png","Ich","Matching","Ich","Self","Self","Ich","Self","Self",505,0.505,0
3,35,"Dreieck.png","Fremder","Nonmatching","Fremder","Stranger","Stranger","Ich","Self","Self",815,0.815,1
3,36,"Kreis.png","Ich","Nonmatching","Ich","Self","Self","Fremder","Stranger","Stranger",869,0.869,1
3,37,"Dreieck.png","Fremder","Nonmatching","Fremder","Stranger","Stranger","Ich","Self","Self",1267,1.267,1
3,38,"Kreis.png","Ich","Nonmatching","Ich","Self","Self","Fremder","Stranger","Stranger",596,0.596,1
3,39,"Dreieck.png","Ich","Matching","Ich","Self","Self","Ich","Self","Self",671,0.671,1
3,40,"Kreis.png","Fremder","Matching","Fremder","Stranger","Stranger","Fremder","Stranger","Stranger",521,0.521,1
3,41,"Dreieck.png","Ich","Matching","Ich","Self","Self","Ich","Self","Self",592,0.592,1
3,42,"Kreis.png","Fremder","Matching","Fremder","Stranger","Stranger","Fremder","Stranger","Stranger",923,0.923,0
3,43,"Kreis.png","Ich","Nonmatching","Ich","Self","Self","Fremder","Stranger","Stranger",801,0.801,1
3,44,"Dreieck.png","Fremder","Nonmatching","Fremder","Stranger","Stranger","Ich","Self","Self",950,0.95,1
3,45,"Kreis.png","Fremder","Matching","Fremder","Stranger","Stranger","Fremder","Stranger","Stranger",656,0.656,0
3,46,"Kreis.png","Ich","Nonmatching","Ich","Self","Self","Fremder","Stranger","Stranger",934,0.934,1
3,47,"Dreieck.png","Fremder","Nonmatching","Fremder","Stranger","Stranger","Ich","Self","Self",817,0.817,0
3,48,"Dreieck.png","Ich","Matching","Ich","Self","Self","Ich","Self","Self",734,0.734,1
3,49,"Dreieck.png","Ich","Matching","Ich","Self","Self","Ich","Self","Self",750,0.75,1
3,50,"Dreieck.png","Fremder","Nonmatching","Fremder","Stranger","Stranger","Ich","Self","Self",639,0.639,1
3,51,"Kreis.png","Fremder","Matching","Fremder","Stranger","Stranger","Fremder","Stranger","Stranger",1207,1.207,1
3,52,"Kreis.png","Ich","Nonmatching","Ich","Self","Self","Fremder","Stranger","Stranger",943,0.943,1
3,53,"Dreieck.png","Fremder","Nonmatching","Fremder","Stranger","Stranger","Ich","Self","Self",1460,1.46,1
3,54,"Kreis.png","Fremder","Matching","Fremder","Stranger","Stranger","Fremder","Stranger","Stranger",1179,1.179,1
3,55,"Kreis.png","Ich","Nonmatching","Ich","Self","Self","Fremder","Stranger","Stranger",728,0.728,1
3,56,"Dreieck.png","Ich","Matching","Ich","Self","Self","Ich","Self","Self",933,0.933,1
3,57,"Kreis.png","Ich","Nonmatching","Ich","Self","Self","Fremder","Stranger","Stranger",888,0.888,1
3,58,"Dreieck.png","Ich","Matching","Ich","Self","Self","Ich","Self","Self",939,0.939,1
3,59,"Dreieck.png","Fremder","Nonmatching","Fremder","Stranger","Stranger","Ich","Self","Self",910,0.91,0
3,60,"Kreis.png","Fremder","Matching","Fremder","Stranger","Stranger","Fremder","Stranger","Stranger",778,0.778,1
3,61,"Dreieck.png","Fremder","Nonmatching","Fremder","Stranger","Stranger","Ich","Self","Self",632,0.632,1
3,62,"Kreis.png","Fremder","Matching","Fremder","Stranger","Stranger","Fremder","Stranger","Stranger",769,0.769,1
3,63,"Kreis.png","Ich","Nonmatching","Ich","Self","Self","Fremder","Stranger","Stranger",963,0.963,1
3,64,"Dreieck.png","Ich","Matching","Ich","Self","Self","Ich","Self","Self",668,0.668,1
3,65,"Dreieck.png","Fremder","Nonmatching","Fremder","Stranger","Stranger","Ich","Self","Self",673,0.673,1
3,66,"Kreis.png","Ich","Nonmatching","Ich","Self","Self","Fremder","Stranger","Stranger",875,0.875,1
3,67,"Kreis.png","Fremder","Matching","Fremder","Stranger","Stranger","Fremder","Stranger","Stranger",557,0.557,1
3,68,"Dreieck.png","Ich","Matching","Ich","Self","Self","Ich","Self","Self",1697,1.697,1
3,69,"Dreieck.png","Ich","Matching","Ich","Self","Self","Ich","Self","Self",822,0.822,1
3,70,"Kreis.png","Ich","Nonmatching","Ich","Self","Self","Fremder","Stranger","Stranger",685,0.685,0
3,71,"Dreieck.png","Fremder","Nonmatching","Fremder","Stranger","Stranger","Ich","Self","Self",827,0.827,1
3,72,"Kreis.png","Fremder","Matching","Fremder","Stranger","Stranger","Fremder","Stranger","Stranger",965,0.965,1
3,73,"Dreieck.png","Ich","Matching","Ich","Self","Self","Ich","Self","Self",622,0.622,1
3,74,"Kreis.png","Fremder","Matching","Fremder","Stranger","Stranger","Fremder","Stranger","Stranger",965,0.965,1
3,75,"Kreis.png","Ich","Nonmatching","Ich","Self","Self","Fremder","Stranger","Stranger",973,0.973,1
3,76,"Dreieck.png","Fremder","Nonmatching","Fremder","Stranger","Stranger","Ich","Self","Self",1184,1.184,1
3,77,"Kreis.png","Ich","Nonmatching","Ich","Self","Self","Fremder","Stranger","Stranger",1457,1.457,1
3,78,"Dreieck.png","Fremder","Nonmatching","Fremder","Stranger","Stranger","Ich","Self","Self",1386,1.386,1
3,79,"Dreieck.png","Ich","Matching","Ich","Self","Self","Ich","Self","Self",849,0.849,1
3,80,"Kreis.png","Fremder","Matching","Fremder","Stranger","Stranger","Fremder","Stranger","Stranger",2837,2.837,1
3,81,"Kreis.png","Ich","Nonmatching","Ich","Self","Self","Fremder","Stranger","Stranger",769,0.769,1
3,82,"Kreis.png","Fremder","Matching","Fremder","Stranger","Stranger","Fremder","Stranger","Stranger",710,0.71,1
3,83,"Dreieck.png","Ich","Matching","Ich","Self","Self","Ich","Self","Self",1047,1.047,1
3,84,"Dreieck.png","Fremder","Nonmatching","Fremder","Stranger","Stranger","Ich","Self","Self",1223,1.223,1
3,85,"Dreieck.png","Ich","Matching","Ich","Self","Self","Ich","Self","Self",611,0.611,1
3,86,"Dreieck.png","Fremder","Nonmatching","Fremder","Stranger","Stranger","Ich","Self","Self",816,0.816,1
3,87,"Kreis.png","Fremder","Matching","Fremder","Stranger","Stranger","Fremder","Stranger","Stranger",927,0.927,1
3,88,"Kreis.png","Ich","Nonmatching","Ich","Self","Self","Fremder","Stranger","Stranger",746,0.746,1
3,89,"Kreis.png","Fremder","Matching","Fremder","Stranger","Stranger","Fremder","Stranger","Stranger",816,0.816,1
3,90,"Kreis.png","Ich","Nonmatching","Ich","Self","Self","Fremder","Stranger","Stranger",920,0.92,0
3,91,"Dreieck.png","Fremder","Nonmatching","Fremder","Stranger","Stranger","Ich","Self","Self",708,0.708,1
3,92,"Dreieck.png","Ich","Matching","Ich","Self","Self","Ich","Self","Self",764,0.764,1
3,93,"Dreieck.png","Fremder","Nonmatching","Fremder","Stranger","Stranger","Ich","Self","Self",1117,1.117,1
3,94,"Kreis.png","Ich","Nonmatching","Ich","Self","Self","Fremder","Stranger","Stranger",792,0.792,0
3,95,"Dreieck.png","Ich","Matching","Ich","Self","Self","Ich","Self","Self",868,0.868,1
3,96,"Kreis.png","Fremder","Matching","Fremder","Stranger","Stranger","Fremder","Stranger","Stranger",1065,1.065,1
3,97,"Kreis.png","Fremder","Matching","Fremder","Stranger","Stranger","Fremder","Stranger","Stranger",768,0.768,1
3,98,"Dreieck.png","Ich","Matching","Ich","Self","Self","Ich","Self","Self",755,0.755,1
3,99,"Dreieck.png","Fremder","Nonmatching","Fremder","Stranger","Stranger","Ich","Self","Self",1380,1.38,1
3,100,"Kreis.png","Ich","Nonmatching","Ich","Self","Self","Fremder","Stranger","Stranger",1120,1.12,1
3,101,"Dreieck.png","Fremder","Nonmatching","Fremder","Stranger","Stranger","Ich","Self","Self",599,0.599,0
3,102,"Kreis.png","Ich","Nonmatching","Ich","Self","Self","Fremder","Stranger","Stranger",935,0.935,1
3,103,"Kreis.png","Fremder","Matching","Fremder","Stranger","Stranger","Fremder","Stranger","Stranger",1452,1.452,0
3,104,"Dreieck.png","Ich","Matching","Ich","Self","Self","Ich","Self","Self",679,0.679,1
3,105,"Kreis.png","Ich","Nonmatching","Ich","Self","Self","Fremder","Stranger","Stranger",863,0.863,1
3,106,"Kreis.png","Fremder","Matching","Fremder","Stranger","Stranger","Fremder","Stranger","Stranger",1038,1.038,1
3,107,"Dreieck.png","Ich","Matching","Ich","Self","Self","Ich","Self","Self",751,0.751,1
3,108,"Dreieck.png","Fremder","Nonmatching","Fremder","Stranger","Stranger","Ich","Self","Self",924,0.924,1
3,109,"Dreieck.png","Fremder","Nonmatching","Fremder","Stranger","Stranger","Ich","Self","Self",970,0.97,1
3,110,"Kreis.png","Ich","Nonmatching","Ich","Self","Self","Fremder","Stranger","Stranger",982,0.982,0
3,111,"Kreis.png","Fremder","Matching","Fremder","Stranger","Stranger","Fremder","Stranger","Stranger",909,0.909,1
3,112,"Dreieck.png","Ich","Matching","Ich","Self","Self","Ich","Self","Self",1326,1.326,1
3,113,"Dreieck.png","Fremder","Nonmatching","Fremder","Stranger","Stranger","Ich","Self","Self",919,0.919,1
3,114,"Dreieck.png","Ich","Matching","Ich","Self","Self","Ich","Self","Self",914,0.914,1
3,115,"Kreis.png","Ich","Nonmatching","Ich","Self","Self","Fremder","Stranger","Stranger",1376,1.376,1
3,116,"Kreis.png","Fremder","Matching","Fremder","Stranger","Stranger","Fremder","Stranger","Stranger",2526,2.526,1
3,117,"Dreieck.png","Fremder","Nonmatching","Fremder","Stranger","Stranger","Ich","Self","Self",1258,1.258,1
3,118,"Dreieck.png","Ich","Matching","Ich","Self","Self","Ich","Self","Self",1140,1.14,1
3,119,"Kreis.png","Fremder","Matching","Fremder","Stranger","Stranger","Fremder","Stranger","Stranger",889,0.889,0
3,120,"Kreis.png","Ich","Nonmatching","Ich","Self","Self","Fremder","Stranger","Stranger",989,0.989,1
3,121,"Kreis.png","Ich","Nonmatching","Ich","Self","Self","Fremder","Stranger","Stranger",1123,1.123,1
3,122,"Dreieck.png","Fremder","Nonmatching","Fremder","Stranger","Stranger","Ich","Self","Self",1115,1.115,0
3,123,"Kreis.png","Fremder","Matching","Fremder","Stranger","Stranger","Fremder","Stranger","Stranger",1491,1.491,1
3,124,"Dreieck.png","Ich","Matching","Ich","Self","Self","Ich","Self","Self",561,0.561,1
3,125,"Dreieck.png","Fremder","Nonmatching","Fremder","Stranger","Stranger","Ich","Self","Self",1502,1.502,1
3,126,"Kreis.png","Fremder","Matching","Fremder","Stranger","Stranger","Fremder","Stranger","Stranger",1048,1.048,1
3,127,"Dreieck.png","Ich","Matching","Ich","Self","Self","Ich","Self","Self",928,0.928,1
3,128,"Kreis.png","Ich","Nonmatching","Ich","Self","Self","Fremder","Stranger","Stranger",846,0.846,0
4,1,"Kreis.png","Ich","Nonmatching","Ich","Self","Self","Fremder","Stranger","Stranger",1523,1.523,1
4,2,"Kreis.png","Fremder","Matching","Fremder","Stranger","Stranger","Fremder","Stranger","Stranger",1529,1.529,1
4,3,"Dreieck.png","Ich","Matching","Ich","Self","Self","Ich","Self","Self",600,0.6,1
4,4,"Dreieck.png","Fremder","Nonmatching","Fremder","Stranger","Stranger","Ich","Self","Self",814,0.814,1
4,5,"Kreis.png","Fremder","Matching","Fremder","Stranger","Stranger","Fremder","Stranger","Stranger",1451,1.451,1
4,6,"Kreis.png","Ich","Nonmatching","Ich","Self","Self","Fremder","Stranger","Stranger",1053,1.053,1
4,7,"Dreieck.png","Ich","Matching","Ich","Self","Self","Ich","Self","Self",915,0.915,1
4,8,"Dreieck.png","Fremder","Nonmatching","Fremder","Stranger","Stranger","Ich","Self","Self",1399,1.399,1
4,9,"Kreis.png","Ich","Nonmatching","Ich","Self","Self","Fremder","Stranger","Stranger",1748,1.748,1
4,10,"Dreieck.png","Fremder","Nonmatching","Fremder","Stranger","Stranger","Ich","Self","Self",1704,1.704,1
4,11,"Kreis.png","Fremder","Matching","Fremder","Stranger","Stranger","Fremder","Stranger","Stranger",1525,1.525,1
4,12,"Dreieck.png","Ich","Matching","Ich","Self","Self","Ich","Self","Self",1252,1.252,1
4,13,"Dreieck.png","Ich","Matching","Ich","Self","Self","Ich","Self","Self",1058,1.058,1
4,14,"Dreieck.png","Fremder","Nonmatching","Fremder","Stranger","Stranger","Ich","Self","Self",861,0.861,1
4,15,"Kreis.png","Fremder","Matching","Fremder","Stranger","Stranger","Fremder","Stranger","Stranger",1089,1.089,1
4,16,"Kreis.png","Ich","Nonmatching","Ich","Self","Self","Fremder","Stranger","Stranger",1666,1.666,1
4,17,"Kreis.png","Ich","Nonmatching","Ich","Self","Self","Fremder","Stranger","Stranger",1132,1.132,1
4,18,"Dreieck.png","Fremder","Nonmatching","Fremder","Stranger","Stranger","Ich","Self","Self",1058,1.058,1
4,19,"Dreieck.png","Ich","Matching","Ich","Self","Self","Ich","Self","Self",695,0.695,1
4,20,"Kreis.png","Fremder","Matching","Fremder","Stranger","Stranger","Fremder","Stranger","Stranger",1158,1.158,1
4,21,"Dreieck.png","Ich","Matching","Ich","Self","Self","Ich","Self","Self",839,0.839,1
4,22,"Kreis.png","Ich","Nonmatching","Ich","Self","Self","Fremder","Stranger","Stranger",1198,1.198,1
4,23,"Dreieck.png","Fremder","Nonmatching","Fremder","Stranger","Stranger","Ich","Self","Self",1849,1.849,1
4,24,"Kreis.png","Fremder","Matching","Fremder","Stranger","Stranger","Fremder","Stranger","Stranger",1884,1.884,0
4,25,"Kreis.png","Fremder","Matching","Fremder","Stranger","Stranger","Fremder","Stranger","Stranger",2160,2.16,1
4,26,"Dreieck.png","Ich","Matching","Ich","Self","Self","Ich","Self","Self",2215,2.215,1
4,27,"Dreieck.png","Fremder","Nonmatching","Fremder","Stranger","Stranger","Ich","Self","Self",1645,1.645,1
4,28,"Kreis.png","Ich","Nonmatching","Ich","Self","Self","Fremder","Stranger","Stranger",1105,1.105,1
4,29,"Kreis.png","Ich","Nonmatching","Ich","Self","Self","Fremder","Stranger","Stranger",1238,1.238,1
4,30,"Dreieck.png","Fremder","Nonmatching","Fremder","Stranger","Stranger","Ich","Self","Self",1761,1.761,1
4,31,"Kreis.png","Fremder","Matching","Fremder","Stranger","Stranger","Fremder","Stranger","Stranger",1544,1.544,1
4,32,"Dreieck.png","Ich","Matching","Ich","Self","Self","Ich","Self","Self",2256,2.256,1
4,33,"Kreis.png","Ich","Nonmatching","Ich","Self","Self","Fremder","Stranger","Stranger",1346,1.346,1
4,34,"Kreis.png","Fremder","Matching","Fremder","Stranger","Stranger","Fremder","Stranger","Stranger",4384,4.384,1
4,35,"Dreieck.png","Ich","Matching","Ich","Self","Self","Ich","Self","Self",1192,1.192,1
4,36,"Dreieck.png","Fremder","Nonmatching","Fremder","Stranger","Stranger","Ich","Self","Self",1535,1.535,1
4,37,"Kreis.png","Ich","Nonmatching","Ich","Self","Self","Fremder","Stranger","Stranger",1541,1.541,1
4,38,"Dreieck.png","Ich","Matching","Ich","Self","Self","Ich","Self","Self",771,0.771,1
4,39,"Kreis.png","Fremder","Matching","Fremder","Stranger","Stranger","Fremder","Stranger","Stranger",1011,1.011,1
4,40,"Dreieck.png","Fremder","Nonmatching","Fremder","Stranger","Stranger","Ich","Self","Self",868,0.868,1
4,41,"Dreieck.png","Fremder","Nonmatching","Fremder","Stranger","Stranger","Ich","Self","Self",910,0.91,1
4,42,"Dreieck.png","Ich","Matching","Ich","Self","Self","Ich","Self","Self",688,0.688,1
4,43,"Kreis.png","Fremder","Matching","Fremder","Stranger","Stranger","Fremder","Stranger","Stranger",1620,1.62,1
4,44,"Kreis.png","Ich","Nonmatching","Ich","Self","Self","Fremder","Stranger","Stranger",1771,1.771,1
4,45,"Dreieck.png","Ich","Matching","Ich","Self","Self","Ich","Self","Self",585,0.585,1
4,46,"Kreis.png","Fremder","Matching","Fremder","Stranger","Stranger","Fremder","Stranger","Stranger",1579,1.579,1
4,47,"Dreieck.png","Fremder","Nonmatching","Fremder","Stranger","Stranger","Ich","Self","Self",1502,1.502,1
4,48,"Kreis.png","Ich","Nonmatching","Ich","Self","Self","Fremder","Stranger","Stranger",1070,1.07,1
4,49,"Dreieck.png","Ich","Matching","Ich","Self","Self","Ich","Self","Self",913,0.913,1
4,50,"Dreieck.png","Fremder","Nonmatching","Fremder","Stranger","Stranger","Ich","Self","Self",1788,1.788,1
4,51,"Kreis.png","Ich","Nonmatching","Ich","Self","Self","Fremder","Stranger","Stranger",872,0.872,1
4,52,"Kreis.png","Fremder","Matching","Fremder","Stranger","Stranger","Fremder","Stranger","Stranger",773,0.773,0
4,53,"Dreieck.png","Fremder","Nonmatching","Fremder","Stranger","Stranger","Ich","Self","Self",799,0.799,1
4,54,"Dreieck.png","Ich","Matching","Ich","Self","Self","Ich","Self","Self",687,0.687,1
4,55,"Kreis.png","Ich","Nonmatching","Ich","Self","Self","Fremder","Stranger","Stranger",972,0.972,1
4,56,"Kreis.png","Fremder","Matching","Fremder","Stranger","Stranger","Fremder","Stranger","Stranger",1375,1.375,1
4,57,"Kreis.png","Ich","Nonmatching","Ich","Self","Self","Fremder","Stranger","Stranger",1119,1.119,1
4,58,"Dreieck.png","Ich","Matching","Ich","Self","Self","Ich","Self","Self",989,0.989,1
4,59,"Kreis.png","Fremder","Matching","Fremder","Stranger","Stranger","Fremder","Stranger","Stranger",1547,1.547,1
4,60,"Dreieck.png","Fremder","Nonmatching","Fremder","Stranger","Stranger","Ich","Self","Self",1435,1.435,1
4,61,"Dreieck.png","Fremder","Nonmatching","Fremder","Stranger","Stranger","Ich","Self","Self",1134,1.134,1
4,62,"Kreis.png","Fremder","Matching","Fremder","Stranger","Stranger","Fremder","Stranger","Stranger",2187,2.187,1
4,63,"Kreis.png","Ich","Nonmatching","Ich","Self","Self","Fremder","Stranger","Stranger",895,0.895,1
4,64,"Dreieck.png","Ich","Matching","Ich","Self","Self","Ich","Self","Self",825,0.825,1
4,65,"Dreieck.png","Fremder","Nonmatching","Fremder","Stranger","Stranger","Ich","Self","Self",590,0.59,1
4,66,"Kreis.png","Ich","Nonmatching","Ich","Self","Self","Fremder","Stranger","Stranger",963,0.963,1
4,67,"Dreieck.png","Ich","Matching","Ich","Self","Self","Ich","Self","Self",720,0.72,1
4,68,"Kreis.png","Fremder","Matching","Fremder","Stranger","Stranger","Fremder","Stranger","Stranger",1020,1.02,0
4,69,"Kreis.png","Ich","Nonmatching","Ich","Self","Self","Fremder","Stranger","Stranger",1424,1.424,0
4,70,"Dreieck.png","Fremder","Nonmatching","Fremder","Stranger","Stranger","Ich","Self","Self",1588,1.588,1
4,71,"Kreis.png","Fremder","Matching","Fremder","Stranger","Stranger","Fremder","Stranger","Stranger",1808,1.808,1
4,72,"Dreieck.png","Ich","Matching","Ich","Self","Self","Ich","Self","Self",989,0.989,1
4,73,"Kreis.png","Fremder","Matching","Fremder","Stranger","Stranger","Fremder","Stranger","Stranger",1223,1.223,1
4,74,"Kreis.png","Ich","Nonmatching","Ich","Self","Self","Fremder","Stranger","Stranger",1277,1.277,1
4,75,"Dreieck.png","Fremder","Nonmatching","Fremder","Stranger","Stranger","Ich","Self","Self",1008,1.008,1
4,76,"Dreieck.png","Ich","Matching","Ich","Self","Self","Ich","Self","Self",787,0.787,1
4,77,"Dreieck.png","Ich","Matching","Ich","Self","Self","Ich","Self","Self",1391,1.391,1
4,78,"Dreieck.png","Fremder","Nonmatching","Fremder","Stranger","Stranger","Ich","Self","Self",824,0.824,1
4,79,"Kreis.png","Ich","Nonmatching","Ich","Self","Self","Fremder","Stranger","Stranger",1255,1.255,1
4,80,"Kreis.png","Fremder","Matching","Fremder","Stranger","Stranger","Fremder","Stranger","Stranger",1034,1.034,1
4,81,"Dreieck.png","Fremder","Nonmatching","Fremder","Stranger","Stranger","Ich","Self","Self",1288,1.288,1
4,82,"Kreis.png","Fremder","Matching","Fremder","Stranger","Stranger","Fremder","Stranger","Stranger",1107,1.107,1
4,83,"Dreieck.png","Ich","Matching","Ich","Self","Self","Ich","Self","Self",672,0.672,1
4,84,"Kreis.png","Ich","Nonmatching","Ich","Self","Self","Fremder","Stranger","Stranger",796,0.796,1
4,85,"Dreieck.png","Fremder","Nonmatching","Fremder","Stranger","Stranger","Ich","Self","Self",1117,1.117,1
4,86,"Kreis.png","Ich","Nonmatching","Ich","Self","Self","Fremder","Stranger","Stranger",989,0.989,1
4,87,"Dreieck.png","Ich","Matching","Ich","Self","Self","Ich","Self","Self",538,0.538,1
4,88,"Kreis.png","Fremder","Matching","Fremder","Stranger","Stranger","Fremder","Stranger","Stranger",1571,1.571,1
4,89,"Kreis.png","Ich","Nonmatching","Ich","Self","Self","Fremder","Stranger","Stranger",1533,1.533,1
4,90,"Kreis.png","Fremder","Matching","Fremder","Stranger","Stranger","Fremder","Stranger","Stranger",1385,1.385,1
4,91,"Dreieck.png","Ich","Matching","Ich","Self","Self","Ich","Self","Self",678,0.678,1
4,92,"Dreieck.png","Fremder","Nonmatching","Fremder","Stranger","Stranger","Ich","Self","Self",818,0.818,1
4,93,"Kreis.png","Ich","Nonmatching","Ich","Self","Self","Fremder","Stranger","Stranger",1283,1.283,1
4,94,"Dreieck.png","Fremder","Nonmatching","Fremder","Stranger","Stranger","Ich","Self","Self",936,0.936,1
4,95,"Dreieck.png","Ich","Matching","Ich","Self","Self","Ich","Self","Self",989,0.989,1
4,96,"Kreis.png","Fremder","Matching","Fremder","Stranger","Stranger","Fremder","Stranger","Stranger",1118,1.118,1
4,97,"Kreis.png","Fremder","Matching","Fremder","Stranger","Stranger","Fremder","Stranger","Stranger",953,0.953,1
4,98,"Dreieck.png","Ich","Matching","Ich","Self","Self","Ich","Self","Self",1347,1.347,1
4,99,"Kreis.png","Ich","Nonmatching","Ich","Self","Self","Fremder","Stranger","Stranger",1230,1.23,1
4,100,"Dreieck.png","Fremder","Nonmatching","Fremder","Stranger","Stranger","Ich","Self","Self",857,0.857,1
4,101,"Dreieck.png","Fremder","Nonmatching","Fremder","Stranger","Stranger","Ich","Self","Self",807,0.807,1
4,102,"Kreis.png","Fremder","Matching","Fremder","Stranger","Stranger","Fremder","Stranger","Stranger",1122,1.122,1
4,103,"Kreis.png","Ich","Nonmatching","Ich","Self","Self","Fremder","Stranger","Stranger",1045,1.045,1
4,104,"Dreieck.png","Ich","Matching","Ich","Self","Self","Ich","Self","Self",1521,1.521,1
4,105,"Kreis.png","Fremder","Matching","Fremder","Stranger","Stranger","Fremder","Stranger","Stranger",2416,2.416,1
4,106,"Kreis.png","Ich","Nonmatching","Ich","Self","Self","Fremder","Stranger","Stranger",867,0.867,1
4,107,"Dreieck.png","Fremder","Nonmatching","Fremder","Stranger","Stranger","Ich","Self","Self",834,0.834,1
4,108,"Dreieck.png","Ich","Matching","Ich","Self","Self","Ich","Self","Self",1005,1.005,1
4,109,"Kreis.png","Ich","Nonmatching","Ich","Self","Self","Fremder","Stranger","Stranger",1933,1.933,1
4,110,"Dreieck.png","Fremder","Nonmatching","Fremder","Stranger","Stranger","Ich","Self","Self",985,0.985,1
4,111,"Dreieck.png","Ich","Matching","Ich","Self","Self","Ich","Self","Self",508,0.508,1
4,112,"Kreis.png","Fremder","Matching","Fremder","Stranger","Stranger","Fremder","Stranger","Stranger",979,0.979,0
4,113,"Kreis.png","Ich","Nonmatching","Ich","Self","Self","Fremder","Stranger","Stranger",872,0.872,1
4,114,"Dreieck.png","Ich","Matching","Ich","Self","Self","Ich","Self","Self",757,0.757,1
4,115,"Kreis.png","Fremder","Matching","Fremder","Stranger","Stranger","Fremder","Stranger","Stranger",1163,1.163,1
4,116,"Dreieck.png","Fremder","Nonmatching","Fremder","Stranger","Stranger","Ich","Self","Self",1017,1.017,1
4,117,"Kreis.png","Ich","Nonmatching","Ich","Self","Self","Fremder","Stranger","Stranger",885,0.885,1
4,118,"Dreieck.png","Fremder","Nonmatching","Fremder","Stranger","Stranger","Ich","Self","Self",832,0.832,1
4,119,"Kreis.png","Fremder","Matching","Fremder","Stranger","Stranger","Fremder","Stranger","Stranger",1582,1.582,1
4,120,"Dreieck.png","Ich","Matching","Ich","Self","Self","Ich","Self","Self",629,0.629,1
4,121,"Dreieck.png","Fremder","Nonmatching","Fremder","Stranger","Stranger","Ich","Self","Self",868,0.868,1
4,122,"Kreis.png","Ich","Nonmatching","Ich","Self","Self","Fremder","Stranger","Stranger",1298,1.298,1
4,123,"Dreieck.png","Ich","Matching","Ich","Self","Self","Ich","Self","Self",642,0.642,1
4,124,"Kreis.png","Fremder","Matching","Fremder","Stranger","Stranger","Fremder","Stranger","Stranger",3093,3.093,1
4,125,"Dreieck.png","Fremder","Nonmatching","Fremder","Stranger","Stranger","Ich","Self","Self",943,0.943,1
4,126,"Dreieck.png","Ich","Matching","Ich","Self","Self","Ich","Self","Self",1027,1.027,1
4,127,"Kreis.png","Ich","Nonmatching","Ich","Self","Self","Fremder","Stranger","Stranger",854,0.854,1
4,128,"Kreis.png","Fremder","Matching","Fremder","Stranger","Stranger","Fremder","Stranger","Stranger",779,0.779,1
5,1,"Kreis.png","Fremder","Matching","Fremder","Stranger","Stranger","Fremder","Stranger","Stranger",1155,1.155,1
5,2,"Dreieck.png","Fremder","Nonmatching","Fremder","Stranger","Stranger","Ich","Self","Self",1150,1.15,1
5,3,"Dreieck.png","Ich","Matching","Ich","Self","Self","Ich","Self","Self",795,0.795,1
5,4,"Kreis.png","Ich","Nonmatching","Ich","Self","Self","Fremder","Stranger","Stranger",1335,1.335,1
5,5,"Kreis.png","Fremder","Matching","Fremder","Stranger","Stranger","Fremder","Stranger","Stranger",1021,1.021,1
5,6,"Dreieck.png","Ich","Matching","Ich","Self","Self","Ich","Self","Self",2477,2.477,1
5,7,"Dreieck.png","Fremder","Nonmatching","Fremder","Stranger","Stranger","Ich","Self","Self",1038,1.038,1
5,8,"Kreis.png","Ich","Nonmatching","Ich","Self","Self","Fremder","Stranger","Stranger",3629,3.629,1
5,9,"Kreis.png","Fremder","Matching","Fremder","Stranger","Stranger","Fremder","Stranger","Stranger",1135,1.135,1
5,10,"Dreieck.png","Ich","Matching","Ich","Self","Self","Ich","Self","Self",963,0.963,1
5,11,"Kreis.png","Ich","Nonmatching","Ich","Self","Self","Fremder","Stranger","Stranger",1235,1.235,1
5,12,"Dreieck.png","Fremder","Nonmatching","Fremder","Stranger","Stranger","Ich","Self","Self",1425,1.425,1
5,13,"Kreis.png","Fremder","Matching","Fremder","Stranger","Stranger","Fremder","Stranger","Stranger",1350,1.35,1
5,14,"Dreieck.png","Fremder","Nonmatching","Fremder","Stranger","Stranger","Ich","Self","Self",1300,1.3,1
5,15,"Dreieck.png","Ich","Matching","Ich","Self","Self","Ich","Self","Self",658,0.658,1
5,16,"Kreis.png","Ich","Nonmatching","Ich","Self","Self","Fremder","Stranger","Stranger",1187,1.187,1
5,17,"Dreieck.png","Ich","Matching","Ich","Self","Self","Ich","Self","Self",866,0.866,1
5,18,"Kreis.png","Fremder","Matching","Fremder","Stranger","Stranger","Fremder","Stranger","Stranger",3661,3.661,1
5,19,"Dreieck.png","Fremder","Nonmatching","Fremder","Stranger","Stranger","Ich","Self","Self",716,0.716,1
5,20,"Kreis.png","Ich","Nonmatching","Ich","Self","Self","Fremder","Stranger","Stranger",858,0.858,1
5,21,"Kreis.png","Fremder","Matching","Fremder","Stranger","Stranger","Fremder","Stranger","Stranger",801,0.801,1
5,22,"Dreieck.png","Ich","Matching","Ich","Self","Self","Ich","Self","Self",556,0.556,1
5,23,"Dreieck.png","Fremder","Nonmatching","Fremder","Stranger","Stranger","Ich","Self","Self",1768,1.768,1
5,24,"Kreis.png","Ich","Nonmatching","Ich","Self","Self","Fremder","Stranger","Stranger",1065,1.065,1
5,25,"Kreis.png","Ich","Nonmatching","Ich","Self","Self","Fremder","Stranger","Stranger",2873,2.873,1
5,26,"Dreieck.png","Ich","Matching","Ich","Self","Self","Ich","Self","Self",798,0.798,1
5,27,"Kreis.png","Fremder","Matching","Fremder","Stranger","Stranger","Fremder","Stranger","Stranger",3582,3.582,1
5,28,"Dreieck.png","Fremder","Nonmatching","Fremder","Stranger","Stranger","Ich","Self","Self",992,0.992,1
5,29,"Dreieck.png","Fremder","Nonmatching","Fremder","Stranger","Stranger","Ich","Self","Self",353,0.353,0
5,30,"Kreis.png","Ich","Nonmatching","Ich","Self","Self","Fremder","Stranger","Stranger",961,0.961,1
5,31,"Dreieck.png","Ich","Matching","Ich","Self","Self","Ich","Self","Self",666,0.666,1
5,32,"Kreis.png","Fremder","Matching","Fremder","Stranger","Stranger","Fremder","Stranger","Stranger",947,0.947,1
5,33,"Dreieck.png","Fremder","Nonmatching","Fremder","Stranger","Stranger","Ich","Self","Self",812,0.812,1
5,34,"Kreis.png","Ich","Nonmatching","Ich","Self","Self","Fremder","Stranger","Stranger",1339,1.339,1
5,35,"Kreis.png","Fremder","Matching","Fremder","Stranger","Stranger","Fremder","Stranger","Stranger",1999,1.999,1
5,36,"Dreieck.png","Ich","Matching","Ich","Self","Self","Ich","Self","Self",2927,2.927,1
5,37,"Kreis.png","Fremder","Matching","Fremder","Stranger","Stranger","Fremder","Stranger","Stranger",1990,1.99,1
5,38,"Dreieck.png","Fremder","Nonmatching","Fremder","Stranger","Stranger","Ich","Self","Self",1009,1.009,1
5,39,"Kreis.png","Ich","Nonmatching","Ich","Self","Self","Fremder","Stranger","Stranger",1265,1.265,1
5,40,"Dreieck.png","Ich","Matching","Ich","Self","Self","Ich","Self","Self",1088,1.088,1
5,41,"Kreis.png","Ich","Nonmatching","Ich","Self","Self","Fremder","Stranger","Stranger",1483,1.483,1
5,42,"Kreis.png","Fremder","Matching","Fremder","Stranger","Stranger","Fremder","Stranger","Stranger",2407,2.407,1
5,43,"Dreieck.png","Fremder","Nonmatching","Fremder","Stranger","Stranger","Ich","Self","Self",1097,1.097,1
5,44,"Dreieck.png","Ich","Matching","Ich","Self","Self","Ich","Self","Self",1258,1.258,1
5,45,"Kreis.png","Fremder","Matching","Fremder","Stranger","Stranger","Fremder","Stranger","Stranger",1197,1.197,1
5,46,"Dreieck.png","Fremder","Nonmatching","Fremder","Stranger","Stranger","Ich","Self","Self",2945,2.945,1
5,47,"Dreieck.png","Ich","Matching","Ich","Self","Self","Ich","Self","Self",4831,4.831,1
5,48,"Kreis.png","Ich","Nonmatching","Ich","Self","Self","Fremder","Stranger","Stranger",4562,4.562,1
5,49,"Dreieck.png","Fremder","Nonmatching","Fremder","Stranger","Stranger","Ich","Self","Self",4160,4.16,1
5,50,"Kreis.png","Ich","Nonmatching","Ich","Self","Self","Fremder","Stranger","Stranger",735,0.735,1
5,51,"Dreieck.png","Ich","Matching","Ich","Self","Self","Ich","Self","Self",720,0.72,1
5,52,"Kreis.png","Fremder","Matching","Fremder","Stranger","Stranger","Fremder","Stranger","Stranger",1582,1.582,1
5,53,"Kreis.png","Ich","Nonmatching","Ich","Self","Self","Fremder","Stranger","Stranger",761,0.761,1
5,54,"Dreieck.png","Fremder","Nonmatching","Fremder","Stranger","Stranger","Ich","Self","Self",880,0.88,1
5,55,"Kreis.png","Fremder","Matching","Fremder","Stranger","Stranger","Fremder","Stranger","Stranger",669,0.669,0
5,56,"Dreieck.png","Ich","Matching","Ich","Self","Self","Ich","Self","Self",1069,1.069,1
5,57,"Dreieck.png","Fremder","Nonmatching","Fremder","Stranger","Stranger","Ich","Self","Self",1679,1.679,1
5,58,"Kreis.png","Fremder","Matching","Fremder","Stranger","Stranger","Fremder","Stranger","Stranger",1317,1.317,1
5,59,"Dreieck.png","Ich","Matching","Ich","Self","Self","Ich","Self","Self",1858,1.858,1
5,60,"Kreis.png","Ich","Nonmatching","Ich","Self","Self","Fremder","Stranger","Stranger",1264,1.264,1
5,61,"Kreis.png","Ich","Nonmatching","Ich","Self","Self","Fremder","Stranger","Stranger",2420,2.42,1
5,62,"Dreieck.png","Fremder","Nonmatching","Fremder","Stranger","Stranger","Ich","Self","Self",4521,4.521,1
5,63,"Dreieck.png","Ich","Matching","Ich","Self","Self","Ich","Self","Self",619,0.619,1
5,64,"Kreis.png","Fremder","Matching","Fremder","Stranger","Stranger","Fremder","Stranger","Stranger",2116,2.116,1
5,65,"Kreis.png","Ich","Nonmatching","Ich","Self","Self","Fremder","Stranger","Stranger",9620,9.62,1
5,66,"Kreis.png","Fremder","Matching","Fremder","Stranger","Stranger","Fremder","Stranger","Stranger",4705,4.705,1
5,67,"Dreieck.png","Ich","Matching","Ich","Self","Self","Ich","Self","Self",904,0.904,1
5,68,"Dreieck.png","Fremder","Nonmatching","Fremder","Stranger","Stranger","Ich","Self","Self",2306,2.306,1
5,69,"Kreis.png","Fremder","Matching","Fremder","Stranger","Stranger","Fremder","Stranger","Stranger",1506,1.506,0
5,70,"Kreis.png","Ich","Nonmatching","Ich","Self","Self","Fremder","Stranger","Stranger",4604,4.604,1
5,71,"Dreieck.png","Fremder","Nonmatching","Fremder","Stranger","Stranger","Ich","Self","Self",1427,1.427,1
5,72,"Dreieck.png","Ich","Matching","Ich","Self","Self","Ich","Self","Self",1267,1.267,1
5,73,"Dreieck.png","Fremder","Nonmatching","Fremder","Stranger","Stranger","Ich","Self","Self",2942,2.942,1
5,74,"Kreis.png","Ich","Nonmatching","Ich","Self","Self","Fremder","Stranger","Stranger",1458,1.458,1
5,75,"Kreis.png","Fremder","Matching","Fremder","Stranger","Stranger","Fremder","Stranger","Stranger",2322,2.322,0
5,76,"Dreieck.png","Ich","Matching","Ich","Self","Self","Ich","Self","Self",461,0.461,1
5,77,"Dreieck.png","Ich","Matching","Ich","Self","Self","Ich","Self","Self",805,0.805,1
5,78,"Dreieck.png","Fremder","Nonmatching","Fremder","Stranger","Stranger","Ich","Self","Self",1098,1.098,1
5,79,"Kreis.png","Fremder","Matching","Fremder","Stranger","Stranger","Fremder","Stranger","Stranger",1717,1.717,1
5,80,"Kreis.png","Ich","Nonmatching","Ich","Self","Self","Fremder","Stranger","Stranger",805,0.805,1
5,81,"Dreieck.png","Ich","Matching","Ich","Self","Self","Ich","Self","Self",713,0.713,1
5,82,"Kreis.png","Fremder","Matching","Fremder","Stranger","Stranger","Fremder","Stranger","Stranger",1104,1.104,1
5,83,"Dreieck.png","Fremder","Nonmatching","Fremder","Stranger","Stranger","Ich","Self","Self",2518,2.518,1
5,84,"Kreis.png","Ich","Nonmatching","Ich","Self","Self","Fremder","Stranger","Stranger",1029,1.029,1
5,85,"Dreieck.png","Fremder","Nonmatching","Fremder","Stranger","Stranger","Ich","Self","Self",3649,3.649,1
5,86,"Kreis.png","Fremder","Matching","Fremder","Stranger","Stranger","Fremder","Stranger","Stranger",3147,3.147,1
5,87,"Dreieck.png","Ich","Matching","Ich","Self","Self","Ich","Self","Self",1369,1.369,1
5,88,"Kreis.png","Ich","Nonmatching","Ich","Self","Self","Fremder","Stranger","Stranger",3571,3.571,1
5,89,"Dreieck.png","Ich","Matching","Ich","Self","Self","Ich","Self","Self",738,0.738,1
5,90,"Kreis.png","Ich","Nonmatching","Ich","Self","Self","Fremder","Stranger","Stranger",1172,1.172,1
5,91,"Kreis.png","Fremder","Matching","Fremder","Stranger","Stranger","Fremder","Stranger","Stranger",977,0.977,1
5,92,"Dreieck.png","Fremder","Nonmatching","Fremder","Stranger","Stranger","Ich","Self","Self",1707,1.707,1
5,93,"Kreis.png","Ich","Nonmatching","Ich","Self","Self","Fremder","Stranger","Stranger",3779,3.779,1
5,94,"Dreieck.png","Ich","Matching","Ich","Self","Self","Ich","Self","Self",769,0.769,1
5,95,"Dreieck.png","Fremder","Nonmatching","Fremder","Stranger","Stranger","Ich","Self","Self",867,0.867,1
5,96,"Kreis.png","Fremder","Matching","Fremder","Stranger","Stranger","Fremder","Stranger","Stranger",771,0.771,1
5,97,"Kreis.png","Fremder","Matching","Fremder","Stranger","Stranger","Fremder","Stranger","Stranger",686,0.686,1
5,98,"Dreieck.png","Ich","Matching","Ich","Self","Self","Ich","Self","Self",1304,1.304,1
5,99,"Dreieck.png","Fremder","Nonmatching","Fremder","Stranger","Stranger","Ich","Self","Self",1391,1.391,1
5,100,"Kreis.png","Ich","Nonmatching","Ich","Self","Self","Fremder","Stranger","Stranger",2655,2.655,1
5,101,"Dreieck.png","Ich","Matching","Ich","Self","Self","Ich","Self","Self",560,0.56,1
5,102,"Kreis.png","Fremder","Matching","Fremder","Stranger","Stranger","Fremder","Stranger","Stranger",1101,1.101,1
5,103,"Kreis.png","Ich","Nonmatching","Ich","Self","Self","Fremder","Stranger","Stranger",824,0.824,1
5,104,"Dreieck.png","Fremder","Nonmatching","Fremder","Stranger","Stranger","Ich","Self","Self",1222,1.222,1
5,105,"Dreieck.png","Ich","Matching","Ich","Self","Self","Ich","Self","Self",1000,1,1
5,106,"Kreis.png","Fremder","Matching","Fremder","Stranger","Stranger","Fremder","Stranger","Stranger",766,0.766,1
5,107,"Dreieck.png","Fremder","Nonmatching","Fremder","Stranger","Stranger","Ich","Self","Self",836,0.836,1
5,108,"Kreis.png","Ich","Nonmatching","Ich","Self","Self","Fremder","Stranger","Stranger",799,0.799,1
5,109,"Dreieck.png","Fremder","Nonmatching","Fremder","Stranger","Stranger","Ich","Self","Self",959,0.959,1
5,110,"Kreis.png","Fremder","Matching","Fremder","Stranger","Stranger","Fremder","Stranger","Stranger",974,0.974,1
5,111,"Kreis.png","Ich","Nonmatching","Ich","Self","Self","Fremder","Stranger","Stranger",914,0.914,1
5,112,"Dreieck.png","Ich","Matching","Ich","Self","Self","Ich","Self","Self",629,0.629,1
5,113,"Dreieck.png","Fremder","Nonmatching","Fremder","Stranger","Stranger","Ich","Self","Self",1003,1.003,1
5,114,"Dreieck.png","Ich","Matching","Ich","Self","Self","Ich","Self","Self",684,0.684,1
5,115,"Kreis.png","Ich","Nonmatching","Ich","Self","Self","Fremder","Stranger","Stranger",1095,1.095,1
5,116,"Kreis.png","Fremder","Matching","Fremder","Stranger","Stranger","Fremder","Stranger","Stranger",1119,1.119,1
5,117,"Dreieck.png","Fremder","Nonmatching","Fremder","Stranger","Stranger","Ich","Self","Self",1444,1.444,1
5,118,"Kreis.png","Ich","Nonmatching","Ich","Self","Self","Fremder","Stranger","Stranger",957,0.957,1
5,119,"Kreis.png","Fremder","Matching","Fremder","Stranger","Stranger","Fremder","Stranger","Stranger",1153,1.153,1
5,120,"Dreieck.png","Ich","Matching","Ich","Self","Self","Ich","Self","Self",1183,1.183,1
5,121,"Dreieck.png","Fremder","Nonmatching","Fremder","Stranger","Stranger","Ich","Self","Self",7494,7.494,1
5,122,"Kreis.png","Ich","Nonmatching","Ich","Self","Self","Fremder","Stranger","Stranger",844,0.844,1
5,123,"Kreis.png","Fremder","Matching","Fremder","Stranger","Stranger","Fremder","Stranger","Stranger",822,0.822,1
5,124,"Dreieck.png","Ich","Matching","Ich","Self","Self","Ich","Self","Self",944,0.944,1
5,125,"Kreis.png","Ich","Nonmatching","Ich","Self","Self","Fremder","Stranger","Stranger",768,0.768,1
5,126,"Kreis.png","Fremder","Matching","Fremder","Stranger","Stranger","Fremder","Stranger","Stranger",841,0.841,1
5,127,"Dreieck.png","Fremder","Nonmatching","Fremder","Stranger","Stranger","Ich","Self","Self",1271,1.271,1
5,128,"Dreieck.png","Ich","Matching","Ich","Self","Self","Ich","Self","Self",4460,4.46,1
6,1,"Kreis.png","Ich","Matching","Ich","Self","Self","Fremder","Stranger","Stranger",1059,1.059,1
6,2,"Dreieck.png","Ich","Nonmatching","Ich","Self","Self","Ich","Self","Self",893,0.893,1
6,3,"Dreieck.png","Fremder","Matching","Fremder","Stranger","Stranger","Ich","Self","Self",2494,2.494,1
6,4,"Kreis.png","Fremder","Nonmatching","Fremder","Stranger","Stranger","Fremder","Stranger","Stranger",1375,1.375,1
6,5,"Dreieck.png","Fremder","Matching","Fremder","Stranger","Stranger","Ich","Self","Self",939,0.939,0
6,6,"Kreis.png","Ich","Matching","Ich","Self","Self","Fremder","Stranger","Stranger",833,0.833,1
6,7,"Kreis.png","Fremder","Nonmatching","Fremder","Stranger","Stranger","Fremder","Stranger","Stranger",1379,1.379,1
6,8,"Dreieck.png","Ich","Nonmatching","Ich","Self","Self","Ich","Self","Self",1594,1.594,0
6,9,"Kreis.png","Ich","Matching","Ich","Self","Self","Fremder","Stranger","Stranger",956,0.956,1
6,10,"Dreieck.png","Ich","Nonmatching","Ich","Self","Self","Ich","Self","Self",1994,1.994,1
6,11,"Dreieck.png","Fremder","Matching","Fremder","Stranger","Stranger","Ich","Self","Self",2122,2.122,0
6,12,"Kreis.png","Fremder","Nonmatching","Fremder","Stranger","Stranger","Fremder","Stranger","Stranger",1023,1.023,0
6,13,"Kreis.png","Ich","Matching","Ich","Self","Self","Fremder","Stranger","Stranger",814,0.814,1
6,14,"Dreieck.png","Fremder","Matching","Fremder","Stranger","Stranger","Ich","Self","Self",719,0.719,0
6,15,"Dreieck.png","Ich","Nonmatching","Ich","Self","Self","Ich","Self","Self",1128,1.128,0
6,16,"Kreis.png","Fremder","Nonmatching","Fremder","Stranger","Stranger","Fremder","Stranger","Stranger",2024,2.024,1
6,17,"Dreieck.png","Ich","Nonmatching","Ich","Self","Self","Ich","Self","Self",876,0.876,0
6,18,"Kreis.png","Fremder","Nonmatching","Fremder","Stranger","Stranger","Fremder","Stranger","Stranger",2068,2.068,1
6,19,"Kreis.png","Ich","Matching","Ich","Self","Self","Fremder","Stranger","Stranger",2126,2.126,1
6,20,"Dreieck.png","Fremder","Matching","Fremder","Stranger","Stranger","Ich","Self","Self",1427,1.427,0
6,21,"Dreieck.png","Fremder","Matching","Fremder","Stranger","Stranger","Ich","Self","Self",1840,1.84,1
6,22,"Kreis.png","Ich","Matching","Ich","Self","Self","Fremder","Stranger","Stranger",1055,1.055,1
6,23,"Kreis.png","Fremder","Nonmatching","Fremder","Stranger","Stranger","Fremder","Stranger","Stranger",916,0.916,1
6,24,"Dreieck.png","Ich","Nonmatching","Ich","Self","Self","Ich","Self","Self",914,0.914,1
6,25,"Dreieck.png","Fremder","Matching","Fremder","Stranger","Stranger","Ich","Self","Self",1501,1.501,0
6,26,"Kreis.png","Fremder","Nonmatching","Fremder","Stranger","Stranger","Fremder","Stranger","Stranger",1909,1.909,1
6,27,"Dreieck.png","Ich","Nonmatching","Ich","Self","Self","Ich","Self","Self",1284,1.284,0
6,28,"Kreis.png","Ich","Matching","Ich","Self","Self","Fremder","Stranger","Stranger",2409,2.409,1
6,29,"Kreis.png","Fremder","Nonmatching","Fremder","Stranger","Stranger","Fremder","Stranger","Stranger",2751,2.751,1
6,30,"Kreis.png","Ich","Matching","Ich","Self","Self","Fremder","Stranger","Stranger",763,0.763,1
6,31,"Dreieck.png","Ich","Nonmatching","Ich","Self","Self","Ich","Self","Self",831,0.831,0
6,32,"Dreieck.png","Fremder","Matching","Fremder","Stranger","Stranger","Ich","Self","Self",1436,1.436,0
6,33,"Kreis.png","Ich","Matching","Ich","Self","Self","Fremder","Stranger","Stranger",759,0.759,1
6,34,"Kreis.png","Fremder","Nonmatching","Fremder","Stranger","Stranger","Fremder","Stranger","Stranger",1352,1.352,1
6,35,"Dreieck.png","Fremder","Matching","Fremder","Stranger","Stranger","Ich","Self","Self",764,0.764,0
6,36,"Dreieck.png","Ich","Nonmatching","Ich","Self","Self","Ich","Self","Self",1519,1.519,1
6,37,"Dreieck.png","Ich","Nonmatching","Ich","Self","Self","Ich","Self","Self",872,0.872,0
6,38,"Dreieck.png","Fremder","Matching","Fremder","Stranger","Stranger","Ich","Self","Self",2426,2.426,0
6,39,"Kreis.png","Fremder","Nonmatching","Fremder","Stranger","Stranger","Fremder","Stranger","Stranger",755,0.755,1
6,40,"Kreis.png","Ich","Matching","Ich","Self","Self","Fremder","Stranger","Stranger",587,0.587,1
6,41,"Dreieck.png","Fremder","Matching","Fremder","Stranger","Stranger","Ich","Self","Self",1612,1.612,1
6,42,"Dreieck.png","Ich","Nonmatching","Ich","Self","Self","Ich","Self","Self",531,0.531,0
6,43,"Kreis.png","Ich","Matching","Ich","Self","Self","Fremder","Stranger","Stranger",978,0.978,1
6,44,"Kreis.png","Fremder","Nonmatching","Fremder","Stranger","Stranger","Fremder","Stranger","Stranger",2109,2.109,1
6,45,"Dreieck.png","Fremder","Matching","Fremder","Stranger","Stranger","Ich","Self","Self",667,0.667,0
6,46,"Kreis.png","Fremder","Nonmatching","Fremder","Stranger","Stranger","Fremder","Stranger","Stranger",753,0.753,1
6,47,"Kreis.png","Ich","Matching","Ich","Self","Self","Fremder","Stranger","Stranger",644,0.644,1
6,48,"Dreieck.png","Ich","Nonmatching","Ich","Self","Self","Ich","Self","Self",568,0.568,0
6,49,"Kreis.png","Ich","Matching","Ich","Self","Self","Fremder","Stranger","Stranger",2130,2.13,1
6,50,"Dreieck.png","Fremder","Matching","Fremder","Stranger","Stranger","Ich","Self","Self",1847,1.847,1
6,51,"Dreieck.png","Ich","Nonmatching","Ich","Self","Self","Ich","Self","Self",956,0.956,1
6,52,"Kreis.png","Fremder","Nonmatching","Fremder","Stranger","Stranger","Fremder","Stranger","Stranger",915,0.915,0
6,53,"Dreieck.png","Ich","Nonmatching","Ich","Self","Self","Ich","Self","Self",1925,1.925,1
6,54,"Kreis.png","Fremder","Nonmatching","Fremder","Stranger","Stranger","Fremder","Stranger","Stranger",1254,1.254,1
6,55,"Dreieck.png","Fremder","Matching","Fremder","Stranger","Stranger","Ich","Self","Self",846,0.846,0
6,56,"Kreis.png","Ich","Matching","Ich","Self","Self","Fremder","Stranger","Stranger",1205,1.205,1
6,57,"Kreis.png","Ich","Matching","Ich","Self","Self","Fremder","Stranger","Stranger",1072,1.072,1
6,58,"Dreieck.png","Fremder","Matching","Fremder","Stranger","Stranger","Ich","Self","Self",2226,2.226,1
6,59,"Kreis.png","Fremder","Nonmatching","Fremder","Stranger","Stranger","Fremder","Stranger","Stranger",1033,1.033,1
6,60,"Dreieck.png","Ich","Nonmatching","Ich","Self","Self","Ich","Self","Self",635,0.635,1
6,61,"Dreieck.png","Fremder","Matching","Fremder","Stranger","Stranger","Ich","Self","Self",768,0.768,0
6,62,"Kreis.png","Ich","Matching","Ich","Self","Self","Fremder","Stranger","Stranger",742,0.742,0
6,63,"Dreieck.png","Ich","Nonmatching","Ich","Self","Self","Ich","Self","Self",1934,1.934,1
6,64,"Kreis.png","Fremder","Nonmatching","Fremder","Stranger","Stranger","Fremder","Stranger","Stranger",829,0.829,1
6,65,"Kreis.png","Ich","Matching","Ich","Self","Self","Fremder","Stranger","Stranger",544,0.544,1
6,66,"Dreieck.png","Fremder","Matching","Fremder","Stranger","Stranger","Ich","Self","Self",866,0.866,0
6,67,"Kreis.png","Fremder","Nonmatching","Fremder","Stranger","Stranger","Fremder","Stranger","Stranger",1505,1.505,1
6,68,"Dreieck.png","Ich","Nonmatching","Ich","Self","Self","Ich","Self","Self",1504,1.504,0
6,69,"Kreis.png","Fremder","Nonmatching","Fremder","Stranger","Stranger","Fremder","Stranger","Stranger",3182,3.182,1
6,70,"Dreieck.png","Ich","Nonmatching","Ich","Self","Self","Ich","Self","Self",2082,2.082,1
6,71,"Dreieck.png","Fremder","Matching","Fremder","Stranger","Stranger","Ich","Self","Self",942,0.942,0
6,72,"Kreis.png","Ich","Matching","Ich","Self","Self","Fremder","Stranger","Stranger",1014,1.014,1
6,73,"Kreis.png","Fremder","Nonmatching","Fremder","Stranger","Stranger","Fremder","Stranger","Stranger",803,0.803,0
6,74,"Dreieck.png","Ich","Nonmatching","Ich","Self","Self","Ich","Self","Self",718,0.718,1
6,75,"Dreieck.png","Fremder","Matching","Fremder","Stranger","Stranger","Ich","Self","Self",584,0.584,0
6,76,"Kreis.png","Ich","Matching","Ich","Self","Self","Fremder","Stranger","Stranger",818,0.818,0
6,77,"Dreieck.png","Fremder","Matching","Fremder","Stranger","Stranger","Ich","Self","Self",798,0.798,0
6,78,"Kreis.png","Fremder","Nonmatching","Fremder","Stranger","Stranger","Fremder","Stranger","Stranger",1020,1.02,0
6,79,"Kreis.png","Ich","Matching","Ich","Self","Self","Fremder","Stranger","Stranger",690,0.69,0
6,80,"Dreieck.png","Ich","Nonmatching","Ich","Self","Self","Ich","Self","Self",1545,1.545,0
6,81,"Dreieck.png","Fremder","Matching","Fremder","Stranger","Stranger","Ich","Self","Self",2194,2.194,0
6,82,"Dreieck.png","Ich","Nonmatching","Ich","Self","Self","Ich","Self","Self",1136,1.136,1
6,83,"Kreis.png","Ich","Matching","Ich","Self","Self","Fremder","Stranger","Stranger",1622,1.622,1
6,84,"Kreis.png","Fremder","Nonmatching","Fremder","Stranger","Stranger","Fremder","Stranger","Stranger",1492,1.492,1
6,85,"Dreieck.png","Ich","Nonmatching","Ich","Self","Self","Ich","Self","Self",808,0.808,0
6,86,"Kreis.png","Ich","Matching","Ich","Self","Self","Fremder","Stranger","Stranger",1196,1.196,1
6,87,"Kreis.png","Fremder","Nonmatching","Fremder","Stranger","Stranger","Fremder","Stranger","Stranger",626,0.626,1
6,88,"Dreieck.png","Fremder","Matching","Fremder","Stranger","Stranger","Ich","Self","Self",964,0.964,0
6,89,"Dreieck.png","Fremder","Matching","Fremder","Stranger","Stranger","Ich","Self","Self",895,0.895,0
6,90,"Kreis.png","Ich","Matching","Ich","Self","Self","Fremder","Stranger","Stranger",840,0.84,1
6,91,"Kreis.png","Fremder","Nonmatching","Fremder","Stranger","Stranger","Fremder","Stranger","Stranger",866,0.866,0
6,92,"Dreieck.png","Ich","Nonmatching","Ich","Self","Self","Ich","Self","Self",1141,1.141,1
6,93,"Dreieck.png","Ich","Nonmatching","Ich","Self","Self","Ich","Self","Self",1243,1.243,1
6,94,"Kreis.png","Fremder","Nonmatching","Fremder","Stranger","Stranger","Fremder","Stranger","Stranger",739,0.739,0
6,95,"Kreis.png","Ich","Matching","Ich","Self","Self","Fremder","Stranger","Stranger",1280,1.28,0
6,96,"Dreieck.png","Fremder","Matching","Fremder","Stranger","Stranger","Ich","Self","Self",1012,1.012,1
6,97,"Kreis.png","Fremder","Nonmatching","Fremder","Stranger","Stranger","Fremder","Stranger","Stranger",782,0.782,0
6,98,"Dreieck.png","Ich","Nonmatching","Ich","Self","Self","Ich","Self","Self",2414,2.414,1
6,99,"Dreieck.png","Fremder","Matching","Fremder","Stranger","Stranger","Ich","Self","Self",650,0.65,0
6,100,"Kreis.png","Ich","Matching","Ich","Self","Self","Fremder","Stranger","Stranger",735,0.735,1
6,101,"Kreis.png","Ich","Matching","Ich","Self","Self","Fremder","Stranger","Stranger",654,0.654,1
6,102,"Kreis.png","Fremder","Nonmatching","Fremder","Stranger","Stranger","Fremder","Stranger","Stranger",1683,1.683,1
6,103,"Dreieck.png","Fremder","Matching","Fremder","Stranger","Stranger","Ich","Self","Self",713,0.713,0
6,104,"Dreieck.png","Ich","Nonmatching","Ich","Self","Self","Ich","Self","Self",851,0.851,1
6,105,"Kreis.png","Ich","Matching","Ich","Self","Self","Fremder","Stranger","Stranger",566,0.566,1
6,106,"Dreieck.png","Ich","Nonmatching","Ich","Self","Self","Ich","Self","Self",563,0.563,0
6,107,"Dreieck.png","Fremder","Matching","Fremder","Stranger","Stranger","Ich","Self","Self",1637,1.637,1
6,108,"Kreis.png","Fremder","Nonmatching","Fremder","Stranger","Stranger","Fremder","Stranger","Stranger",1364,1.364,1
6,109,"Kreis.png","Ich","Matching","Ich","Self","Self","Fremder","Stranger","Stranger",834,0.834,1
6,110,"Dreieck.png","Fremder","Matching","Fremder","Stranger","Stranger","Ich","Self","Self",831,0.831,1
6,111,"Kreis.png","Fremder","Nonmatching","Fremder","Stranger","Stranger","Fremder","Stranger","Stranger",912,0.912,1
6,112,"Dreieck.png","Ich","Nonmatching","Ich","Self","Self","Ich","Self","Self",1658,1.658,1
6,113,"Dreieck.png","Ich","Nonmatching","Ich","Self","Self","Ich","Self","Self",1485,1.485,0
6,114,"Kreis.png","Fremder","Nonmatching","Fremder","Stranger","Stranger","Fremder","Stranger","Stranger",1446,1.446,1
6,115,"Dreieck.png","Fremder","Matching","Fremder","Stranger","Stranger","Ich","Self","Self",541,0.541,0
6,116,"Kreis.png","Ich","Matching","Ich","Self","Self","Fremder","Stranger","Stranger",1311,1.311,1
6,117,"Kreis.png","Fremder","Nonmatching","Fremder","Stranger","Stranger","Fremder","Stranger","Stranger",1650,1.65,1
6,118,"Dreieck.png","Fremder","Matching","Fremder","Stranger","Stranger","Ich","Self","Self",521,0.521,0
6,119,"Kreis.png","Ich","Matching","Ich","Self","Self","Fremder","Stranger","Stranger",806,0.806,1
6,120,"Dreieck.png","Ich","Nonmatching","Ich","Self","Self","Ich","Self","Self",1134,1.134,0
6,121,"Kreis.png","Fremder","Nonmatching","Fremder","Stranger","Stranger","Fremder","Stranger","Stranger",830,0.83,1
6,122,"Kreis.png","Ich","Matching","Ich","Self","Self","Fremder","Stranger","Stranger",1236,1.236,0
6,123,"Dreieck.png","Fremder","Matching","Fremder","Stranger","Stranger","Ich","Self","Self",1645,1.645,0
6,124,"Dreieck.png","Ich","Nonmatching","Ich","Self","Self","Ich","Self","Self",797,0.797,0
6,125,"Dreieck.png","Fremder","Matching","Fremder","Stranger","Stranger","Ich","Self","Self",2577,2.577,0
6,126,"Kreis.png","Fremder","Nonmatching","Fremder","Stranger","Stranger","Fremder","Stranger","Stranger",2475,2.475,1
6,127,"Dreieck.png","Ich","Nonmatching","Ich","Self","Self","Ich","Self","Self",702,0.702,0
6,128,"Kreis.png","Ich","Matching","Ich","Self","Self","Fremder","Stranger","Stranger",686,0.686,1
7,1,"Kreis.png","Fremder","Nonmatching","Fremder","Stranger","Stranger","Fremder","Stranger","Stranger",720,0.72,1
7,2,"Dreieck.png","Fremder","Matching","Fremder","Stranger","Stranger","Ich","Self","Self",1293,1.293,1
7,3,"Dreieck.png","Ich","Nonmatching","Ich","Self","Self","Ich","Self","Self",806,0.806,1
7,4,"Kreis.png","Ich","Matching","Ich","Self","Self","Fremder","Stranger","Stranger",650,0.65,1
7,5,"Dreieck.png","Ich","Nonmatching","Ich","Self","Self","Ich","Self","Self",740,0.74,1
7,6,"Kreis.png","Ich","Matching","Ich","Self","Self","Fremder","Stranger","Stranger",825,0.825,1
7,7,"Dreieck.png","Fremder","Matching","Fremder","Stranger","Stranger","Ich","Self","Self",995,0.995,1
7,8,"Kreis.png","Fremder","Nonmatching","Fremder","Stranger","Stranger","Fremder","Stranger","Stranger",1064,1.064,1
7,9,"Dreieck.png","Ich","Nonmatching","Ich","Self","Self","Ich","Self","Self",901,0.901,1
7,10,"Kreis.png","Ich","Matching","Ich","Self","Self","Fremder","Stranger","Stranger",752,0.752,1
7,11,"Kreis.png","Fremder","Nonmatching","Fremder","Stranger","Stranger","Fremder","Stranger","Stranger",912,0.912,1
7,12,"Dreieck.png","Fremder","Matching","Fremder","Stranger","Stranger","Ich","Self","Self",854,0.854,0
7,13,"Dreieck.png","Fremder","Matching","Fremder","Stranger","Stranger","Ich","Self","Self",1259,1.259,1
7,14,"Kreis.png","Ich","Matching","Ich","Self","Self","Fremder","Stranger","Stranger",603,0.603,1
7,15,"Kreis.png","Fremder","Nonmatching","Fremder","Stranger","Stranger","Fremder","Stranger","Stranger",1013,1.013,1
7,16,"Dreieck.png","Ich","Nonmatching","Ich","Self","Self","Ich","Self","Self",829,0.829,1
7,17,"Dreieck.png","Fremder","Matching","Fremder","Stranger","Stranger","Ich","Self","Self",1052,1.052,1
7,18,"Kreis.png","Ich","Matching","Ich","Self","Self","Fremder","Stranger","Stranger",799,0.799,1
7,19,"Dreieck.png","Ich","Nonmatching","Ich","Self","Self","Ich","Self","Self",884,0.884,1
7,20,"Kreis.png","Fremder","Nonmatching","Fremder","Stranger","Stranger","Fremder","Stranger","Stranger",937,0.937,1
7,21,"Dreieck.png","Fremder","Matching","Fremder","Stranger","Stranger","Ich","Self","Self",1024,1.024,1
7,22,"Kreis.png","Fremder","Nonmatching","Fremder","Stranger","Stranger","Fremder","Stranger","Stranger",706,0.706,1
7,23,"Dreieck.png","Ich","Nonmatching","Ich","Self","Self","Ich","Self","Self",925,0.925,1
7,24,"Kreis.png","Ich","Matching","Ich","Self","Self","Fremder","Stranger","Stranger",587,0.587,1
7,25,"Kreis.png","Fremder","Nonmatching","Fremder","Stranger","Stranger","Fremder","Stranger","Stranger",726,0.726,1
7,26,"Dreieck.png","Fremder","Matching","Fremder","Stranger","Stranger","Ich","Self","Self",792,0.792,1
7,27,"Dreieck.png","Ich","Nonmatching","Ich","Self","Self","Ich","Self","Self",761,0.761,1
7,28,"Kreis.png","Ich","Matching","Ich","Self","Self","Fremder","Stranger","Stranger",512,0.512,1
7,29,"Dreieck.png","Fremder","Matching","Fremder","Stranger","Stranger","Ich","Self","Self",974,0.974,1
7,30,"Kreis.png","Ich","Matching","Ich","Self","Self","Fremder","Stranger","Stranger",534,0.534,1
7,31,"Dreieck.png","Ich","Nonmatching","Ich","Self","Self","Ich","Self","Self",1161,1.161,1
7,32,"Kreis.png","Fremder","Nonmatching","Fremder","Stranger","Stranger","Fremder","Stranger","Stranger",855,0.855,1
7,33,"Dreieck.png","Fremder","Matching","Fremder","Stranger","Stranger","Ich","Self","Self",710,0.71,1
7,34,"Dreieck.png","Ich","Nonmatching","Ich","Self","Self","Ich","Self","Self",720,0.72,1
7,35,"Kreis.png","Ich","Matching","Ich","Self","Self","Fremder","Stranger","Stranger",1202,1.202,1
7,36,"Kreis.png","Fremder","Nonmatching","Fremder","Stranger","Stranger","Fremder","Stranger","Stranger",1154,1.154,1
7,37,"Kreis.png","Ich","Matching","Ich","Self","Self","Fremder","Stranger","Stranger",592,0.592,1
7,38,"Kreis.png","Fremder","Nonmatching","Fremder","Stranger","Stranger","Fremder","Stranger","Stranger",646,0.646,1
7,39,"Dreieck.png","Fremder","Matching","Fremder","Stranger","Stranger","Ich","Self","Self",999,0.999,1
7,40,"Dreieck.png","Ich","Nonmatching","Ich","Self","Self","Ich","Self","Self",1021,1.021,1
7,41,"Dreieck.png","Ich","Nonmatching","Ich","Self","Self","Ich","Self","Self",573,0.573,1
7,42,"Dreieck.png","Fremder","Matching","Fremder","Stranger","Stranger","Ich","Self","Self",765,0.765,1
7,43,"Kreis.png","Fremder","Nonmatching","Fremder","Stranger","Stranger","Fremder","Stranger","Stranger",551,0.551,1
7,44,"Kreis.png","Ich","Matching","Ich","Self","Self","Fremder","Stranger","Stranger",464,0.464,1
7,45,"Kreis.png","Fremder","Nonmatching","Fremder","Stranger","Stranger","Fremder","Stranger","Stranger",996,0.996,1
7,46,"Kreis.png","Ich","Matching","Ich","Self","Self","Fremder","Stranger","Stranger",661,0.661,1
7,47,"Dreieck.png","Ich","Nonmatching","Ich","Self","Self","Ich","Self","Self",930,0.93,1
7,48,"Dreieck.png","Fremder","Matching","Fremder","Stranger","Stranger","Ich","Self","Self",726,0.726,1
7,49,"Dreieck.png","Ich","Nonmatching","Ich","Self","Self","Ich","Self","Self",699,0.699,1
7,50,"Dreieck.png","Fremder","Matching","Fremder","Stranger","Stranger","Ich","Self","Self",835,0.835,1
7,51,"Kreis.png","Fremder","Nonmatching","Fremder","Stranger","Stranger","Fremder","Stranger","Stranger",564,0.564,1
7,52,"Kreis.png","Ich","Matching","Ich","Self","Self","Fremder","Stranger","Stranger",366,0.366,1
7,53,"Kreis.png","Ich","Matching","Ich","Self","Self","Fremder","Stranger","Stranger",671,0.671,1
7,54,"Kreis.png","Fremder","Nonmatching","Fremder","Stranger","Stranger","Fremder","Stranger","Stranger",620,0.62,1
7,55,"Dreieck.png","Ich","Nonmatching","Ich","Self","Self","Ich","Self","Self",542,0.542,1
7,56,"Dreieck.png","Fremder","Matching","Fremder","Stranger","Stranger","Ich","Self","Self",725,0.725,1
7,57,"Dreieck.png","Fremder","Matching","Fremder","Stranger","Stranger","Ich","Self","Self",509,0.509,1
7,58,"Dreieck.png","Ich","Nonmatching","Ich","Self","Self","Ich","Self","Self",850,0.85,1
7,59,"Kreis.png","Ich","Matching","Ich","Self","Self","Fremder","Stranger","Stranger",572,0.572,1
7,60,"Kreis.png","Fremder","Nonmatching","Fremder","Stranger","Stranger","Fremder","Stranger","Stranger",734,0.734,1
7,61,"Kreis.png","Ich","Matching","Ich","Self","Self","Fremder","Stranger","Stranger",648,0.648,1
7,62,"Kreis.png","Fremder","Nonmatching","Fremder","Stranger","Stranger","Fremder","Stranger","Stranger",810,0.81,1
7,63,"Dreieck.png","Fremder","Matching","Fremder","Stranger","Stranger","Ich","Self","Self",634,0.634,1
7,64,"Dreieck.png","Ich","Nonmatching","Ich","Self","Self","Ich","Self","Self",638,0.638,1
7,65,"Kreis.png","Fremder","Nonmatching","Fremder","Stranger","Stranger","Fremder","Stranger","Stranger",843,0.843,1
7,66,"Dreieck.png","Ich","Nonmatching","Ich","Self","Self","Ich","Self","Self",669,0.669,1
7,67,"Kreis.png","Ich","Matching","Ich","Self","Self","Fremder","Stranger","Stranger",410,0.41,1
7,68,"Dreieck.png","Fremder","Matching","Fremder","Stranger","Stranger","Ich","Self","Self",687,0.687,1
7,69,"Dreieck.png","Ich","Nonmatching","Ich","Self","Self","Ich","Self","Self",653,0.653,1
7,70,"Dreieck.png","Fremder","Matching","Fremder","Stranger","Stranger","Ich","Self","Self",625,0.625,1
7,71,"Kreis.png","Ich","Matching","Ich","Self","Self","Fremder","Stranger","Stranger",595,0.595,1
7,72,"Kreis.png","Fremder","Nonmatching","Fremder","Stranger","Stranger","Fremder","Stranger","Stranger",792,0.792,1
7,73,"Dreieck.png","Ich","Nonmatching","Ich","Self","Self","Ich","Self","Self",706,0.706,1
7,74,"Kreis.png","Ich","Matching","Ich","Self","Self","Fremder","Stranger","Stranger",416,0.416,1
7,75,"Kreis.png","Fremder","Nonmatching","Fremder","Stranger","Stranger","Fremder","Stranger","Stranger",733,0.733,1
7,76,"Dreieck.png","Fremder","Matching","Fremder","Stranger","Stranger","Ich","Self","Self",878,0.878,1
7,77,"Kreis.png","Fremder","Nonmatching","Fremder","Stranger","Stranger","Fremder","Stranger","Stranger",821,0.821,1
7,78,"Kreis.png","Ich","Matching","Ich","Self","Self","Fremder","Stranger","Stranger",809,0.809,1
7,79,"Dreieck.png","Fremder","Matching","Fremder","Stranger","Stranger","Ich","Self","Self",623,0.623,1
7,80,"Dreieck.png","Ich","Nonmatching","Ich","Self","Self","Ich","Self","Self",683,0.683,1
7,81,"Kreis.png","Ich","Matching","Ich","Self","Self","Fremder","Stranger","Stranger",520,0.52,1
7,82,"Dreieck.png","Ich","Nonmatching","Ich","Self","Self","Ich","Self","Self",601,0.601,1
7,83,"Kreis.png","Fremder","Nonmatching","Fremder","Stranger","Stranger","Fremder","Stranger","Stranger",618,0.618,1
7,84,"Dreieck.png","Fremder","Matching","Fremder","Stranger","Stranger","Ich","Self","Self",689,0.689,1
7,85,"Kreis.png","Fremder","Nonmatching","Fremder","Stranger","Stranger","Fremder","Stranger","Stranger",756,0.756,1
7,86,"Dreieck.png","Fremder","Matching","Fremder","Stranger","Stranger","Ich","Self","Self",755,0.755,1
7,87,"Kreis.png","Ich","Matching","Ich","Self","Self","Fremder","Stranger","Stranger",416,0.416,1
7,88,"Dreieck.png","Ich","Nonmatching","Ich","Self","Self","Ich","Self","Self",787,0.787,1
7,89,"Dreieck.png","Fremder","Matching","Fremder","Stranger","Stranger","Ich","Self","Self",614,0.614,1
7,90,"Dreieck.png","Ich","Nonmatching","Ich","Self","Self","Ich","Self","Self",740,0.74,1
7,91,"Kreis.png","Fremder","Nonmatching","Fremder","Stranger","Stranger","Fremder","Stranger","Stranger",981,0.981,1
7,92,"Kreis.png","Ich","Matching","Ich","Self","Self","Fremder","Stranger","Stranger",739,0.739,1
7,93,"Kreis.png","Fremder","Nonmatching","Fremder","Stranger","Stranger","Fremder","Stranger","Stranger",706,0.706,1
7,94,"Kreis.png","Ich","Matching","Ich","Self","Self","Fremder","Stranger","Stranger",583,0.583,1
7,95,"Dreieck.png","Ich","Nonmatching","Ich","Self","Self","Ich","Self","Self",564,0.564,1
7,96,"Dreieck.png","Fremder","Matching","Fremder","Stranger","Stranger","Ich","Self","Self",668,0.668,1
7,97,"Dreieck.png","Fremder","Matching","Fremder","Stranger","Stranger","Ich","Self","Self",1220,1.22,1
7,98,"Kreis.png","Fremder","Nonmatching","Fremder","Stranger","Stranger","Fremder","Stranger","Stranger",760,0.76,1
7,99,"Dreieck.png","Ich","Nonmatching","Ich","Self","Self","Ich","Self","Self",1017,1.017,1
7,100,"Kreis.png","Ich","Matching","Ich","Self","Self","Fremder","Stranger","Stranger",436,0.436,1
7,101,"Kreis.png","Fremder","Nonmatching","Fremder","Stranger","Stranger","Fremder","Stranger","Stranger",708,0.708,1
7,102,"Dreieck.png","Ich","Nonmatching","Ich","Self","Self","Ich","Self","Self",1044,1.044,1
7,103,"Kreis.png","Ich","Matching","Ich","Self","Self","Fremder","Stranger","Stranger",493,0.493,1
7,104,"Dreieck.png","Fremder","Matching","Fremder","Stranger","Stranger","Ich","Self","Self",766,0.766,1
7,105,"Kreis.png","Fremder","Nonmatching","Fremder","Stranger","Stranger","Fremder","Stranger","Stranger",910,0.91,1
7,106,"Kreis.png","Ich","Matching","Ich","Self","Self","Fremder","Stranger","Stranger",611,0.611,1
7,107,"Dreieck.png","Ich","Nonmatching","Ich","Self","Self","Ich","Self","Self",1047,1.047,1
7,108,"Dreieck.png","Fremder","Matching","Fremder","Stranger","Stranger","Ich","Self","Self",609,0.609,1
7,109,"Kreis.png","Ich","Matching","Ich","Self","Self","Fremder","Stranger","Stranger",621,0.621,1
7,110,"Dreieck.png","Fremder","Matching","Fremder","Stranger","Stranger","Ich","Self","Self",642,0.642,1
7,111,"Kreis.png","Fremder","Nonmatching","Fremder","Stranger","Stranger","Fremder","Stranger","Stranger",698,0.698,1
7,112,"Dreieck.png","Ich","Nonmatching","Ich","Self","Self","Ich","Self","Self",614,0.614,1
7,113,"Dreieck.png","Fremder","Matching","Fremder","Stranger","Stranger","Ich","Self","Self",515,0.515,1
7,114,"Kreis.png","Fremder","Nonmatching","Fremder","Stranger","Stranger","Fremder","Stranger","Stranger",786,0.786,1
7,115,"Kreis.png","Ich","Matching","Ich","Self","Self","Fremder","Stranger","Stranger",563,0.563,1
7,116,"Dreieck.png","Ich","Nonmatching","Ich","Self","Self","Ich","Self","Self",790,0.79,1
7,117,"Kreis.png","Fremder","Nonmatching","Fremder","Stranger","Stranger","Fremder","Stranger","Stranger",862,0.862,1
7,118,"Kreis.png","Ich","Matching","Ich","Self","Self","Fremder","Stranger","Stranger",440,0.44,1
7,119,"Dreieck.png","Ich","Nonmatching","Ich","Self","Self","Ich","Self","Self",549,0.549,1
7,120,"Dreieck.png","Fremder","Matching","Fremder","Stranger","Stranger","Ich","Self","Self",662,0.662,1
7,121,"Dreieck.png","Ich","Nonmatching","Ich","Self","Self","Ich","Self","Self",777,0.777,1
7,122,"Dreieck.png","Fremder","Matching","Fremder","Stranger","Stranger","Ich","Self","Self",855,0.855,1
7,123,"Kreis.png","Ich","Matching","Ich","Self","Self","Fremder","Stranger","Stranger",580,0.58,1
7,124,"Kreis.png","Fremder","Nonmatching","Fremder","Stranger","Stranger","Fremder","Stranger","Stranger",796,0.796,0
7,125,"Dreieck.png","Fremder","Matching","Fremder","Stranger","Stranger","Ich","Self","Self",1109,1.109,1
7,126,"Kreis.png","Fremder","Nonmatching","Fremder","Stranger","Stranger","Fremder","Stranger","Stranger",683,0.683,1
7,127,"Kreis.png","Ich","Matching","Ich","Self","Self","Fremder","Stranger","Stranger",636,0.636,1
7,128,"Dreieck.png","Ich","Nonmatching","Ich","Self","Self","Ich","Self","Self",1259,1.259,1
8,1,"Dreieck.png","Fremder","Matching","Fremder","Stranger","Stranger","Ich","Self","Self",761,0.761,1
8,2,"Kreis.png","Ich","Matching","Ich","Self","Self","Fremder","Stranger","Stranger",2342,2.342,1
8,3,"Dreieck.png","Ich","Nonmatching","Ich","Self","Self","Ich","Self","Self",1249,1.249,1
8,4,"Kreis.png","Fremder","Nonmatching","Fremder","Stranger","Stranger","Fremder","Stranger","Stranger",848,0.848,1
8,5,"Kreis.png","Ich","Matching","Ich","Self","Self","Fremder","Stranger","Stranger",955,0.955,1
8,6,"Dreieck.png","Fremder","Matching","Fremder","Stranger","Stranger","Ich","Self","Self",1231,1.231,1
8,7,"Dreieck.png","Ich","Nonmatching","Ich","Self","Self","Ich","Self","Self",900,0.9,1
8,8,"Kreis.png","Fremder","Nonmatching","Fremder","Stranger","Stranger","Fremder","Stranger","Stranger",1258,1.258,1
8,9,"Dreieck.png","Fremder","Matching","Fremder","Stranger","Stranger","Ich","Self","Self",901,0.901,1
8,10,"Dreieck.png","Ich","Nonmatching","Ich","Self","Self","Ich","Self","Self",1289,1.289,1
8,11,"Kreis.png","Fremder","Nonmatching","Fremder","Stranger","Stranger","Fremder","Stranger","Stranger",1642,1.642,1
8,12,"Kreis.png","Ich","Matching","Ich","Self","Self","Fremder","Stranger","Stranger",861,0.861,1
8,13,"Kreis.png","Ich","Matching","Ich","Self","Self","Fremder","Stranger","Stranger",1042,1.042,1
8,14,"Kreis.png","Fremder","Nonmatching","Fremder","Stranger","Stranger","Fremder","Stranger","Stranger",1242,1.242,1
8,15,"Dreieck.png","Fremder","Matching","Fremder","Stranger","Stranger","Ich","Self","Self",900,0.9,1
8,16,"Dreieck.png","Ich","Nonmatching","Ich","Self","Self","Ich","Self","Self",1021,1.021,1
8,17,"Kreis.png","Fremder","Nonmatching","Fremder","Stranger","Stranger","Fremder","Stranger","Stranger",943,0.943,1
8,18,"Dreieck.png","Ich","Nonmatching","Ich","Self","Self","Ich","Self","Self",1173,1.173,1
8,19,"Dreieck.png","Fremder","Matching","Fremder","Stranger","Stranger","Ich","Self","Self",948,0.948,1
8,20,"Kreis.png","Ich","Matching","Ich","Self","Self","Fremder","Stranger","Stranger",899,0.899,1
8,21,"Kreis.png","Ich","Matching","Ich","Self","Self","Fremder","Stranger","Stranger",913,0.913,1
8,22,"Dreieck.png","Ich","Nonmatching","Ich","Self","Self","Ich","Self","Self",705,0.705,1
8,23,"Kreis.png","Fremder","Nonmatching","Fremder","Stranger","Stranger","Fremder","Stranger","Stranger",936,0.936,1
8,24,"Dreieck.png","Fremder","Matching","Fremder","Stranger","Stranger","Ich","Self","Self",1151,1.151,1
8,25,"Dreieck.png","Ich","Nonmatching","Ich","Self","Self","Ich","Self","Self",729,0.729,1
8,26,"Dreieck.png","Fremder","Matching","Fremder","Stranger","Stranger","Ich","Self","Self",1133,1.133,1
8,27,"Kreis.png","Ich","Matching","Ich","Self","Self","Fremder","Stranger","Stranger",1336,1.336,1
8,28,"Kreis.png","Fremder","Nonmatching","Fremder","Stranger","Stranger","Fremder","Stranger","Stranger",1088,1.088,1
8,29,"Dreieck.png","Ich","Nonmatching","Ich","Self","Self","Ich","Self","Self",975,0.975,1
8,30,"Kreis.png","Ich","Matching","Ich","Self","Self","Fremder","Stranger","Stranger",453,0.453,1
8,31,"Dreieck.png","Fremder","Matching","Fremder","Stranger","Stranger","Ich","Self","Self",630,0.63,1
8,32,"Kreis.png","Fremder","Nonmatching","Fremder","Stranger","Stranger","Fremder","Stranger","Stranger",1049,1.049,1
8,33,"Kreis.png","Fremder","Nonmatching","Fremder","Stranger","Stranger","Fremder","Stranger","Stranger",1199,1.199,1
8,34,"Dreieck.png","Ich","Nonmatching","Ich","Self","Self","Ich","Self","Self",1033,1.033,1
8,35,"Kreis.png","Ich","Matching","Ich","Self","Self","Fremder","Stranger","Stranger",912,0.912,1
8,36,"Dreieck.png","Fremder","Matching","Fremder","Stranger","Stranger","Ich","Self","Self",1294,1.294,1
8,37,"Dreieck.png","Ich","Nonmatching","Ich","Self","Self","Ich","Self","Self",891,0.891,1
8,38,"Kreis.png","Ich","Matching","Ich","Self","Self","Fremder","Stranger","Stranger",978,0.978,1
8,39,"Kreis.png","Fremder","Nonmatching","Fremder","Stranger","Stranger","Fremder","Stranger","Stranger",750,0.75,1
8,40,"Dreieck.png","Fremder","Matching","Fremder","Stranger","Stranger","Ich","Self","Self",1222,1.222,1
8,41,"Dreieck.png","Ich","Nonmatching","Ich","Self","Self","Ich","Self","Self",1048,1.048,1
8,42,"Dreieck.png","Fremder","Matching","Fremder","Stranger","Stranger","Ich","Self","Self",1178,1.178,1
8,43,"Kreis.png","Fremder","Nonmatching","Fremder","Stranger","Stranger","Fremder","Stranger","Stranger",869,0.869,1
8,44,"Kreis.png","Ich","Matching","Ich","Self","Self","Fremder","Stranger","Stranger",840,0.84,1
8,45,"Kreis.png","Fremder","Nonmatching","Fremder","Stranger","Stranger","Fremder","Stranger","Stranger",1259,1.259,1
8,46,"Dreieck.png","Ich","Nonmatching","Ich","Self","Self","Ich","Self","Self",1059,1.059,1
8,47,"Dreieck.png","Fremder","Matching","Fremder","Stranger","Stranger","Ich","Self","Self",1054,1.054,1
8,48,"Kreis.png","Ich","Matching","Ich","Self","Self","Fremder","Stranger","Stranger",801,0.801,1
8,49,"Dreieck.png","Fremder","Matching","Fremder","Stranger","Stranger","Ich","Self","Self",887,0.887,1
8,50,"Kreis.png","Ich","Matching","Ich","Self","Self","Fremder","Stranger","Stranger",1277,1.277,1
8,51,"Kreis.png","Fremder","Nonmatching","Fremder","Stranger","Stranger","Fremder","Stranger","Stranger",1000,1,1
8,52,"Dreieck.png","Ich","Nonmatching","Ich","Self","Self","Ich","Self","Self",1191,1.191,1
8,53,"Kreis.png","Fremder","Nonmatching","Fremder","Stranger","Stranger","Fremder","Stranger","Stranger",1262,1.262,1
8,54,"Dreieck.png","Fremder","Matching","Fremder","Stranger","Stranger","Ich","Self","Self",905,0.905,1
8,55,"Kreis.png","Ich","Matching","Ich","Self","Self","Fremder","Stranger","Stranger",1061,1.061,1
8,56,"Dreieck.png","Ich","Nonmatching","Ich","Self","Self","Ich","Self","Self",718,0.718,1
8,57,"Kreis.png","Ich","Matching","Ich","Self","Self","Fremder","Stranger","Stranger",907,0.907,1
8,58,"Kreis.png","Fremder","Nonmatching","Fremder","Stranger","Stranger","Fremder","Stranger","Stranger",627,0.627,1
8,59,"Dreieck.png","Ich","Nonmatching","Ich","Self","Self","Ich","Self","Self",1123,1.123,1
8,60,"Dreieck.png","Fremder","Matching","Fremder","Stranger","Stranger","Ich","Self","Self",1681,1.681,1
8,61,"Dreieck.png","Fremder","Matching","Fremder","Stranger","Stranger","Ich","Self","Self",1107,1.107,0
8,62,"Kreis.png","Ich","Matching","Ich","Self","Self","Fremder","Stranger","Stranger",963,0.963,1
8,63,"Dreieck.png","Ich","Nonmatching","Ich","Self","Self","Ich","Self","Self",1368,1.368,1
8,64,"Kreis.png","Fremder","Nonmatching","Fremder","Stranger","Stranger","Fremder","Stranger","Stranger",941,0.941,1
8,65,"Kreis.png","Ich","Matching","Ich","Self","Self","Fremder","Stranger","Stranger",747,0.747,1
8,66,"Kreis.png","Fremder","Nonmatching","Fremder","Stranger","Stranger","Fremder","Stranger","Stranger",934,0.934,1
8,67,"Dreieck.png","Fremder","Matching","Fremder","Stranger","Stranger","Ich","Self","Self",1258,1.258,1
8,68,"Dreieck.png","Ich","Nonmatching","Ich","Self","Self","Ich","Self","Self",995,0.995,1
8,69,"Dreieck.png","Ich","Nonmatching","Ich","Self","Self","Ich","Self","Self",1334,1.334,1
8,70,"Dreieck.png","Fremder","Matching","Fremder","Stranger","Stranger","Ich","Self","Self",1964,1.964,1
8,71,"Kreis.png","Ich","Matching","Ich","Self","Self","Fremder","Stranger","Stranger",609,0.609,1
8,72,"Kreis.png","Fremder","Nonmatching","Fremder","Stranger","Stranger","Fremder","Stranger","Stranger",852,0.852,1
8,73,"Kreis.png","Ich","Matching","Ich","Self","Self","Fremder","Stranger","Stranger",657,0.657,1
