"success","timeout","failed_images","failed_audio","failed_video","trial_type","trial_index","time_elapsed","internal_node_id","rt","stimulus","response","value","item_width_mm","item_height_mm","item_width_px","px2mm","view_dist_mm","item_width_deg","px2deg","scale_factor","win_width_deg","win_height_deg","view_history","response_type","key_press","avg_frame_time","center_x","center_y","image","word","target","valence","matchness","correct_response","correct","exp_condition"
"true","false","[]","[]","[]","preload","0","4735","0.0-0.0","","","","","","","","","","","","","","","","","","","","","","","","","","","",""
"","","","","","html-keyboard-response","1","10267","0.0-1.0","5530","
     <p>您好，欢迎参加本次实验。</p>
     <p>为充分保障您的权利，请确保您已经知晓并同意《参与实验同意书》以及《数据公开知情同意书》。</p>
     <p>如果您未见过上述内容，请咨询实验员。</p>
     <p>如果您选择继续实验，则表示您已经清楚两份知情同意书的内容并同意。</p>
     <p> <div style = ""color: green""><按任意键至下页></div> </p>
     ","k","","","","","","","","","","","","","","","","","","","","","","","","",""
"","","","","","html-keyboard-response","2","11776","0.0-2.0-0.0","1507","
      <p>本实验首先需要您填写一些基本个人信息。</p>
      <p> <div style = ""color: green""><按任意键至下页></div></p>
      ","k","","","","","","","","","","","","","","","","","","","","","","","","",""
"","","","","","call-function","3","11778","0.0-2.0-1.0","","","","","","","","","","","","","","","","","","","","","","","","","","","",""
"","","","","","survey-html-form","4","19037","0.0-2.0-2.0","7258","","{""Q0"":""1020""}","","","","","","","","","","","","","","","","","","","","","","","","",""
"","","","","","html-button-response","5","20357","0.0-2.0-3.0","1316","<p style = 'color : white'>您的性别</p>","0","","","","","","","","","","","","","","","","","","","","","","","","",""
"","","","","","survey-html-form","6","50046","0.0-2.0-4.0","29688","","{""Q0"":""2005""}","","","","","","","","","","","","","","","","","","","","","","","","",""
"","","","","","survey-html-form","7","62803","0.0-2.0-5.0","12755","","{""Q0"":""5""}","","","","","","","","","","","","","","","","","","","","","","","","",""
"","","","","","virtual-chinrest","8","310363","0.0-3.0","247558","","","","85.6","53.98","631.4015854091515","7.375194989232946","386.81","12.628031708183032","50","0.753878373130073","29.4","17.36","","","","","","","","","","","","","",""
"true","","","","","fullscreen","9","313060","0.0-4.0","","","","","","","","","","","","","","","","","","","","","","","","","","","",""
"","","","","","instructions","10","461107","0.0-5.0","147873","","","","","","","","","","","","","","[{""page_index"":0,""viewing_time"":34509},{""page_index"":1,""viewing_time"":80202},{""page_index"":2,""viewing_time"":21660},{""page_index"":3,""viewing_time"":11502}]","","","","","","","","","","","","",""
"","","","","","html-keyboard-response","11","464760","0.0-6.0","null","<count-down title=""""></count-down>","null","","","","","","","","","","","","","","","","","","","","","","","","",""
"","","","","","psychophysics","12","467470","0.0-7.0-0.0-0.0","null","","null","","","","","","","","","","","","","key","null","16.664596273291924","735","456","./1_3_Stimuli/T_ambi40.png","朋友","Image","他人","Mismatch","j","false","Practice"
"","","","","","html-keyboard-response","13","467774","0.0-7.0-0.0-1.0","null","<span class='add_' style='color:yellow; font-size: 70px;'> 太慢! </span>","null","","","","","","","","","","","","","","","","","","","","","","","","","feedback"
"","","","","","psychophysics","14","470485","0.0-7.0-0.0-0.1","null","","null","","","","","","","","","","","","","key","null","16.664596273291924","735","456","./1_3_Stimuli/S_ambi40.png","朋友","Word","朋友","Match","f","false","Practice"
"","","","","","html-keyboard-response","15","470790","0.0-7.0-0.0-1.1","null","<span class='add_' style='color:yellow; font-size: 70px;'> 太慢! </span>","null","","","","","","","","","","","","","","","","","","","","","","","","","feedback"
"","","","","","psychophysics","16","472720","0.0-7.0-0.0-0.2","777","","f","","","","","","","","","","","","","key","f","16.660869565217393","735","456","./1_3_Stimuli/C_ambi40.png","自我","Word","自我","Match","f","true","Practice"
"","","","","","html-keyboard-response","17","473022","0.0-7.0-0.0-1.2","null","<span style='color:GreenYellow; font-size: 70px;'>正确! </span>","null","","","","","","","","","","","","","","","","","","","","","","","","","feedback"
"","","","","","psychophysics","18","474678","0.0-7.0-0.0-0.3","501","","f","","","","","","","","","","","","","key","f","16.663265306122447","735","456","./1_3_Stimuli/C_ambi40.png","朋友","Image","自我","Mismatch","j","false","Practice"
"","","","","","html-keyboard-response","19","474981","0.0-7.0-0.0-1.3","null","<span style='color:red; font-size: 70px;'>错误! </span>","null","","","","","","","","","","","","","","","","","","","","","","","","","feedback"
"","","","","","psychophysics","20","476618","0.0-7.0-0.0-0.4","483","","f","","","","","","","","","","","","","key","f","16.65979381443299","735","456","./1_3_Stimuli/C_ambi40.png","自我","Image","自我","Match","f","true","Practice"
"","","","","","html-keyboard-response","21","476921","0.0-7.0-0.0-1.4","null","<span style='color:GreenYellow; font-size: 70px;'>正确! </span>","null","","","","","","","","","","","","","","","","","","","","","","","","","feedback"
"","","","","","psychophysics","22","478810","0.0-7.0-0.0-0.5","735","","f","","","","","","","","","","","","","key","f","16.669642857142858","735","456","./1_3_Stimuli/S_ambi40.png","朋友","Word","朋友","Match","f","true","Practice"
"","","","","","html-keyboard-response","23","479112","0.0-7.0-0.0-1.5","null","<span style='color:GreenYellow; font-size: 70px;'>正确! </span>","null","","","","","","","","","","","","","","","","","","","","","","","","","feedback"
"","","","","","psychophysics","24","481332","0.0-7.0-0.0-0.6","1065","","j","","","","","","","","","","","","","key","j","16.66412213740458","735","456","./1_3_Stimuli/T_ambi40.png","他人","Image","他人","Match","f","false","Practice"
"","","","","","html-keyboard-response","25","481635","0.0-7.0-0.0-1.6","null","<span style='color:red; font-size: 70px;'>错误! </span>","null","","","","","","","","","","","","","","","","","","","","","","","","","feedback"
"","","","","","psychophysics","26","483681","0.0-7.0-0.0-0.7","894","","f","","","","","","","","","","","","","key","f","16.669421487603305","735","456","./1_3_Stimuli/T_ambi40.png","他人","Image","他人","Match","f","true","Practice"
"","","","","","html-keyboard-response","27","483984","0.0-7.0-0.0-1.7","null","<span style='color:GreenYellow; font-size: 70px;'>正确! </span>","null","","","","","","","","","","","","","","","","","","","","","","","","","feedback"
"","","","","","psychophysics","28","485864","0.0-7.0-0.0-0.8","728","","f","","","","","","","","","","","","","key","f","16.675675675675677","735","456","./1_3_Stimuli/C_ambi40.png","自我","Word","自我","Match","f","true","Practice"
"","","","","","html-keyboard-response","29","486168","0.0-7.0-0.0-1.8","null","<span style='color:GreenYellow; font-size: 70px;'>正确! </span>","null","","","","","","","","","","","","","","","","","","","","","","","","","feedback"
"","","","","","psychophysics","30","488278","0.0-7.0-0.0-0.9","957","","j","","","","","","","","","","","","","key","j","16.664","735","456","./1_3_Stimuli/T_ambi40.png","自我","Word","他人","Mismatch","j","true","Practice"
"","","","","","html-keyboard-response","31","488583","0.0-7.0-0.0-1.9","null","<span style='color:GreenYellow; font-size: 70px;'>正确! </span>","null","","","","","","","","","","","","","","","","","","","","","","","","","feedback"
"","","","","","psychophysics","32","490933","0.0-7.0-0.0-0.10","1196","","j","","","","","","","","","","","","","key","j","16.642857142857142","735","456","./1_3_Stimuli/C_ambi40.png","他人","Word","自我","Mismatch","j","true","Practice"
"","","","","","html-keyboard-response","33","491236","0.0-7.0-0.0-1.10","null","<span style='color:GreenYellow; font-size: 70px;'>正确! </span>","null","","","","","","","","","","","","","","","","","","","","","","","","","feedback"
"","","","","","psychophysics","34","493630","0.0-7.0-0.0-0.11","1240","","j","","","","","","","","","","","","","key","j","16.669014084507044","735","456","./1_3_Stimuli/S_ambi40.png","他人","Image","朋友","Mismatch","j","true","Practice"
"","","","","","html-keyboard-response","35","493935","0.0-7.0-0.0-1.11","null","<span style='color:GreenYellow; font-size: 70px;'>正确! </span>","null","","","","","","","","","","","","","","","","","","","","","","","","","feedback"
"","","","","","psychophysics","36","496005","0.0-7.0-0.0-0.12","917","","f","","","","","","","","","","","","","key","f","16.666666666666668","735","456","./1_3_Stimuli/S_ambi40.png","朋友","Image","朋友","Match","f","true","Practice"
"","","","","","html-keyboard-response","37","496309","0.0-7.0-0.0-1.12","null","<span style='color:GreenYellow; font-size: 70px;'>正确! </span>","null","","","","","","","","","","","","","","","","","","","","","","","","","feedback"
"","","","","","psychophysics","38","498828","0.0-7.0-0.0-0.13","1366","","f","","","","","","","","","","","","","key","f","16.666666666666668","735","456","./1_3_Stimuli/T_ambi40.png","他人","Word","他人","Match","f","true","Practice"
"","","","","","html-keyboard-response","39","499131","0.0-7.0-0.0-1.13","null","<span style='color:GreenYellow; font-size: 70px;'>正确! </span>","null","","","","","","","","","","","","","","","","","","","","","","","","","feedback"
"","","","","","psychophysics","40","501211","0.0-7.0-0.0-0.14","925","","j","","","","","","","","","","","","","key","j","16.666666666666668","735","456","./1_3_Stimuli/T_ambi40.png","朋友","Word","他人","Mismatch","j","true","Practice"
"","","","","","html-keyboard-response","41","501515","0.0-7.0-0.0-1.14","null","<span style='color:GreenYellow; font-size: 70px;'>正确! </span>","null","","","","","","","","","","","","","","","","","","","","","","","","","feedback"
"","","","","","psychophysics","42","504008","0.0-7.0-0.0-0.15","1340","","f","","","","","","","","","","","","","key","f","16.66216216216216","735","456","./1_3_Stimuli/T_ambi40.png","他人","Word","他人","Match","f","true","Practice"
"","","","","","html-keyboard-response","43","504313","0.0-7.0-0.0-1.15","null","<span style='color:GreenYellow; font-size: 70px;'>正确! </span>","null","","","","","","","","","","","","","","","","","","","","","","","","","feedback"
"","","","","","psychophysics","44","507020","0.0-7.0-0.0-0.16","null","","null","","","","","","","","","","","","","key","null","16.666666666666668","735","456","./1_3_Stimuli/S_ambi40.png","自我","Image","朋友","Mismatch","j","false","Practice"
"","","","","","html-keyboard-response","45","507323","0.0-7.0-0.0-1.16","null","<span class='add_' style='color:yellow; font-size: 70px;'> 太慢! </span>","null","","","","","","","","","","","","","","","","","","","","","","","","","feedback"
"","","","","","psychophysics","46","509392","0.0-7.0-0.0-0.17","916","","j","","","","","","","","","","","","","key","j","16.666666666666668","735","456","./1_3_Stimuli/S_ambi40.png","自我","Word","朋友","Mismatch","j","true","Practice"
"","","","","","html-keyboard-response","47","509697","0.0-7.0-0.0-1.17","null","<span style='color:GreenYellow; font-size: 70px;'>正确! </span>","null","","","","","","","","","","","","","","","","","","","","","","","","","feedback"
"","","","","","psychophysics","48","511878","0.0-7.0-0.0-0.18","1028","","j","","","","","","","","","","","","","key","j","16.661538461538463","735","456","./1_3_Stimuli/S_ambi40.png","他人","Word","朋友","Mismatch","j","true","Practice"
"","","","","","html-keyboard-response","49","512182","0.0-7.0-0.0-1.18","null","<span style='color:GreenYellow; font-size: 70px;'>正确! </span>","null","","","","","","","","","","","","","","","","","","","","","","","","","feedback"
"","","","","","psychophysics","50","514178","0.0-7.0-0.0-0.19","841","","j","","","","","","","","","","","","","key","j","16.66386554621849","735","456","./1_3_Stimuli/T_ambi40.png","自我","Image","他人","Mismatch","j","true","Practice"
"","","","","","html-keyboard-response","51","514480","0.0-7.0-0.0-1.19","null","<span style='color:GreenYellow; font-size: 70px;'>正确! </span>","null","","","","","","","","","","","","","","","","","","","","","","","","","feedback"
"","","","","","psychophysics","52","516687","0.0-7.0-0.0-0.20","1054","","f","","","","","","","","","","","","","key","f","16.66412213740458","735","456","./1_3_Stimuli/S_ambi40.png","朋友","Image","朋友","Match","f","true","Practice"
"","","","","","html-keyboard-response","53","516990","0.0-7.0-0.0-1.20","null","<span style='color:GreenYellow; font-size: 70px;'>正确! </span>","null","","","","","","","","","","","","","","","","","","","","","","","","","feedback"
"","","","","","psychophysics","54","518741","0.0-7.0-0.0-0.21","598","","f","","","","","","","","","","","","","key","f","16.673076923076923","735","456","./1_3_Stimuli/C_ambi40.png","自我","Image","自我","Match","f","true","Practice"
"","","","","","html-keyboard-response","55","519047","0.0-7.0-0.0-1.21","null","<span style='color:GreenYellow; font-size: 70px;'>正确! </span>","null","","","","","","","","","","","","","","","","","","","","","","","","","feedback"
"","","","","","psychophysics","56","520787","0.0-7.0-0.0-0.22","588","","j","","","","","","","","","","","","","key","j","16.66346153846154","735","456","./1_3_Stimuli/C_ambi40.png","他人","Image","自我","Mismatch","j","true","Practice"
"","","","","","html-keyboard-response","57","521090","0.0-7.0-0.0-1.22","null","<span style='color:GreenYellow; font-size: 70px;'>正确! </span>","null","","","","","","","","","","","","","","","","","","","","","","","","","feedback"
"","","","","","psychophysics","58","523005","0.0-7.0-0.0-0.23","762","","j","","","","","","","","","","","","","key","j","16.666666666666668","735","456","./1_3_Stimuli/C_ambi40.png","朋友","Word","自我","Mismatch","j","true","Practice"
"","","","","","html-keyboard-response","59","523309","0.0-7.0-0.0-1.23","null","<span style='color:GreenYellow; font-size: 70px;'>正确! </span>","null","","","","","","","","","","","","","","","","","","","","","","","","","feedback"
"","","","","","html-keyboard-response","60","529049","0.0-7.0-1.0-0.0","5734","<style>.context{color:white; font-size: 35px; line-height:40px}</style>                        <div><p class='context'>您正确回答了79% 的试次。</p><p class='context'>您的平均反应时为913毫秒。</p><p> <div style = 'color: green'><按空格键至下页></div></p>"," ","","","","","","","","","","","","","","","","","","","","","","","","",""
"","","","","","instructions","61","536026","0.0-7.0-1.0-1.0","6973","","","","","","","","","","","","","","[{""page_index"":0,""viewing_time"":3283},{""page_index"":1,""viewing_time"":2197},{""page_index"":2,""viewing_time"":1493}]","","","","","","","","","","","","",""
"","","","","","psychophysics","62","537932","0.0-7.1-0.1-0.24","750","","j","","","","","","","","","","","","","key","j","16.672566371681416","735","456","./1_3_Stimuli/C_ambi40.png","朋友","Word","自我","Mismatch","j","true","Practice"
"","","","","","html-keyboard-response","63","538234","0.0-7.1-0.1-1.24","null","<span style='color:GreenYellow; font-size: 70px;'>正确! </span>","null","","","","","","","","","","","","","","","","","","","","","","","","","feedback"
"","","","","","psychophysics","64","540284","0.0-7.1-0.1-0.25","896","","f","","","","","","","","","","","","","key","f","16.669421487603305","735","456","./1_3_Stimuli/T_ambi40.png","他人","Word","他人","Match","f","true","Practice"
"","","","","","html-keyboard-response","65","540588","0.0-7.1-0.1-1.25","null","<span style='color:GreenYellow; font-size: 70px;'>正确! </span>","null","","","","","","","","","","","","","","","","","","","","","","","","","feedback"
"","","","","","psychophysics","66","542381","0.0-7.1-0.1-0.26","639","","j","","","","","","","","","","","","","key","j","16.660377358490567","735","456","./1_3_Stimuli/C_ambi40.png","他人","Image","自我","Mismatch","j","true","Practice"
"","","","","","html-keyboard-response","67","542685","0.0-7.1-0.1-1.26","null","<span style='color:GreenYellow; font-size: 70px;'>正确! </span>","null","","","","","","","","","","","","","","","","","","","","","","","","","feedback"
"","","","","","psychophysics","68","544531","0.0-7.1-0.1-0.27","692","","j","","","","","","","","","","","","","key","j","16.618181818181817","735","456","./1_3_Stimuli/C_ambi40.png","他人","Word","自我","Mismatch","j","true","Practice"
"","","","","","html-keyboard-response","69","544832","0.0-7.1-0.1-1.27","null","<span style='color:GreenYellow; font-size: 70px;'>正确! </span>","null","","","","","","","","","","","","","","","","","","","","","","","","","feedback"
"","","","","","psychophysics","70","546738","0.0-7.1-0.1-0.28","752","","j","","","","","","","","","","","","","key","j","16.672566371681416","735","456","./1_3_Stimuli/S_ambi40.png","自我","Image","朋友","Mismatch","j","true","Practice"
"","","","","","html-keyboard-response","71","547042","0.0-7.1-0.1-1.28","null","<span style='color:GreenYellow; font-size: 70px;'>正确! </span>","null","","","","","","","","","","","","","","","","","","","","","","","","","feedback"
"","","","","","psychophysics","72","548836","0.0-7.1-0.1-0.29","639","","f","","","","","","","","","","","","","key","f","16.660377358490567","735","456","./1_3_Stimuli/S_ambi40.png","朋友","Image","朋友","Match","f","true","Practice"
"","","","","","html-keyboard-response","73","549139","0.0-7.1-0.1-1.29","null","<span style='color:GreenYellow; font-size: 70px;'>正确! </span>","null","","","","","","","","","","","","","","","","","","","","","","","","","feedback"
"","","","","","psychophysics","74","551129","0.0-7.1-0.1-0.30","837","","f","","","","","","","","","","","","","key","f","16.661016949152543","735","456","./1_3_Stimuli/S_ambi40.png","朋友","Word","朋友","Match","f","true","Practice"
"","","","","","html-keyboard-response","75","551432","0.0-7.1-0.1-1.30","null","<span style='color:GreenYellow; font-size: 70px;'>正确! </span>","null","","","","","","","","","","","","","","","","","","","","","","","","","feedback"
"","","","","","psychophysics","76","553320","0.0-7.1-0.1-0.31","735","","f","","","","","","","","","","","","","key","f","16.666666666666668","735","456","./1_3_Stimuli/T_ambi40.png","他人","Image","他人","Match","f","true","Practice"
"","","","","","html-keyboard-response","77","553624","0.0-7.1-0.1-1.31","null","<span style='color:GreenYellow; font-size: 70px;'>正确! </span>","null","","","","","","","","","","","","","","","","","","","","","","","","","feedback"
"","","","","","psychophysics","78","555255","0.0-7.1-0.1-0.32","478","","f","","","","","","","","","","","","","key","f","16.670103092783506","735","456","./1_3_Stimuli/T_ambi40.png","朋友","Image","他人","Mismatch","j","false","Practice"
"","","","","","html-keyboard-response","79","555557","0.0-7.1-0.1-1.32","null","<span style='color:red; font-size: 70px;'>错误! </span>","null","","","","","","","","","","","","","","","","","","","","","","","","","feedback"
"","","","","","psychophysics","80","557305","0.0-7.1-0.1-0.33","594","","f","","","","","","","","","","","","","key","f","16.66346153846154","735","456","./1_3_Stimuli/C_ambi40.png","自我","Word","自我","Match","f","true","Practice"
"","","","","","html-keyboard-response","81","557607","0.0-7.1-0.1-1.33","null","<span style='color:GreenYellow; font-size: 70px;'>正确! </span>","null","","","","","","","","","","","","","","","","","","","","","","","","","feedback"
"","","","","","psychophysics","82","559731","0.0-7.1-0.1-0.34","972","","j","","","","","","","","","","","","","key","j","16.666666666666668","735","456","./1_3_Stimuli/C_ambi40.png","朋友","Image","自我","Mismatch","j","true","Practice"
"","","","","","html-keyboard-response","83","560037","0.0-7.1-0.1-1.34","null","<span style='color:GreenYellow; font-size: 70px;'>正确! </span>","null","","","","","","","","","","","","","","","","","","","","","","","","","feedback"
"","","","","","psychophysics","84","562072","0.0-7.1-0.1-0.35","881","","f","","","","","","","","","","","","","key","f","16.66115702479339","735","456","./1_3_Stimuli/T_ambi40.png","他人","Word","他人","Match","f","true","Practice"
"","","","","","html-keyboard-response","85","562376","0.0-7.1-0.1-1.35","null","<span style='color:GreenYellow; font-size: 70px;'>正确! </span>","null","","","","","","","","","","","","","","","","","","","","","","","","","feedback"
"","","","","","psychophysics","86","564233","0.0-7.1-0.1-0.36","703","","f","","","","","","","","","","","","","key","f","16.672727272727272","735","456","./1_3_Stimuli/T_ambi40.png","他人","Image","他人","Match","f","true","Practice"
"","","","","","html-keyboard-response","87","564537","0.0-7.1-0.1-1.36","null","<span style='color:GreenYellow; font-size: 70px;'>正确! </span>","null","","","","","","","","","","","","","","","","","","","","","","","","","feedback"
"","","","","","psychophysics","88","566288","0.0-7.1-0.1-0.37","598","","f","","","","","","","","","","","","","key","f","16.673076923076923","735","456","./1_3_Stimuli/C_ambi40.png","自我","Image","自我","Match","f","true","Practice"
"","","","","","html-keyboard-response","89","566591","0.0-7.1-0.1-1.37","null","<span style='color:GreenYellow; font-size: 70px;'>正确! </span>","null","","","","","","","","","","","","","","","","","","","","","","","","","feedback"
"","","","","","psychophysics","90","568395","0.0-7.1-0.1-0.38","651","","j","","","","","","","","","","","","","key","j","16.66355140186916","735","456","./1_3_Stimuli/S_ambi40.png","自我","Word","朋友","Mismatch","j","true","Practice"
"","","","","","html-keyboard-response","91","568700","0.0-7.1-0.1-1.38","null","<span style='color:GreenYellow; font-size: 70px;'>正确! </span>","null","","","","","","","","","","","","","","","","","","","","","","","","","feedback"
"","","","","","psychophysics","92","570744","0.0-7.1-0.1-0.39","889","","f","","","","","","","","","","","","","key","f","16.65573770491803","735","456","./1_3_Stimuli/S_ambi40.png","朋友","Image","朋友","Match","f","true","Practice"
"","","","","","html-keyboard-response","93","571047","0.0-7.1-0.1-1.39","null","<span style='color:GreenYellow; font-size: 70px;'>正确! </span>","null","","","","","","","","","","","","","","","","","","","","","","","","","feedback"
"","","","","","psychophysics","94","573373","0.0-7.1-0.1-0.40","1173","","j","","","","","","","","","","","","","key","j","16.666666666666668","735","456","./1_3_Stimuli/T_ambi40.png","自我","Image","他人","Mismatch","j","true","Practice"
"","","","","","html-keyboard-response","95","573675","0.0-7.1-0.1-1.40","null","<span style='color:GreenYellow; font-size: 70px;'>正确! </span>","null","","","","","","","","","","","","","","","","","","","","","","","","","feedback"
"","","","","","psychophysics","96","575455","0.0-7.1-0.1-0.41","626","","f","","","","","","","","","","","","","key","f","16.669811320754718","735","456","./1_3_Stimuli/S_ambi40.png","朋友","Word","朋友","Match","f","true","Practice"
"","","","","","html-keyboard-response","97","575757","0.0-7.1-0.1-1.41","null","<span style='color:GreenYellow; font-size: 70px;'>正确! </span>","null","","","","","","","","","","","","","","","","","","","","","","","","","feedback"
"","","","","","psychophysics","98","577492","0.0-7.1-0.1-0.42","580","","f","","","","","","","","","","","","","key","f","16.66990291262136","735","456","./1_3_Stimuli/S_ambi40.png","他人","Image","朋友","Mismatch","j","false","Practice"
"","","","","","html-keyboard-response","99","577795","0.0-7.1-0.1-1.42","null","<span style='color:red; font-size: 70px;'>错误! </span>","null","","","","","","","","","","","","","","","","","","","","","","","","","feedback"
"","","","","","psychophysics","100","579462","0.0-7.1-0.1-0.43","512","","f","","","","","","","","","","","","","key","f","16.666666666666668","735","456","./1_3_Stimuli/C_ambi40.png","自我","Image","自我","Match","f","true","Practice"
"","","","","","html-keyboard-response","101","579765","0.0-7.1-0.1-1.43","null","<span style='color:GreenYellow; font-size: 70px;'>正确! </span>","null","","","","","","","","","","","","","","","","","","","","","","","","","feedback"
"","","","","","psychophysics","102","581621","0.0-7.1-0.1-0.44","701","","j","","","","","","","","","","","","","key","j","16.663636363636364","735","456","./1_3_Stimuli/T_ambi40.png","自我","Word","他人","Mismatch","j","true","Practice"
"","","","","","html-keyboard-response","103","581924","0.0-7.1-0.1-1.44","null","<span style='color:GreenYellow; font-size: 70px;'>正确! </span>","null","","","","","","","","","","","","","","","","","","","","","","","","","feedback"
"","","","","","psychophysics","104","583922","0.0-7.1-0.1-0.45","845","","f","","","","","","","","","","","","","key","f","16.66386554621849","735","456","./1_3_Stimuli/S_ambi40.png","他人","Word","朋友","Mismatch","j","false","Practice"
"","","","","","html-keyboard-response","105","584224","0.0-7.1-0.1-1.45","null","<span style='color:red; font-size: 70px;'>错误! </span>","null","","","","","","","","","","","","","","","","","","","","","","","","","feedback"
"","","","","","psychophysics","106","586193","0.0-7.1-0.1-0.46","815","","f","","","","","","","","","","","","","key","f","16.666666666666668","735","456","./1_3_Stimuli/C_ambi40.png","自我","Word","自我","Match","f","true","Practice"
"","","","","","html-keyboard-response","107","586496","0.0-7.1-0.1-1.46","null","<span style='color:GreenYellow; font-size: 70px;'>正确! </span>","null","","","","","","","","","","","","","","","","","","","","","","","","","feedback"
"","","","","","psychophysics","108","588464","0.0-7.1-0.1-0.47","814","","j","","","","","","","","","","","","","key","j","16.666666666666668","735","456","./1_3_Stimuli/T_ambi40.png","朋友","Word","他人","Mismatch","j","true","Practice"
"","","","","","html-keyboard-response","109","588767","0.0-7.1-0.1-1.47","null","<span style='color:GreenYellow; font-size: 70px;'>正确! </span>","null","","","","","","","","","","","","","","","","","","","","","","","","","feedback"
"","","","","","html-keyboard-response","110","801655","0.0-8.0","212877","<style>.context{color:white; font-size: 35px; line-height:40px}</style>                          <div><p class='context'>您正确回答了88% 的试次。</p><p class='context'>您的平均反应时为756毫秒。</p><p class='context'>恭喜您完成练习。现在请休息3~5分钟。</p><p class='context'>之后，按任意键进入正式实验。需要注意的是，正式实验将不再提供反应是否正确的反馈。</p><p class='footer' style='font-size: 35px; line-height:40px;'>请在进入正式实验实验之前将您的<span style='color: lightgreen;'>食指</span>放在电脑键盘的相应键位上进行按键。</p>","j","","","","","","","","","","","","","","","","","","","","","","","","",""
"","","","","","psychophysics","111","803519","0.0-9.0-0.0-0.0","710","","f","","","","","","","","","","","","","key","f","16.672727272727272","735","456","./1_3_Stimuli/C_ambi40.png","自我","Word","自我","Match","f","true","Formal"
"","","","","","psychophysics","112","805392","0.0-9.0-0.0-0.1","717","","j","","","","","","","","","","","","","key","j","16.651785714285715","735","456","./1_3_Stimuli/C_ambi40.png","朋友","Image","自我","Mismatch","j","true","Formal"
"","","","","","psychophysics","113","807285","0.0-9.0-0.0-0.2","738","","f","","","","","","","","","","","","","key","f","16.669642857142858","735","456","./1_3_Stimuli/T_ambi40.png","自我","Image","他人","Mismatch","j","false","Formal"
"","","","","","psychophysics","114","809662","0.0-9.0-0.0-0.3","1224","","j","","","","","","","","","","","","","key","j","16.669014084507044","735","456","./1_3_Stimuli/S_ambi40.png","他人","Image","朋友","Mismatch","j","true","Formal"
"","","","","","psychophysics","115","812279","0.0-9.0-0.0-0.4","1462","","j","","","","","","","","","","","","","key","j","16.666666666666668","735","456","./1_3_Stimuli/S_ambi40.png","朋友","Word","朋友","Match","f","false","Formal"
"","","","","","psychophysics","116","814984","0.0-9.0-0.0-0.5","null","","null","","","","","","","","","","","","","key","null","16.664596273291924","735","456","./1_3_Stimuli/T_ambi40.png","自我","Word","他人","Mismatch","j","false","Formal"
"","","","","","psychophysics","117","816977","0.0-9.0-0.0-0.6","838","","f","","","","","","","","","","","","","key","f","16.66386554621849","735","456","./1_3_Stimuli/T_ambi40.png","他人","Word","他人","Match","f","true","Formal"
"","","","","","psychophysics","118","818776","0.0-9.0-0.0-0.7","647","","f","","","","","","","","","","","","","key","f","16.66355140186916","735","456","./1_3_Stimuli/C_ambi40.png","自我","Word","自我","Match","f","true","Formal"
"","","","","","psychophysics","119","820641","0.0-9.0-0.0-0.8","713","","j","","","","","","","","","","","","","key","j","16.672727272727272","735","456","./1_3_Stimuli/T_ambi40.png","朋友","Image","他人","Mismatch","j","true","Formal"
"","","","","","psychophysics","120","822410","0.0-9.0-0.0-0.9","617","","f","","","","","","","","","","","","","key","f","16.632075471698112","735","456","./1_3_Stimuli/C_ambi40.png","自我","Image","自我","Match","f","true","Formal"
"","","","","","psychophysics","121","824055","0.0-9.0-0.0-0.10","490","","f","","","","","","","","","","","","","key","f","16.670103092783506","735","456","./1_3_Stimuli/C_ambi40.png","自我","Image","自我","Match","f","true","Formal"
"","","","","","psychophysics","122","825811","0.0-9.0-0.0-0.11","601","","j","","","","","","","","","","","","","key","j","16.64761904761905","735","456","./1_3_Stimuli/T_ambi40.png","他人","Word","他人","Match","f","false","Formal"
"","","","","","psychophysics","123","827616","0.0-9.0-0.0-0.12","652","","j","","","","","","","","","","","","","key","j","16.672897196261683","735","456","./1_3_Stimuli/C_ambi40.png","他人","Image","自我","Mismatch","j","true","Formal"
"","","","","","psychophysics","124","829478","0.0-9.0-0.0-0.13","708","","f","","","","","","","","","","","","","key","f","16.666666666666668","735","456","./1_3_Stimuli/S_ambi40.png","朋友","Image","朋友","Match","f","true","Formal"
"","","","","","psychophysics","125","831406","0.0-9.0-0.0-0.14","775","","j","","","","","","","","","","","","","key","j","16.666666666666668","735","456","./1_3_Stimuli/C_ambi40.png","他人","Word","自我","Mismatch","j","true","Formal"
"","","","","","psychophysics","126","833493","0.0-9.0-0.0-0.15","933","","j","","","","","","","","","","","","","key","j","16.656","735","456","./1_3_Stimuli/T_ambi40.png","朋友","Word","他人","Mismatch","j","true","Formal"
"","","","","","psychophysics","127","835627","0.0-9.0-0.0-0.16","982","","j","","","","","","","","","","","","","key","j","16.661417322834644","735","456","./1_3_Stimuli/S_ambi40.png","他人","Word","朋友","Mismatch","j","true","Formal"
"","","","","","psychophysics","128","837902","0.0-9.0-0.0-0.17","1123","","f","","","","","","","","","","","","","key","f","16.674074074074074","735","456","./1_3_Stimuli/S_ambi40.png","朋友","Word","朋友","Match","f","true","Formal"
"","","","","","psychophysics","129","839776","0.0-9.0-0.0-0.18","721","","j","","","","","","","","","","","","","key","j","16.660714285714285","735","456","./1_3_Stimuli/S_ambi40.png","自我","Word","朋友","Mismatch","j","true","Formal"
"","","","","","psychophysics","130","842168","0.0-9.0-0.0-0.19","1240","","f","","","","","","","","","","","","","key","f","16.661971830985916","735","456","./1_3_Stimuli/T_ambi40.png","他人","Image","他人","Match","f","true","Formal"
"","","","","","psychophysics","131","843960","0.0-9.0-0.0-0.20","637","","j","","","","","","","","","","","","","key","j","16.66355140186916","735","456","./1_3_Stimuli/C_ambi40.png","朋友","Word","自我","Mismatch","j","true","Formal"
"","","","","","psychophysics","132","846359","0.0-9.0-0.0-0.21","1246","","f","","","","","","","","","","","","","key","f","16.664335664335663","735","456","./1_3_Stimuli/S_ambi40.png","朋友","Image","朋友","Match","f","true","Formal"
"","","","","","psychophysics","133","848151","0.0-9.0-0.0-0.22","640","","j","","","","","","","","","","","","","key","j","16.669811320754718","735","456","./1_3_Stimuli/S_ambi40.png","自我","Image","朋友","Mismatch","j","true","Formal"
"","","","","","psychophysics","134","850521","0.0-9.0-0.0-0.23","1216","","f","","","","","","","","","","","","","key","f","16.666666666666668","735","456","./1_3_Stimuli/T_ambi40.png","他人","Image","他人","Match","f","true","Formal"
"","","","","","psychophysics","135","852976","0.0-9.0-0.0-0.24","1299","","j","","","","","","","","","","","","","key","j","16.64625850340136","735","456","./1_3_Stimuli/C_ambi40.png","朋友","Word","自我","Mismatch","j","true","Formal"
"","","","","","psychophysics","136","854917","0.0-9.0-0.0-0.25","789","","f","","","","","","","","","","","","","key","f","16.669565217391305","735","456","./1_3_Stimuli/T_ambi40.png","他人","Word","他人","Match","f","true","Formal"
"","","","","","psychophysics","137","856870","0.0-9.0-0.0-0.26","799","","f","","","","","","","","","","","","","key","f","16.663793103448278","735","456","./1_3_Stimuli/S_ambi40.png","朋友","Word","朋友","Match","f","true","Formal"
"","","","","","psychophysics","138","858896","0.0-9.0-0.0-0.27","873","","f","","","","","","","","","","","","","key","f","16.66115702479339","735","456","./1_3_Stimuli/T_ambi40.png","他人","Image","他人","Match","f","true","Formal"
"","","","","","psychophysics","139","860645","0.0-9.0-0.0-0.28","594","","j","","","","","","","","","","","","","key","j","16.673076923076923","735","456","./1_3_Stimuli/C_ambi40.png","他人","Image","自我","Mismatch","j","true","Formal"
"","","","","","psychophysics","140","863161","0.0-9.0-0.0-0.29","1364","","j","","","","","","","","","","","","","key","j","16.673333333333332","735","456","./1_3_Stimuli/S_ambi40.png","他人","Word","朋友","Mismatch","j","true","Formal"
"","","","","","psychophysics","141","864927","0.0-9.0-0.0-0.30","613","","j","","","","","","","","","","","","","key","j","16.666666666666668","735","456","./1_3_Stimuli/S_ambi40.png","自我","Word","朋友","Mismatch","j","true","Formal"
"","","","","","psychophysics","142","867630","0.0-9.0-0.0-0.31","null","","null","","","","","","","","","","","","","key","null","16.67080745341615","735","456","./1_3_Stimuli/T_ambi40.png","他人","Word","他人","Match","f","false","Formal"
"","","","","","psychophysics","143","869527","0.0-9.0-0.0-0.32","742","","f","","","","","","","","","","","","","key","f","16.672566371681416","735","456","./1_3_Stimuli/S_ambi40.png","朋友","Word","朋友","Match","f","true","Formal"
"","","","","","psychophysics","144","871411","0.0-9.0-0.0-0.33","732","","f","","","","","","","","","","","","","key","f","16.669642857142858","735","456","./1_3_Stimuli/C_ambi40.png","自我","Word","自我","Match","f","true","Formal"
"","","","","","psychophysics","145","873010","0.0-9.0-0.0-0.34","447","","f","","","","","","","","","","","","","key","f","16.66315789473684","735","456","./1_3_Stimuli/C_ambi40.png","自我","Word","自我","Match","f","true","Formal"
"","","","","","psychophysics","146","874879","0.0-9.0-0.0-0.35","717","","j","","","","","","","","","","","","","key","j","16.666666666666668","735","456","./1_3_Stimuli/T_ambi40.png","自我","Image","他人","Mismatch","j","true","Formal"
"","","","","","psychophysics","147","877584","0.0-9.0-0.0-0.36","null","","null","","","","","","","","","","","","","key","null","16.664596273291924","735","456","./1_3_Stimuli/C_ambi40.png","朋友","Image","自我","Mismatch","j","false","Formal"
"","","","","","psychophysics","148","879967","0.0-9.0-0.0-0.37","1227","","j","","","","","","","","","","","","","key","j","16.661971830985916","735","456","./1_3_Stimuli/S_ambi40.png","自我","Image","朋友","Mismatch","j","true","Formal"
"","","","","","psychophysics","149","882333","0.0-9.0-0.0-0.38","1212","","j","","","","","","","","","","","","","key","j","16.666666666666668","735","456","./1_3_Stimuli/S_ambi40.png","他人","Image","朋友","Mismatch","j","true","Formal"
"","","","","","psychophysics","150","884466","0.0-9.0-0.0-0.39","979","","j","","","","","","","","","","","","","key","j","16.669291338582678","735","456","./1_3_Stimuli/T_ambi40.png","朋友","Word","他人","Mismatch","j","true","Formal"
"","","","","","psychophysics","151","886577","0.0-9.0-0.0-0.40","956","","f","","","","","","","","","","","","","key","f","16.666666666666668","735","456","./1_3_Stimuli/S_ambi40.png","朋友","Image","朋友","Match","f","true","Formal"
"","","","","","psychophysics","152","888973","0.0-9.0-0.0-0.41","1244","","j","","","","","","","","","","","","","key","j","16.669014084507044","735","456","./1_3_Stimuli/C_ambi40.png","他人","Word","自我","Mismatch","j","true","Formal"
"","","","","","psychophysics","153","890905","0.0-9.0-0.0-0.42","780","","j","","","","","","","","","","","","","key","j","16.652173913043477","735","456","./1_3_Stimuli/T_ambi40.png","朋友","Image","他人","Mismatch","j","true","Formal"
"","","","","","psychophysics","154","892944","0.0-9.0-0.0-0.43","886","","j","","","","","","","","","","","","","key","j","16.66393442622951","735","456","./1_3_Stimuli/T_ambi40.png","自我","Word","他人","Mismatch","j","true","Formal"
"","","","","","psychophysics","155","895251","0.0-9.0-0.0-0.44","1154","","f","","","","","","","","","","","","","key","f","16.664233576642335","735","456","./1_3_Stimuli/S_ambi40.png","朋友","Image","朋友","Match","f","true","Formal"
"","","","","","psychophysics","156","897386","0.0-9.0-0.0-0.45","980","","f","","","","","","","","","","","","","key","f","16.661417322834644","735","456","./1_3_Stimuli/C_ambi40.png","自我","Image","自我","Match","f","true","Formal"
"","","","","","psychophysics","157","899040","0.0-9.0-0.0-0.46","500","","f","","","","","","","","","","","","","key","f","16.663265306122447","735","456","./1_3_Stimuli/C_ambi40.png","自我","Image","自我","Match","f","true","Formal"
"","","","","","psychophysics","158","901415","0.0-9.0-0.0-0.47","1221","","f","","","","","","","","","","","","","key","f","16.654929577464788","735","456","./1_3_Stimuli/T_ambi40.png","他人","Image","他人","Match","f","true","Formal"
"","","","","","psychophysics","159","903157","0.0-9.0-0.0-0.48","586","","j","","","","","","","","","","","","","key","j","16.66990291262136","735","456","./1_3_Stimuli/T_ambi40.png","自我","Image","他人","Mismatch","j","true","Formal"
"","","","","","psychophysics","160","905239","0.0-9.0-0.0-0.49","929","","j","","","","","","","","","","","","","key","j","16.653225806451612","735","456","./1_3_Stimuli/T_ambi40.png","朋友","Word","他人","Mismatch","j","true","Formal"
"","","","","","psychophysics","161","907083","0.0-9.0-0.0-0.50","691","","f","","","","","","","","","","","","","key","f","16.654545454545456","735","456","./1_3_Stimuli/S_ambi40.png","朋友","Word","朋友","Match","f","true","Formal"
"","","","","","psychophysics","162","908945","0.0-9.0-0.0-0.51","709","","j","","","","","","","","","","","","","key","j","16.666666666666668","735","456","./1_3_Stimuli/S_ambi40.png","自我","Image","朋友","Mismatch","j","true","Formal"
"","","","","","psychophysics","163","910856","0.0-9.0-0.0-0.52","759","","f","","","","","","","","","","","","","key","f","16.663716814159294","735","456","./1_3_Stimuli/T_ambi40.png","他人","Word","他人","Match","f","true","Formal"
"","","","","","psychophysics","164","913560","0.0-9.0-0.0-0.53","null","","null","","","","","","","","","","","","","key","null","16.660493827160494","735","456","./1_3_Stimuli/S_ambi40.png","他人","Word","朋友","Mismatch","j","false","Formal"
"","","","","","psychophysics","165","915573","0.0-9.0-0.0-0.54","858","","j","","","","","","","","","","","","","key","j","16.672268907563026","735","456","./1_3_Stimuli/C_ambi40.png","朋友","Image","自我","Mismatch","j","true","Formal"
"","","","","","psychophysics","166","917473","0.0-9.0-0.0-0.55","746","","f","","","","","","","","","","","","","key","f","16.654867256637168","735","456","./1_3_Stimuli/C_ambi40.png","自我","Word","自我","Match","f","true","Formal"
"","","","","","psychophysics","167","919594","0.0-9.0-0.0-0.56","967","","j","","","","","","","","","","","","","key","j","16.637795275590552","735","456","./1_3_Stimuli/S_ambi40.png","他人","Image","朋友","Mismatch","j","true","Formal"
"","","","","","psychophysics","168","921424","0.0-9.0-0.0-0.57","676","","j","","","","","","","","","","","","","key","j","16.666666666666668","735","456","./1_3_Stimuli/C_ambi40.png","他人","Image","自我","Mismatch","j","true","Formal"
"","","","","","psychophysics","169","923998","0.0-9.0-0.0-0.58","1420","","j","","","","","","","","","","","","","key","j","16.642857142857142","735","456","./1_3_Stimuli/C_ambi40.png","朋友","Word","自我","Mismatch","j","true","Formal"
"","","","","","psychophysics","170","925952","0.0-9.0-0.0-0.59","800","","j","","","","","","","","","","","","","key","j","16.67241379310345","735","456","./1_3_Stimuli/S_ambi40.png","朋友","Image","朋友","Match","f","false","Formal"
"","","","","","psychophysics","171","927955","0.0-9.0-0.0-0.60","849","","j","","","","","","","","","","","","","key","j","16.672268907563026","735","456","./1_3_Stimuli/S_ambi40.png","自我","Word","朋友","Mismatch","j","true","Formal"
"","","","","","psychophysics","172","929795","0.0-9.0-0.0-0.61","686","","f","","","","","","","","","","","","","key","f","16.672727272727272","735","456","./1_3_Stimuli/T_ambi40.png","他人","Image","他人","Match","f","true","Formal"
"","","","","","psychophysics","173","931407","0.0-9.0-0.0-0.62","459","","f","","","","","","","","","","","","","key","f","16.66315789473684","735","456","./1_3_Stimuli/T_ambi40.png","他人","Image","他人","Match","f","true","Formal"
"","","","","","psychophysics","174","933045","0.0-9.0-0.0-0.63","483","","f","","","","","","","","","","","","","key","f","16.642857142857142","735","456","./1_3_Stimuli/T_ambi40.png","他人","Word","他人","Match","f","true","Formal"
"","","","","","psychophysics","175","935115","0.0-9.0-0.0-0.64","917","","f","","","","","","","","","","","","","key","f","16.666666666666668","735","456","./1_3_Stimuli/S_ambi40.png","朋友","Word","朋友","Match","f","true","Formal"
"","","","","","psychophysics","176","936922","0.0-9.0-0.0-0.65","653","","j","","","","","","","","","","","","","key","j","16.66355140186916","735","456","./1_3_Stimuli/C_ambi40.png","他人","Word","自我","Mismatch","j","true","Formal"
"","","","","","psychophysics","177","938597","0.0-9.0-0.0-0.66","520","","f","","","","","","","","","","","","","key","f","16.66","735","456","./1_3_Stimuli/C_ambi40.png","自我","Word","自我","Match","f","true","Formal"
"","","","","","psychophysics","178","940283","0.0-9.0-0.0-0.67","533","","f","","","","","","","","","","","","","key","f","16.67","735","456","./1_3_Stimuli/C_ambi40.png","自我","Image","自我","Match","f","true","Formal"
"","","","","","psychophysics","179","941848","0.0-9.0-0.0-0.68","411","","f","","","","","","","","","","","","","key","f","16.677419354838708","735","456","./1_3_Stimuli/C_ambi40.png","自我","Image","自我","Match","f","true","Formal"
"","","","","","psychophysics","180","943518","0.0-9.0-0.0-0.69","516","","f","","","","","","","","","","","","","key","f","16.666666666666668","735","456","./1_3_Stimuli/S_ambi40.png","朋友","Image","朋友","Match","f","true","Formal"
"","","","","","psychophysics","181","945178","0.0-9.0-0.0-0.70","507","","j","","","","","","","","","","","","","key","j","16.666666666666668","735","456","./1_3_Stimuli/T_ambi40.png","自我","Word","他人","Mismatch","j","true","Formal"
"","","","","","psychophysics","182","947079","0.0-9.0-0.0-0.71","749","","j","","","","","","","","","","","","","key","j","16.672566371681416","735","456","./1_3_Stimuli/T_ambi40.png","朋友","Image","他人","Mismatch","j","true","Formal"
"","","","","","psychophysics","183","948855","0.0-9.0-0.0-0.72","624","","f","","","","","","","","","","","","","key","f","16.676190476190477","735","456","./1_3_Stimuli/T_ambi40.png","他人","Image","他人","Match","f","true","Formal"
"","","","","","psychophysics","184","950746","0.0-9.0-0.0-0.73","736","","j","","","","","","","","","","","","","key","j","16.663716814159294","735","456","./1_3_Stimuli/T_ambi40.png","朋友","Word","他人","Mismatch","j","true","Formal"
"","","","","","psychophysics","185","952657","0.0-9.0-0.0-0.74","759","","f","","","","","","","","","","","","","key","f","16.663716814159294","735","456","./1_3_Stimuli/S_ambi40.png","朋友","Word","朋友","Match","f","true","Formal"
"","","","","","psychophysics","186","954731","0.0-9.0-0.0-0.75","921","","j","","","","","","","","","","","","","key","j","16.661290322580644","735","456","./1_3_Stimuli/C_ambi40.png","朋友","Word","自我","Mismatch","j","true","Formal"
"","","","","","psychophysics","187","956215","0.0-9.0-0.0-0.76","329","","f","","","","","","","","","","","","","key","f","16.670454545454547","735","456","./1_3_Stimuli/C_ambi40.png","自我","Word","自我","Match","f","true","Formal"
"","","","","","psychophysics","188","958122","0.0-9.0-0.0-0.77","753","","j","","","","","","","","","","","","","key","j","16.663716814159294","735","456","./1_3_Stimuli/S_ambi40.png","他人","Image","朋友","Mismatch","j","true","Formal"
"","","","","","psychophysics","189","960062","0.0-9.0-0.0-0.78","787","","j","","","","","","","","","","","","","key","j","16.646551724137932","735","456","./1_3_Stimuli/C_ambi40.png","他人","Image","自我","Mismatch","j","true","Formal"
"","","","","","psychophysics","190","962022","0.0-9.0-0.0-0.79","807","","f","","","","","","","","","","","","","key","f","16.67241379310345","735","456","./1_3_Stimuli/T_ambi40.png","他人","Image","他人","Match","f","true","Formal"
"","","","","","psychophysics","191","963819","0.0-9.0-0.0-0.80","643","","j","","","","","","","","","","","","","key","j","16.66355140186916","735","456","./1_3_Stimuli/T_ambi40.png","自我","Word","他人","Mismatch","j","true","Formal"
"","","","","","psychophysics","192","965795","0.0-9.0-0.0-0.81","823","","j","","","","","","","","","","","","","key","j","16.661016949152543","735","456","./1_3_Stimuli/C_ambi40.png","他人","Word","自我","Mismatch","j","true","Formal"
"","","","","","psychophysics","193","967607","0.0-9.0-0.0-0.82","657","","f","","","","","","","","","","","","","key","f","16.66355140186916","735","456","./1_3_Stimuli/C_ambi40.png","自我","Image","自我","Match","f","true","Formal"
"","","","","","psychophysics","194","969488","0.0-9.0-0.0-0.83","726","","j","","","","","","","","","","","","","key","j","16.660714285714285","735","456","./1_3_Stimuli/T_ambi40.png","自我","Image","他人","Mismatch","j","true","Formal"
"","","","","","psychophysics","195","971718","0.0-9.0-0.0-0.84","1075","","j","","","","","","","","","","","","","key","j","16.654135338345863","735","456","./1_3_Stimuli/S_ambi40.png","自我","Image","朋友","Mismatch","j","true","Formal"
"","","","","","psychophysics","196","973337","0.0-9.0-0.0-0.85","465","","f","","","","","","","","","","","","","key","f","16.666666666666668","735","456","./1_3_Stimuli/C_ambi40.png","自我","Word","自我","Match","f","true","Formal"
"","","","","","psychophysics","197","975763","0.0-9.0-0.0-0.86","1271","","f","","","","","","","","","","","","","key","f","16.66896551724138","735","456","./1_3_Stimuli/S_ambi40.png","朋友","Word","朋友","Match","f","true","Formal"
"","","","","","psychophysics","198","977486","0.0-9.0-0.0-0.87","571","","j","","","","","","","","","","","","","key","j","16.666666666666668","735","456","./1_3_Stimuli/C_ambi40.png","自我","Image","自我","Match","f","false","Formal"
"","","","","","psychophysics","199","979621","0.0-9.0-0.0-0.88","981","","j","","","","","","","","","","","","","key","j","16.669291338582678","735","456","./1_3_Stimuli/S_ambi40.png","他人","Word","朋友","Mismatch","j","true","Formal"
"","","","","","psychophysics","200","981729","0.0-9.0-0.0-0.89","955","","j","","","","","","","","","","","","","key","j","16.666666666666668","735","456","./1_3_Stimuli/C_ambi40.png","朋友","Image","自我","Mismatch","j","true","Formal"
"","","","","","psychophysics","201","983460","0.0-9.0-0.0-0.90","578","","f","","","","","","","","","","","","","key","f","16.676470588235293","735","456","./1_3_Stimuli/T_ambi40.png","他人","Word","他人","Match","f","true","Formal"
"","","","","","psychophysics","202","985397","0.0-9.0-0.0-0.91","784","","f","","","","","","","","","","","","","key","f","16.629310344827587","735","456","./1_3_Stimuli/T_ambi40.png","他人","Word","他人","Match","f","true","Formal"
"","","","","","psychophysics","203","987182","0.0-9.0-0.0-0.92","632","","f","","","","","","","","","","","","","key","f","16.660377358490567","735","456","./1_3_Stimuli/S_ambi40.png","朋友","Image","朋友","Match","f","true","Formal"
"","","","","","psychophysics","204","989063","0.0-9.0-0.0-0.93","727","","j","","","","","","","","","","","","","key","j","16.678571428571427","735","456","./1_3_Stimuli/S_ambi40.png","自我","Word","朋友","Mismatch","j","true","Formal"
"","","","","","psychophysics","205","990871","0.0-9.0-0.0-0.94","656","","f","","","","","","","","","","","","","key","f","16.66355140186916","735","456","./1_3_Stimuli/S_ambi40.png","朋友","Image","朋友","Match","f","true","Formal"
"","","","","","psychophysics","206","992763","0.0-9.0-0.0-0.95","739","","j","","","","","","","","","","","","","key","j","16.663716814159294","735","456","./1_3_Stimuli/T_ambi40.png","朋友","Image","他人","Mismatch","j","true","Formal"
"","","","","","psychophysics","207","994726","0.0-9.0-0.0-0.96","810","","f","","","","","","","","","","","","","key","f","16.67241379310345","735","456","./1_3_Stimuli/T_ambi40.png","他人","Word","他人","Match","f","true","Formal"
"","","","","","psychophysics","208","996673","0.0-9.0-0.0-0.97","794","","f","","","","","","","","","","","","","key","f","16.655172413793103","735","456","./1_3_Stimuli/C_ambi40.png","自我","Image","自我","Match","f","true","Formal"
"","","","","","psychophysics","209","998836","0.0-9.0-0.0-0.98","1009","","j","","","","","","","","","","","","","key","j","16.65891472868217","735","456","./1_3_Stimuli/C_ambi40.png","他人","Word","自我","Mismatch","j","true","Formal"
"","","","","","psychophysics","210","1000882","0.0-9.0-0.0-0.99","892","","j","","","","","","","","","","","","","key","j","16.672131147540984","735","456","./1_3_Stimuli/C_ambi40.png","他人","Image","自我","Mismatch","j","true","Formal"
"","","","","","psychophysics","211","1002465","0.0-9.0-0.0-0.100","428","","f","","","","","","","","","","","","","key","f","16.659574468085108","735","456","./1_3_Stimuli/C_ambi40.png","自我","Word","自我","Match","f","true","Formal"
"","","","","","psychophysics","212","1004213","0.0-9.0-0.0-0.101","594","","f","","","","","","","","","","","","","key","f","16.673076923076923","735","456","./1_3_Stimuli/T_ambi40.png","他人","Image","他人","Match","f","true","Formal"
"","","","","","psychophysics","213","1005947","0.0-9.0-0.0-0.102","581","","j","","","","","","","","","","","","","key","j","16.66990291262136","735","456","./1_3_Stimuli/S_ambi40.png","自我","Word","朋友","Mismatch","j","true","Formal"
"","","","","","psychophysics","214","1008388","0.0-9.0-0.0-0.103","1289","","j","","","","","","","","","","","","","key","j","16.662068965517243","735","456","./1_3_Stimuli/T_ambi40.png","朋友","Word","他人","Mismatch","j","true","Formal"
"","","","","","psychophysics","215","1010058","0.0-9.0-0.0-0.104","515","","f","","","","","","","","","","","","","key","f","16.666666666666668","735","456","./1_3_Stimuli/C_ambi40.png","自我","Word","自我","Match","f","true","Formal"
"","","","","","psychophysics","216","1012147","0.0-9.0-0.0-0.105","936","","f","","","","","","","","","","","","","key","f","16.656","735","456","./1_3_Stimuli/T_ambi40.png","他人","Word","他人","Match","f","true","Formal"
"","","","","","psychophysics","217","1013899","0.0-9.0-0.0-0.106","600","","j","","","","","","","","","","","","","key","j","16.673076923076923","735","456","./1_3_Stimuli/T_ambi40.png","自我","Image","他人","Mismatch","j","true","Formal"
"","","","","","psychophysics","218","1015599","0.0-9.0-0.0-0.107","547","","f","","","","","","","","","","","","","key","f","16.673267326732674","735","456","./1_3_Stimuli/S_ambi40.png","朋友","Image","朋友","Match","f","true","Formal"
"","","","","","psychophysics","219","1018306","0.0-9.0-0.0-0.108","null","","null","","","","","","","","","","","","","key","null","16.67080745341615","735","456","./1_3_Stimuli/S_ambi40.png","自我","Image","朋友","Mismatch","j","false","Formal"
"","","","","","psychophysics","220","1019999","0.0-9.0-0.0-0.109","539","","f","","","","","","","","","","","","","key","f","16.673267326732674","735","456","./1_3_Stimuli/C_ambi40.png","朋友","Word","自我","Mismatch","j","false","Formal"
"","","","","","psychophysics","221","1021667","0.0-9.0-0.0-0.110","511","","f","","","","","","","","","","","","","key","f","16.666666666666668","735","456","./1_3_Stimuli/C_ambi40.png","自我","Image","自我","Match","f","true","Formal"
"","","","","","psychophysics","222","1023817","0.0-9.0-0.0-0.111","995","","f","","","","","","","","","","","","","key","f","16.6640625","735","456","./1_3_Stimuli/S_ambi40.png","朋友","Word","朋友","Match","f","true","Formal"
"","","","","","psychophysics","223","1025718","0.0-9.0-0.0-0.112","747","","f","","","","","","","","","","","","","key","f","16.663716814159294","735","456","./1_3_Stimuli/S_ambi40.png","朋友","Word","朋友","Match","f","true","Formal"
"","","","","","psychophysics","224","1027326","0.0-9.0-0.0-0.113","455","","f","","","","","","","","","","","","","key","f","16.66315789473684","735","456","./1_3_Stimuli/S_ambi40.png","朋友","Image","朋友","Match","f","true","Formal"
"","","","","","psychophysics","225","1029066","0.0-9.0-0.0-0.114","585","","j","","","","","","","","","","","","","key","j","16.625","735","456","./1_3_Stimuli/S_ambi40.png","他人","Image","朋友","Mismatch","j","true","Formal"
"","","","","","psychophysics","226","1031585","0.0-9.0-0.0-0.115","1366","","j","","","","","","","","","","","","","key","j","16.673333333333332","735","456","./1_3_Stimuli/T_ambi40.png","自我","Word","他人","Mismatch","j","true","Formal"
"","","","","","psychophysics","227","1034103","0.0-9.0-0.0-0.116","1366","","j","","","","","","","","","","","","","key","j","16.666666666666668","735","456","./1_3_Stimuli/T_ambi40.png","朋友","Image","他人","Mismatch","j","true","Formal"
"","","","","","psychophysics","228","1035921","0.0-9.0-0.0-0.117","665","","j","","","","","","","","","","","","","key","j","16.666666666666668","735","456","./1_3_Stimuli/C_ambi40.png","朋友","Image","自我","Mismatch","j","true","Formal"
"","","","","","psychophysics","229","1037730","0.0-9.0-0.0-0.118","653","","f","","","","","","","","","","","","","key","f","16.666666666666668","735","456","./1_3_Stimuli/T_ambi40.png","他人","Image","他人","Match","f","true","Formal"
"","","","","","psychophysics","230","1039549","0.0-9.0-0.0-0.119","666","","j","","","","","","","","","","","","","key","j","16.685185185185187","735","456","./1_3_Stimuli/S_ambi40.png","他人","Word","朋友","Mismatch","j","true","Formal"
"","","","","","html-keyboard-response","231","1062620","0.0-9.0-1.0","23068","<style>.context{color:white; font-size: 35px; line-height:40px}</style>                        <div><p class='context'>您正确回答了91% 的试次。</p><p class='context'>您的平均反应时为798毫秒。</p><p> <div style = 'color: green'><按任意键进入休息></div></p>","j","","","","","","","","","","","","","","","","","","","","","","","","",""
"","","","","","html-button-response","232","1164573","0.0-9.0-2.0","101945","
                  <p>您当前还剩余5组实验</p>
                  <p>现在是休息时间，当您结束休息后，您可以点击 结束休息 按钮 继续</p>
                  <p>建议休息时间还剩余<span id=""iii"">60</span>秒</p>","0","","","","","","","","","","","","","","","","","","","","","","","","",""
"","","","","","psychophysics","233","1166399","0.0-9.0-0.1-0.120","671","","j","","","","","","","","","","","","","key","j","16.678899082568808","735","456","./1_3_Stimuli/S_ambi40.png","自我","Image","朋友","Mismatch","j","true","Formal"
"","","","","","psychophysics","234","1168324","0.0-9.0-0.1-0.121","772","","j","","","","","","","","","","","","","key","j","16.666666666666668","735","456","./1_3_Stimuli/C_ambi40.png","自我","Image","自我","Match","f","false","Formal"
"","","","","","psychophysics","235","1170205","0.0-9.0-0.1-0.122","726","","j","","","","","","","","","","","","","key","j","16.669642857142858","735","456","./1_3_Stimuli/C_ambi40.png","朋友","Image","自我","Mismatch","j","true","Formal"
"","","","","","psychophysics","236","1171952","0.0-9.0-0.1-0.123","593","","f","","","","","","","","","","","","","key","f","16.66346153846154","735","456","./1_3_Stimuli/C_ambi40.png","自我","Word","自我","Match","f","true","Formal"
"","","","","","psychophysics","237","1173649","0.0-9.0-0.1-0.124","545","","j","","","","","","","","","","","","","key","j","16.673267326732674","735","456","./1_3_Stimuli/C_ambi40.png","他人","Image","自我","Mismatch","j","true","Formal"
"","","","","","psychophysics","238","1175467","0.0-9.0-0.1-0.125","665","","f","","","","","","","","","","","","","key","f","16.666666666666668","735","456","./1_3_Stimuli/T_ambi40.png","他人","Image","他人","Match","f","true","Formal"
"","","","","","psychophysics","239","1177505","0.0-9.0-0.1-0.126","886","","f","","","","","","","","","","","","","key","f","16.669421487603305","735","456","./1_3_Stimuli/T_ambi40.png","他人","Word","他人","Match","f","true","Formal"
"","","","","","psychophysics","240","1179183","0.0-9.0-0.1-0.127","525","","j","","","","","","","","","","","","","key","j","16.66","735","456","./1_3_Stimuli/T_ambi40.png","自我","Word","他人","Mismatch","j","true","Formal"
"","","","","","psychophysics","241","1181285","0.0-9.0-0.1-0.128","950","","j","","","","","","","","","","","","","key","j","16.664","735","456","./1_3_Stimuli/S_ambi40.png","他人","Word","朋友","Mismatch","j","true","Formal"
"","","","","","psychophysics","242","1182901","0.0-9.0-0.1-0.129","460","","f","","","","","","","","","","","","","key","f","16.666666666666668","735","456","./1_3_Stimuli/S_ambi40.png","朋友","Image","朋友","Match","f","true","Formal"
"","","","","","psychophysics","243","1184616","0.0-9.0-0.1-0.130","563","","f","","","","","","","","","","","","","key","f","16.666666666666668","735","456","./1_3_Stimuli/S_ambi40.png","朋友","Image","朋友","Match","f","true","Formal"
"","","","","","psychophysics","244","1186506","0.0-9.0-0.1-0.131","737","","j","","","","","","","","","","","","","key","j","16.669642857142858","735","456","./1_3_Stimuli/C_ambi40.png","他人","Word","自我","Mismatch","j","true","Formal"
"","","","","","psychophysics","245","1188143","0.0-9.0-0.1-0.132","481","","f","","","","","","","","","","","","","key","f","16.670103092783506","735","456","./1_3_Stimuli/C_ambi40.png","自我","Word","自我","Match","f","true","Formal"
"","","","","","psychophysics","246","1189902","0.0-9.0-0.1-0.133","606","","j","","","","","","","","","","","","","key","j","16.666666666666668","735","456","./1_3_Stimuli/T_ambi40.png","自我","Image","他人","Mismatch","j","true","Formal"
"","","","","","psychophysics","247","1191816","0.0-9.0-0.1-0.134","762","","f","","","","","","","","","","","","","key","f","16.666666666666668","735","456","./1_3_Stimuli/S_ambi40.png","朋友","Word","朋友","Match","f","true","Formal"
"","","","","","psychophysics","248","1193974","0.0-9.0-0.1-0.135","1006","","j","","","","","","","","","","","","","key","j","16.6640625","735","456","./1_3_Stimuli/T_ambi40.png","朋友","Word","他人","Mismatch","j","true","Formal"
"","","","","","psychophysics","249","1195905","0.0-9.0-0.1-0.136","776","","j","","","","","","","","","","","","","key","j","16.669565217391305","735","456","./1_3_Stimuli/T_ambi40.png","朋友","Image","他人","Mismatch","j","true","Formal"
"","","","","","psychophysics","250","1197609","0.0-9.0-0.1-0.137","550","","f","","","","","","","","","","","","","key","f","16.673267326732674","735","456","./1_3_Stimuli/C_ambi40.png","自我","Image","自我","Match","f","true","Formal"
"","","","","","psychophysics","251","1199360","0.0-9.0-0.1-0.138","596","","j","","","","","","","","","","","","","key","j","16.653846153846153","735","456","./1_3_Stimuli/S_ambi40.png","自我","Word","朋友","Mismatch","j","true","Formal"
"","","","","","psychophysics","252","1201467","0.0-9.0-0.1-0.139","952","","f","","","","","","","","","","","","","key","f","16.658730158730158","735","456","./1_3_Stimuli/S_ambi40.png","他人","Image","朋友","Mismatch","j","false","Formal"
"","","","","","psychophysics","253","1203454","0.0-9.0-0.1-0.140","834","","f","","","","","","","","","","","","","key","f","16.677966101694917","735","456","./1_3_Stimuli/T_ambi40.png","他人","Image","他人","Match","f","true","Formal"
"","","","","","psychophysics","254","1205567","0.0-9.0-0.1-0.141","959","","f","","","","","","","","","","","","","key","f","16.666666666666668","735","456","./1_3_Stimuli/S_ambi40.png","朋友","Word","朋友","Match","f","true","Formal"
"","","","","","psychophysics","255","1207513","0.0-9.0-0.1-0.142","793","","j","","","","","","","","","","","","","key","j","16.669565217391305","735","456","./1_3_Stimuli/C_ambi40.png","朋友","Word","自我","Mismatch","j","true","Formal"
"","","","","","psychophysics","256","1209384","0.0-9.0-0.1-0.143","717","","f","","","","","","","","","","","","","key","f","16.660714285714285","735","456","./1_3_Stimuli/T_ambi40.png","他人","Word","他人","Match","f","true","Formal"
"","","","","","psychophysics","257","1211445","0.0-9.0-0.1-0.144","908","","f","","","","","","","","","","","","","key","f","16.672131147540984","735","456","./1_3_Stimuli/S_ambi40.png","朋友","Word","朋友","Match","f","true","Formal"
"","","","","","psychophysics","258","1213863","0.0-9.0-0.1-0.145","1264","","f","","","","","","","","","","","","","key","f","16.65972222222222","735","456","./1_3_Stimuli/T_ambi40.png","他人","Image","他人","Match","f","true","Formal"
"","","","","","psychophysics","259","1215772","0.0-9.0-0.1-0.146","755","","j","","","","","","","","","","","","","key","j","16.63157894736842","735","456","./1_3_Stimuli/C_ambi40.png","他人","Image","自我","Mismatch","j","true","Formal"
"","","","","","psychophysics","260","1217591","0.0-9.0-0.1-0.147","665","","j","","","","","","","","","","","","","key","j","16.666666666666668","735","456","./1_3_Stimuli/C_ambi40.png","朋友","Image","自我","Mismatch","j","true","Formal"
"","","","","","psychophysics","261","1219996","0.0-9.0-0.1-0.148","1250","","j","","","","","","","","","","","","","key","j","16.67132867132867","735","456","./1_3_Stimuli/C_ambi40.png","他人","Word","自我","Mismatch","j","true","Formal"
"","","","","","psychophysics","262","1221809","0.0-9.0-0.1-0.149","659","","f","","","","","","","","","","","","","key","f","16.64814814814815","735","456","./1_3_Stimuli/C_ambi40.png","自我","Word","自我","Match","f","true","Formal"
"","","","","","psychophysics","263","1223611","0.0-9.0-0.1-0.150","648","","f","","","","","","","","","","","","","key","f","16.66355140186916","735","456","./1_3_Stimuli/T_ambi40.png","他人","Word","他人","Match","f","true","Formal"
"","","","","","psychophysics","264","1225546","0.0-9.0-0.1-0.151","781","","j","","","","","","","","","","","","","key","j","16.669565217391305","735","456","./1_3_Stimuli/T_ambi40.png","朋友","Image","他人","Mismatch","j","true","Formal"
"","","","","","psychophysics","265","1227242","0.0-9.0-0.1-0.152","542","","f","","","","","","","","","","","","","key","f","16.653465346534652","735","456","./1_3_Stimuli/C_ambi40.png","自我","Image","自我","Match","f","true","Formal"
"","","","","","psychophysics","266","1229088","0.0-9.0-0.1-0.153","692","","j","","","","","","","","","","","","","key","j","16.681818181818183","735","456","./1_3_Stimuli/T_ambi40.png","自我","Image","他人","Mismatch","j","true","Formal"
"","","","","","psychophysics","267","1231086","0.0-9.0-0.1-0.154","844","","j","","","","","","","","","","","","","key","j","16.672268907563026","735","456","./1_3_Stimuli/S_ambi40.png","他人","Image","朋友","Mismatch","j","true","Formal"
"","","","","","psychophysics","268","1233201","0.0-9.0-0.1-0.155","962","","j","","","","","","","","","","","","","key","j","16.666666666666668","735","456","./1_3_Stimuli/T_ambi40.png","朋友","Word","他人","Mismatch","j","true","Formal"
"","","","","","psychophysics","269","1235051","0.0-9.0-0.1-0.156","698","","j","","","","","","","","","","","","","key","j","16.663636363636364","735","456","./1_3_Stimuli/S_ambi40.png","他人","Word","朋友","Mismatch","j","true","Formal"
"","","","","","psychophysics","270","1237475","0.0-9.0-0.1-0.157","1271","","j","","","","","","","","","","","","","key","j","16.67361111111111","735","456","./1_3_Stimuli/T_ambi40.png","自我","Word","他人","Mismatch","j","true","Formal"
"","","","","","psychophysics","271","1239122","0.0-9.0-0.1-0.158","493","","f","","","","","","","","","","","","","key","f","16.663265306122447","735","456","./1_3_Stimuli/S_ambi40.png","朋友","Image","朋友","Match","f","true","Formal"
"","","","","","psychophysics","272","1240771","0.0-9.0-0.1-0.159","494","","f","","","","","","","","","","","","","key","f","16.6734693877551","735","456","./1_3_Stimuli/C_ambi40.png","自我","Word","自我","Match","f","true","Formal"
"","","","","","psychophysics","273","1242657","0.0-9.0-0.1-0.160","731","","j","","","","","","","","","","","","","key","j","16.669642857142858","735","456","./1_3_Stimuli/S_ambi40.png","朋友","Word","朋友","Match","f","false","Formal"
"","","","","","psychophysics","274","1244367","0.0-9.0-0.1-0.161","557","","f","","","","","","","","","","","","","key","f","16.676470588235293","735","456","./1_3_Stimuli/C_ambi40.png","自我","Image","自我","Match","f","true","Formal"
"","","","","","psychophysics","275","1246160","0.0-9.0-0.1-0.162","641","","f","","","","","","","","","","","","","key","f","16.660377358490567","735","456","./1_3_Stimuli/T_ambi40.png","他人","Image","他人","Match","f","true","Formal"
"","","","","","psychophysics","276","1248136","0.0-9.0-0.1-0.163","823","","j","","","","","","","","","","","","","key","j","16.661016949152543","735","456","./1_3_Stimuli/C_ambi40.png","朋友","Word","自我","Mismatch","j","true","Formal"
"","","","","","psychophysics","277","1250027","0.0-9.0-0.1-0.164","740","","f","","","","","","","","","","","","","key","f","16.669642857142858","735","456","./1_3_Stimuli/T_ambi40.png","他人","Word","他人","Match","f","true","Formal"
"","","","","","psychophysics","278","1252459","0.0-9.0-0.1-0.165","1279","","f","","","","","","","","","","","","","key","f","16.66896551724138","735","456","./1_3_Stimuli/S_ambi40.png","自我","Image","朋友","Mismatch","j","false","Formal"
"","","","","","psychophysics","279","1254539","0.0-9.0-0.1-0.166","925","","j","","","","","","","","","","","","","key","j","16.661290322580644","735","456","./1_3_Stimuli/S_ambi40.png","自我","Word","朋友","Mismatch","j","true","Formal"
"","","","","","psychophysics","280","1256451","0.0-9.0-0.1-0.167","759","","f","","","","","","","","","","","","","key","f","16.67543859649123","735","456","./1_3_Stimuli/S_ambi40.png","朋友","Image","朋友","Match","f","true","Formal"
"","","","","","psychophysics","281","1258393","0.0-9.0-0.1-0.168","789","","f","","","","","","","","","","","","","key","f","16.660869565217393","735","456","./1_3_Stimuli/T_ambi40.png","他人","Word","他人","Match","f","true","Formal"
"","","","","","psychophysics","282","1260124","0.0-9.0-0.1-0.169","577","","f","","","","","","","","","","","","","key","f","16.66990291262136","735","456","./1_3_Stimuli/T_ambi40.png","他人","Image","他人","Match","f","true","Formal"
"","","","","","psychophysics","283","1262126","0.0-9.0-0.1-0.170","847","","j","","","","","","","","","","","","","key","j","16.672268907563026","735","456","./1_3_Stimuli/C_ambi40.png","朋友","Image","自我","Mismatch","j","true","Formal"
"","","","","","psychophysics","284","1264831","0.0-9.0-0.1-0.171","null","","null","","","","","","","","","","","","","key","null","16.664596273291924","735","456","./1_3_Stimuli/T_ambi40.png","朋友","Word","他人","Mismatch","j","false","Formal"
"","","","","","psychophysics","285","1267242","0.0-9.0-0.1-0.172","1257","","j","","","","","","","","","","","","","key","j","16.664335664335663","735","456","./1_3_Stimuli/S_ambi40.png","他人","Word","朋友","Mismatch","j","true","Formal"
"","","","","","psychophysics","286","1268886","0.0-9.0-0.1-0.173","491","","j","","","","","","","","","","","","","key","j","16.663265306122447","735","456","./1_3_Stimuli/T_ambi40.png","自我","Word","他人","Mismatch","j","true","Formal"
"","","","","","psychophysics","287","1270652","0.0-9.0-0.1-0.174","612","","f","","","","","","","","","","","","","key","f","16.666666666666668","735","456","./1_3_Stimuli/S_ambi40.png","朋友","Image","朋友","Match","f","true","Formal"
"","","","","","psychophysics","288","1272684","0.0-9.0-0.1-0.175","879","","j","","","","","","","","","","","","","key","j","16.669421487603305","735","456","./1_3_Stimuli/S_ambi40.png","朋友","Word","朋友","Match","f","false","Formal"
"","","","","","psychophysics","289","1274583","0.0-9.0-0.1-0.176","747","","j","","","","","","","","","","","","","key","j","16.660714285714285","735","456","./1_3_Stimuli/S_ambi40.png","自我","Word","朋友","Mismatch","j","true","Formal"
"","","","","","psychophysics","290","1276455","0.0-9.0-0.1-0.177","720","","f","","","","","","","","","","","","","key","f","16.633928571428573","735","456","./1_3_Stimuli/T_ambi40.png","他人","Image","他人","Match","f","true","Formal"
"","","","","","psychophysics","291","1278335","0.0-9.0-0.1-0.178","726","","j","","","","","","","","","","","","","key","j","16.669642857142858","735","456","./1_3_Stimuli/T_ambi40.png","自我","Image","他人","Mismatch","j","true","Formal"
"","","","","","psychophysics","292","1280492","0.0-9.0-0.1-0.179","1004","","f","","","","","","","","","","","","","key","f","16.6640625","735","456","./1_3_Stimuli/C_ambi40.png","自我","Image","自我","Match","f","true","Formal"
"","","","","","psychophysics","293","1282304","0.0-9.0-0.1-0.180","659","","j","","","","","","","","","","","","","key","j","16.666666666666668","735","456","./1_3_Stimuli/S_ambi40.png","自我","Image","朋友","Mismatch","j","true","Formal"
"","","","","","psychophysics","294","1285009","0.0-9.0-0.1-0.181","null","","null","","","","","","","","","","","","","key","null","16.67080745341615","735","456","./1_3_Stimuli/T_ambi40.png","他人","Word","他人","Match","f","false","Formal"
"","","","","","psychophysics","295","1286902","0.0-9.0-0.1-0.182","739","","j","","","","","","","","","","","","","key","j","16.672566371681416","735","456","./1_3_Stimuli/C_ambi40.png","朋友","Word","自我","Mismatch","j","true","Formal"
"","","","","","psychophysics","296","1289013","0.0-9.0-0.1-0.183","959","","j","","","","","","","","","","","","","key","j","16.672","735","456","./1_3_Stimuli/S_ambi40.png","他人","Image","朋友","Mismatch","j","true","Formal"
"","","","","","psychophysics","297","1291152","0.0-9.0-0.1-0.184","983","","f","","","","","","","","","","","","","key","f","16.640625","735","456","./1_3_Stimuli/C_ambi40.png","自我","Word","自我","Match","f","true","Formal"
"","","","","","psychophysics","298","1293385","0.0-9.0-0.1-0.185","1081","","f","","","","","","","","","","","","","key","f","16.669172932330827","735","456","./1_3_Stimuli/C_ambi40.png","自我","Word","自我","Match","f","true","Formal"
"","","","","","psychophysics","299","1295641","0.0-9.0-0.1-0.186","1104","","f","","","","","","","","","","","","","key","f","16.671641791044777","735","456","./1_3_Stimuli/S_ambi40.png","朋友","Word","朋友","Match","f","true","Formal"
"","","","","","psychophysics","300","1297306","0.0-9.0-0.1-0.187","513","","j","","","","","","","","","","","","","key","j","16.656565656565657","735","456","./1_3_Stimuli/C_ambi40.png","自我","Image","自我","Match","f","false","Formal"
"","","","","","psychophysics","301","1299115","0.0-9.0-0.1-0.188","656","","j","","","","","","","","","","","","","key","j","16.682242990654206","735","456","./1_3_Stimuli/C_ambi40.png","他人","Image","自我","Mismatch","j","true","Formal"
"","","","","","psychophysics","302","1300879","0.0-9.0-0.1-0.189","611","","j","","","","","","","","","","","","","key","j","16.64761904761905","735","456","./1_3_Stimuli/C_ambi40.png","他人","Word","自我","Mismatch","j","true","Formal"
"","","","","","psychophysics","303","1302729","0.0-9.0-0.1-0.190","694","","j","","","","","","","","","","","","","key","j","16.654545454545456","735","456","./1_3_Stimuli/T_ambi40.png","朋友","Image","他人","Mismatch","j","true","Formal"
"","","","","","psychophysics","304","1304684","0.0-9.0-0.1-0.191","799","","f","","","","","","","","","","","","","key","f","16.655172413793103","735","456","./1_3_Stimuli/S_ambi40.png","朋友","Image","朋友","Match","f","true","Formal"
"","","","","","psychophysics","305","1306704","0.0-9.0-0.1-0.192","868","","j","","","","","","","","","","","","","key","j","16.60330578512397","735","456","./1_3_Stimuli/T_ambi40.png","朋友","Image","他人","Mismatch","j","true","Formal"
"","","","","","psychophysics","306","1308715","0.0-9.0-0.1-0.193","856","","j","","","","","","","","","","","","","key","j","16.66386554621849","735","456","./1_3_Stimuli/C_ambi40.png","他人","Word","自我","Mismatch","j","true","Formal"
"","","","","","psychophysics","307","1311075","0.0-9.0-0.1-0.194","1207","","j","","","","","","","","","","","","","key","j","16.638297872340427","735","456","./1_3_Stimuli/T_ambi40.png","自我","Image","他人","Mismatch","j","true","Formal"
"","","","","","psychophysics","308","1313088","0.0-9.0-0.1-0.195","859","","j","","","","","","","","","","","","","key","j","16.658333333333335","735","456","./1_3_Stimuli/T_ambi40.png","朋友","Word","他人","Mismatch","j","true","Formal"
"","","","","","psychophysics","309","1314881","0.0-9.0-0.1-0.196","639","","f","","","","","","","","","","","","","key","f","16.669811320754718","735","456","./1_3_Stimuli/C_ambi40.png","自我","Image","自我","Match","f","true","Formal"
"","","","","","psychophysics","310","1316773","0.0-9.0-0.1-0.197","737","","j","","","","","","","","","","","","","key","j","16.654867256637168","735","456","./1_3_Stimuli/S_ambi40.png","自我","Word","朋友","Mismatch","j","true","Formal"
"","","","","","psychophysics","311","1318413","0.0-9.0-0.1-0.198","486","","f","","","","","","","","","","","","","key","f","16.670103092783506","735","456","./1_3_Stimuli/C_ambi40.png","自我","Word","自我","Match","f","true","Formal"
"","","","","","psychophysics","312","1320452","0.0-9.0-0.1-0.199","883","","j","","","","","","","","","","","","","key","j","16.65573770491803","735","456","./1_3_Stimuli/S_ambi40.png","他人","Word","朋友","Mismatch","j","true","Formal"
"","","","","","psychophysics","313","1322701","0.0-9.0-0.1-0.200","1097","","f","","","","","","","","","","","","","key","f","16.66417910447761","735","456","./1_3_Stimuli/S_ambi40.png","朋友","Image","朋友","Match","f","true","Formal"
"","","","","","psychophysics","314","1324360","0.0-9.0-0.1-0.201","507","","f","","","","","","","","","","","","","key","f","16.6734693877551","735","456","./1_3_Stimuli/S_ambi40.png","朋友","Word","朋友","Match","f","true","Formal"
"","","","","","psychophysics","315","1326122","0.0-9.0-0.1-0.202","606","","f","","","","","","","","","","","","","key","f","16.666666666666668","735","456","./1_3_Stimuli/T_ambi40.png","他人","Image","他人","Match","f","true","Formal"
"","","","","","psychophysics","316","1327769","0.0-9.0-0.1-0.203","494","","f","","","","","","","","","","","","","key","f","16.6734693877551","735","456","./1_3_Stimuli/C_ambi40.png","朋友","Word","自我","Mismatch","j","false","Formal"
"","","","","","psychophysics","317","1330270","0.0-9.0-0.1-0.204","1349","","f","","","","","","","","","","","","","key","f","16.671140939597315","735","456","./1_3_Stimuli/S_ambi40.png","自我","Image","朋友","Mismatch","j","false","Formal"
"","","","","","psychophysics","318","1331969","0.0-9.0-0.1-0.205","547","","f","","","","","","","","","","","","","key","f","16.673267326732674","735","456","./1_3_Stimuli/C_ambi40.png","自我","Image","自我","Match","f","true","Formal"
"","","","","","psychophysics","319","1333715","0.0-9.0-0.1-0.206","594","","f","","","","","","","","","","","","","key","f","16.66990291262136","735","456","./1_3_Stimuli/C_ambi40.png","自我","Word","自我","Match","f","true","Formal"
"","","","","","psychophysics","320","1335705","0.0-9.0-0.1-0.207","836","","f","","","","","","","","","","","","","key","f","16.65546218487395","735","456","./1_3_Stimuli/S_ambi40.png","朋友","Word","朋友","Match","f","true","Formal"
"","","","","","psychophysics","321","1337538","0.0-9.0-0.1-0.208","679","","j","","","","","","","","","","","","","key","j","16.660550458715598","735","456","./1_3_Stimuli/C_ambi40.png","朋友","Image","自我","Mismatch","j","true","Formal"
"","","","","","psychophysics","322","1339503","0.0-9.0-0.1-0.209","813","","j","","","","","","","","","","","","","key","j","16.666666666666668","735","456","./1_3_Stimuli/S_ambi40.png","他人","Image","朋友","Mismatch","j","true","Formal"
"","","","","","psychophysics","323","1341355","0.0-9.0-0.1-0.210","700","","f","","","","","","","","","","","","","key","f","16.663636363636364","735","456","./1_3_Stimuli/T_ambi40.png","他人","Word","他人","Match","f","true","Formal"
"","","","","","psychophysics","324","1344060","0.0-9.0-0.1-0.211","null","","null","","","","","","","","","","","","","key","null","16.67080745341615","735","456","./1_3_Stimuli/T_ambi40.png","他人","Image","他人","Match","f","false","Formal"
"","","","","","psychophysics","325","1346215","0.0-9.0-0.1-0.212","1000","","f","","","","","","","","","","","","","key","f","16.6640625","735","456","./1_3_Stimuli/S_ambi40.png","朋友","Image","朋友","Match","f","true","Formal"
"","","","","","psychophysics","326","1348058","0.0-9.0-0.1-0.213","689","","j","","","","","","","","","","","","","key","j","16.654545454545456","735","456","./1_3_Stimuli/T_ambi40.png","自我","Word","他人","Mismatch","j","true","Formal"
"","","","","","psychophysics","327","1350491","0.0-9.0-0.1-0.214","1280","","f","","","","","","","","","","","","","key","f","16.662068965517243","735","456","./1_3_Stimuli/T_ambi40.png","他人","Word","他人","Match","f","true","Formal"
"","","","","","psychophysics","328","1352670","0.0-9.0-0.1-0.215","1025","","j","","","","","","","","","","","","","key","j","16.66923076923077","735","456","./1_3_Stimuli/C_ambi40.png","他人","Image","自我","Mismatch","j","true","Formal"
"","","","","","psychophysics","329","1354503","0.0-9.0-0.1-0.216","679","","f","","","","","","","","","","","","","key","f","16.660550458715598","735","456","./1_3_Stimuli/S_ambi40.png","朋友","Image","朋友","Match","f","true","Formal"
"","","","","","psychophysics","330","1356404","0.0-9.0-0.1-0.217","746","","j","","","","","","","","","","","","","key","j","16.672566371681416","735","456","./1_3_Stimuli/S_ambi40.png","自我","Word","朋友","Mismatch","j","true","Formal"
"","","","","","psychophysics","331","1358165","0.0-9.0-0.1-0.218","605","","f","","","","","","","","","","","","","key","f","16.66346153846154","735","456","./1_3_Stimuli/C_ambi40.png","自我","Image","自我","Match","f","true","Formal"
"","","","","","psychophysics","332","1360876","0.0-9.0-0.1-0.219","null","","null","","","","","","","","","","","","","key","null","16.664596273291924","735","456","./1_3_Stimuli/S_ambi40.png","朋友","Word","朋友","Match","f","false","Formal"
"","","","","","psychophysics","333","1362583","0.0-9.0-0.1-0.220","548","","f","","","","","","","","","","","","","key","f","16.663366336633665","735","456","./1_3_Stimuli/C_ambi40.png","自我","Word","自我","Match","f","true","Formal"
"","","","","","psychophysics","334","1364454","0.0-9.0-0.1-0.221","717","","j","","","","","","","","","","","","","key","j","16.666666666666668","735","456","./1_3_Stimuli/C_ambi40.png","他人","Image","自我","Mismatch","j","true","Formal"
"","","","","","psychophysics","335","1366239","0.0-9.0-0.1-0.222","630","","f","","","","","","","","","","","","","key","f","16.660377358490567","735","456","./1_3_Stimuli/S_ambi40.png","朋友","Image","朋友","Match","f","true","Formal"
"","","","","","psychophysics","336","1368945","0.0-9.0-0.1-0.223","null","","null","","","","","","","","","","","","","key","null","16.658385093167702","735","456","./1_3_Stimuli/S_ambi40.png","他人","Word","朋友","Mismatch","j","false","Formal"
"","","","","","psychophysics","337","1370578","0.0-9.0-0.1-0.224","478","","f","","","","","","","","","","","","","key","f","16.670103092783506","735","456","./1_3_Stimuli/C_ambi40.png","自我","Word","自我","Match","f","true","Formal"
"","","","","","psychophysics","338","1373083","0.0-9.0-0.1-0.225","1350","","j","","","","","","","","","","","","","key","j","16.671140939597315","735","456","./1_3_Stimuli/S_ambi40.png","他人","Image","朋友","Mismatch","j","true","Formal"
"","","","","","psychophysics","339","1374891","0.0-9.0-0.1-0.226","652","","j","","","","","","","","","","","","","key","j","16.672897196261683","735","456","./1_3_Stimuli/T_ambi40.png","朋友","Word","他人","Mismatch","j","true","Formal"
"","","","","","psychophysics","340","1376769","0.0-9.0-0.1-0.227","723","","j","","","","","","","","","","","","","key","j","16.669642857142858","735","456","./1_3_Stimuli/C_ambi40.png","他人","Word","自我","Mismatch","j","true","Formal"
"","","","","","psychophysics","341","1378536","0.0-9.0-0.1-0.228","612","","j","","","","","","","","","","","","","key","j","16.65714285714286","735","456","./1_3_Stimuli/T_ambi40.png","自我","Word","他人","Mismatch","j","true","Formal"
"","","","","","psychophysics","342","1380344","0.0-9.0-0.1-0.229","654","","j","","","","","","","","","","","","","key","j","16.66355140186916","735","456","./1_3_Stimuli/C_ambi40.png","朋友","Image","自我","Mismatch","j","true","Formal"
"","","","","","psychophysics","343","1382093","0.0-9.0-0.1-0.230","596","","f","","","","","","","","","","","","","key","f","16.66346153846154","735","456","./1_3_Stimuli/T_ambi40.png","他人","Word","他人","Match","f","true","Formal"
"","","","","","psychophysics","344","1383911","0.0-9.0-0.1-0.231","663","","f","","","","","","","","","","","","","key","f","16.666666666666668","735","456","./1_3_Stimuli/T_ambi40.png","他人","Image","他人","Match","f","true","Formal"
"","","","","","psychophysics","345","1385687","0.0-9.0-0.1-0.232","621","","f","","","","","","","","","","","","","key","f","16.669811320754718","735","456","./1_3_Stimuli/S_ambi40.png","朋友","Word","朋友","Match","f","true","Formal"
"","","","","","psychophysics","346","1387506","0.0-9.0-0.1-0.233","666","","j","","","","","","","","","","","","","key","j","16.666666666666668","735","456","./1_3_Stimuli/T_ambi40.png","朋友","Image","他人","Mismatch","j","true","Formal"
"","","","","","psychophysics","347","1389438","0.0-9.0-0.1-0.234","777","","f","","","","","","","","","","","","","key","f","16.660869565217393","735","456","./1_3_Stimuli/T_ambi40.png","他人","Image","他人","Match","f","true","Formal"
"","","","","","psychophysics","348","1391482","0.0-9.0-0.1-0.235","889","","j","","","","","","","","","","","","","key","j","16.66115702479339","735","456","./1_3_Stimuli/S_ambi40.png","自我","Image","朋友","Mismatch","j","true","Formal"
"","","","","","psychophysics","349","1393241","0.0-9.0-0.1-0.236","605","","f","","","","","","","","","","","","","key","f","16.64761904761905","735","456","./1_3_Stimuli/T_ambi40.png","他人","Word","他人","Match","f","true","Formal"
"","","","","","psychophysics","350","1394994","0.0-9.0-0.1-0.237","598","","f","","","","","","","","","","","","","key","f","16.66346153846154","735","456","./1_3_Stimuli/C_ambi40.png","自我","Image","自我","Match","f","true","Formal"
"","","","","","psychophysics","351","1396948","0.0-9.0-0.1-0.238","798","","j","","","","","","","","","","","","","key","j","16.663793103448278","735","456","./1_3_Stimuli/T_ambi40.png","自我","Image","他人","Mismatch","j","true","Formal"
"","","","","","psychophysics","352","1398806","0.0-9.0-0.1-0.239","705","","j","","","","","","","","","","","","","key","j","16.675675675675677","735","456","./1_3_Stimuli/C_ambi40.png","朋友","Word","自我","Mismatch","j","true","Formal"
"","","","","","html-keyboard-response","353","1407329","0.0-9.0-1.1","8519","<style>.context{color:white; font-size: 35px; line-height:40px}</style>                        <div><p class='context'>您正确回答了89% 的试次。</p><p class='context'>您的平均反应时为757毫秒。</p><p> <div style = 'color: green'><按任意键进入休息></div></p>","j","","","","","","","","","","","","","","","","","","","","","","","","",""
"","","","","","html-button-response","354","1488103","0.0-9.0-2.1","80769","
                  <p>您当前还剩余4组实验</p>
                  <p>现在是休息时间，当您结束休息后，您可以点击 结束休息 按钮 继续</p>
                  <p>建议休息时间还剩余<span id=""iii"">60</span>秒</p>","0","","","","","","","","","","","","","","","","","","","","","","","","",""
"","","","","","psychophysics","355","1489807","0.0-9.0-0.2-0.240","550","","j","","","","","","","","","","","","","key","j","16.673267326732674","735","456","./1_3_Stimuli/S_ambi40.png","自我","Word","朋友","Mismatch","j","true","Formal"
"","","","","","psychophysics","356","1491585","0.0-9.0-0.2-0.241","625","","j","","","","","","","","","","","","","key","j","16.632075471698112","735","456","./1_3_Stimuli/T_ambi40.png","朋友","Image","他人","Mismatch","j","true","Formal"
"","","","","","psychophysics","357","1493401","0.0-9.0-0.2-0.242","661","","j","","","","","","","","","","","","","key","j","16.666666666666668","735","456","./1_3_Stimuli/S_ambi40.png","朋友","Image","朋友","Match","f","false","Formal"
"","","","","","psychophysics","358","1495097","0.0-9.0-0.2-0.243","543","","j","","","","","","","","","","","","","key","j","16.673267326732674","735","456","./1_3_Stimuli/T_ambi40.png","自我","Word","他人","Mismatch","j","true","Formal"
"","","","","","psychophysics","359","1496792","0.0-9.0-0.2-0.244","541","","j","","","","","","","","","","","","","key","j","16.67","735","456","./1_3_Stimuli/C_ambi40.png","他人","Image","自我","Mismatch","j","true","Formal"
"","","","","","psychophysics","360","1498511","0.0-9.0-0.2-0.245","567","","f","","","","","","","","","","","","","key","f","16.631067961165048","735","456","./1_3_Stimuli/S_ambi40.png","朋友","Word","朋友","Match","f","true","Formal"
"","","","","","psychophysics","361","1500412","0.0-9.0-0.2-0.246","749","","j","","","","","","","","","","","","","key","j","16.672566371681416","735","456","./1_3_Stimuli/S_ambi40.png","他人","Image","朋友","Mismatch","j","true","Formal"
"","","","","","psychophysics","362","1502120","0.0-9.0-0.2-0.247","555","","f","","","","","","","","","","","","","key","f","16.663366336633665","735","456","./1_3_Stimuli/C_ambi40.png","自我","Word","自我","Match","f","true","Formal"
"","","","","","psychophysics","363","1503773","0.0-9.0-0.2-0.248","501","","f","","","","","","","","","","","","","key","f","16.663265306122447","735","456","./1_3_Stimuli/C_ambi40.png","自我","Word","自我","Match","f","true","Formal"
"","","","","","psychophysics","364","1505541","0.0-9.0-0.2-0.249","613","","j","","","","","","","","","","","","","key","j","16.64761904761905","735","456","./1_3_Stimuli/T_ambi40.png","自我","Image","他人","Mismatch","j","true","Formal"
"","","","","","psychophysics","365","1507395","0.0-9.0-0.2-0.250","700","","j","","","","","","","","","","","","","key","j","16.62162162162162","735","456","./1_3_Stimuli/S_ambi40.png","自我","Image","朋友","Mismatch","j","true","Formal"
"","","","","","psychophysics","366","1509211","0.0-9.0-0.2-0.251","663","","f","","","","","","","","","","","","","key","f","16.65740740740741","735","456","./1_3_Stimuli/T_ambi40.png","他人","Word","他人","Match","f","true","Formal"
"","","","","","psychophysics","367","1510988","0.0-9.0-0.2-0.252","624","","f","","","","","","","","","","","","","key","f","16.666666666666668","735","456","./1_3_Stimuli/T_ambi40.png","他人","Image","他人","Match","f","true","Formal"
"","","","","","psychophysics","368","1512838","0.0-9.0-0.2-0.253","696","","j","","","","","","","","","","","","","key","j","16.663636363636364","735","456","./1_3_Stimuli/C_ambi40.png","朋友","Word","自我","Mismatch","j","true","Formal"
"","","","","","psychophysics","369","1514497","0.0-9.0-0.2-0.254","504","","f","","","","","","","","","","","","","key","f","16.646464646464647","735","456","./1_3_Stimuli/T_ambi40.png","他人","Image","他人","Match","f","true","Formal"
"","","","","","psychophysics","370","1516178","0.0-9.0-0.2-0.255","529","","f","","","","","","","","","","","","","key","f","16.66","735","456","./1_3_Stimuli/C_ambi40.png","自我","Image","自我","Match","f","true","Formal"
"","","","","","psychophysics","371","1517988","0.0-9.0-0.2-0.256","659","","j","","","","","","","","","","","","","key","j","16.66355140186916","735","456","./1_3_Stimuli/T_ambi40.png","朋友","Word","他人","Mismatch","j","true","Formal"
"","","","","","psychophysics","372","1519642","0.0-9.0-0.2-0.257","500","","f","","","","","","","","","","","","","key","f","16.663265306122447","735","456","./1_3_Stimuli/S_ambi40.png","朋友","Word","朋友","Match","f","true","Formal"
"","","","","","psychophysics","373","1521507","0.0-9.0-0.2-0.258","713","","j","","","","","","","","","","","","","key","j","16.63963963963964","735","456","./1_3_Stimuli/C_ambi40.png","他人","Word","自我","Mismatch","j","true","Formal"
"","","","","","psychophysics","374","1523201","0.0-9.0-0.2-0.259","540","","f","","","","","","","","","","","","","key","f","16.653465346534652","735","456","./1_3_Stimuli/C_ambi40.png","自我","Image","自我","Match","f","true","Formal"
"","","","","","psychophysics","375","1524974","0.0-9.0-0.2-0.260","617","","f","","","","","","","","","","","","","key","f","16.676190476190477","735","456","./1_3_Stimuli/T_ambi40.png","他人","Word","他人","Match","f","true","Formal"
"","","","","","psychophysics","376","1526831","0.0-9.0-0.2-0.261","703","","j","","","","","","","","","","","","","key","j","16.63963963963964","735","456","./1_3_Stimuli/C_ambi40.png","朋友","Image","自我","Mismatch","j","true","Formal"
"","","","","","psychophysics","377","1528701","0.0-9.0-0.2-0.262","716","","f","","","","","","","","","","","","","key","f","16.666666666666668","735","456","./1_3_Stimuli/S_ambi40.png","朋友","Image","朋友","Match","f","true","Formal"
"","","","","","psychophysics","378","1530537","0.0-9.0-0.2-0.263","684","","j","","","","","","","","","","","","","key","j","16.6697247706422","735","456","./1_3_Stimuli/S_ambi40.png","他人","Word","朋友","Mismatch","j","true","Formal"
"","","","","","psychophysics","379","1532187","0.0-9.0-0.2-0.264","495","","f","","","","","","","","","","","","","key","f","16.653061224489797","735","456","./1_3_Stimuli/T_ambi40.png","他人","Image","他人","Match","f","true","Formal"
"","","","","","psychophysics","380","1533884","0.0-9.0-0.2-0.265","543","","f","","","","","","","","","","","","","key","f","16.663366336633665","735","456","./1_3_Stimuli/S_ambi40.png","朋友","Image","朋友","Match","f","true","Formal"
"","","","","","psychophysics","381","1535831","0.0-9.0-0.2-0.266","794","","f","","","","","","","","","","","","","key","f","16.655172413793103","735","456","./1_3_Stimuli/C_ambi40.png","自我","Word","自我","Match","f","true","Formal"
"","","","","","psychophysics","382","1537600","0.0-9.0-0.2-0.267","615","","f","","","","","","","","","","","","","key","f","16.666666666666668","735","456","./1_3_Stimuli/T_ambi40.png","他人","Image","他人","Match","f","true","Formal"
"","","","","","psychophysics","383","1539412","0.0-9.0-0.2-0.268","658","","f","","","","","","","","","","","","","key","f","16.666666666666668","735","456","./1_3_Stimuli/C_ambi40.png","朋友","Image","自我","Mismatch","j","false","Formal"
"","","","","","psychophysics","384","1541386","0.0-9.0-0.2-0.269","820","","j","","","","","","","","","","","","","key","j","16.675213675213676","735","456","./1_3_Stimuli/T_ambi40.png","自我","Image","他人","Mismatch","j","true","Formal"
"","","","","","psychophysics","385","1543188","0.0-9.0-0.2-0.270","647","","f","","","","","","","","","","","","","key","f","16.672897196261683","735","456","./1_3_Stimuli/S_ambi40.png","朋友","Image","朋友","Match","f","true","Formal"
"","","","","","psychophysics","386","1545029","0.0-9.0-0.2-0.271","686","","f","","","","","","","","","","","","","key","f","16.663636363636364","735","456","./1_3_Stimuli/T_ambi40.png","他人","Word","他人","Match","f","true","Formal"
"","","","","","psychophysics","387","1547096","0.0-9.0-0.2-0.272","914","","j","","","","","","","","","","","","","key","j","16.666666666666668","735","456","./1_3_Stimuli/S_ambi40.png","他人","Image","朋友","Mismatch","j","true","Formal"
"","","","","","psychophysics","388","1548845","0.0-9.0-0.2-0.273","597","","j","","","","","","","","","","","","","key","j","16.673076923076923","735","456","./1_3_Stimuli/T_ambi40.png","朋友","Word","他人","Mismatch","j","true","Formal"
"","","","","","psychophysics","389","1550556","0.0-9.0-0.2-0.274","558","","j","","","","","","","","","","","","","key","j","16.683168316831683","735","456","./1_3_Stimuli/T_ambi40.png","朋友","Image","他人","Mismatch","j","true","Formal"
"","","","","","psychophysics","390","1552278","0.0-9.0-0.2-0.275","568","","j","","","","","","","","","","","","","key","j","16.660194174757283","735","456","./1_3_Stimuli/S_ambi40.png","他人","Word","朋友","Mismatch","j","true","Formal"
"","","","","","psychophysics","391","1553974","0.0-9.0-0.2-0.276","544","","j","","","","","","","","","","","","","key","j","16.65","735","456","./1_3_Stimuli/C_ambi40.png","他人","Image","自我","Mismatch","j","true","Formal"
"","","","","","psychophysics","392","1556002","0.0-9.0-0.2-0.277","874","","j","","","","","","","","","","","","","key","j","16.669421487603305","735","456","./1_3_Stimuli/S_ambi40.png","自我","Image","朋友","Mismatch","j","true","Formal"
"","","","","","psychophysics","393","1558067","0.0-9.0-0.2-0.278","910","","f","","","","","","","","","","","","","key","f","16.67479674796748","735","456","./1_3_Stimuli/C_ambi40.png","自我","Image","自我","Match","f","true","Formal"
"","","","","","psychophysics","394","1559657","0.0-9.0-0.2-0.279","437","","f","","","","","","","","","","","","","key","f","16.659574468085108","735","456","./1_3_Stimuli/C_ambi40.png","自我","Image","自我","Match","f","true","Formal"
"","","","","","psychophysics","395","1561198","0.0-9.0-0.2-0.280","386","","f","","","","","","","","","","","","","key","f","16.641304347826086","735","456","./1_3_Stimuli/C_ambi40.png","自我","Word","自我","Match","f","true","Formal"
"","","","","","psychophysics","396","1562942","0.0-9.0-0.2-0.281","588","","j","","","","","","","","","","","","","key","j","16.660194174757283","735","456","./1_3_Stimuli/T_ambi40.png","自我","Word","他人","Mismatch","j","true","Formal"
"","","","","","psychophysics","397","1564629","0.0-9.0-0.2-0.282","534","","f","","","","","","","","","","","","","key","f","16.623762376237625","735","456","./1_3_Stimuli/S_ambi40.png","朋友","Word","朋友","Match","f","true","Formal"
"","","","","","psychophysics","398","1566392","0.0-9.0-0.2-0.283","610","","j","","","","","","","","","","","","","key","j","16.66346153846154","735","456","./1_3_Stimuli/C_ambi40.png","朋友","Word","自我","Mismatch","j","true","Formal"
"","","","","","psychophysics","399","1568123","0.0-9.0-0.2-0.284","576","","f","","","","","","","","","","","","","key","f","16.631067961165048","735","456","./1_3_Stimuli/S_ambi40.png","朋友","Word","朋友","Match","f","true","Formal"
"","","","","","psychophysics","400","1570129","0.0-9.0-0.2-0.285","852","","j","","","","","","","","","","","","","key","j","16.666666666666668","735","456","./1_3_Stimuli/C_ambi40.png","他人","Word","自我","Mismatch","j","true","Formal"
"","","","","","psychophysics","401","1571778","0.0-9.0-0.2-0.286","498","","f","","","","","","","","","","","","","key","f","16.663265306122447","735","456","./1_3_Stimuli/T_ambi40.png","他人","Word","他人","Match","f","true","Formal"
"","","","","","psychophysics","402","1573670","0.0-9.0-0.2-0.287","741","","j","","","","","","","","","","","","","key","j","16.669642857142858","735","456","./1_3_Stimuli/S_ambi40.png","自我","Word","朋友","Mismatch","j","true","Formal"
"","","","","","psychophysics","403","1575395","0.0-9.0-0.2-0.288","574","","j","","","","","","","","","","","","","key","j","16.66990291262136","735","456","./1_3_Stimuli/T_ambi40.png","自我","Word","他人","Mismatch","j","true","Formal"
"","","","","","psychophysics","404","1577035","0.0-9.0-0.2-0.289","486","","j","","","","","","","","","","","","","key","j","16.670103092783506","735","456","./1_3_Stimuli/S_ambi40.png","自我","Word","朋友","Mismatch","j","true","Formal"
"","","","","","psychophysics","405","1578739","0.0-9.0-0.2-0.290","549","","j","","","","","","","","","","","","","key","j","16.673267326732674","735","456","./1_3_Stimuli/T_ambi40.png","自我","Image","他人","Mismatch","j","true","Formal"
"","","","","","psychophysics","406","1580367","0.0-9.0-0.2-0.291","474","","f","","","","","","","","","","","","","key","f","16.65979381443299","735","456","./1_3_Stimuli/S_ambi40.png","朋友","Image","朋友","Match","f","true","Formal"
"","","","","","psychophysics","407","1582071","0.0-9.0-0.2-0.292","550","","j","","","","","","","","","","","","","key","j","16.663366336633665","735","456","./1_3_Stimuli/C_ambi40.png","他人","Image","自我","Mismatch","j","true","Formal"
"","","","","","psychophysics","408","1583941","0.0-9.0-0.2-0.293","716","","f","","","","","","","","","","","","","key","f","16.666666666666668","735","456","./1_3_Stimuli/C_ambi40.png","自我","Word","自我","Match","f","true","Formal"
"","","","","","psychophysics","409","1585690","0.0-9.0-0.2-0.294","593","","j","","","","","","","","","","","","","key","j","16.64423076923077","735","456","./1_3_Stimuli/C_ambi40.png","朋友","Image","自我","Mismatch","j","true","Formal"
"","","","","","psychophysics","410","1587479","0.0-9.0-0.2-0.295","636","","j","","","","","","","","","","","","","key","j","16.672897196261683","735","456","./1_3_Stimuli/C_ambi40.png","朋友","Word","自我","Mismatch","j","true","Formal"
"","","","","","psychophysics","411","1589186","0.0-9.0-0.2-0.296","554","","f","","","","","","","","","","","","","key","f","16.663366336633665","735","456","./1_3_Stimuli/T_ambi40.png","他人","Image","他人","Match","f","true","Formal"
"","","","","","psychophysics","412","1591147","0.0-9.0-0.2-0.297","808","","f","","","","","","","","","","","","","key","f","16.666666666666668","735","456","./1_3_Stimuli/S_ambi40.png","朋友","Word","朋友","Match","f","true","Formal"
"","","","","","psychophysics","413","1592948","0.0-9.0-0.2-0.298","648","","j","","","","","","","","","","","","","key","j","16.66355140186916","735","456","./1_3_Stimuli/T_ambi40.png","朋友","Image","他人","Mismatch","j","true","Formal"
"","","","","","psychophysics","414","1594686","0.0-9.0-0.2-0.299","585","","f","","","","","","","","","","","","","key","f","16.66990291262136","735","456","./1_3_Stimuli/C_ambi40.png","自我","Image","自我","Match","f","true","Formal"
"","","","","","psychophysics","415","1596663","0.0-9.0-0.2-0.300","822","","j","","","","","","","","","","","","","key","j","16.66949152542373","735","456","./1_3_Stimuli/T_ambi40.png","朋友","Word","他人","Mismatch","j","true","Formal"
"","","","","","psychophysics","416","1598363","0.0-9.0-0.2-0.301","548","","j","","","","","","","","","","","","","key","j","16.663366336633665","735","456","./1_3_Stimuli/T_ambi40.png","他人","Word","他人","Match","f","false","Formal"
"","","","","","psychophysics","417","1599963","0.0-9.0-0.2-0.302","448","","f","","","","","","","","","","","","","key","f","16.673684210526314","735","456","./1_3_Stimuli/T_ambi40.png","他人","Word","他人","Match","f","true","Formal"
"","","","","","psychophysics","418","1601630","0.0-9.0-0.2-0.303","514","","f","","","","","","","","","","","","","key","f","16.666666666666668","735","456","./1_3_Stimuli/C_ambi40.png","自我","Word","自我","Match","f","true","Formal"
"","","","","","psychophysics","419","1603293","0.0-9.0-0.2-0.304","510","","f","","","","","","","","","","","","","key","f","16.663265306122447","735","456","./1_3_Stimuli/C_ambi40.png","自我","Image","自我","Match","f","true","Formal"
"","","","","","psychophysics","420","1605124","0.0-9.0-0.2-0.305","679","","f","","","","","","","","","","","","","key","f","16.65137614678899","735","456","./1_3_Stimuli/S_ambi40.png","朋友","Word","朋友","Match","f","true","Formal"
"","","","","","psychophysics","421","1606762","0.0-9.0-0.2-0.306","485","","f","","","","","","","","","","","","","key","f","16.653061224489797","735","456","./1_3_Stimuli/S_ambi40.png","朋友","Image","朋友","Match","f","true","Formal"
