"success","timeout","failed_images","failed_audio","failed_video","trial_type","trial_index","time_elapsed","internal_node_id","rt","stimulus","response","value","item_width_mm","item_height_mm","item_width_px","px2mm","view_dist_mm","item_width_deg","px2deg","scale_factor","win_width_deg","win_height_deg","view_history","response_type","key_press","avg_frame_time","center_x","center_y","image","word","target","valence","matchness","correct_response","correct","exp_condition","question_order"
"true","false","[]","[]","[]","preload","0","460","0.0-0.0","","","","","","","","","","","","","","","","","","","","","","","","","","","","",""
"","","","","","html-keyboard-response","1","58002","0.0-1.0","57541","
     <p>您好，欢迎参加本次实验。</p>
     <p>为充分保障您的权利，请确保您已经知晓并同意《参与实验同意书》以及《数据公开知情同意书》。</p>
     <p>如果您未见过上述内容，请咨询实验员。</p>
     <p>如果您选择继续实验，则表示您已经清楚两份知情同意书的内容并同意。</p>
     <p> <div style = ""color: green""><按任意键至下页></div> </p>
     ","arrowright","","","","","","","","","","","","","","","","","","","","","","","","","",""
"","","","","","html-keyboard-response","2","59429","0.0-2.0-0.0","1426","
      <p>本实验首先需要您填写一些基本个人信息。</p>
      <p> <div style = ""color: green""><按任意键至下页></div></p>
      ","arrowright","","","","","","","","","","","","","","","","","","","","","","","","","",""
"","","","","","call-function","3","59429","0.0-2.0-1.0","","","","","","","","","","","","","","","","","","","","","","","","","","","","",""
"","","","","","survey-html-form","4","67561","0.0-2.0-2.0","8130","","{""Q0"":""1031""}","","","","","","","","","","","","","","","","","","","","","","","","","",""
"","","","","","html-button-response","5","70256","0.0-2.0-3.0","2693","<p style = 'color : white'>您的性别</p>","1","","","","","","","","","","","","","","","","","","","","","","","","","",""
"","","","","","survey-html-form","6","75512","0.0-2.0-4.0","5255","","{""Q0"":""2002""}","","","","","","","","","","","","","","","","","","","","","","","","","",""
"","","","","","survey-html-form","7","78592","0.0-2.0-5.0","3079","","{""Q0"":""5""}","","","","","","","","","","","","","","","","","","","","","","","","","",""
"","","","","","virtual-chinrest","8","273088","0.0-3.0","194494","","","","85.6","53.98","708.7728286427972","8.275401674964552","344.22","14.175456572855945","50","0.5220290409671873","29.76","15","","","","","","","","","","","","","","",""
"true","","","","","fullscreen","9","276483","0.0-4.0","","","","","","","","","","","","","","","","","","","","","","","","","","","","",""
"","","","","","instructions","10","354351","0.0-5.0","77867","","","","","","","","","","","","","","[{""page_index"":0,""viewing_time"":13307},{""page_index"":1,""viewing_time"":50024},{""page_index"":2,""viewing_time"":12872},{""page_index"":3,""viewing_time"":1664}]","","","","","","","","","","","","","",""
"","","","","","html-keyboard-response","11","358004","0.0-6.0","null","<count-down title=""""></count-down>","null","","","","","","","","","","","","","","","","","","","","","","","","","",""
"","","","","","psychophysics","12","360720","0.0-7.0-0.0-0.0","null","","null","","","","","","","","","","","","","key","null","16.66335403726737","768","428","./1_3_Stimuli/C_ambi40.png","自我","Word","他人","Mismatch","f","false","Practice",""
"","","","","","html-keyboard-response","13","361031","0.0-7.0-0.0-1.0","null","<span class='add_' style='color:yellow; font-size: 70px;'> 太慢! </span>","null","","","","","","","","","","","","","","","","","","","","","","","","","feedback",""
"","","","","","psychophysics","14","362516","0.0-7.0-0.0-0.1","332","","f","","","","","","","","","","","","","key","f","16.664772727272727","768","428","./1_3_Stimuli/T_ambi40.png","自我","Word","自我","Match","j","false","Practice",""
"","","","","","html-keyboard-response","15","362825","0.0-7.0-0.0-1.1","null","<span style='color:red; font-size: 70px;'>错误! </span>","null","","","","","","","","","","","","","","","","","","","","","","","","","feedback",""
"","","","","","psychophysics","16","365537","0.0-7.0-0.0-0.2","null","","null","","","","","","","","","","","","","key","null","16.665217391304203","768","428","./1_3_Stimuli/C_ambi40.png","朋友","Image","他人","Mismatch","f","false","Practice",""
"","","","","","html-keyboard-response","17","365848","0.0-7.0-0.0-1.2","null","<span class='add_' style='color:yellow; font-size: 70px;'> 太慢! </span>","null","","","","","","","","","","","","","","","","","","","","","","","","","feedback",""
"","","","","","psychophysics","18","368310","0.0-7.0-0.0-0.3","1308","","j","","","","","","","","","","","","","key","j","16.6653061224489","768","428","./1_3_Stimuli/S_ambi40.png","朋友","Image","朋友","Match","j","true","Practice",""
"","","","","","html-keyboard-response","19","368620","0.0-7.0-0.0-1.3","null","<span style='color:GreenYellow; font-size: 70px;'>正确! </span>","null","","","","","","","","","","","","","","","","","","","","","","","","","feedback",""
"","","","","","psychophysics","20","371110","0.0-7.0-0.0-0.4","1335","","j","","","","","","","","","","","","","key","j","16.66418918918911","768","428","./1_3_Stimuli/T_ambi40.png","他人","Image","自我","Mismatch","f","false","Practice",""
"","","","","","html-keyboard-response","21","371419","0.0-7.0-0.0-1.4","null","<span style='color:red; font-size: 70px;'>错误! </span>","null","","","","","","","","","","","","","","","","","","","","","","","","","feedback",""
"","","","","","psychophysics","22","373872","0.0-7.0-0.0-0.5","1296","","f","","","","","","","","","","","","","key","f","16.664383561643834","768","428","./1_3_Stimuli/S_ambi40.png","自我","Word","朋友","Mismatch","f","true","Practice",""
"","","","","","html-keyboard-response","23","374184","0.0-7.0-0.0-1.5","null","<span style='color:GreenYellow; font-size: 70px;'>正确! </span>","null","","","","","","","","","","","","","","","","","","","","","","","","","feedback",""
"","","","","","psychophysics","24","376848","0.0-7.0-0.0-0.6","1512","","f","","","","","","","","","","","","","key","f","16.664779874213544","768","428","./1_3_Stimuli/S_ambi40.png","朋友","Word","朋友","Match","j","false","Practice",""
"","","","","","html-keyboard-response","25","377149","0.0-7.0-0.0-1.6","null","<span class='add_' style='color:yellow; font-size: 70px;'> 太慢! </span>","null","","","","","","","","","","","","","","","","","","","","","","","","","feedback",""
"","","","","","psychophysics","26","379853","0.0-7.0-0.0-0.7","1551","","j","","","","","","","","","","","","","key","j","16.664197530864055","768","428","./1_3_Stimuli/S_ambi40.png","朋友","Image","朋友","Match","j","true","Practice",""
"","","","","","html-keyboard-response","27","380167","0.0-7.0-0.0-1.7","null","<span class='add_' style='color:yellow; font-size: 70px;'> 太慢! </span>","null","","","","","","","","","","","","","","","","","","","","","","","","","feedback",""
"","","","","","psychophysics","28","382406","0.0-7.0-0.0-0.8","1087","","f","","","","","","","","","","","","","key","f","16.664925373134153","768","428","./1_3_Stimuli/T_ambi40.png","朋友","Word","自我","Mismatch","f","true","Practice",""
"","","","","","html-keyboard-response","29","382720","0.0-7.0-0.0-1.8","null","<span style='color:GreenYellow; font-size: 70px;'>正确! </span>","null","","","","","","","","","","","","","","","","","","","","","","","","","feedback",""
"","","","","","psychophysics","30","384963","0.0-7.0-0.0-0.9","1089","","j","","","","","","","","","","","","","key","j","16.664661654135077","768","428","./1_3_Stimuli/T_ambi40.png","自我","Image","自我","Match","j","true","Practice",""
"","","","","","html-keyboard-response","31","385275","0.0-7.0-0.0-1.9","null","<span style='color:GreenYellow; font-size: 70px;'>正确! </span>","null","","","","","","","","","","","","","","","","","","","","","","","","","feedback",""
"","","","","","psychophysics","32","387379","0.0-7.0-0.0-0.10","948","","f","","","","","","","","","","","","","key","f","16.66080000000028","768","428","./1_3_Stimuli/C_ambi40.png","自我","Image","他人","Mismatch","f","true","Practice",""
"","","","","","html-keyboard-response","33","387694","0.0-7.0-0.0-1.10","null","<span style='color:GreenYellow; font-size: 70px;'>正确! </span>","null","","","","","","","","","","","","","","","","","","","","","","","","","feedback",""
"","","","","","psychophysics","34","389777","0.0-7.0-0.0-0.11","928","","f","","","","","","","","","","","","","key","f","16.664516129031977","768","428","./1_3_Stimuli/C_ambi40.png","他人","Word","他人","Match","j","false","Practice",""
"","","","","","html-keyboard-response","35","390084","0.0-7.0-0.0-1.11","null","<span style='color:red; font-size: 70px;'>错误! </span>","null","","","","","","","","","","","","","","","","","","","","","","","","","feedback",""
"","","","","","psychophysics","36","392612","0.0-7.0-0.0-0.12","1375","","j","","","","","","","","","","","","","key","j","16.663999999999845","768","428","./1_3_Stimuli/S_ambi40.png","自我","Image","朋友","Mismatch","f","false","Practice",""
"","","","","","html-keyboard-response","37","392924","0.0-7.0-0.0-1.12","null","<span style='color:red; font-size: 70px;'>错误! </span>","null","","","","","","","","","","","","","","","","","","","","","","","","","feedback",""
"","","","","","psychophysics","38","394914","0.0-7.0-0.0-0.13","834","","j","","","","","","","","","","","","","key","j","16.665254237288135","768","428","./1_3_Stimuli/T_ambi40.png","自我","Image","自我","Match","j","true","Practice",""
"","","","","","html-keyboard-response","39","395217","0.0-7.0-0.0-1.13","null","<span style='color:GreenYellow; font-size: 70px;'>正确! </span>","null","","","","","","","","","","","","","","","","","","","","","","","","","feedback",""
"","","","","","psychophysics","40","397929","0.0-7.0-0.0-0.14","null","","null","","","","","","","","","","","","","key","null","16.664596273291924","768","428","./1_3_Stimuli/S_ambi40.png","他人","Image","朋友","Mismatch","f","false","Practice",""
"","","","","","html-keyboard-response","41","398241","0.0-7.0-0.0-1.14","null","<span class='add_' style='color:yellow; font-size: 70px;'> 太慢! </span>","null","","","","","","","","","","","","","","","","","","","","","","","","","feedback",""
"","","","","","psychophysics","42","400807","0.0-7.0-0.0-0.15","1409","","f","","","","","","","","","","","","","key","f","16.66470588235302","768","428","./1_3_Stimuli/C_ambi40.png","他人","Image","他人","Match","j","false","Practice",""
"","","","","","html-keyboard-response","43","401111","0.0-7.0-0.0-1.15","null","<span style='color:red; font-size: 70px;'>错误! </span>","null","","","","","","","","","","","","","","","","","","","","","","","","","feedback",""
"","","","","","psychophysics","44","403087","0.0-7.0-0.0-0.16","823","","f","","","","","","","","","","","","","key","f","16.664406779661213","768","428","./1_3_Stimuli/T_ambi40.png","他人","Word","自我","Mismatch","f","true","Practice",""
"","","","","","html-keyboard-response","45","403399","0.0-7.0-0.0-1.16","null","<span style='color:GreenYellow; font-size: 70px;'>正确! </span>","null","","","","","","","","","","","","","","","","","","","","","","","","","feedback",""
"","","","","","psychophysics","46","405448","0.0-7.0-0.0-0.17","891","","j","","","","","","","","","","","","","key","j","16.664462809917065","768","428","./1_3_Stimuli/C_ambi40.png","他人","Word","他人","Match","j","true","Practice",""
"","","","","","html-keyboard-response","47","405761","0.0-7.0-0.0-1.17","null","<span style='color:GreenYellow; font-size: 70px;'>正确! </span>","null","","","","","","","","","","","","","","","","","","","","","","","","","feedback",""
"","","","","","psychophysics","48","407659","0.0-7.0-0.0-0.18","745","","f","","","","","","","","","","","","","key","f","16.664601769911812","768","428","./1_3_Stimuli/S_ambi40.png","朋友","Word","朋友","Match","j","false","Practice",""
"","","","","","html-keyboard-response","49","407973","0.0-7.0-0.0-1.18","null","<span style='color:red; font-size: 70px;'>错误! </span>","null","","","","","","","","","","","","","","","","","","","","","","","","","feedback",""
"","","","","","psychophysics","50","409889","0.0-7.0-0.0-0.19","762","","f","","","","","","","","","","","","","key","f","16.66315789473715","768","428","./1_3_Stimuli/T_ambi40.png","朋友","Image","自我","Mismatch","f","true","Practice",""
"","","","","","html-keyboard-response","51","410205","0.0-7.0-0.0-1.19","null","<span style='color:GreenYellow; font-size: 70px;'>正确! </span>","null","","","","","","","","","","","","","","","","","","","","","","","","","feedback",""
"","","","","","psychophysics","52","412168","0.0-7.0-0.0-0.20","804","","f","","","","","","","","","","","","","key","f","16.664102564102663","768","428","./1_3_Stimuli/C_ambi40.png","他人","Image","他人","Match","j","false","Practice",""
"","","","","","html-keyboard-response","53","412480","0.0-7.0-0.0-1.20","null","<span style='color:red; font-size: 70px;'>错误! </span>","null","","","","","","","","","","","","","","","","","","","","","","","","","feedback",""
"","","","","","psychophysics","54","415034","0.0-7.0-0.0-0.21","1403","","f","","","","","","","","","","","","","key","f","16.664052287581548","768","428","./1_3_Stimuli/C_ambi40.png","朋友","Word","他人","Mismatch","f","true","Practice",""
"","","","","","html-keyboard-response","55","415342","0.0-7.0-0.0-1.21","null","<span style='color:GreenYellow; font-size: 70px;'>正确! </span>","null","","","","","","","","","","","","","","","","","","","","","","","","","feedback",""
"","","","","","psychophysics","56","417598","0.0-7.0-0.0-0.22","1101","","f","","","","","","","","","","","","","key","f","16.6644444444441","768","428","./1_3_Stimuli/S_ambi40.png","他人","Word","朋友","Mismatch","f","true","Practice",""
"","","","","","html-keyboard-response","57","417910","0.0-7.0-0.0-1.22","null","<span style='color:GreenYellow; font-size: 70px;'>正确! </span>","null","","","","","","","","","","","","","","","","","","","","","","","","","feedback",""
"","","","","","psychophysics","58","420316","0.0-7.0-0.0-0.23","1253","","j","","","","","","","","","","","","","key","j","16.664583333333415","768","428","./1_3_Stimuli/T_ambi40.png","自我","Word","自我","Match","j","true","Practice",""
"","","","","","html-keyboard-response","59","420618","0.0-7.0-0.0-1.23","null","<span style='color:GreenYellow; font-size: 70px;'>正确! </span>","null","","","","","","","","","","","","","","","","","","","","","","","","","feedback",""
"","","","","","html-keyboard-response","60","424703","0.0-7.0-1.0-0.0","4084","<style>.context{color:white; font-size: 35px; line-height:40px}</style>                        <div><p class='context'>您正确回答了54% 的试次。</p><p class='context'>您的平均反应时为1104毫秒。</p><p> <div style = 'color: green'><按空格键至下页></div></p>"," ","","","","","","","","","","","","","","","","","","","","","","","","","",""
"","","","","","instructions","61","433527","0.0-7.0-1.0-1.0","8821","","","","","","","","","","","","","","[{""page_index"":0,""viewing_time"":3581},{""page_index"":1,""viewing_time"":1624},{""page_index"":2,""viewing_time"":3616}]","","","","","","","","","","","","","",""
"","","","","","psychophysics","62","435754","0.0-7.1-0.1-0.24","1062","","f","","","","","","","","","","","","","key","f","16.664393939394028","768","428","./1_3_Stimuli/S_ambi40.png","朋友","Image","朋友","Match","j","false","Practice",""
"","","","","","html-keyboard-response","63","436070","0.0-7.1-0.1-1.24","null","<span style='color:red; font-size: 70px;'>错误! </span>","null","","","","","","","","","","","","","","","","","","","","","","","","","feedback",""
"","","","","","psychophysics","64","438682","0.0-7.1-0.1-0.25","1457","","j","","","","","","","","","","","","","key","j","16.66346153846154","768","428","./1_3_Stimuli/S_ambi40.png","朋友","Word","朋友","Match","j","true","Practice",""
"","","","","","html-keyboard-response","65","438992","0.0-7.1-0.1-1.25","null","<span style='color:GreenYellow; font-size: 70px;'>正确! </span>","null","","","","","","","","","","","","","","","","","","","","","","","","","feedback",""
"","","","","","psychophysics","66","440839","0.0-7.1-0.1-0.26","696","","j","","","","","","","","","","","","","key","j","16.664545454545244","768","428","./1_3_Stimuli/T_ambi40.png","自我","Image","自我","Match","j","true","Practice",""
"","","","","","html-keyboard-response","67","441151","0.0-7.1-0.1-1.26","null","<span style='color:GreenYellow; font-size: 70px;'>正确! </span>","null","","","","","","","","","","","","","","","","","","","","","","","","","feedback",""
"","","","","","psychophysics","68","442984","0.0-7.1-0.1-0.27","674","","f","","","","","","","","","","","","","key","f","16.665137614678898","768","428","./1_3_Stimuli/T_ambi40.png","朋友","Word","自我","Mismatch","f","true","Practice",""
"","","","","","html-keyboard-response","69","443285","0.0-7.1-0.1-1.27","null","<span style='color:GreenYellow; font-size: 70px;'>正确! </span>","null","","","","","","","","","","","","","","","","","","","","","","","","","feedback",""
"","","","","","psychophysics","70","445272","0.0-7.1-0.1-0.28","832","","j","","","","","","","","","","","","","key","j","16.663559322033798","768","428","./1_3_Stimuli/C_ambi40.png","他人","Word","他人","Match","j","true","Practice",""
"","","","","","html-keyboard-response","71","445584","0.0-7.1-0.1-1.28","null","<span style='color:GreenYellow; font-size: 70px;'>正确! </span>","null","","","","","","","","","","","","","","","","","","","","","","","","","feedback",""
"","","","","","psychophysics","72","447388","0.0-7.1-0.1-0.29","647","","j","","","","","","","","","","","","","key","j","16.664485981308736","768","428","./1_3_Stimuli/T_ambi40.png","自我","Word","自我","Match","j","true","Practice",""
"","","","","","html-keyboard-response","73","447690","0.0-7.1-0.1-1.29","null","<span style='color:GreenYellow; font-size: 70px;'>正确! </span>","null","","","","","","","","","","","","","","","","","","","","","","","","","feedback",""
"","","","","","psychophysics","74","449515","0.0-7.1-0.1-0.30","673","","f","","","","","","","","","","","","","key","f","16.664220183485916","768","428","./1_3_Stimuli/S_ambi40.png","自我","Word","朋友","Mismatch","f","true","Practice",""
"","","","","","html-keyboard-response","75","449831","0.0-7.1-0.1-1.30","null","<span style='color:GreenYellow; font-size: 70px;'>正确! </span>","null","","","","","","","","","","","","","","","","","","","","","","","","","feedback",""
"","","","","","psychophysics","76","451550","0.0-7.1-0.1-0.31","565","","f","","","","","","","","","","","","","key","f","16.664705882352827","768","428","./1_3_Stimuli/C_ambi40.png","自我","Word","他人","Mismatch","f","true","Practice",""
"","","","","","html-keyboard-response","77","451861","0.0-7.1-0.1-1.31","null","<span style='color:GreenYellow; font-size: 70px;'>正确! </span>","null","","","","","","","","","","","","","","","","","","","","","","","","","feedback",""
"","","","","","psychophysics","78","453788","0.0-7.1-0.1-0.32","774","","f","","","","","","","","","","","","","key","f","16.6640350877194","768","428","./1_3_Stimuli/T_ambi40.png","他人","Image","自我","Mismatch","f","true","Practice",""
"","","","","","html-keyboard-response","79","454093","0.0-7.1-0.1-1.32","null","<span style='color:GreenYellow; font-size: 70px;'>正确! </span>","null","","","","","","","","","","","","","","","","","","","","","","","","","feedback",""
"","","","","","psychophysics","80","456019","0.0-7.1-0.1-0.33","771","","j","","","","","","","","","","","","","key","j","16.66491228070216","768","428","./1_3_Stimuli/T_ambi40.png","自我","Image","自我","Match","j","true","Practice",""
"","","","","","html-keyboard-response","81","456325","0.0-7.1-0.1-1.33","null","<span style='color:GreenYellow; font-size: 70px;'>正确! </span>","null","","","","","","","","","","","","","","","","","","","","","","","","","feedback",""
"","","","","","psychophysics","82","458565","0.0-7.1-0.1-0.34","1084","","f","","","","","","","","","","","","","key","f","16.664661654135514","768","428","./1_3_Stimuli/S_ambi40.png","他人","Image","朋友","Mismatch","f","true","Practice",""
"","","","","","html-keyboard-response","83","458867","0.0-7.1-0.1-1.34","null","<span style='color:GreenYellow; font-size: 70px;'>正确! </span>","null","","","","","","","","","","","","","","","","","","","","","","","","","feedback",""
"","","","","","psychophysics","84","460762","0.0-7.1-0.1-0.35","738","","f","","","","","","","","","","","","","key","f","16.664601769911812","768","428","./1_3_Stimuli/C_ambi40.png","朋友","Word","他人","Mismatch","f","true","Practice",""
"","","","","","html-keyboard-response","85","461076","0.0-7.1-0.1-1.35","null","<span style='color:GreenYellow; font-size: 70px;'>正确! </span>","null","","","","","","","","","","","","","","","","","","","","","","","","","feedback",""
"","","","","","psychophysics","86","462923","0.0-7.1-0.1-0.36","689","","f","","","","","","","","","","","","","key","f","16.664220183486453","768","428","./1_3_Stimuli/S_ambi40.png","自我","Image","朋友","Mismatch","f","true","Practice",""
"","","","","","html-keyboard-response","87","463234","0.0-7.1-0.1-1.36","null","<span style='color:GreenYellow; font-size: 70px;'>正确! </span>","null","","","","","","","","","","","","","","","","","","","","","","","","","feedback",""
"","","","","","psychophysics","88","465683","0.0-7.1-0.1-0.37","1293","","f","","","","","","","","","","","","","key","f","16.663698630136746","768","428","./1_3_Stimuli/C_ambi40.png","朋友","Image","他人","Mismatch","f","true","Practice",""
"","","","","","html-keyboard-response","89","465998","0.0-7.1-0.1-1.37","null","<span style='color:GreenYellow; font-size: 70px;'>正确! </span>","null","","","","","","","","","","","","","","","","","","","","","","","","","feedback",""
"","","","","","psychophysics","90","468222","0.0-7.1-0.1-0.38","1067","","j","","","","","","","","","","","","","key","j","16.664393939393587","768","428","./1_3_Stimuli/C_ambi40.png","他人","Image","他人","Match","j","true","Practice",""
"","","","","","html-keyboard-response","91","468528","0.0-7.1-0.1-1.38","null","<span style='color:GreenYellow; font-size: 70px;'>正确! </span>","null","","","","","","","","","","","","","","","","","","","","","","","","","feedback",""
"","","","","","psychophysics","92","470363","0.0-7.1-0.1-0.39","676","","f","","","","","","","","","","","","","key","f","16.665137614678898","768","428","./1_3_Stimuli/C_ambi40.png","他人","Image","他人","Match","j","false","Practice",""
"","","","","","html-keyboard-response","93","470668","0.0-7.1-0.1-1.39","null","<span style='color:red; font-size: 70px;'>错误! </span>","null","","","","","","","","","","","","","","","","","","","","","","","","","feedback",""
"","","","","","psychophysics","94","472602","0.0-7.1-0.1-0.40","781","","j","","","","","","","","","","","","","key","j","16.66434782608716","768","428","./1_3_Stimuli/C_ambi40.png","他人","Word","他人","Match","j","true","Practice",""
"","","","","","html-keyboard-response","95","472908","0.0-7.1-0.1-1.40","null","<span style='color:GreenYellow; font-size: 70px;'>正确! </span>","null","","","","","","","","","","","","","","","","","","","","","","","","","feedback",""
"","","","","","psychophysics","96","474631","0.0-7.1-0.1-0.41","559","","f","","","","","","","","","","","","","key","f","16.6647058823534","768","428","./1_3_Stimuli/S_ambi40.png","他人","Word","朋友","Mismatch","f","true","Practice",""
"","","","","","html-keyboard-response","97","474946","0.0-7.1-0.1-1.41","null","<span style='color:GreenYellow; font-size: 70px;'>正确! </span>","null","","","","","","","","","","","","","","","","","","","","","","","","","feedback",""
"","","","","","psychophysics","98","476865","0.0-7.1-0.1-0.42","766","","f","","","","","","","","","","","","","key","f","16.6640350877194","768","428","./1_3_Stimuli/C_ambi40.png","自我","Image","他人","Mismatch","f","true","Practice",""
"","","","","","html-keyboard-response","99","477170","0.0-7.1-0.1-1.42","null","<span style='color:GreenYellow; font-size: 70px;'>正确! </span>","null","","","","","","","","","","","","","","","","","","","","","","","","","feedback",""
"","","","","","psychophysics","100","479090","0.0-7.1-0.1-0.43","769","","j","","","","","","","","","","","","","key","j","16.66434782608716","768","428","./1_3_Stimuli/T_ambi40.png","自我","Word","自我","Match","j","true","Practice",""
"","","","","","html-keyboard-response","101","479402","0.0-7.1-0.1-1.43","null","<span style='color:GreenYellow; font-size: 70px;'>正确! </span>","null","","","","","","","","","","","","","","","","","","","","","","","","","feedback",""
"","","","","","psychophysics","102","481246","0.0-7.1-0.1-0.44","692","","f","","","","","","","","","","","","","key","f","16.66545454545465","768","428","./1_3_Stimuli/T_ambi40.png","朋友","Image","自我","Mismatch","f","true","Practice",""
"","","","","","html-keyboard-response","103","481560","0.0-7.1-0.1-1.44","null","<span style='color:GreenYellow; font-size: 70px;'>正确! </span>","null","","","","","","","","","","","","","","","","","","","","","","","","","feedback",""
"","","","","","psychophysics","104","483500","0.0-7.1-0.1-0.45","784","","f","","","","","","","","","","","","","key","f","16.663478260869464","768","428","./1_3_Stimuli/T_ambi40.png","他人","Word","自我","Mismatch","f","true","Practice",""
"","","","","","html-keyboard-response","105","483808","0.0-7.1-0.1-1.45","null","<span style='color:GreenYellow; font-size: 70px;'>正确! </span>","null","","","","","","","","","","","","","","","","","","","","","","","","","feedback",""
"","","","","","psychophysics","106","486146","0.0-7.1-0.1-0.46","1186","","f","","","","","","","","","","","","","key","f","16.664748201439018","768","428","./1_3_Stimuli/S_ambi40.png","朋友","Image","朋友","Match","j","false","Practice",""
"","","","","","html-keyboard-response","107","486458","0.0-7.1-0.1-1.46","null","<span style='color:red; font-size: 70px;'>错误! </span>","null","","","","","","","","","","","","","","","","","","","","","","","","","feedback",""
"","","","","","psychophysics","108","488321","0.0-7.1-0.1-0.47","704","","j","","","","","","","","","","","","","key","j","16.66576576576545","768","428","./1_3_Stimuli/S_ambi40.png","朋友","Word","朋友","Match","j","true","Practice",""
"","","","","","html-keyboard-response","109","488623","0.0-7.1-0.1-1.47","null","<span style='color:GreenYellow; font-size: 70px;'>正确! </span>","null","","","","","","","","","","","","","","","","","","","","","","","","","feedback",""
"","","","","","html-keyboard-response","110","587374","0.0-8.0","98750","<style>.context{color:white; font-size: 35px; line-height:40px}</style>                          <div><p class='context'>您正确回答了88% 的试次。</p><p class='context'>您的平均反应时为810毫秒。</p><p class='context'>恭喜您完成练习。现在请休息3~5分钟。</p><p class='context'>之后，按任意键进入正式实验。需要注意的是，正式实验将不再提供反应是否正确的反馈。</p><p class='footer' style='font-size: 35px; line-height:40px;'>请在进入正式实验实验之前将您的<span style='color: lightgreen;'>食指</span>放在电脑键盘的相应键位上进行按键。</p>"," ","","","","","","","","","","","","","","","","","","","","","","","","","",""
"","","","","","psychophysics","111","589321","0.0-9.0-0.0-0.0","789","","f","","","","","","","","","","","","","key","f","16.66434782608716","768","428","./1_3_Stimuli/C_ambi40.png","自我","Word","他人","Mismatch","f","true","Formal",""
"","","","","","psychophysics","112","591335","0.0-9.0-0.0-0.1","863","","j","","","","","","","","","","","","","key","j","16.66386554621849","768","428","./1_3_Stimuli/S_ambi40.png","朋友","Image","朋友","Match","j","true","Formal",""
"","","","","","psychophysics","113","593329","0.0-9.0-0.0-0.2","842","","j","","","","","","","","","","","","","key","j","16.664705882352745","768","428","./1_3_Stimuli/T_ambi40.png","自我","Word","自我","Match","j","true","Formal",""
"","","","","","psychophysics","114","595224","0.0-9.0-0.0-0.3","736","","j","","","","","","","","","","","","","key","j","16.664601769912327","768","428","./1_3_Stimuli/S_ambi40.png","朋友","Word","朋友","Match","j","true","Formal",""
"","","","","","psychophysics","115","596957","0.0-9.0-0.0-0.4","580","","j","","","","","","","","","","","","","key","j","16.66407766990314","768","428","./1_3_Stimuli/T_ambi40.png","自我","Word","自我","Match","j","true","Formal",""
"","","","","","psychophysics","116","598951","0.0-9.0-0.0-0.5","835","","f","","","","","","","","","","","","","key","f","16.665254237288135","768","428","./1_3_Stimuli/C_ambi40.png","他人","Word","他人","Match","j","false","Formal",""
"","","","","","psychophysics","117","601128","0.0-9.0-0.0-0.6","1024","","j","","","","","","","","","","","","","key","j","16.663846153846514","768","428","./1_3_Stimuli/S_ambi40.png","朋友","Image","朋友","Match","j","true","Formal",""
"","","","","","psychophysics","118","603321","0.0-9.0-0.0-0.7","1034","","f","","","","","","","","","","","","","key","f","16.66412213740458","768","428","./1_3_Stimuli/S_ambi40.png","他人","Image","朋友","Mismatch","f","true","Formal",""
"","","","","","psychophysics","119","605562","0.0-9.0-0.0-0.8","1075","","j","","","","","","","","","","","","","key","j","16.663909774435567","768","428","./1_3_Stimuli/C_ambi40.png","他人","Image","他人","Match","j","true","Formal",""
"","","","","","psychophysics","120","607393","0.0-9.0-0.0-0.9","675","","j","","","","","","","","","","","","","key","j","16.66330275229294","768","428","./1_3_Stimuli/T_ambi40.png","自我","Image","自我","Match","j","true","Formal",""
"","","","","","psychophysics","121","609281","0.0-9.0-0.0-0.10","728","","j","","","","","","","","","","","","","key","j","16.665178571428573","768","428","./1_3_Stimuli/S_ambi40.png","朋友","Word","朋友","Match","j","true","Formal",""
"","","","","","psychophysics","122","611315","0.0-9.0-0.0-0.11","879","","f","","","","","","","","","","","","","key","f","16.663636363636748","768","428","./1_3_Stimuli/C_ambi40.png","朋友","Image","他人","Mismatch","f","true","Formal",""
"","","","","","psychophysics","123","613679","0.0-9.0-0.0-0.12","1210","","j","","","","","","","","","","","","","key","j","16.663829787233876","768","428","./1_3_Stimuli/C_ambi40.png","他人","Word","他人","Match","j","true","Formal",""
"","","","","","psychophysics","124","616134","0.0-9.0-0.0-0.13","1300","","f","","","","","","","","","","","","","key","f","16.663698630137144","768","428","./1_3_Stimuli/C_ambi40.png","朋友","Word","他人","Mismatch","f","true","Formal",""
"","","","","","psychophysics","125","618007","0.0-9.0-0.0-0.14","722","","f","","","","","","","","","","","","","key","f","16.664864864865283","768","428","./1_3_Stimuli/T_ambi40.png","他人","Image","自我","Mismatch","f","true","Formal",""
"","","","","","psychophysics","126","620031","0.0-9.0-0.0-0.15","863","","f","","","","","","","","","","","","","key","f","16.66416666666725","768","428","./1_3_Stimuli/C_ambi40.png","自我","Image","他人","Mismatch","f","true","Formal",""
"","","","","","psychophysics","127","622248","0.0-9.0-0.0-0.16","1063","","f","","","","","","","","","","","","","key","f","16.664885496183917","768","428","./1_3_Stimuli/S_ambi40.png","自我","Word","朋友","Mismatch","f","true","Formal",""
"","","","","","psychophysics","128","624223","0.0-9.0-0.0-0.17","822","","f","","","","","","","","","","","","","key","f","16.664406779661213","768","428","./1_3_Stimuli/T_ambi40.png","朋友","Word","自我","Mismatch","f","true","Formal",""
"","","","","","psychophysics","129","626077","0.0-9.0-0.0-0.18","701","","f","","","","","","","","","","","","","key","f","16.664545454545244","768","428","./1_3_Stimuli/T_ambi40.png","他人","Word","自我","Mismatch","f","true","Formal",""
"","","","","","psychophysics","130","627813","0.0-9.0-0.0-0.19","579","","f","","","","","","","","","","","","","key","f","16.66504854368932","768","428","./1_3_Stimuli/T_ambi40.png","朋友","Image","自我","Mismatch","f","true","Formal",""
"","","","","","psychophysics","131","629718","0.0-9.0-0.0-0.20","751","","f","","","","","","","","","","","","","key","f","16.66403508771889","768","428","./1_3_Stimuli/C_ambi40.png","他人","Image","他人","Match","j","false","Formal",""
"","","","","","psychophysics","132","631698","0.0-9.0-0.0-0.21","824","","f","","","","","","","","","","","","","key","f","16.664957264957664","768","428","./1_3_Stimuli/S_ambi40.png","自我","Image","朋友","Mismatch","f","true","Formal",""
"","","","","","psychophysics","133","633519","0.0-9.0-0.0-0.22","669","","j","","","","","","","","","","","","","key","j","16.663888888888458","768","428","./1_3_Stimuli/T_ambi40.png","自我","Image","自我","Match","j","true","Formal",""
"","","","","","psychophysics","134","636138","0.0-9.0-0.0-0.23","1456","","f","","","","","","","","","","","","","key","f","16.66346153846154","768","428","./1_3_Stimuli/S_ambi40.png","他人","Word","朋友","Mismatch","f","true","Formal",""
"","","","","","psychophysics","135","638309","0.0-9.0-0.0-0.24","1018","","j","","","","","","","","","","","","","key","j","16.66434108527096","768","428","./1_3_Stimuli/S_ambi40.png","朋友","Image","朋友","Match","j","true","Formal",""
"","","","","","psychophysics","136","640629","0.0-9.0-0.0-0.25","1164","","f","","","","","","","","","","","","","key","f","16.664492753622852","768","428","./1_3_Stimuli/T_ambi40.png","他人","Image","自我","Mismatch","f","true","Formal",""
"","","","","","psychophysics","137","643227","0.0-9.0-0.0-0.26","1445","","f","","","","","","","","","","","","","key","f","16.663870967742085","768","428","./1_3_Stimuli/S_ambi40.png","他人","Image","朋友","Mismatch","f","true","Formal",""
"","","","","","psychophysics","138","645125","0.0-9.0-0.0-0.27","744","","f","","","","","","","","","","","","","key","f","16.664601769911297","768","428","./1_3_Stimuli/C_ambi40.png","朋友","Image","他人","Mismatch","f","true","Formal",""
"","","","","","psychophysics","139","647073","0.0-9.0-0.0-0.28","792","","f","","","","","","","","","","","","","key","f","16.663793103448278","768","428","./1_3_Stimuli/C_ambi40.png","自我","Word","他人","Mismatch","f","true","Formal",""
"","","","","","psychophysics","140","648859","0.0-9.0-0.0-0.29","628","","j","","","","","","","","","","","","","key","j","16.66509433962264","768","428","./1_3_Stimuli/T_ambi40.png","自我","Image","自我","Match","j","true","Formal",""
"","","","","","psychophysics","141","650590","0.0-9.0-0.0-0.30","576","","j","","","","","","","","","","","","","key","j","16.66407766990314","768","428","./1_3_Stimuli/T_ambi40.png","自我","Word","自我","Match","j","true","Formal",""
"","","","","","psychophysics","142","653023","0.0-9.0-0.0-0.31","1282","","f","","","","","","","","","","","","","key","f","16.664137931034805","768","428","./1_3_Stimuli/C_ambi40.png","他人","Image","他人","Match","j","false","Formal",""
"","","","","","psychophysics","143","655730","0.0-9.0-0.0-0.32","null","","null","","","","","","","","","","","","","key","null","16.664596273291924","768","428","./1_3_Stimuli/C_ambi40.png","他人","Image","他人","Match","j","false","Formal",""
"","","","","","psychophysics","144","658440","0.0-9.0-0.0-0.33","null","","null","","","","","","","","","","","","","key","null","16.663975155279648","768","428","./1_3_Stimuli/S_ambi40.png","朋友","Word","朋友","Match","j","false","Formal",""
"","","","","","psychophysics","145","660142","0.0-9.0-0.0-0.34","550","","f","","","","","","","","","","","","","key","f","16.663366336633665","768","428","./1_3_Stimuli/S_ambi40.png","自我","Word","朋友","Mismatch","f","true","Formal",""
"","","","","","psychophysics","146","662259","0.0-9.0-0.0-0.35","963","","j","","","","","","","","","","","","","key","j","16.66428571428627","768","428","./1_3_Stimuli/S_ambi40.png","他人","Word","朋友","Mismatch","f","false","Formal",""
"","","","","","psychophysics","147","664458","0.0-9.0-0.0-0.36","1046","","f","","","","","","","","","","","","","key","f","16.66412213740458","768","428","./1_3_Stimuli/C_ambi40.png","自我","Image","他人","Mismatch","f","true","Formal",""
"","","","","","psychophysics","148","666259","0.0-9.0-0.0-0.37","648","","j","","","","","","","","","","","","","key","j","16.664150943396447","768","428","./1_3_Stimuli/T_ambi40.png","自我","Image","自我","Match","j","true","Formal",""
"","","","","","psychophysics","149","668739","0.0-9.0-0.0-0.38","1327","","f","","","","","","","","","","","","","key","f","16.664864864865024","768","428","./1_3_Stimuli/S_ambi40.png","朋友","Word","朋友","Match","j","false","Formal",""
"","","","","","psychophysics","150","670677","0.0-9.0-0.0-0.39","782","","f","","","","","","","","","","","","","key","f","16.66434782608716","768","428","./1_3_Stimuli/T_ambi40.png","朋友","Word","自我","Mismatch","f","true","Formal",""
"","","","","","psychophysics","151","672500","0.0-9.0-0.0-0.40","672","","j","","","","","","","","","","","","","key","j","16.664814814815244","768","428","./1_3_Stimuli/S_ambi40.png","朋友","Image","朋友","Match","j","true","Formal",""
"","","","","","psychophysics","152","674772","0.0-9.0-0.0-0.41","1112","","f","","","","","","","","","","","","","key","f","16.66518518518553","768","428","./1_3_Stimuli/C_ambi40.png","朋友","Word","他人","Mismatch","f","true","Formal",""
"","","","","","psychophysics","153","677148","0.0-9.0-0.0-0.42","1221","","j","","","","","","","","","","","","","key","j","16.66408450704176","768","428","./1_3_Stimuli/C_ambi40.png","他人","Word","他人","Match","j","true","Formal",""
"","","","","","psychophysics","154","679857","0.0-9.0-0.0-0.43","null","","null","","","","","","","","","","","","","key","null","16.663975155279648","768","428","./1_3_Stimuli/S_ambi40.png","自我","Image","朋友","Mismatch","f","false","Formal",""
"","","","","","psychophysics","155","682035","0.0-9.0-0.0-0.44","1026","","f","","","","","","","","","","","","","key","f","16.663846153846514","768","428","./1_3_Stimuli/T_ambi40.png","朋友","Image","自我","Mismatch","f","true","Formal",""
"","","","","","psychophysics","156","683883","0.0-9.0-0.0-0.45","691","","f","","","","","","","","","","","","","key","f","16.664545454545244","768","428","./1_3_Stimuli/T_ambi40.png","他人","Word","自我","Mismatch","f","true","Formal",""
"","","","","","psychophysics","157","685653","0.0-9.0-0.0-0.46","614","","j","","","","","","","","","","","","","key","j","16.66476190476124","768","428","./1_3_Stimuli/T_ambi40.png","自我","Word","自我","Match","j","true","Formal",""
"","","","","","psychophysics","158","687889","0.0-9.0-0.0-0.47","1085","","f","","","","","","","","","","","","","key","f","16.664661654135514","768","428","./1_3_Stimuli/C_ambi40.png","他人","Word","他人","Match","j","false","Formal",""
"","","","","","psychophysics","159","689808","0.0-9.0-0.0-0.48","766","","f","","","","","","","","","","","","","key","f","16.66403508771889","768","428","./1_3_Stimuli/T_ambi40.png","朋友","Image","自我","Mismatch","f","true","Formal",""
"","","","","","psychophysics","160","692074","0.0-9.0-0.0-0.49","1114","","f","","","","","","","","","","","","","key","f","16.66417910447761","768","428","./1_3_Stimuli/S_ambi40.png","朋友","Image","朋友","Match","j","false","Formal",""
"","","","","","psychophysics","161","694066","0.0-9.0-0.0-0.50","841","","f","","","","","","","","","","","","","key","f","16.664406779661213","768","428","./1_3_Stimuli/T_ambi40.png","他人","Image","自我","Mismatch","f","true","Formal",""
"","","","","","psychophysics","162","696547","0.0-9.0-0.0-0.51","1326","","j","","","","","","","","","","","","","key","j","16.664189189189504","768","428","./1_3_Stimuli/S_ambi40.png","朋友","Image","朋友","Match","j","true","Formal",""
"","","","","","psychophysics","163","698195","0.0-9.0-0.0-0.52","495","","j","","","","","","","","","","","","","key","j","16.664285714286663","768","428","./1_3_Stimuli/S_ambi40.png","朋友","Word","朋友","Match","j","true","Formal",""
"","","","","","psychophysics","164","699875","0.0-9.0-0.0-0.53","521","","f","","","","","","","","","","","","","key","f","16.664000000000232","768","428","./1_3_Stimuli/C_ambi40.png","自我","Word","他人","Mismatch","f","true","Formal",""
"","","","","","psychophysics","165","701951","0.0-9.0-0.0-0.54","910","","f","","","","","","","","","","","","","key","f","16.66422764227699","768","428","./1_3_Stimuli/C_ambi40.png","他人","Image","他人","Match","j","false","Formal",""
"","","","","","psychophysics","166","703732","0.0-9.0-0.0-0.55","625","","j","","","","","","","","","","","","","key","j","16.664150943396447","768","428","./1_3_Stimuli/T_ambi40.png","自我","Word","自我","Match","j","true","Formal",""
"","","","","","psychophysics","167","705482","0.0-9.0-0.0-0.56","593","","j","","","","","","","","","","","","","key","j","16.66346153846154","768","428","./1_3_Stimuli/C_ambi40.png","他人","Image","他人","Match","j","true","Formal",""
"","","","","","psychophysics","168","707563","0.0-9.0-0.0-0.57","923","","f","","","","","","","","","","","","","key","f","16.664516129031508","768","428","./1_3_Stimuli/T_ambi40.png","他人","Word","自我","Mismatch","f","true","Formal",""
"","","","","","psychophysics","169","709850","0.0-9.0-0.0-0.58","1128","","f","","","","","","","","","","","","","key","f","16.664705882352255","768","428","./1_3_Stimuli/C_ambi40.png","朋友","Image","他人","Mismatch","f","true","Formal",""
"","","","","","psychophysics","170","711803","0.0-9.0-0.0-0.59","797","","j","","","","","","","","","","","","","key","j","16.664655172413593","768","428","./1_3_Stimuli/S_ambi40.png","自我","Image","朋友","Mismatch","f","false","Formal",""
"","","","","","psychophysics","171","714506","0.0-9.0-0.0-0.60","null","","null","","","","","","","","","","","","","key","null","16.664596273291924","768","428","./1_3_Stimuli/C_ambi40.png","朋友","Word","他人","Mismatch","f","false","Formal",""
"","","","","","psychophysics","172","716232","0.0-9.0-0.0-0.61","575","","j","","","","","","","","","","","","","key","j","16.66568627450889","768","428","./1_3_Stimuli/T_ambi40.png","自我","Word","自我","Match","j","true","Formal",""
"","","","","","psychophysics","173","718543","0.0-9.0-0.0-0.62","1154","","f","","","","","","","","","","","","","key","f","16.664492753622852","768","428","./1_3_Stimuli/C_ambi40.png","他人","Word","他人","Match","j","false","Formal",""
"","","","","","psychophysics","174","720529","0.0-9.0-0.0-0.63","832","","f","","","","","","","","","","","","","key","f","16.665254237288135","768","428","./1_3_Stimuli/C_ambi40.png","自我","Image","他人","Mismatch","f","true","Formal",""
"","","","","","psychophysics","175","723229","0.0-9.0-0.0-0.64","1545","","f","","","","","","","","","","","","","key","f","16.664596273291924","768","428","./1_3_Stimuli/T_ambi40.png","朋友","Word","自我","Mismatch","f","true","Formal",""
"","","","","","psychophysics","176","724846","0.0-9.0-0.0-0.65","464","","j","","","","","","","","","","","","","key","j","16.66354166666618","768","428","./1_3_Stimuli/T_ambi40.png","自我","Image","自我","Match","j","true","Formal",""
"","","","","","psychophysics","177","726798","0.0-9.0-0.0-0.66","795","","j","","","","","","","","","","","","","key","j","16.665517241379913","768","428","./1_3_Stimuli/S_ambi40.png","朋友","Word","朋友","Match","j","true","Formal",""
"","","","","","psychophysics","178","728795","0.0-9.0-0.0-0.67","842","","f","","","","","","","","","","","","","key","f","16.66386554621849","768","428","./1_3_Stimuli/S_ambi40.png","他人","Image","朋友","Mismatch","f","true","Formal",""
"","","","","","psychophysics","179","731337","0.0-9.0-0.0-0.68","1386","","j","","","","","","","","","","","","","key","j","16.664473684210527","768","428","./1_3_Stimuli/C_ambi40.png","他人","Word","他人","Match","j","true","Formal",""
"","","","","","psychophysics","180","733349","0.0-9.0-0.0-0.69","851","","f","","","","","","","","","","","","","key","f","16.66386554621849","768","428","./1_3_Stimuli/S_ambi40.png","他人","Word","朋友","Mismatch","f","true","Formal",""
"","","","","","psychophysics","181","735015","0.0-9.0-0.0-0.70","513","","j","","","","","","","","","","","","","key","j","16.664285714286663","768","428","./1_3_Stimuli/T_ambi40.png","自我","Image","自我","Match","j","true","Formal",""
"","","","","","psychophysics","182","736830","0.0-9.0-0.0-0.71","661","","f","","","","","","","","","","","","","key","f","16.663888888888458","768","428","./1_3_Stimuli/S_ambi40.png","自我","Word","朋友","Mismatch","f","true","Formal",""
"","","","","","psychophysics","183","739535","0.0-9.0-0.0-0.72","null","","null","","","","","","","","","","","","","key","null","16.663975155279648","768","428","./1_3_Stimuli/C_ambi40.png","他人","Image","他人","Match","j","false","Formal",""
"","","","","","psychophysics","184","741259","0.0-9.0-0.0-0.73","573","","f","","","","","","","","","","","","","key","f","16.6647058823534","768","428","./1_3_Stimuli/C_ambi40.png","朋友","Image","他人","Mismatch","f","true","Formal",""
"","","","","","psychophysics","185","743551","0.0-9.0-0.0-0.74","1141","","f","","","","","","","","","","","","","key","f","16.66470588235311","768","428","./1_3_Stimuli/T_ambi40.png","朋友","Word","自我","Mismatch","f","true","Formal",""
"","","","","","psychophysics","186","745557","0.0-9.0-0.0-0.75","855","","f","","","","","","","","","","","","","key","f","16.664705882352745","768","428","./1_3_Stimuli/C_ambi40.png","朋友","Word","他人","Mismatch","f","true","Formal",""
"","","","","","psychophysics","187","747328","0.0-9.0-0.0-0.76","611","","f","","","","","","","","","","","","","key","f","16.664761904762347","768","428","./1_3_Stimuli/T_ambi40.png","朋友","Image","自我","Mismatch","f","true","Formal",""
"","","","","","psychophysics","188","749228","0.0-9.0-0.0-0.77","744","","f","","","","","","","","","","","","","key","f","16.663716814159294","768","428","./1_3_Stimuli/C_ambi40.png","自我","Image","他人","Mismatch","f","true","Formal",""
"","","","","","psychophysics","189","751458","0.0-9.0-0.0-0.78","1075","","f","","","","","","","","","","","","","key","f","16.664661654135514","768","428","./1_3_Stimuli/C_ambi40.png","自我","Word","他人","Mismatch","f","true","Formal",""
"","","","","","psychophysics","190","753252","0.0-9.0-0.0-0.79","643","","f","","","","","","","","","","","","","key","f","16.66448598130928","768","428","./1_3_Stimuli/S_ambi40.png","自我","Image","朋友","Mismatch","f","true","Formal",""
"","","","","","psychophysics","191","755429","0.0-9.0-0.0-0.80","1013","","j","","","","","","","","","","","","","key","j","16.66434108527096","768","428","./1_3_Stimuli/S_ambi40.png","朋友","Word","朋友","Match","j","true","Formal",""
"","","","","","psychophysics","192","757574","0.0-9.0-0.0-0.81","991","","f","","","","","","","","","","","","","key","f","16.6640625","768","428","./1_3_Stimuli/C_ambi40.png","他人","Word","他人","Match","j","false","Formal",""
"","","","","","psychophysics","193","759574","0.0-9.0-0.0-0.82","841","","j","","","","","","","","","","","","","key","j","16.664705882352745","768","428","./1_3_Stimuli/C_ambi40.png","他人","Image","他人","Match","j","true","Formal",""
"","","","","","psychophysics","194","761521","0.0-9.0-0.0-0.83","790","","j","","","","","","","","","","","","","key","j","16.663793103448278","768","428","./1_3_Stimuli/T_ambi40.png","自我","Word","自我","Match","j","true","Formal",""
"","","","","","psychophysics","195","763290","0.0-9.0-0.0-0.84","608","","j","","","","","","","","","","","","","key","j","16.663809523809082","768","428","./1_3_Stimuli/T_ambi40.png","自我","Image","自我","Match","j","true","Formal",""
"","","","","","psychophysics","196","765317","0.0-9.0-0.0-0.85","871","","f","","","","","","","","","","","","","key","f","16.66446280991755","768","428","./1_3_Stimuli/T_ambi40.png","他人","Word","自我","Mismatch","f","true","Formal",""
"","","","","","psychophysics","197","767803","0.0-9.0-0.0-0.86","1333","","f","","","","","","","","","","","","","key","f","16.664189189189504","768","428","./1_3_Stimuli/S_ambi40.png","自我","Word","朋友","Mismatch","f","true","Formal",""
"","","","","","psychophysics","198","770514","0.0-9.0-0.0-0.87","null","","null","","","","","","","","","","","","","key","null","16.663975155279648","768","428","./1_3_Stimuli/S_ambi40.png","他人","Word","朋友","Mismatch","f","false","Formal",""
"","","","","","psychophysics","199","773127","0.0-9.0-0.0-0.88","1452","","f","","","","","","","","","","","","","key","f","16.664516129032258","768","428","./1_3_Stimuli/C_ambi40.png","他人","Word","他人","Match","j","false","Formal",""
"","","","","","psychophysics","200","774936","0.0-9.0-0.0-0.89","656","","j","","","","","","","","","","","","","key","j","16.664814814814168","768","428","./1_3_Stimuli/T_ambi40.png","自我","Word","自我","Match","j","true","Formal",""
"","","","","","psychophysics","201","776591","0.0-9.0-0.0-0.90","495","","j","","","","","","","","","","","","","key","j","16.664285714285477","768","428","./1_3_Stimuli/T_ambi40.png","自我","Image","自我","Match","j","true","Formal",""
"","","","","","psychophysics","202","778870","0.0-9.0-0.0-0.91","1124","","f","","","","","","","","","","","","","key","f","16.66296296296296","768","428","./1_3_Stimuli/S_ambi40.png","他人","Image","朋友","Mismatch","f","true","Formal",""
"","","","","","psychophysics","203","780894","0.0-9.0-0.0-0.92","870","","j","","","","","","","","","","","","","key","j","16.66333333333314","768","428","./1_3_Stimuli/S_ambi40.png","朋友","Image","朋友","Match","j","true","Formal",""
"","","","","","psychophysics","204","782497","0.0-9.0-0.0-0.93","452","","j","","","","","","","","","","","","","key","j","16.66458333333382","768","428","./1_3_Stimuli/S_ambi40.png","朋友","Word","朋友","Match","j","true","Formal",""
"","","","","","psychophysics","205","784543","0.0-9.0-0.0-0.94","883","","f","","","","","","","","","","","","","key","f","16.66446280991755","768","428","./1_3_Stimuli/T_ambi40.png","他人","Image","自我","Mismatch","f","true","Formal",""
"","","","","","psychophysics","206","786900","0.0-9.0-0.0-0.95","1205","","j","","","","","","","","","","","","","key","j","16.664999999999832","768","428","./1_3_Stimuli/S_ambi40.png","朋友","Image","朋友","Match","j","true","Formal",""
"","","","","","psychophysics","207","788802","0.0-9.0-0.0-0.96","746","","f","","","","","","","","","","","","","key","f","16.664601769911297","768","428","./1_3_Stimuli/T_ambi40.png","他人","Word","自我","Mismatch","f","true","Formal",""
"","","","","","psychophysics","208","791051","0.0-9.0-0.0-0.97","1090","","f","","","","","","","","","","","","","key","f","16.66417910447761","768","428","./1_3_Stimuli/C_ambi40.png","他人","Word","他人","Match","j","false","Formal",""
"","","","","","psychophysics","209","792834","0.0-9.0-0.0-0.98","627","","j","","","","","","","","","","","","","key","j","16.664150943396447","768","428","./1_3_Stimuli/C_ambi40.png","他人","Image","他人","Match","j","true","Formal",""
"","","","","","psychophysics","210","794579","0.0-9.0-0.0-0.99","593","","j","","","","","","","","","","","","","key","j","16.66346153846154","768","428","./1_3_Stimuli/T_ambi40.png","自我","Image","自我","Match","j","true","Formal",""
"","","","","","psychophysics","211","796715","0.0-9.0-0.0-0.100","975","","j","","","","","","","","","","","","","key","j","16.665354330708663","768","428","./1_3_Stimuli/S_ambi40.png","朋友","Image","朋友","Match","j","true","Formal",""
"","","","","","psychophysics","212","798480","0.0-9.0-0.0-0.101","603","","j","","","","","","","","","","","","","key","j","16.66380952381019","768","428","./1_3_Stimuli/T_ambi40.png","自我","Image","自我","Match","j","true","Formal",""
"","","","","","psychophysics","213","800466","0.0-9.0-0.0-0.102","823","","j","","","","","","","","","","","","","key","j","16.664406779661213","768","428","./1_3_Stimuli/S_ambi40.png","朋友","Word","朋友","Match","j","true","Formal",""
"","","","","","psychophysics","214","802649","0.0-9.0-0.0-0.103","1032","","f","","","","","","","","","","","","","key","f","16.664615384615562","768","428","./1_3_Stimuli/S_ambi40.png","他人","Image","朋友","Mismatch","f","true","Formal",""
"","","","","","psychophysics","215","804998","0.0-9.0-0.0-0.104","1195","","f","","","","","","","","","","","","","key","f","16.663571428571593","768","428","./1_3_Stimuli/C_ambi40.png","朋友","Word","他人","Mismatch","f","true","Formal",""
"","","","","","psychophysics","216","806852","0.0-9.0-0.0-0.105","693","","f","","","","","","","","","","","","","key","f","16.6645454545463","768","428","./1_3_Stimuli/C_ambi40.png","自我","Image","他人","Mismatch","f","true","Formal",""
"","","","","","psychophysics","217","808735","0.0-9.0-0.0-0.106","726","","f","","","","","","","","","","","","","key","f","16.66428571428592","768","428","./1_3_Stimuli/C_ambi40.png","自我","Word","他人","Mismatch","f","true","Formal",""
"","","","","","psychophysics","218","810519","0.0-9.0-0.0-0.107","630","","j","","","","","","","","","","","","","key","j","16.664150943396447","768","428","./1_3_Stimuli/T_ambi40.png","自我","Word","自我","Match","j","true","Formal",""
"","","","","","psychophysics","219","813207","0.0-9.0-0.0-0.108","1533","","f","","","","","","","","","","","","","key","f","16.66437500000029","768","428","./1_3_Stimuli/T_ambi40.png","朋友","Word","自我","Mismatch","f","true","Formal",""
"","","","","","psychophysics","220","815672","0.0-9.0-0.0-0.109","1314","","f","","","","","","","","","","","","","key","f","16.664383561643834","768","428","./1_3_Stimuli/S_ambi40.png","他人","Word","朋友","Mismatch","f","true","Formal",""
"","","","","","psychophysics","221","817615","0.0-9.0-0.0-0.110","791","","j","","","","","","","","","","","","","key","j","16.66434782608716","768","428","./1_3_Stimuli/C_ambi40.png","他人","Word","他人","Match","j","true","Formal",""
"","","","","","psychophysics","222","820029","0.0-9.0-0.0-0.111","1256","","j","","","","","","","","","","","","","key","j","16.663888888889534","768","428","./1_3_Stimuli/S_ambi40.png","朋友","Word","朋友","Match","j","true","Formal",""
"","","","","","psychophysics","223","822030","0.0-9.0-0.0-0.112","843","","f","","","","","","","","","","","","","key","f","16.66386554621849","768","428","./1_3_Stimuli/C_ambi40.png","朋友","Image","他人","Mismatch","f","true","Formal",""
"","","","","","psychophysics","224","824737","0.0-9.0-0.0-0.113","null","","null","","","","","","","","","","","","","key","null","16.664596273291924","768","428","./1_3_Stimuli/S_ambi40.png","自我","Image","朋友","Mismatch","f","false","Formal",""
"","","","","","psychophysics","225","826478","0.0-9.0-0.0-0.114","588","","j","","","","","","","","","","","","","key","j","16.66442307692285","768","428","./1_3_Stimuli/T_ambi40.png","自我","Word","自我","Match","j","true","Formal",""
"","","","","","psychophysics","226","828154","0.0-9.0-0.0-0.115","522","","f","","","","","","","","","","","","","key","f","16.6656565656568","768","428","./1_3_Stimuli/C_ambi40.png","他人","Image","他人","Match","j","false","Formal",""
"","","","","","psychophysics","227","830154","0.0-9.0-0.0-0.116","848","","j","","","","","","","","","","","","","key","j","16.664406779661213","768","428","./1_3_Stimuli/S_ambi40.png","朋友","Image","朋友","Match","j","true","Formal",""
"","","","","","psychophysics","228","832080","0.0-9.0-0.0-0.117","775","","f","","","","","","","","","","","","","key","f","16.664347826086146","768","428","./1_3_Stimuli/T_ambi40.png","朋友","Image","自我","Mismatch","f","true","Formal",""
"","","","","","psychophysics","229","834358","0.0-9.0-0.0-0.118","1120","","f","","","","","","","","","","","","","key","f","16.664705882352255","768","428","./1_3_Stimuli/T_ambi40.png","他人","Image","自我","Mismatch","f","true","Formal",""
"","","","","","psychophysics","230","836296","0.0-9.0-0.0-0.119","775","","f","","","","","","","","","","","","","key","f","16.664347826086146","768","428","./1_3_Stimuli/S_ambi40.png","自我","Word","朋友","Mismatch","f","true","Formal",""
"","","","","","html-keyboard-response","231","841111","0.0-9.0-1.0","4814","<style>.context{color:white; font-size: 35px; line-height:40px}</style>                        <div><p class='context'>您正确回答了83% 的试次。</p><p class='context'>您的平均反应时为860毫秒。</p><p> <div style = 'color: green'><按任意键进入休息></div></p>"," ","","","","","","","","","","","","","","","","","","","","","","","","","",""
"","","","","","html-button-response","232","912936","0.0-9.0-2.0","71819","
                  <p>您当前还剩余5组实验</p>
                  <p>现在是休息时间，当您结束休息后，您可以点击 结束休息 按钮 继续</p>
                  <p>建议休息时间还剩余<span id=""iii"">60</span>秒</p>","0","","","","","","","","","","","","","","","","","","","","","","","","","",""
"","","","","","psychophysics","233","914750","0.0-9.0-0.1-0.120","655","","f","","","","","","","","","","","","","key","f","16.664814814815244","768","428","./1_3_Stimuli/S_ambi40.png","朋友","Image","朋友","Match","j","false","Formal",""
"","","","","","psychophysics","234","917122","0.0-9.0-0.1-0.121","1217","","j","","","","","","","","","","","","","key","j","16.663829787234704","768","428","./1_3_Stimuli/C_ambi40.png","他人","Image","他人","Match","j","true","Formal",""
"","","","","","psychophysics","235","919100","0.0-9.0-0.1-0.122","826","","f","","","","","","","","","","","","","key","f","16.665254237288135","768","428","./1_3_Stimuli/T_ambi40.png","朋友","Word","自我","Mismatch","f","true","Formal",""
"","","","","","psychophysics","236","921108","0.0-9.0-0.1-0.123","857","","j","","","","","","","","","","","","","key","j","16.664705882352745","768","428","./1_3_Stimuli/S_ambi40.png","朋友","Word","朋友","Match","j","true","Formal",""
"","","","","","psychophysics","237","923101","0.0-9.0-0.1-0.124","841","","f","","","","","","","","","","","","","key","f","16.664406779661213","768","428","./1_3_Stimuli/C_ambi40.png","自我","Image","他人","Mismatch","f","true","Formal",""
"","","","","","psychophysics","238","924894","0.0-9.0-0.1-0.125","639","","j","","","","","","","","","","","","","key","j","16.66355140186916","768","428","./1_3_Stimuli/T_ambi40.png","自我","Image","自我","Match","j","true","Formal",""
"","","","","","psychophysics","239","927034","0.0-9.0-0.1-0.126","985","","f","","","","","","","","","","","","","key","f","16.664566929134043","768","428","./1_3_Stimuli/C_ambi40.png","朋友","Word","他人","Mismatch","f","true","Formal",""
"","","","","","psychophysics","240","929213","0.0-9.0-0.1-0.127","1025","","j","","","","","","","","","","","","","key","j","16.664615384615562","768","428","./1_3_Stimuli/C_ambi40.png","他人","Image","他人","Match","j","true","Formal",""
"","","","","","psychophysics","241","931061","0.0-9.0-0.1-0.128","686","","f","","","","","","","","","","","","","key","f","16.664545454545244","768","428","./1_3_Stimuli/C_ambi40.png","朋友","Image","他人","Mismatch","f","true","Formal",""
"","","","","","psychophysics","242","932981","0.0-9.0-0.1-0.129","761","","f","","","","","","","","","","","","","key","f","16.66491228070216","768","428","./1_3_Stimuli/T_ambi40.png","他人","Word","自我","Mismatch","f","true","Formal",""
"","","","","","psychophysics","243","935056","0.0-9.0-0.1-0.130","918","","f","","","","","","","","","","","","","key","f","16.664227642276042","768","428","./1_3_Stimuli/T_ambi40.png","朋友","Image","自我","Mismatch","f","true","Formal",""
"","","","","","psychophysics","244","936988","0.0-9.0-0.1-0.131","780","","j","","","","","","","","","","","","","key","j","16.664347826086146","768","428","./1_3_Stimuli/S_ambi40.png","朋友","Image","朋友","Match","j","true","Formal",""
"","","","","","psychophysics","245","938727","0.0-9.0-0.1-0.132","587","","j","","","","","","","","","","","","","key","j","16.66346153846154","768","428","./1_3_Stimuli/T_ambi40.png","自我","Word","自我","Match","j","true","Formal",""
"","","","","","psychophysics","246","940531","0.0-9.0-0.1-0.133","650","","f","","","","","","","","","","","","","key","f","16.664485981308193","768","428","./1_3_Stimuli/S_ambi40.png","自我","Image","朋友","Mismatch","f","true","Formal",""
"","","","","","psychophysics","247","942959","0.0-9.0-0.1-0.134","1269","","j","","","","","","","","","","","","","key","j","16.664827586207057","768","428","./1_3_Stimuli/T_ambi40.png","自我","Image","自我","Match","j","true","Formal",""
"","","","","","psychophysics","248","944717","0.0-9.0-0.1-0.135","593","","j","","","","","","","","","","","","","key","j","16.665384615384166","768","428","./1_3_Stimuli/T_ambi40.png","自我","Word","自我","Match","j","true","Formal",""
"","","","","","psychophysics","249","946675","0.0-9.0-0.1-0.136","802","","f","","","","","","","","","","","","","key","f","16.664957264957664","768","428","./1_3_Stimuli/C_ambi40.png","自我","Word","他人","Mismatch","f","true","Formal",""
"","","","","","psychophysics","250","948378","0.0-9.0-0.1-0.137","541","","j","","","","","","","","","","","","","key","j","16.663366336633665","768","428","./1_3_Stimuli/C_ambi40.png","他人","Word","他人","Match","j","true","Formal",""
"","","","","","psychophysics","251","950307","0.0-9.0-0.1-0.138","775","","f","","","","","","","","","","","","","key","f","16.664347826086146","768","428","./1_3_Stimuli/S_ambi40.png","他人","Image","朋友","Mismatch","f","true","Formal",""
"","","","","","psychophysics","252","952180","0.0-9.0-0.1-0.139","710","","j","","","","","","","","","","","","","key","j","16.664864864864235","768","428","./1_3_Stimuli/S_ambi40.png","朋友","Word","朋友","Match","j","true","Formal",""
"","","","","","psychophysics","253","953898","0.0-9.0-0.1-0.140","560","","f","","","","","","","","","","","","","key","f","16.664705882352255","768","428","./1_3_Stimuli/C_ambi40.png","他人","Word","他人","Match","j","false","Formal",""
"","","","","","psychophysics","254","956133","0.0-9.0-0.1-0.141","1079","","f","","","","","","","","","","","","","key","f","16.664661654135514","768","428","./1_3_Stimuli/S_ambi40.png","他人","Word","朋友","Mismatch","f","true","Formal",""
"","","","","","psychophysics","255","958360","0.0-9.0-0.1-0.142","1073","","f","","","","","","","","","","","","","key","f","16.664393939393587","768","428","./1_3_Stimuli/S_ambi40.png","自我","Word","朋友","Mismatch","f","true","Formal",""
"","","","","","psychophysics","256","960235","0.0-9.0-0.1-0.143","723","","f","","","","","","","","","","","","","key","f","16.664864864865283","768","428","./1_3_Stimuli/T_ambi40.png","他人","Image","自我","Mismatch","f","true","Formal",""
"","","","","","psychophysics","257","961945","0.0-9.0-0.1-0.144","558","","f","","","","","","","","","","","","","key","f","16.663725490196764","768","428","./1_3_Stimuli/C_ambi40.png","自我","Word","他人","Mismatch","f","true","Formal",""
"","","","","","psychophysics","258","963944","0.0-9.0-0.1-0.145","844","","j","","","","","","","","","","","","","key","j","16.66386554621849","768","428","./1_3_Stimuli/C_ambi40.png","他人","Word","他人","Match","j","true","Formal",""
"","","","","","psychophysics","259","965572","0.0-9.0-0.1-0.146","469","","j","","","","","","","","","","","","","key","j","16.66597938144426","768","428","./1_3_Stimuli/T_ambi40.png","自我","Image","自我","Match","j","true","Formal",""
"","","","","","psychophysics","260","967522","0.0-9.0-0.1-0.147","787","","j","","","","","","","","","","","","","key","j","16.663793103448278","768","428","./1_3_Stimuli/C_ambi40.png","他人","Image","他人","Match","j","true","Formal",""
"","","","","","psychophysics","261","969190","0.0-9.0-0.1-0.148","510","","j","","","","","","","","","","","","","key","j","16.664646464646935","768","428","./1_3_Stimuli/T_ambi40.png","自我","Word","自我","Match","j","true","Formal",""
"","","","","","psychophysics","262","971062","0.0-9.0-0.1-0.149","711","","f","","","","","","","","","","","","","key","f","16.663963963964594","768","428","./1_3_Stimuli/S_ambi40.png","他人","Word","朋友","Mismatch","f","true","Formal",""
"","","","","","psychophysics","263","973031","0.0-9.0-0.1-0.150","812","","f","","","","","","","","","","","","","key","f","16.664102564102166","768","428","./1_3_Stimuli/S_ambi40.png","自我","Image","朋友","Mismatch","f","true","Formal",""
"","","","","","psychophysics","264","975280","0.0-9.0-0.1-0.151","1095","","f","","","","","","","","","","","","","key","f","16.664661654135514","768","428","./1_3_Stimuli/T_ambi40.png","他人","Image","自我","Mismatch","f","true","Formal",""
"","","","","","psychophysics","265","977056","0.0-9.0-0.1-0.152","621","","f","","","","","","","","","","","","","key","f","16.664150943396447","768","428","./1_3_Stimuli/C_ambi40.png","他人","Image","他人","Match","j","false","Formal",""
"","","","","","psychophysics","266","978840","0.0-9.0-0.1-0.153","622","","f","","","","","","","","","","","","","key","f","16.66509433962264","768","428","./1_3_Stimuli/T_ambi40.png","朋友","Image","自我","Mismatch","f","true","Formal",""
"","","","","","psychophysics","267","980663","0.0-9.0-0.1-0.154","665","","j","","","","","","","","","","","","","key","j","16.663888888889534","768","428","./1_3_Stimuli/T_ambi40.png","自我","Image","自我","Match","j","true","Formal",""
"","","","","","psychophysics","268","982394","0.0-9.0-0.1-0.155","577","","j","","","","","","","","","","","","","key","j","16.66504854368932","768","428","./1_3_Stimuli/T_ambi40.png","自我","Word","自我","Match","j","true","Formal",""
"","","","","","psychophysics","269","984120","0.0-9.0-0.1-0.156","570","","f","","","","","","","","","","","","","key","f","16.66504854368932","768","428","./1_3_Stimuli/T_ambi40.png","他人","Word","自我","Mismatch","f","true","Formal",""
"","","","","","psychophysics","270","985912","0.0-9.0-0.1-0.157","636","","j","","","","","","","","","","","","","key","j","16.66509433962264","768","428","./1_3_Stimuli/S_ambi40.png","朋友","Image","朋友","Match","j","true","Formal",""
"","","","","","psychophysics","271","987925","0.0-9.0-0.1-0.158","858","","f","","","","","","","","","","","","","key","f","16.66416666666628","768","428","./1_3_Stimuli/C_ambi40.png","他人","Word","他人","Match","j","false","Formal",""
"","","","","","psychophysics","272","989772","0.0-9.0-0.1-0.159","694","","f","","","","","","","","","","","","","key","f","16.664545454545244","768","428","./1_3_Stimuli/S_ambi40.png","他人","Image","朋友","Mismatch","f","true","Formal",""
"","","","","","psychophysics","273","991708","0.0-9.0-0.1-0.160","783","","f","","","","","","","","","","","","","key","f","16.66434782608716","768","428","./1_3_Stimuli/T_ambi40.png","朋友","Word","自我","Mismatch","f","true","Formal",""
"","","","","","psychophysics","274","993861","0.0-9.0-0.1-0.161","996","","j","","","","","","","","","","","","","key","j","16.6640625","768","428","./1_3_Stimuli/S_ambi40.png","朋友","Word","朋友","Match","j","true","Formal",""
"","","","","","psychophysics","275","995584","0.0-9.0-0.1-0.162","568","","f","","","","","","","","","","","","","key","f","16.66407766990201","768","428","./1_3_Stimuli/C_ambi40.png","朋友","Image","他人","Mismatch","f","true","Formal",""
"","","","","","psychophysics","276","997291","0.0-9.0-0.1-0.163","553","","f","","","","","","","","","","","","","key","f","16.664356435643334","768","428","./1_3_Stimuli/S_ambi40.png","自我","Word","朋友","Mismatch","f","true","Formal",""
"","","","","","psychophysics","277","999336","0.0-9.0-0.1-0.164","888","","f","","","","","","","","","","","","","key","f","16.66393442622951","768","428","./1_3_Stimuli/C_ambi40.png","朋友","Word","他人","Mismatch","f","true","Formal",""
"","","","","","psychophysics","278","1001154","0.0-9.0-0.1-0.165","656","","f","","","","","","","","","","","","","key","f","16.663888888888458","768","428","./1_3_Stimuli/C_ambi40.png","自我","Image","他人","Mismatch","f","true","Formal",""
"","","","","","psychophysics","279","1003560","0.0-9.0-0.1-0.166","1249","","j","","","","","","","","","","","","","key","j","16.663636363635714","768","428","./1_3_Stimuli/S_ambi40.png","朋友","Image","朋友","Match","j","true","Formal",""
"","","","","","psychophysics","280","1005218","0.0-9.0-0.1-0.167","504","","j","","","","","","","","","","","","","key","j","16.66363636363589","768","428","./1_3_Stimuli/S_ambi40.png","朋友","Word","朋友","Match","j","true","Formal",""
"","","","","","psychophysics","281","1006806","0.0-9.0-0.1-0.168","426","","j","","","","","","","","","","","","","key","j","16.665957446808264","768","428","./1_3_Stimuli/S_ambi40.png","朋友","Image","朋友","Match","j","true","Formal",""
"","","","","","psychophysics","282","1008759","0.0-9.0-0.1-0.169","801","","f","","","","","","","","","","","","","key","f","16.664655172413593","768","428","./1_3_Stimuli/C_ambi40.png","自我","Image","他人","Mismatch","f","true","Formal",""
"","","","","","psychophysics","283","1010422","0.0-9.0-0.1-0.170","509","","j","","","","","","","","","","","","","key","j","16.663636363637067","768","428","./1_3_Stimuli/T_ambi40.png","自我","Word","自我","Match","j","true","Formal",""
"","","","","","psychophysics","284","1012889","0.0-9.0-0.1-0.171","1308","","j","","","","","","","","","","","","","key","j","16.663945578231925","768","428","./1_3_Stimuli/S_ambi40.png","朋友","Image","朋友","Match","j","true","Formal",""
"","","","","","psychophysics","285","1014762","0.0-9.0-0.1-0.172","715","","f","","","","","","","","","","","","","key","f","16.664864864865283","768","428","./1_3_Stimuli/T_ambi40.png","他人","Word","自我","Mismatch","f","true","Formal",""
"","","","","","psychophysics","286","1016503","0.0-9.0-0.1-0.173","590","","f","","","","","","","","","","","","","key","f","16.66442307692285","768","428","./1_3_Stimuli/T_ambi40.png","朋友","Image","自我","Mismatch","f","true","Formal",""
"","","","","","psychophysics","287","1018493","0.0-9.0-0.1-0.174","834","","j","","","","","","","","","","","","","key","j","16.663559322034292","768","428","./1_3_Stimuli/C_ambi40.png","他人","Word","他人","Match","j","true","Formal",""
"","","","","","psychophysics","288","1020195","0.0-9.0-0.1-0.175","549","","f","","","","","","","","","","","","","key","f","16.665","768","428","./1_3_Stimuli/C_ambi40.png","自我","Word","他人","Mismatch","f","true","Formal",""
"","","","","","psychophysics","289","1022041","0.0-9.0-0.1-0.176","694","","j","","","","","","","","","","","","","key","j","16.664220183486453","768","428","./1_3_Stimuli/S_ambi40.png","朋友","Word","朋友","Match","j","true","Formal",""
"","","","","","psychophysics","290","1024043","0.0-9.0-0.1-0.177","848","","j","","","","","","","","","","","","","key","j","16.664705882353722","768","428","./1_3_Stimuli/C_ambi40.png","他人","Image","他人","Match","j","true","Formal",""
"","","","","","psychophysics","291","1026383","0.0-9.0-0.1-0.178","1188","","j","","","","","","","","","","","","","key","j","16.664748201439018","768","428","./1_3_Stimuli/T_ambi40.png","自我","Word","自我","Match","j","true","Formal",""
"","","","","","psychophysics","292","1028086","0.0-9.0-0.1-0.179","543","","f","","","","","","","","","","","","","key","f","16.664356435643334","768","428","./1_3_Stimuli/S_ambi40.png","自我","Word","朋友","Mismatch","f","true","Formal",""
"","","","","","psychophysics","293","1029851","0.0-9.0-0.1-0.180","606","","j","","","","","","","","","","","","","key","j","16.663809523809082","768","428","./1_3_Stimuli/S_ambi40.png","朋友","Word","朋友","Match","j","true","Formal",""
"","","","","","psychophysics","294","1031848","0.0-9.0-0.1-0.181","839","","j","","","","","","","","","","","","","key","j","16.66386554621849","768","428","./1_3_Stimuli/C_ambi40.png","他人","Image","他人","Match","j","true","Formal",""
"","","","","","psychophysics","295","1033864","0.0-9.0-0.1-0.182","853","","f","","","","","","","","","","","","","key","f","16.66416666666628","768","428","./1_3_Stimuli/C_ambi40.png","朋友","Word","他人","Mismatch","f","true","Formal",""
"","","","","","psychophysics","296","1036360","0.0-9.0-0.1-0.183","1333","","f","","","","","","","","","","","","","key","f","16.66418918918872","768","428","./1_3_Stimuli/S_ambi40.png","自我","Image","朋友","Mismatch","f","true","Formal",""
"","","","","","psychophysics","297","1038104","0.0-9.0-0.1-0.184","593","","j","","","","","","","","","","","","","key","j","16.66407766990314","768","428","./1_3_Stimuli/T_ambi40.png","自我","Image","自我","Match","j","true","Formal",""
"","","","","","psychophysics","298","1040249","0.0-9.0-0.1-0.185","989","","f","","","","","","","","","","","","","key","f","16.664843749999818","768","428","./1_3_Stimuli/S_ambi40.png","他人","Image","朋友","Mismatch","f","true","Formal",""
"","","","","","psychophysics","299","1041932","0.0-9.0-0.1-0.186","522","","j","","","","","","","","","","","","","key","j","16.665","768","428","./1_3_Stimuli/T_ambi40.png","自我","Image","自我","Match","j","true","Formal",""
"","","","","","psychophysics","300","1043645","0.0-9.0-0.1-0.187","559","","f","","","","","","","","","","","","","key","f","16.664705882352255","768","428","./1_3_Stimuli/T_ambi40.png","朋友","Word","自我","Mismatch","f","true","Formal",""
"","","","","","psychophysics","301","1045720","0.0-9.0-0.1-0.188","923","","f","","","","","","","","","","","","","key","f","16.665040650405935","768","428","./1_3_Stimuli/C_ambi40.png","朋友","Image","他人","Mismatch","f","true","Formal",""
"","","","","","psychophysics","302","1047459","0.0-9.0-0.1-0.189","583","","f","","","","","","","","","","","","","key","f","16.66407766990427","768","428","./1_3_Stimuli/C_ambi40.png","他人","Word","他人","Match","j","false","Formal",""
"","","","","","psychophysics","303","1049229","0.0-9.0-0.1-0.190","614","","f","","","","","","","","","","","","","key","f","16.664761904762347","768","428","./1_3_Stimuli/T_ambi40.png","他人","Image","自我","Mismatch","f","true","Formal",""
"","","","","","psychophysics","304","1050895","0.0-9.0-0.1-0.191","503","","f","","","","","","","","","","","","","key","f","16.664646464646935","768","428","./1_3_Stimuli/S_ambi40.png","他人","Word","朋友","Mismatch","f","true","Formal",""
"","","","","","psychophysics","305","1052564","0.0-9.0-0.1-0.192","506","","f","","","","","","","","","","","","","key","f","16.665656565655624","768","428","./1_3_Stimuli/S_ambi40.png","他人","Image","朋友","Mismatch","f","true","Formal",""
"","","","","","psychophysics","306","1054762","0.0-9.0-0.1-0.193","1046","","f","","","","","","","","","","","","","key","f","16.66412213740458","768","428","./1_3_Stimuli/C_ambi40.png","朋友","Word","他人","Mismatch","f","true","Formal",""
"","","","","","psychophysics","307","1056525","0.0-9.0-0.1-0.194","605","","j","","","","","","","","","","","","","key","j","16.663809523809082","768","428","./1_3_Stimuli/S_ambi40.png","朋友","Image","朋友","Match","j","true","Formal",""
"","","","","","psychophysics","308","1058151","0.0-9.0-0.1-0.195","464","","j","","","","","","","","","","","","","key","j","16.66458333333382","768","428","./1_3_Stimuli/T_ambi40.png","自我","Image","自我","Match","j","true","Formal",""
"","","","","","psychophysics","309","1060322","0.0-9.0-0.1-0.196","1014","","f","","","","","","","","","","","","","key","f","16.66434108527096","768","428","./1_3_Stimuli/S_ambi40.png","他人","Word","朋友","Mismatch","f","true","Formal",""
"","","","","","psychophysics","310","1062125","0.0-9.0-0.1-0.197","652","","f","","","","","","","","","","","","","key","f","16.664814814815244","768","428","./1_3_Stimuli/T_ambi40.png","他人","Word","自我","Mismatch","f","true","Formal",""
"","","","","","psychophysics","311","1063893","0.0-9.0-0.1-0.198","603","","j","","","","","","","","","","","","","key","j","16.663809523809082","768","428","./1_3_Stimuli/T_ambi40.png","自我","Image","自我","Match","j","true","Formal",""
"","","","","","psychophysics","312","1065542","0.0-9.0-0.1-0.199","485","","j","","","","","","","","","","","","","key","j","16.663265306122447","768","428","./1_3_Stimuli/T_ambi40.png","他人","Image","自我","Mismatch","f","false","Formal",""
"","","","","","psychophysics","313","1067349","0.0-9.0-0.1-0.200","647","","f","","","","","","","","","","","","","key","f","16.66355140186916","768","428","./1_3_Stimuli/C_ambi40.png","自我","Image","他人","Mismatch","f","true","Formal",""
"","","","","","psychophysics","314","1069125","0.0-9.0-0.1-0.201","619","","j","","","","","","","","","","","","","key","j","16.66415094339535","768","428","./1_3_Stimuli/T_ambi40.png","自我","Word","自我","Match","j","true","Formal",""
"","","","","","psychophysics","315","1071011","0.0-9.0-0.1-0.202","722","","j","","","","","","","","","","","","","key","j","16.66428571428696","768","428","./1_3_Stimuli/C_ambi40.png","他人","Image","他人","Match","j","true","Formal",""
"","","","","","psychophysics","316","1072755","0.0-9.0-0.1-0.203","583","","f","","","","","","","","","","","","","key","f","16.66407766990427","768","428","./1_3_Stimuli/T_ambi40.png","朋友","Word","自我","Mismatch","f","true","Formal",""
"","","","","","psychophysics","317","1075115","0.0-9.0-0.1-0.204","1207","","j","","","","","","","","","","","","","key","j","16.664285714285715","768","428","./1_3_Stimuli/S_ambi40.png","朋友","Word","朋友","Match","j","true","Formal",""
"","","","","","psychophysics","318","1077004","0.0-9.0-0.1-0.205","736","","f","","","","","","","","","","","","","key","f","16.664285714284883","768","428","./1_3_Stimuli/C_ambi40.png","朋友","Image","他人","Mismatch","f","true","Formal",""
"","","","","","psychophysics","319","1078948","0.0-9.0-0.1-0.206","793","","f","","","","","","","","","","","","","key","f","16.66347826086997","768","428","./1_3_Stimuli/T_ambi40.png","朋友","Image","自我","Mismatch","f","true","Formal",""
"","","","","","psychophysics","320","1080830","0.0-9.0-0.1-0.207","729","","f","","","","","","","","","","","","","key","f","16.663392857143272","768","428","./1_3_Stimuli/S_ambi40.png","自我","Image","朋友","Mismatch","f","true","Formal",""
"","","","","","psychophysics","321","1082658","0.0-9.0-0.1-0.208","671","","j","","","","","","","","","","","","","key","j","16.664220183485384","768","428","./1_3_Stimuli/S_ambi40.png","朋友","Word","朋友","Match","j","true","Formal",""
"","","","","","psychophysics","322","1085370","0.0-9.0-0.1-0.209","null","","null","","","","","","","","","","","","","key","null","16.663975155278926","768","428","./1_3_Stimuli/S_ambi40.png","朋友","Image","朋友","Match","j","false","Formal",""
"","","","","","psychophysics","323","1087140","0.0-9.0-0.1-0.210","618","","f","","","","","","","","","","","","","key","f","16.664761904762347","768","428","./1_3_Stimuli/S_ambi40.png","自我","Word","朋友","Mismatch","f","true","Formal",""
"","","","","","psychophysics","324","1089118","0.0-9.0-0.1-0.211","819","","j","","","","","","","","","","","","","key","j","16.664102564102166","768","428","./1_3_Stimuli/C_ambi40.png","他人","Word","他人","Match","j","true","Formal",""
"","","","","","psychophysics","325","1091176","0.0-9.0-0.1-0.212","906","","j","","","","","","","","","","","","","key","j","16.66475409835951","768","428","./1_3_Stimuli/C_ambi40.png","他人","Word","他人","Match","j","true","Formal",""
"","","","","","psychophysics","326","1092882","0.0-9.0-0.1-0.213","547","","f","","","","","","","","","","","","","key","f","16.663366336633665","768","428","./1_3_Stimuli/C_ambi40.png","自我","Word","他人","Mismatch","f","true","Formal",""
"","","","","","psychophysics","327","1094679","0.0-9.0-0.1-0.214","643","","j","","","","","","","","","","","","","key","j","16.66509433962264","768","428","./1_3_Stimuli/T_ambi40.png","自我","Word","自我","Match","j","true","Formal",""
"","","","","","psychophysics","328","1096481","0.0-9.0-0.1-0.215","646","","f","","","","","","","","","","","","","key","f","16.66542056074723","768","428","./1_3_Stimuli/C_ambi40.png","他人","Image","他人","Match","j","false","Formal",""
"","","","","","psychophysics","329","1098210","0.0-9.0-0.1-0.216","575","","j","","","","","","","","","","","","","key","j","16.66407766990201","768","428","./1_3_Stimuli/C_ambi40.png","他人","Image","他人","Match","j","true","Formal",""
"","","","","","psychophysics","330","1100111","0.0-9.0-0.1-0.217","743","","j","","","","","","","","","","","","","key","j","16.664601769912327","768","428","./1_3_Stimuli/S_ambi40.png","朋友","Image","朋友","Match","j","true","Formal",""
"","","","","","psychophysics","331","1101853","0.0-9.0-0.1-0.218","585","","j","","","","","","","","","","","","","key","j","16.66346153846154","768","428","./1_3_Stimuli/T_ambi40.png","自我","Image","自我","Match","j","true","Formal",""
"","","","","","psychophysics","332","1103688","0.0-9.0-0.1-0.219","682","","f","","","","","","","","","","","","","key","f","16.665137614678898","768","428","./1_3_Stimuli/S_ambi40.png","自我","Word","朋友","Mismatch","f","true","Formal",""
"","","","","","psychophysics","333","1105983","0.0-9.0-0.1-0.220","1142","","f","","","","","","","","","","","","","key","f","16.663970588235635","768","428","./1_3_Stimuli/T_ambi40.png","他人","Word","自我","Mismatch","f","true","Formal",""
"","","","","","psychophysics","334","1107746","0.0-9.0-0.1-0.221","612","","j","","","","","","","","","","","","","key","j","16.664423076923974","768","428","./1_3_Stimuli/T_ambi40.png","自我","Word","自我","Match","j","true","Formal",""
"","","","","","psychophysics","335","1109440","0.0-9.0-0.1-0.222","540","","j","","","","","","","","","","","","","key","j","16.664356435644486","768","428","./1_3_Stimuli/T_ambi40.png","自我","Word","自我","Match","j","true","Formal",""
"","","","","","psychophysics","336","1111207","0.0-9.0-0.1-0.223","609","","f","","","","","","","","","","","","","key","f","16.664761904762347","768","428","./1_3_Stimuli/C_ambi40.png","他人","Image","他人","Match","j","false","Formal",""
"","","","","","psychophysics","337","1113746","0.0-9.0-0.1-0.224","1380","","j","","","","","","","","","","","","","key","j","16.66357615894009","768","428","./1_3_Stimuli/C_ambi40.png","他人","Word","他人","Match","j","true","Formal",""
"","","","","","psychophysics","338","1115495","0.0-9.0-0.1-0.225","596","","f","","","","","","","","","","","","","key","f","16.664423076921732","768","428","./1_3_Stimuli/S_ambi40.png","他人","Image","朋友","Mismatch","f","true","Formal",""
"","","","","","psychophysics","339","1117464","0.0-9.0-0.1-0.226","816","","f","","","","","","","","","","","","","key","f","16.664655172414594","768","428","./1_3_Stimuli/C_ambi40.png","朋友","Word","他人","Mismatch","f","true","Formal",""
"","","","","","psychophysics","340","1119278","0.0-9.0-0.1-0.227","662","","f","","","","","","","","","","","","","key","f","16.66448598130928","768","428","./1_3_Stimuli/T_ambi40.png","朋友","Image","自我","Mismatch","f","true","Formal",""
"","","","","","psychophysics","341","1121146","0.0-9.0-0.1-0.228","714","","j","","","","","","","","","","","","","key","j","16.664864864863187","768","428","./1_3_Stimuli/S_ambi40.png","朋友","Word","朋友","Match","j","true","Formal",""
"","","","","","psychophysics","342","1122965","0.0-9.0-0.1-0.229","667","","f","","","","","","","","","","","","","key","f","16.664814814815244","768","428","./1_3_Stimuli/C_ambi40.png","自我","Image","他人","Mismatch","f","true","Formal",""
"","","","","","psychophysics","343","1124905","0.0-9.0-0.1-0.230","776","","j","","","","","","","","","","","","","key","j","16.66521739130435","768","428","./1_3_Stimuli/C_ambi40.png","他人","Word","他人","Match","j","true","Formal",""
"","","","","","psychophysics","344","1126625","0.0-9.0-0.1-0.231","561","","f","","","","","","","","","","","","","key","f","16.66372549019562","768","428","./1_3_Stimuli/C_ambi40.png","自我","Word","他人","Mismatch","f","true","Formal",""
"","","","","","psychophysics","345","1128476","0.0-9.0-0.1-0.232","695","","f","","","","","","","","","","","","","key","f","16.664545454544186","768","428","./1_3_Stimuli/T_ambi40.png","朋友","Word","自我","Mismatch","f","true","Formal",""
"","","","","","psychophysics","346","1130198","0.0-9.0-0.1-0.233","569","","j","","","","","","","","","","","","","key","j","16.66407766990427","768","428","./1_3_Stimuli/S_ambi40.png","朋友","Image","朋友","Match","j","true","Formal",""
"","","","","","psychophysics","347","1131942","0.0-9.0-0.1-0.234","581","","j","","","","","","","","","","","","","key","j","16.66407766990201","768","428","./1_3_Stimuli/T_ambi40.png","自我","Image","自我","Match","j","true","Formal",""
"","","","","","psychophysics","348","1133831","0.0-9.0-0.1-0.235","735","","j","","","","","","","","","","","","","key","j","16.663716814159294","768","428","./1_3_Stimuli/S_ambi40.png","他人","Word","朋友","Mismatch","f","false","Formal",""
"","","","","","psychophysics","349","1135724","0.0-9.0-0.1-0.236","740","","f","","","","","","","","","","","","","key","f","16.665178571428573","768","428","./1_3_Stimuli/S_ambi40.png","自我","Image","朋友","Mismatch","f","true","Formal",""
"","","","","","psychophysics","350","1137759","0.0-9.0-0.1-0.237","880","","f","","","","","","","","","","","","","key","f","16.663636363636748","768","428","./1_3_Stimuli/C_ambi40.png","朋友","Image","他人","Mismatch","f","true","Formal",""
"","","","","","psychophysics","351","1139634","0.0-9.0-0.1-0.238","722","","j","","","","","","","","","","","","","key","j","16.663963963963546","768","428","./1_3_Stimuli/S_ambi40.png","朋友","Word","朋友","Match","j","true","Formal",""
"","","","","","psychophysics","352","1141463","0.0-9.0-0.1-0.239","673","","f","","","","","","","","","","","","","key","f","16.664220183485384","768","428","./1_3_Stimuli/T_ambi40.png","他人","Image","自我","Mismatch","f","true","Formal",""
"","","","","","html-keyboard-response","353","1149038","0.0-9.0-1.1","7573","<style>.context{color:white; font-size: 35px; line-height:40px}</style>                        <div><p class='context'>您正确回答了92% 的试次。</p><p class='context'>您的平均反应时为750毫秒。</p><p> <div style = 'color: green'><按任意键进入休息></div></p>"," ","","","","","","","","","","","","","","","","","","","","","","","","","",""
"","","","","","html-button-response","354","1233800","0.0-9.0-2.1","84756","
                  <p>您当前还剩余4组实验</p>
                  <p>现在是休息时间，当您结束休息后，您可以点击 结束休息 按钮 继续</p>
                  <p>建议休息时间还剩余<span id=""iii"">60</span>秒</p>","0","","","","","","","","","","","","","","","","","","","","","","","","","",""
"","","","","","psychophysics","355","1235562","0.0-9.0-0.2-0.240","599","","f","","","","","","","","","","","","","key","f","16.664423076923974","768","428","./1_3_Stimuli/C_ambi40.png","自我","Image","他人","Mismatch","f","true","Formal",""
"","","","","","psychophysics","356","1237307","0.0-9.0-0.2-0.241","593","","f","","","","","","","","","","","","","key","f","16.66407766990201","768","428","./1_3_Stimuli/S_ambi40.png","自我","Word","朋友","Mismatch","f","true","Formal",""
"","","","","","psychophysics","357","1239058","0.0-9.0-0.2-0.242","593","","j","","","","","","","","","","","","","key","j","16.664423076923974","768","428","./1_3_Stimuli/C_ambi40.png","他人","Image","他人","Match","j","true","Formal",""
"","","","","","psychophysics","358","1240835","0.0-9.0-0.2-0.243","621","","j","","","","","","","","","","","","","key","j","16.664150943397544","768","428","./1_3_Stimuli/S_ambi40.png","朋友","Image","朋友","Match","j","true","Formal",""
"","","","","","psychophysics","359","1242538","0.0-9.0-0.2-0.244","549","","f","","","","","","","","","","","","","key","f","16.665346534653004","768","428","./1_3_Stimuli/T_ambi40.png","朋友","Image","自我","Mismatch","f","true","Formal",""
"","","","","","psychophysics","360","1244484","0.0-9.0-0.2-0.245","794","","f","","","","","","","","","","","","","key","f","16.664655172412587","768","428","./1_3_Stimuli/S_ambi40.png","他人","Word","朋友","Mismatch","f","true","Formal",""
"","","","","","psychophysics","361","1246279","0.0-9.0-0.2-0.246","638","","f","","","","","","","","","","","","","key","f","16.66415094339535","768","428","./1_3_Stimuli/C_ambi40.png","朋友","Word","他人","Mismatch","f","true","Formal",""
"","","","","","psychophysics","362","1247912","0.0-9.0-0.2-0.247","480","","j","","","","","","","","","","","","","key","j","16.66458333333382","768","428","./1_3_Stimuli/T_ambi40.png","自我","Image","自我","Match","j","true","Formal",""
"","","","","","psychophysics","363","1249783","0.0-9.0-0.2-0.248","720","","f","","","","","","","","","","","","","key","f","16.663392857143272","768","428","./1_3_Stimuli/C_ambi40.png","自我","Word","他人","Mismatch","f","true","Formal",""
"","","","","","psychophysics","364","1251643","0.0-9.0-0.2-0.249","703","","j","","","","","","","","","","","","","key","j","16.664545454544186","768","428","./1_3_Stimuli/C_ambi40.png","他人","Word","他人","Match","j","true","Formal",""
"","","","","","psychophysics","365","1253436","0.0-9.0-0.2-0.250","639","","j","","","","","","","","","","","","","key","j","16.66509433962264","768","428","./1_3_Stimuli/C_ambi40.png","他人","Image","他人","Match","j","true","Formal",""
"","","","","","psychophysics","366","1255128","0.0-9.0-0.2-0.251","531","","j","","","","","","","","","","","","","key","j","16.665","768","428","./1_3_Stimuli/T_ambi40.png","自我","Image","自我","Match","j","true","Formal",""
"","","","","","psychophysics","367","1257011","0.0-9.0-0.2-0.252","732","","f","","","","","","","","","","","","","key","f","16.66428571428696","768","428","./1_3_Stimuli/T_ambi40.png","他人","Word","自我","Mismatch","f","true","Formal",""
"","","","","","psychophysics","368","1258792","0.0-9.0-0.2-0.253","630","","j","","","","","","","","","","","","","key","j","16.663809523809082","768","428","./1_3_Stimuli/T_ambi40.png","自我","Word","自我","Match","j","true","Formal",""
"","","","","","psychophysics","369","1260520","0.0-9.0-0.2-0.254","574","","f","","","","","","","","","","","","","key","f","16.66407766990201","768","428","./1_3_Stimuli/T_ambi40.png","朋友","Word","自我","Mismatch","f","true","Formal",""
"","","","","","psychophysics","370","1262713","0.0-9.0-0.2-0.255","1034","","f","","","","","","","","","","","","","key","f","16.66412213740458","768","428","./1_3_Stimuli/C_ambi40.png","朋友","Image","他人","Mismatch","f","true","Formal",""
"","","","","","psychophysics","371","1264760","0.0-9.0-0.2-0.256","894","","j","","","","","","","","","","","","","key","j","16.663636363636748","768","428","./1_3_Stimuli/S_ambi40.png","朋友","Image","朋友","Match","j","true","Formal",""
"","","","","","psychophysics","372","1266509","0.0-9.0-0.2-0.257","598","","f","","","","","","","","","","","","","key","f","16.664423076923974","768","428","./1_3_Stimuli/S_ambi40.png","自我","Image","朋友","Mismatch","f","true","Formal",""
"","","","","","psychophysics","373","1268285","0.0-9.0-0.2-0.258","624","","j","","","","","","","","","","","","","key","j","16.663809523809082","768","428","./1_3_Stimuli/S_ambi40.png","朋友","Word","朋友","Match","j","true","Formal",""
"","","","","","psychophysics","374","1270164","0.0-9.0-0.2-0.259","720","","j","","","","","","","","","","","","","key","j","16.66428571428696","768","428","./1_3_Stimuli/S_ambi40.png","朋友","Word","朋友","Match","j","true","Formal",""
"","","","","","psychophysics","375","1272155","0.0-9.0-0.2-0.260","831","","f","","","","","","","","","","","","","key","f","16.66440677966023","768","428","./1_3_Stimuli/S_ambi40.png","他人","Image","朋友","Mismatch","f","true","Formal",""
"","","","","","psychophysics","376","1274316","0.0-9.0-0.2-0.261","1006","","f","","","","","","","","","","","","","key","f","16.664843750000728","768","428","./1_3_Stimuli/T_ambi40.png","他人","Image","自我","Mismatch","f","true","Formal",""
"","","","","","psychophysics","377","1276066","0.0-9.0-0.2-0.262","589","","j","","","","","","","","","","","","","key","j","16.664423076923974","768","428","./1_3_Stimuli/T_ambi40.png","自我","Word","自我","Match","j","true","Formal",""
"","","","","","psychophysics","378","1278014","0.0-9.0-0.2-0.263","788","","j","","","","","","","","","","","","","key","j","16.664655172414594","768","428","./1_3_Stimuli/C_ambi40.png","他人","Word","他人","Match","j","true","Formal",""
"","","","","","psychophysics","379","1279737","0.0-9.0-0.2-0.264","561","","j","","","","","","","","","","","","","key","j","16.6647058823534","768","428","./1_3_Stimuli/T_ambi40.png","自我","Image","自我","Match","j","true","Formal",""
"","","","","","psychophysics","380","1281482","0.0-9.0-0.2-0.265","593","","f","","","","","","","","","","","","","key","f","16.664423076921732","768","428","./1_3_Stimuli/T_ambi40.png","他人","Image","自我","Mismatch","f","true","Formal",""
"","","","","","psychophysics","381","1283325","0.0-9.0-0.2-0.266","689","","f","","","","","","","","","","","","","key","f","16.66422018348752","768","428","./1_3_Stimuli/S_ambi40.png","他人","Word","朋友","Mismatch","f","true","Formal",""
"","","","","","psychophysics","382","1285350","0.0-9.0-0.2-0.267","875","","f","","","","","","","","","","","","","key","f","16.66416666666628","768","428","./1_3_Stimuli/C_ambi40.png","朋友","Word","他人","Mismatch","f","true","Formal",""
"","","","","","psychophysics","383","1287141","0.0-9.0-0.2-0.268","633","","j","","","","","","","","","","","","","key","j","16.663207547168053","768","428","./1_3_Stimuli/T_ambi40.png","自我","Image","自我","Match","j","true","Formal",""
"","","","","","psychophysics","384","1288863","0.0-9.0-0.2-0.269","570","","f","","","","","","","","","","","","","key","f","16.66372549019562","768","428","./1_3_Stimuli/C_ambi40.png","朋友","Image","他人","Mismatch","f","true","Formal",""
"","","","","","psychophysics","385","1290521","0.0-9.0-0.2-0.270","503","","j","","","","","","","","","","","","","key","j","16.665306122448506","768","428","./1_3_Stimuli/T_ambi40.png","自我","Word","自我","Match","j","true","Formal",""
"","","","","","psychophysics","386","1292404","0.0-9.0-0.2-0.271","730","","f","","","","","","","","","","","","","key","f","16.664285714284883","768","428","./1_3_Stimuli/C_ambi40.png","自我","Image","他人","Mismatch","f","true","Formal",""
"","","","","","psychophysics","387","1294395","0.0-9.0-0.2-0.272","838","","j","","","","","","","","","","","","","key","j","16.664705882353722","768","428","./1_3_Stimuli/C_ambi40.png","他人","Image","他人","Match","j","true","Formal",""
"","","","","","psychophysics","388","1296423","0.0-9.0-0.2-0.273","874","","f","","","","","","","","","","","","","key","f","16.66416666666628","768","428","./1_3_Stimuli/S_ambi40.png","他人","Image","朋友","Mismatch","f","true","Formal",""
"","","","","","psychophysics","389","1298433","0.0-9.0-0.2-0.274","859","","f","","","","","","","","","","","","","key","f","16.664705882351768","768","428","./1_3_Stimuli/T_ambi40.png","朋友","Image","自我","Mismatch","f","true","Formal",""
"","","","","","psychophysics","390","1300545","0.0-9.0-0.2-0.275","955","","j","","","","","","","","","","","","","key","j","16.664285714285345","768","428","./1_3_Stimuli/S_ambi40.png","朋友","Word","朋友","Match","j","true","Formal",""
"","","","","","psychophysics","391","1302494","0.0-9.0-0.2-0.276","788","","f","","","","","","","","","","","","","key","f","16.663793103448278","768","428","./1_3_Stimuli/T_ambi40.png","朋友","Word","自我","Mismatch","f","true","Formal",""
"","","","","","psychophysics","392","1304901","0.0-9.0-0.2-0.277","1250","","f","","","","","","","","","","","","","key","f","16.66363636363734","768","428","./1_3_Stimuli/C_ambi40.png","自我","Word","他人","Mismatch","f","true","Formal",""
"","","","","","psychophysics","393","1306865","0.0-9.0-0.2-0.278","809","","f","","","","","","","","","","","","","key","f","16.664102564102166","768","428","./1_3_Stimuli/S_ambi40.png","自我","Image","朋友","Mismatch","f","true","Formal",""
"","","","","","psychophysics","394","1308742","0.0-9.0-0.2-0.279","720","","j","","","","","","","","","","","","","key","j","16.66428571428696","768","428","./1_3_Stimuli/S_ambi40.png","朋友","Word","朋友","Match","j","true","Formal",""
"","","","","","psychophysics","395","1310785","0.0-9.0-0.2-0.280","880","","f","","","","","","","","","","","","","key","f","16.663636363636748","768","428","./1_3_Stimuli/S_ambi40.png","朋友","Image","朋友","Match","j","false","Formal",""
"","","","","","psychophysics","396","1312553","0.0-9.0-0.2-0.281","614","","f","","","","","","","","","","","","","key","f","16.663809523809082","768","428","./1_3_Stimuli/T_ambi40.png","他人","Word","自我","Mismatch","f","true","Formal",""
"","","","","","psychophysics","397","1314507","0.0-9.0-0.2-0.282","802","","j","","","","","","","","","","","","","key","j","16.664655172414594","768","428","./1_3_Stimuli/C_ambi40.png","他人","Word","他人","Match","j","true","Formal",""
"","","","","","psychophysics","398","1316249","0.0-9.0-0.2-0.283","582","","j","","","","","","","","","","","","","key","j","16.66407766990427","768","428","./1_3_Stimuli/C_ambi40.png","他人","Word","他人","Match","j","true","Formal",""
"","","","","","psychophysics","399","1317885","0.0-9.0-0.2-0.284","480","","j","","","","","","","","","","","","","key","j","16.663917525772234","768","428","./1_3_Stimuli/C_ambi40.png","他人","Image","他人","Match","j","true","Formal",""
"","","","","","psychophysics","400","1319513","0.0-9.0-0.2-0.285","475","","f","","","","","","","","","","","","","key","f","16.664948453608247","768","428","./1_3_Stimuli/S_ambi40.png","自我","Word","朋友","Mismatch","f","true","Formal",""
"","","","","","psychophysics","401","1321224","0.0-9.0-0.2-0.286","554","","j","","","","","","","","","","","","","key","j","16.6647058823534","768","428","./1_3_Stimuli/T_ambi40.png","自我","Word","自我","Match","j","true","Formal",""
"","","","","","psychophysics","402","1323225","0.0-9.0-0.2-0.287","845","","j","","","","","","","","","","","","","key","j","16.66386554621849","768","428","./1_3_Stimuli/S_ambi40.png","朋友","Image","朋友","Match","j","true","Formal",""
"","","","","","psychophysics","403","1325201","0.0-9.0-0.2-0.288","814","","f","","","","","","","","","","","","","key","f","16.664957264957664","768","428","./1_3_Stimuli/T_ambi40.png","他人","Image","自我","Mismatch","f","true","Formal",""
"","","","","","psychophysics","404","1326924","0.0-9.0-0.2-0.289","570","","j","","","","","","","","","","","","","key","j","16.66407766990201","768","428","./1_3_Stimuli/S_ambi40.png","朋友","Word","朋友","Match","j","true","Formal",""
"","","","","","psychophysics","405","1328805","0.0-9.0-0.2-0.290","728","","j","","","","","","","","","","","","","key","j","16.663392857141194","768","428","./1_3_Stimuli/C_ambi40.png","他人","Word","他人","Match","j","true","Formal",""
"","","","","","psychophysics","406","1330566","0.0-9.0-0.2-0.291","599","","f","","","","","","","","","","","","","key","f","16.664423076921732","768","428","./1_3_Stimuli/S_ambi40.png","朋友","Image","朋友","Match","j","false","Formal",""
"","","","","","psychophysics","407","1332375","0.0-9.0-0.2-0.292","655","","f","","","","","","","","","","","","","key","f","16.663888888890614","768","428","./1_3_Stimuli/S_ambi40.png","自我","Word","朋友","Mismatch","f","true","Formal",""
"","","","","","psychophysics","408","1334158","0.0-9.0-0.2-0.293","631","","j","","","","","","","","","","","","","key","j","16.66415094339535","768","428","./1_3_Stimuli/T_ambi40.png","自我","Image","自我","Match","j","true","Formal",""
"","","","","","psychophysics","409","1336005","0.0-9.0-0.2-0.294","686","","j","","","","","","","","","","","","","key","j","16.6645454545463","768","428","./1_3_Stimuli/S_ambi40.png","朋友","Word","朋友","Match","j","true","Formal",""
"","","","","","psychophysics","410","1337807","0.0-9.0-0.2-0.295","646","","f","","","","","","","","","","","","","key","f","16.664485981307106","768","428","./1_3_Stimuli/S_ambi40.png","自我","Image","朋友","Mismatch","f","true","Formal",""
"","","","","","psychophysics","411","1339578","0.0-9.0-0.2-0.296","610","","j","","","","","","","","","","","","","key","j","16.664761904762347","768","428","./1_3_Stimuli/C_ambi40.png","他人","Word","他人","Match","j","true","Formal",""
"","","","","","psychophysics","412","1341342","0.0-9.0-0.2-0.297","607","","f","","","","","","","","","","","","","key","f","16.663809523809082","768","428","./1_3_Stimuli/T_ambi40.png","朋友","Word","自我","Mismatch","f","true","Formal",""
"","","","","","psychophysics","413","1343132","0.0-9.0-0.2-0.298","631","","f","","","","","","","","","","","","","key","f","16.664150943397544","768","428","./1_3_Stimuli/T_ambi40.png","他人","Word","自我","Mismatch","f","true","Formal",""
"","","","","","psychophysics","414","1344900","0.0-9.0-0.2-0.299","615","","j","","","","","","","","","","","","","key","j","16.6638095238113","768","428","./1_3_Stimuli/C_ambi40.png","他人","Image","他人","Match","j","true","Formal",""
"","","","","","psychophysics","415","1346732","0.0-9.0-0.2-0.300","682","","j","","","","","","","","","","","","","key","j","16.663888888890614","768","428","./1_3_Stimuli/S_ambi40.png","朋友","Image","朋友","Match","j","true","Formal",""
"","","","","","psychophysics","416","1348579","0.0-9.0-0.2-0.301","695","","f","","","","","","","","","","","","","key","f","16.664545454544186","768","428","./1_3_Stimuli/C_ambi40.png","自我","Image","他人","Mismatch","f","true","Formal",""
