"success","timeout","failed_images","failed_audio","failed_video","trial_type","trial_index","time_elapsed","internal_node_id","rt","stimulus","response","value","item_width_mm","item_height_mm","item_width_px","px2mm","view_dist_mm","item_width_deg","px2deg","scale_factor","win_width_deg","win_height_deg","view_history","response_type","key_press","avg_frame_time","center_x","center_y","image","word","target","valence","matchness","correct_response","correct","exp_condition"
"true","false","[]","[]","[]","preload","0","617","0.0-0.0","","","","","","","","","","","","","","","","","","","","","","","","","","","",""
"","","","","","html-keyboard-response","1","3888","0.0-1.0","3271","
     <p>您好，欢迎参加本次实验。</p>
     <p>为充分保障您的权利，请确保您已经知晓并同意《参与实验同意书》以及《数据公开知情同意书》。</p>
     <p>如果您未见过上述内容，请咨询实验员。</p>
     <p>如果您选择继续实验，则表示您已经清楚两份知情同意书的内容并同意。</p>
     <p> <div style = ""color: green""><按任意键至下页></div> </p>
     "," ","","","","","","","","","","","","","","","","","","","","","","","","",""
"","","","","","html-keyboard-response","2","4540","0.0-2.0-0.0","652","
      <p>本实验首先需要您填写一些基本个人信息。</p>
      <p> <div style = ""color: green""><按任意键至下页></div></p>
      "," ","","","","","","","","","","","","","","","","","","","","","","","","",""
"","","","","","call-function","3","4541","0.0-2.0-1.0","","","","","","","","","","","","","","","","","","","","","","","","","","","",""
"","","","","","survey-html-form","4","9357","0.0-2.0-2.0","4816","","{""Q0"":""1018""}","","","","","","","","","","","","","","","","","","","","","","","","",""
"","","","","","html-button-response","5","10127","0.0-2.0-3.0","769","<p style = 'color : white'>您的性别</p>","1","","","","","","","","","","","","","","","","","","","","","","","","",""
"","","","","","survey-html-form","6","18737","0.0-2.0-4.0","8609","","{""Q0"":""2001""}","","","","","","","","","","","","","","","","","","","","","","","","",""
"","","","","","survey-html-form","7","20969","0.0-2.0-5.0","2231","","{""Q0"":""5""}","","","","","","","","","","","","","","","","","","","","","","","","",""
"","","","","","virtual-chinrest","8","179398","0.0-3.0","158427","","","","85.6","53.98","402.2524421553544","4.699892523628622","608.63","8.045048843107088","50","0.959596411476658","30.56","14.84","","","","","","","","","","","","","",""
"true","","","","","fullscreen","9","181570","0.0-4.0","","","","","","","","","","","","","","","","","","","","","","","","","","","",""
"","","","","","instructions","10","220855","0.0-5.0","39285","","","","","","","","","","","","","","[{""page_index"":0,""viewing_time"":2044},{""page_index"":1,""viewing_time"":23756},{""page_index"":2,""viewing_time"":10981},{""page_index"":3,""viewing_time"":2503}]","","","","","","","","","","","","",""
"","","","","","html-keyboard-response","11","224512","0.0-6.0","null","<count-down title=""""></count-down>","null","","","","","","","","","","","","","","","","","","","","","","","","",""
"","","","","","psychophysics","12","227068","0.0-7.0-0.0-0.0","1399","","f","","","","","","","","","","","","","key","f","16.666447368421167","768","428","./1_3_Stimuli/S_ambi40.png","自我","Word","自我","Match","f","true","Practice"
"","","","","","html-keyboard-response","13","227384","0.0-7.0-0.0-1.0","null","<span style='color:GreenYellow; font-size: 70px;'>正确! </span>","null","","","","","","","","","","","","","","","","","","","","","","","","","feedback"
"","","","","","psychophysics","14","229228","0.0-7.0-0.0-0.1","691","","f","","","","","","","","","","","","","key","f","16.66909090909096","768","428","./1_3_Stimuli/T_ambi40.png","朋友","Word","朋友","Match","f","true","Practice"
"","","","","","html-keyboard-response","15","229530","0.0-7.0-0.0-1.1","null","<span style='color:GreenYellow; font-size: 70px;'>正确! </span>","null","","","","","","","","","","","","","","","","","","","","","","","","","feedback"
"","","","","","psychophysics","16","231588","0.0-7.0-0.0-0.2","905","","j","","","","","","","","","","","","","key","j","16.66557377049166","768","428","./1_3_Stimuli/T_ambi40.png","自我","Word","朋友","Mismatch","j","true","Practice"
"","","","","","html-keyboard-response","17","231891","0.0-7.0-0.0-1.2","null","<span style='color:GreenYellow; font-size: 70px;'>正确! </span>","null","","","","","","","","","","","","","","","","","","","","","","","","","feedback"
"","","","","","psychophysics","18","233863","0.0-7.0-0.0-0.3","815","","j","","","","","","","","","","","","","key","j","16.66923076923067","768","428","./1_3_Stimuli/C_ambi40.png","自我","Image","他人","Mismatch","j","true","Practice"
"","","","","","html-keyboard-response","19","234167","0.0-7.0-0.0-1.3","null","<span style='color:GreenYellow; font-size: 70px;'>正确! </span>","null","","","","","","","","","","","","","","","","","","","","","","","","","feedback"
"","","","","","psychophysics","20","236157","0.0-7.0-0.0-0.4","837","","f","","","","","","","","","","","","","key","f","16.669747899159763","768","428","./1_3_Stimuli/C_ambi40.png","朋友","Image","他人","Mismatch","j","false","Practice"
"","","","","","html-keyboard-response","21","236459","0.0-7.0-0.0-1.4","null","<span style='color:red; font-size: 70px;'>错误! </span>","null","","","","","","","","","","","","","","","","","","","","","","","","","feedback"
"","","","","","psychophysics","22","239166","0.0-7.0-0.0-0.5","null","","null","","","","","","","","","","","","","key","null","16.6664596273293","768","428","./1_3_Stimuli/T_ambi40.png","自我","Image","朋友","Mismatch","j","false","Practice"
"","","","","","html-keyboard-response","23","239480","0.0-7.0-0.0-1.5","null","<span class='add_' style='color:yellow; font-size: 70px;'> 太慢! </span>","null","","","","","","","","","","","","","","","","","","","","","","","","","feedback"
"","","","","","psychophysics","24","241353","0.0-7.0-0.0-0.6","715","","j","","","","","","","","","","","","","key","j","16.66756756756762","768","428","./1_3_Stimuli/C_ambi40.png","朋友","Word","他人","Mismatch","j","true","Practice"
"","","","","","html-keyboard-response","25","241662","0.0-7.0-0.0-1.6","null","<span style='color:GreenYellow; font-size: 70px;'>正确! </span>","null","","","","","","","","","","","","","","","","","","","","","","","","","feedback"
"","","","","","psychophysics","26","243874","0.0-7.0-0.0-0.7","1056","","j","","","","","","","","","","","","","key","j","16.667424242424286","768","428","./1_3_Stimuli/S_ambi40.png","他人","Word","自我","Mismatch","j","true","Practice"
"","","","","","html-keyboard-response","27","244180","0.0-7.0-0.0-1.7","null","<span style='color:GreenYellow; font-size: 70px;'>正确! </span>","null","","","","","","","","","","","","","","","","","","","","","","","","","feedback"
"","","","","","psychophysics","28","246079","0.0-7.0-0.0-0.8","742","","j","","","","","","","","","","","","","key","j","16.665486725663563","768","428","./1_3_Stimuli/C_ambi40.png","自我","Word","他人","Mismatch","j","true","Practice"
"","","","","","html-keyboard-response","29","246381","0.0-7.0-0.0-1.8","null","<span style='color:GreenYellow; font-size: 70px;'>正确! </span>","null","","","","","","","","","","","","","","","","","","","","","","","","","feedback"
"","","","","","psychophysics","30","248397","0.0-7.0-0.0-0.9","863","","j","","","","","","","","","","","","","key","j","16.668333333333187","768","428","./1_3_Stimuli/T_ambi40.png","他人","Word","朋友","Mismatch","j","true","Practice"
"","","","","","html-keyboard-response","31","248706","0.0-7.0-0.0-1.9","null","<span style='color:GreenYellow; font-size: 70px;'>正确! </span>","null","","","","","","","","","","","","","","","","","","","","","","","","","feedback"
"","","","","","psychophysics","32","250782","0.0-7.0-0.0-0.10","911","","f","","","","","","","","","","","","","key","f","16.668292682926925","768","428","./1_3_Stimuli/S_ambi40.png","自我","Image","自我","Match","f","true","Practice"
"","","","","","html-keyboard-response","33","251086","0.0-7.0-0.0-1.10","null","<span style='color:GreenYellow; font-size: 70px;'>正确! </span>","null","","","","","","","","","","","","","","","","","","","","","","","","","feedback"
"","","","","","psychophysics","34","253346","0.0-7.0-0.0-0.11","1108","","f","","","","","","","","","","","","","key","f","16.65970149253727","768","428","./1_3_Stimuli/C_ambi40.png","他人","Image","他人","Match","f","true","Practice"
"","","","","","html-keyboard-response","35","253652","0.0-7.0-0.0-1.11","null","<span style='color:GreenYellow; font-size: 70px;'>正确! </span>","null","","","","","","","","","","","","","","","","","","","","","","","","","feedback"
"","","","","","psychophysics","36","255349","0.0-7.0-0.0-0.12","545","","j","","","","","","","","","","","","","key","j","16.666666666666668","768","428","./1_3_Stimuli/C_ambi40.png","他人","Image","他人","Match","f","false","Practice"
"","","","","","html-keyboard-response","37","255661","0.0-7.0-0.0-1.12","null","<span style='color:red; font-size: 70px;'>错误! </span>","null","","","","","","","","","","","","","","","","","","","","","","","","","feedback"
"","","","","","psychophysics","38","257555","0.0-7.0-0.0-0.13","741","","j","","","","","","","","","","","","","key","j","16.663716814159294","768","428","./1_3_Stimuli/S_ambi40.png","自我","Word","自我","Match","f","false","Practice"
"","","","","","html-keyboard-response","39","257859","0.0-7.0-0.0-1.13","null","<span style='color:red; font-size: 70px;'>错误! </span>","null","","","","","","","","","","","","","","","","","","","","","","","","","feedback"
"","","","","","psychophysics","40","260029","0.0-7.0-0.0-0.14","1015","","j","","","","","","","","","","","","","key","j","16.66589147286817","768","428","./1_3_Stimuli/S_ambi40.png","他人","Image","自我","Mismatch","j","true","Practice"
"","","","","","html-keyboard-response","41","260343","0.0-7.0-0.0-1.14","null","<span style='color:GreenYellow; font-size: 70px;'>正确! </span>","null","","","","","","","","","","","","","","","","","","","","","","","","","feedback"
"","","","","","psychophysics","42","262639","0.0-7.0-0.0-0.15","1144","","j","","","","","","","","","","","","","key","j","16.66642335766436","768","428","./1_3_Stimuli/C_ambi40.png","他人","Word","他人","Match","f","false","Practice"
"","","","","","html-keyboard-response","43","262946","0.0-7.0-0.0-1.15","null","<span style='color:red; font-size: 70px;'>错误! </span>","null","","","","","","","","","","","","","","","","","","","","","","","","","feedback"
"","","","","","psychophysics","44","265024","0.0-7.0-0.0-0.16","924","","j","","","","","","","","","","","","","key","j","16.664","768","428","./1_3_Stimuli/S_ambi40.png","朋友","Word","自我","Mismatch","j","true","Practice"
"","","","","","html-keyboard-response","45","265332","0.0-7.0-0.0-1.16","null","<span style='color:GreenYellow; font-size: 70px;'>正确! </span>","null","","","","","","","","","","","","","","","","","","","","","","","","","feedback"
"","","","","","psychophysics","46","267725","0.0-7.0-0.0-0.17","1235","","j","","","","","","","","","","","","","key","j","16.666433566433486","768","428","./1_3_Stimuli/S_ambi40.png","朋友","Image","自我","Mismatch","j","true","Practice"
"","","","","","html-keyboard-response","47","268037","0.0-7.0-0.0-1.17","null","<span style='color:GreenYellow; font-size: 70px;'>正确! </span>","null","","","","","","","","","","","","","","","","","","","","","","","","","feedback"
"","","","","","psychophysics","48","269885","0.0-7.0-0.0-0.18","695","","f","","","","","","","","","","","","","key","f","16.667272727272408","768","428","./1_3_Stimuli/S_ambi40.png","自我","Image","自我","Match","f","true","Practice"
"","","","","","html-keyboard-response","49","270196","0.0-7.0-0.0-1.18","null","<span style='color:GreenYellow; font-size: 70px;'>正确! </span>","null","","","","","","","","","","","","","","","","","","","","","","","","","feedback"
"","","","","","psychophysics","50","271954","0.0-7.0-0.0-0.19","606","","j","","","","","","","","","","","","","key","j","16.669230769230545","768","428","./1_3_Stimuli/T_ambi40.png","他人","Image","朋友","Mismatch","j","true","Practice"
"","","","","","html-keyboard-response","51","272269","0.0-7.0-0.0-1.19","null","<span style='color:GreenYellow; font-size: 70px;'>正确! </span>","null","","","","","","","","","","","","","","","","","","","","","","","","","feedback"
"","","","","","psychophysics","52","273960","0.0-7.0-0.0-0.20","538","","f","","","","","","","","","","","","","key","f","16.667326732673498","768","428","./1_3_Stimuli/T_ambi40.png","朋友","Image","朋友","Match","f","true","Practice"
"","","","","","html-keyboard-response","53","274265","0.0-7.0-0.0-1.20","null","<span style='color:GreenYellow; font-size: 70px;'>正确! </span>","null","","","","","","","","","","","","","","","","","","","","","","","","","feedback"
"","","","","","psychophysics","54","276119","0.0-7.0-0.0-0.21","700","","f","","","","","","","","","","","","","key","f","16.66636363636353","768","428","./1_3_Stimuli/T_ambi40.png","朋友","Image","朋友","Match","f","true","Practice"
"","","","","","html-keyboard-response","55","276420","0.0-7.0-0.0-1.21","null","<span style='color:GreenYellow; font-size: 70px;'>正确! </span>","null","","","","","","","","","","","","","","","","","","","","","","","","","feedback"
"","","","","","psychophysics","56","278211","0.0-7.0-0.0-0.22","639","","j","","","","","","","","","","","","","key","j","16.666355140187353","768","428","./1_3_Stimuli/C_ambi40.png","他人","Word","他人","Match","f","false","Practice"
"","","","","","html-keyboard-response","57","278526","0.0-7.0-0.0-1.22","null","<span style='color:red; font-size: 70px;'>错误! </span>","null","","","","","","","","","","","","","","","","","","","","","","","","","feedback"
"","","","","","psychophysics","58","280572","0.0-7.0-0.0-0.23","893","","f","","","","","","","","","","","","","key","f","16.666942148760427","768","428","./1_3_Stimuli/T_ambi40.png","朋友","Word","朋友","Match","f","true","Practice"
"","","","","","html-keyboard-response","59","280882","0.0-7.0-0.0-1.23","null","<span style='color:GreenYellow; font-size: 70px;'>正确! </span>","null","","","","","","","","","","","","","","","","","","","","","","","","","feedback"
"","","","","","html-keyboard-response","60","284893","0.0-7.0-1.0-0.0","4009","<style>.context{color:white; font-size: 35px; line-height:40px}</style>                        <div><p class='context'>您正确回答了75% 的试次。</p><p class='context'>您的平均反应时为878毫秒。</p><p> <div style = 'color: green'><按空格键至下页></div></p>"," ","","","","","","","","","","","","","","","","","","","","","","","","",""
"","","","","","instructions","61","296281","0.0-7.0-1.0-1.0","11387","","","","","","","","","","","","","","[{""page_index"":0,""viewing_time"":3082},{""page_index"":1,""viewing_time"":6510},{""page_index"":2,""viewing_time"":1794}]","","","","","","","","","","","","",""
"","","","","","psychophysics","62","298325","0.0-7.1-0.1-0.24","885","","j","","","","","","","","","","","","","key","j","16.66721311475429","768","428","./1_3_Stimuli/C_ambi40.png","自我","Word","他人","Mismatch","j","true","Practice"
"","","","","","html-keyboard-response","63","298631","0.0-7.1-0.1-1.24","null","<span style='color:GreenYellow; font-size: 70px;'>正确! </span>","null","","","","","","","","","","","","","","","","","","","","","","","","","feedback"
"","","","","","psychophysics","64","300417","0.0-7.1-0.1-0.25","631","","j","","","","","","","","","","","","","key","j","16.666037735848835","768","428","./1_3_Stimuli/T_ambi40.png","他人","Image","朋友","Mismatch","j","true","Practice"
"","","","","","html-keyboard-response","65","300722","0.0-7.1-0.1-1.25","null","<span style='color:GreenYellow; font-size: 70px;'>正确! </span>","null","","","","","","","","","","","","","","","","","","","","","","","","","feedback"
"","","","","","psychophysics","66","302577","0.0-7.1-0.1-0.26","704","","j","","","","","","","","","","","","","key","j","16.667272727272938","768","428","./1_3_Stimuli/C_ambi40.png","自我","Image","他人","Mismatch","j","true","Practice"
"","","","","","html-keyboard-response","67","302879","0.0-7.1-0.1-1.26","null","<span style='color:GreenYellow; font-size: 70px;'>正确! </span>","null","","","","","","","","","","","","","","","","","","","","","","","","","feedback"
"","","","","","psychophysics","68","304580","0.0-7.1-0.1-0.27","544","","j","","","","","","","","","","","","","key","j","16.668316831683168","768","428","./1_3_Stimuli/C_ambi40.png","朋友","Word","他人","Mismatch","j","true","Practice"
"","","","","","html-keyboard-response","69","304894","0.0-7.1-0.1-1.27","null","<span style='color:GreenYellow; font-size: 70px;'>正确! </span>","null","","","","","","","","","","","","","","","","","","","","","","","","","feedback"
"","","","","","psychophysics","70","306583","0.0-7.1-0.1-0.28","534","","j","","","","","","","","","","","","","key","j","16.67","768","428","./1_3_Stimuli/S_ambi40.png","他人","Image","自我","Mismatch","j","true","Practice"
"","","","","","html-keyboard-response","71","306894","0.0-7.1-0.1-1.28","null","<span style='color:GreenYellow; font-size: 70px;'>正确! </span>","null","","","","","","","","","","","","","","","","","","","","","","","","","feedback"
"","","","","","psychophysics","72","308720","0.0-7.1-0.1-0.29","669","","j","","","","","","","","","","","","","key","j","16.666666666666668","768","428","./1_3_Stimuli/S_ambi40.png","他人","Word","自我","Mismatch","j","true","Practice"
"","","","","","html-keyboard-response","73","309035","0.0-7.1-0.1-1.29","null","<span style='color:GreenYellow; font-size: 70px;'>正确! </span>","null","","","","","","","","","","","","","","","","","","","","","","","","","feedback"
"","","","","","psychophysics","74","310723","0.0-7.1-0.1-0.30","533","","f","","","","","","","","","","","","","key","f","16.66600000000035","768","428","./1_3_Stimuli/T_ambi40.png","朋友","Word","朋友","Match","f","true","Practice"
"","","","","","html-keyboard-response","75","311037","0.0-7.1-0.1-1.30","null","<span style='color:GreenYellow; font-size: 70px;'>正确! </span>","null","","","","","","","","","","","","","","","","","","","","","","","","","feedback"
"","","","","","psychophysics","76","313042","0.0-7.1-0.1-0.31","852","","j","","","","","","","","","","","","","key","j","16.633613445378348","768","428","./1_3_Stimuli/T_ambi40.png","朋友","Image","朋友","Match","f","false","Practice"
"","","","","","html-keyboard-response","77","313345","0.0-7.1-0.1-1.31","null","<span style='color:red; font-size: 70px;'>错误! </span>","null","","","","","","","","","","","","","","","","","","","","","","","","","feedback"
"","","","","","psychophysics","78","314999","0.0-7.1-0.1-0.32","499","","f","","","","","","","","","","","","","key","f","16.664285714285477","768","428","./1_3_Stimuli/T_ambi40.png","朋友","Word","朋友","Match","f","true","Practice"
"","","","","","html-keyboard-response","79","315311","0.0-7.1-0.1-1.32","null","<span style='color:GreenYellow; font-size: 70px;'>正确! </span>","null","","","","","","","","","","","","","","","","","","","","","","","","","feedback"
"","","","","","psychophysics","80","317001","0.0-7.1-0.1-0.33","534","","f","","","","","","","","","","","","","key","f","16.666999999999533","768","428","./1_3_Stimuli/S_ambi40.png","自我","Word","自我","Match","f","true","Practice"
"","","","","","html-keyboard-response","81","317309","0.0-7.1-0.1-1.33","null","<span style='color:GreenYellow; font-size: 70px;'>正确! </span>","null","","","","","","","","","","","","","","","","","","","","","","","","","feedback"
"","","","","","psychophysics","82","319002","0.0-7.1-0.1-0.34","536","","f","","","","","","","","","","","","","key","f","16.667999999999882","768","428","./1_3_Stimuli/S_ambi40.png","自我","Image","自我","Match","f","true","Practice"
"","","","","","html-keyboard-response","83","319309","0.0-7.1-0.1-1.34","null","<span style='color:GreenYellow; font-size: 70px;'>正确! </span>","null","","","","","","","","","","","","","","","","","","","","","","","","","feedback"
"","","","","","psychophysics","84","321095","0.0-7.1-0.1-0.35","630","","f","","","","","","","","","","","","","key","f","16.666037735848835","768","428","./1_3_Stimuli/T_ambi40.png","他人","Word","朋友","Mismatch","j","false","Practice"
"","","","","","html-keyboard-response","85","321400","0.0-7.1-0.1-1.35","null","<span style='color:red; font-size: 70px;'>错误! </span>","null","","","","","","","","","","","","","","","","","","","","","","","","","feedback"
"","","","","","psychophysics","86","323232","0.0-7.1-0.1-0.36","678","","f","","","","","","","","","","","","","key","f","16.55727272727315","768","428","./1_3_Stimuli/S_ambi40.png","自我","Word","自我","Match","f","true","Practice"
"","","","","","html-keyboard-response","87","323536","0.0-7.1-0.1-1.36","null","<span style='color:GreenYellow; font-size: 70px;'>正确! </span>","null","","","","","","","","","","","","","","","","","","","","","","","","","feedback"
"","","","","","psychophysics","88","325437","0.0-7.1-0.1-0.37","747","","j","","","","","","","","","","","","","key","j","16.66902654867236","768","428","./1_3_Stimuli/T_ambi40.png","自我","Word","朋友","Mismatch","j","true","Practice"
"","","","","","html-keyboard-response","89","325737","0.0-7.1-0.1-1.37","null","<span style='color:GreenYellow; font-size: 70px;'>正确! </span>","null","","","","","","","","","","","","","","","","","","","","","","","","","feedback"
"","","","","","psychophysics","90","327823","0.0-7.1-0.1-0.38","933","","f","","","","","","","","","","","","","key","f","16.625","768","428","./1_3_Stimuli/T_ambi40.png","朋友","Image","朋友","Match","f","true","Practice"
"","","","","","html-keyboard-response","91","328126","0.0-7.1-0.1-1.38","null","<span style='color:GreenYellow; font-size: 70px;'>正确! </span>","null","","","","","","","","","","","","","","","","","","","","","","","","","feedback"
"","","","","","psychophysics","92","329803","0.0-7.1-0.1-0.39","516","","j","","","","","","","","","","","","","key","j","16.666666666666668","768","428","./1_3_Stimuli/C_ambi40.png","他人","Image","他人","Match","f","false","Practice"
"","","","","","html-keyboard-response","93","330115","0.0-7.1-0.1-1.39","null","<span style='color:red; font-size: 70px;'>错误! </span>","null","","","","","","","","","","","","","","","","","","","","","","","","","feedback"
"","","","","","psychophysics","94","331985","0.0-7.1-0.1-0.40","717","","j","","","","","","","","","","","","","key","j","16.61517857142826","768","428","./1_3_Stimuli/T_ambi40.png","自我","Image","朋友","Mismatch","j","true","Practice"
"","","","","","html-keyboard-response","95","332297","0.0-7.1-0.1-1.40","null","<span style='color:GreenYellow; font-size: 70px;'>正确! </span>","null","","","","","","","","","","","","","","","","","","","","","","","","","feedback"
"","","","","","psychophysics","96","334235","0.0-7.1-0.1-0.41","784","","j","","","","","","","","","","","","","key","j","16.66695652173923","768","428","./1_3_Stimuli/S_ambi40.png","朋友","Image","自我","Mismatch","j","true","Practice"
"","","","","","html-keyboard-response","97","334543","0.0-7.1-0.1-1.41","null","<span style='color:GreenYellow; font-size: 70px;'>正确! </span>","null","","","","","","","","","","","","","","","","","","","","","","","","","feedback"
"","","","","","psychophysics","98","336666","0.0-7.1-0.1-0.42","970","","f","","","","","","","","","","","","","key","f","16.664285714285807","768","428","./1_3_Stimuli/S_ambi40.png","自我","Image","自我","Match","f","true","Practice"
"","","","","","html-keyboard-response","99","336979","0.0-7.1-0.1-1.42","null","<span style='color:GreenYellow; font-size: 70px;'>正确! </span>","null","","","","","","","","","","","","","","","","","","","","","","","","","feedback"
"","","","","","psychophysics","100","338849","0.0-7.1-0.1-0.43","710","","j","","","","","","","","","","","","","key","j","16.66936936936979","768","428","./1_3_Stimuli/S_ambi40.png","朋友","Word","自我","Mismatch","j","true","Practice"
"","","","","","html-keyboard-response","101","339155","0.0-7.1-0.1-1.43","null","<span style='color:GreenYellow; font-size: 70px;'>正确! </span>","null","","","","","","","","","","","","","","","","","","","","","","","","","feedback"
"","","","","","psychophysics","102","340941","0.0-7.1-0.1-0.44","635","","f","","","","","","","","","","","","","key","f","16.66698113207558","768","428","./1_3_Stimuli/C_ambi40.png","他人","Word","他人","Match","f","true","Practice"
"","","","","","html-keyboard-response","103","341249","0.0-7.1-0.1-1.44","null","<span style='color:GreenYellow; font-size: 70px;'>正确! </span>","null","","","","","","","","","","","","","","","","","","","","","","","","","feedback"
"","","","","","psychophysics","104","343055","0.0-7.1-0.1-0.45","655","","j","","","","","","","","","","","","","key","j","16.667289719626385","768","428","./1_3_Stimuli/C_ambi40.png","朋友","Image","他人","Mismatch","j","true","Practice"
"","","","","","html-keyboard-response","105","343370","0.0-7.1-0.1-1.45","null","<span style='color:GreenYellow; font-size: 70px;'>正确! </span>","null","","","","","","","","","","","","","","","","","","","","","","","","","feedback"
"","","","","","psychophysics","106","345712","0.0-7.1-0.1-0.46","1189","","f","","","","","","","","","","","","","key","f","16.627338129496486","768","428","./1_3_Stimuli/C_ambi40.png","他人","Image","他人","Match","f","true","Practice"
"","","","","","html-keyboard-response","107","346016","0.0-7.1-0.1-1.46","null","<span style='color:GreenYellow; font-size: 70px;'>正确! </span>","null","","","","","","","","","","","","","","","","","","","","","","","","","feedback"
"","","","","","psychophysics","108","347758","0.0-7.1-0.1-0.47","588","","f","","","","","","","","","","","","","key","f","16.666346153846042","768","428","./1_3_Stimuli/C_ambi40.png","他人","Word","他人","Match","f","true","Practice"
"","","","","","html-keyboard-response","109","348062","0.0-7.1-0.1-1.47","null","<span style='color:GreenYellow; font-size: 70px;'>正确! </span>","null","","","","","","","","","","","","","","","","","","","","","","","","","feedback"
"","","","","","html-keyboard-response","110","389676","0.0-8.0","41612","<style>.context{color:white; font-size: 35px; line-height:40px}</style>                          <div><p class='context'>您正确回答了88% 的试次。</p><p class='context'>您的平均反应时为699毫秒。</p><p class='context'>恭喜您完成练习。现在请休息3~5分钟。</p><p class='context'>之后，按任意键进入正式实验。需要注意的是，正式实验将不再提供反应是否正确的反馈。</p><p class='footer' style='font-size: 35px; line-height:40px;'>请在进入正式实验实验之前将您的<span style='color: lightgreen;'>食指</span>放在电脑键盘的相应键位上进行按键。</p>"," ","","","","","","","","","","","","","","","","","","","","","","","","",""
"","","","","","psychophysics","111","391610","0.0-9.0-0.0-0.0","779","","j","","","","","","","","","","","","","key","j","16.66521739130435","768","428","./1_3_Stimuli/T_ambi40.png","他人","Word","朋友","Mismatch","j","true","Formal"
"","","","","","psychophysics","112","393366","0.0-9.0-0.0-0.1","602","","f","","","","","","","","","","","","","key","f","16.664423076923413","768","428","./1_3_Stimuli/T_ambi40.png","朋友","Word","朋友","Match","f","true","Formal"
"","","","","","psychophysics","113","395187","0.0-9.0-0.0-0.2","665","","j","","","","","","","","","","","","","key","j","16.666666666666668","768","428","./1_3_Stimuli/C_ambi40.png","自我","Word","他人","Mismatch","j","true","Formal"
"","","","","","psychophysics","114","397370","0.0-9.0-0.0-0.3","1029","","j","","","","","","","","","","","","","key","j","16.667692307692217","768","428","./1_3_Stimuli/S_ambi40.png","朋友","Word","自我","Mismatch","j","true","Formal"
"","","","","","psychophysics","115","399126","0.0-9.0-0.0-0.4","603","","f","","","","","","","","","","","","","key","f","16.6695238095237","768","428","./1_3_Stimuli/C_ambi40.png","他人","Word","他人","Match","f","true","Formal"
"","","","","","psychophysics","116","400970","0.0-9.0-0.0-0.5","683","","j","","","","","","","","","","","","","key","j","16.665137614678898","768","428","./1_3_Stimuli/T_ambi40.png","自我","Word","朋友","Mismatch","j","true","Formal"
"","","","","","psychophysics","117","402771","0.0-9.0-0.0-0.6","648","","f","","","","","","","","","","","","","key","f","16.665420560747773","768","428","./1_3_Stimuli/T_ambi40.png","朋友","Image","朋友","Match","f","true","Formal"
"","","","","","psychophysics","118","404637","0.0-9.0-0.0-0.7","714","","f","","","","","","","","","","","","","key","f","16.670270270269956","768","428","./1_3_Stimuli/C_ambi40.png","他人","Image","他人","Match","f","true","Formal"
"","","","","","psychophysics","119","406303","0.0-9.0-0.0-0.8","514","","f","","","","","","","","","","","","","key","f","16.670408163265424","768","428","./1_3_Stimuli/C_ambi40.png","他人","Word","他人","Match","f","true","Formal"
"","","","","","psychophysics","120","408036","0.0-9.0-0.0-0.9","580","","j","","","","","","","","","","","","","key","j","16.66601941747607","768","428","./1_3_Stimuli/S_ambi40.png","他人","Word","自我","Mismatch","j","true","Formal"
"","","","","","psychophysics","121","409859","0.0-9.0-0.0-0.10","669","","f","","","","","","","","","","","","","key","f","16.667889908257308","768","428","./1_3_Stimuli/S_ambi40.png","自我","Image","自我","Match","f","true","Formal"
"","","","","","psychophysics","122","411636","0.0-9.0-0.0-0.11","624","","f","","","","","","","","","","","","","key","f","16.666666666666668","768","428","./1_3_Stimuli/C_ambi40.png","他人","Image","他人","Match","f","true","Formal"
"","","","","","psychophysics","123","413322","0.0-9.0-0.0-0.12","533","","f","","","","","","","","","","","","","key","f","16.664000000000232","768","428","./1_3_Stimuli/T_ambi40.png","朋友","Image","朋友","Match","f","true","Formal"
"","","","","","psychophysics","124","415100","0.0-9.0-0.0-0.13","628","","j","","","","","","","","","","","","","key","j","16.664761904761793","768","428","./1_3_Stimuli/T_ambi40.png","他人","Image","朋友","Mismatch","j","true","Formal"
"","","","","","psychophysics","125","416923","0.0-9.0-0.0-0.14","666","","f","","","","","","","","","","","","","key","f","16.667592592592914","768","428","./1_3_Stimuli/S_ambi40.png","自我","Word","自我","Match","f","true","Formal"
"","","","","","psychophysics","126","418610","0.0-9.0-0.0-0.15","537","","f","","","","","","","","","","","","","key","f","16.665999999999766","768","428","./1_3_Stimuli/S_ambi40.png","自我","Image","自我","Match","f","true","Formal"
"","","","","","psychophysics","127","420455","0.0-9.0-0.0-0.16","682","","j","","","","","","","","","","","","","key","j","16.667889908256775","768","428","./1_3_Stimuli/C_ambi40.png","朋友","Word","他人","Mismatch","j","true","Formal"
"","","","","","psychophysics","128","422368","0.0-9.0-0.0-0.17","762","","f","","","","","","","","","","","","","key","f","16.667256637168347","768","428","./1_3_Stimuli/C_ambi40.png","自我","Image","他人","Mismatch","j","false","Formal"
"","","","","","psychophysics","129","424258","0.0-9.0-0.0-0.18","735","","f","","","","","","","","","","","","","key","f","16.66637168141634","768","428","./1_3_Stimuli/S_ambi40.png","自我","Word","自我","Match","f","true","Formal"
"","","","","","psychophysics","130","426238","0.0-9.0-0.0-0.19","828","","j","","","","","","","","","","","","","key","j","16.67008547008567","768","428","./1_3_Stimuli/C_ambi40.png","朋友","Image","他人","Mismatch","j","true","Formal"
"","","","","","psychophysics","131","428129","0.0-9.0-0.0-0.20","739","","j","","","","","","","","","","","","","key","j","16.66696428571387","768","428","./1_3_Stimuli/S_ambi40.png","朋友","Image","自我","Mismatch","j","true","Formal"
"","","","","","psychophysics","132","429951","0.0-9.0-0.0-0.21","670","","f","","","","","","","","","","","","","key","f","16.666666666666668","768","428","./1_3_Stimuli/T_ambi40.png","朋友","Word","朋友","Match","f","true","Formal"
"","","","","","psychophysics","133","432178","0.0-9.0-0.0-0.22","1075","","j","","","","","","","","","","","","","key","j","16.669172932330827","768","428","./1_3_Stimuli/S_ambi40.png","他人","Image","自我","Mismatch","j","true","Formal"
"","","","","","psychophysics","134","434182","0.0-9.0-0.0-0.23","846","","j","","","","","","","","","","","","","key","j","16.668907563025016","768","428","./1_3_Stimuli/T_ambi40.png","自我","Image","朋友","Mismatch","j","true","Formal"
"","","","","","psychophysics","135","435959","0.0-9.0-0.0-0.24","620","","j","","","","","","","","","","","","","key","j","16.666037735849386","768","428","./1_3_Stimuli/T_ambi40.png","他人","Word","朋友","Mismatch","j","true","Formal"
"","","","","","psychophysics","136","437781","0.0-9.0-0.0-0.25","659","","j","","","","","","","","","","","","","key","j","16.665740740740418","768","428","./1_3_Stimuli/C_ambi40.png","朋友","Word","他人","Mismatch","j","true","Formal"
"","","","","","psychophysics","137","439694","0.0-9.0-0.0-0.26","761","","j","","","","","","","","","","","","","key","j","16.669298245613934","768","428","./1_3_Stimuli/T_ambi40.png","自我","Image","朋友","Mismatch","j","true","Formal"
"","","","","","psychophysics","138","441538","0.0-9.0-0.0-0.27","691","","f","","","","","","","","","","","","","key","f","16.666972477064327","768","428","./1_3_Stimuli/C_ambi40.png","他人","Image","他人","Match","f","true","Formal"
"","","","","","psychophysics","139","443293","0.0-9.0-0.0-0.28","603","","f","","","","","","","","","","","","","key","f","16.6695238095237","768","428","./1_3_Stimuli/T_ambi40.png","朋友","Image","朋友","Match","f","true","Formal"
"","","","","","psychophysics","140","445207","0.0-9.0-0.0-0.29","750","","f","","","","","","","","","","","","","key","f","16.664912280701653","768","428","./1_3_Stimuli/T_ambi40.png","朋友","Word","朋友","Match","f","true","Formal"
"","","","","","psychophysics","141","446893","0.0-9.0-0.0-0.30","529","","j","","","","","","","","","","","","","key","j","16.662999999999883","768","428","./1_3_Stimuli/T_ambi40.png","他人","Image","朋友","Mismatch","j","true","Formal"
"","","","","","psychophysics","142","448694","0.0-9.0-0.0-0.31","638","","f","","","","","","","","","","","","","key","f","16.670093457944034","768","428","./1_3_Stimuli/S_ambi40.png","自我","Word","自我","Match","f","true","Formal"
"","","","","","psychophysics","143","450405","0.0-9.0-0.0-0.32","548","","j","","","","","","","","","","","","","key","j","16.663366336633665","768","428","./1_3_Stimuli/T_ambi40.png","自我","Word","朋友","Mismatch","j","true","Formal"
"","","","","","psychophysics","144","452450","0.0-9.0-0.0-0.33","894","","j","","","","","","","","","","","","","key","j","16.66721311475429","768","428","./1_3_Stimuli/C_ambi40.png","朋友","Image","他人","Mismatch","j","true","Formal"
"","","","","","psychophysics","145","454116","0.0-9.0-0.0-0.34","509","","f","","","","","","","","","","","","","key","f","16.666666666666668","768","428","./1_3_Stimuli/C_ambi40.png","他人","Word","他人","Match","f","true","Formal"
"","","","","","psychophysics","146","455916","0.0-9.0-0.0-0.35","644","","j","","","","","","","","","","","","","key","j","16.666355140186806","768","428","./1_3_Stimuli/S_ambi40.png","他人","Word","自我","Mismatch","j","true","Formal"
"","","","","","psychophysics","147","457874","0.0-9.0-0.0-0.36","801","","j","","","","","","","","","","","","","key","j","16.664102564102663","768","428","./1_3_Stimuli/C_ambi40.png","自我","Image","他人","Mismatch","j","true","Formal"
"","","","","","psychophysics","148","459855","0.0-9.0-0.0-0.37","821","","j","","","","","","","","","","","","","key","j","16.666666666666668","768","428","./1_3_Stimuli/S_ambi40.png","朋友","Image","自我","Mismatch","j","true","Formal"
"","","","","","psychophysics","149","461789","0.0-9.0-0.0-0.38","782","","j","","","","","","","","","","","","","key","j","16.666666666666668","768","428","./1_3_Stimuli/S_ambi40.png","他人","Image","自我","Mismatch","j","true","Formal"
"","","","","","psychophysics","150","463588","0.0-9.0-0.0-0.39","648","","f","","","","","","","","","","","","","key","f","16.667289719626385","768","428","./1_3_Stimuli/T_ambi40.png","朋友","Image","朋友","Match","f","true","Formal"
"","","","","","psychophysics","151","465276","0.0-9.0-0.0-0.40","537","","f","","","","","","","","","","","","","key","f","16.666336633663253","768","428","./1_3_Stimuli/S_ambi40.png","自我","Image","自我","Match","f","true","Formal"
"","","","","","psychophysics","152","467146","0.0-9.0-0.0-0.41","713","","j","","","","","","","","","","","","","key","j","16.666666666666668","768","428","./1_3_Stimuli/S_ambi40.png","自我","Image","自我","Match","f","false","Formal"
"","","","","","psychophysics","153","468922","0.0-9.0-0.0-0.42","623","","j","","","","","","","","","","","","","key","j","16.6695238095237","768","428","./1_3_Stimuli/C_ambi40.png","自我","Word","他人","Mismatch","j","true","Formal"
"","","","","","psychophysics","154","471059","0.0-9.0-0.0-0.43","985","","f","","","","","","","","","","","","","key","f","16.667187500000182","768","428","./1_3_Stimuli/S_ambi40.png","自我","Word","自我","Match","f","true","Formal"
"","","","","","psychophysics","155","472700","0.0-9.0-0.0-0.44","486","","f","","","","","","","","","","","","","key","f","16.66701030927787","768","428","./1_3_Stimuli/S_ambi40.png","朋友","Word","自我","Mismatch","j","false","Formal"
"","","","","","psychophysics","156","474568","0.0-9.0-0.0-0.45","711","","f","","","","","","","","","","","","","key","f","16.665765765765975","768","428","./1_3_Stimuli/C_ambi40.png","他人","Word","他人","Match","f","true","Formal"
"","","","","","psychophysics","157","476256","0.0-9.0-0.0-0.46","537","","f","","","","","","","","","","","","","key","f","16.665999999999766","768","428","./1_3_Stimuli/T_ambi40.png","朋友","Word","朋友","Match","f","true","Formal"
"","","","","","psychophysics","158","477989","0.0-9.0-0.0-0.47","582","","j","","","","","","","","","","","","","key","j","16.666666666666668","768","428","./1_3_Stimuli/C_ambi40.png","他人","Image","他人","Match","f","false","Formal"
"","","","","","psychophysics","159","479923","0.0-9.0-0.0-0.48","783","","f","","","","","","","","","","","","","key","f","16.666666666666668","768","428","./1_3_Stimuli/S_ambi40.png","自我","Image","自我","Match","f","true","Formal"
"","","","","","psychophysics","160","481612","0.0-9.0-0.0-0.49","538","","f","","","","","","","","","","","","","key","f","16.667000000000115","768","428","./1_3_Stimuli/T_ambi40.png","朋友","Word","朋友","Match","f","true","Formal"
"","","","","","psychophysics","161","483615","0.0-9.0-0.0-0.50","841","","f","","","","","","","","","","","","","key","f","16.666386554621752","768","428","./1_3_Stimuli/S_ambi40.png","自我","Word","自我","Match","f","true","Formal"
"","","","","","psychophysics","162","485436","0.0-9.0-0.0-0.51","662","","f","","","","","","","","","","","","","key","f","16.665740740740958","768","428","./1_3_Stimuli/C_ambi40.png","他人","Word","他人","Match","f","true","Formal"
"","","","","","psychophysics","163","487259","0.0-9.0-0.0-0.52","670","","f","","","","","","","","","","","","","key","f","16.666972477064327","768","428","./1_3_Stimuli/S_ambi40.png","自我","Word","自我","Match","f","true","Formal"
"","","","","","psychophysics","164","489037","0.0-9.0-0.0-0.53","626","","f","","","","","","","","","","","","","key","f","16.666666666666668","768","428","./1_3_Stimuli/C_ambi40.png","他人","Image","他人","Match","f","true","Formal"
"","","","","","psychophysics","165","490633","0.0-9.0-0.0-0.54","442","","f","","","","","","","","","","","","","key","f","16.66631578947356","768","428","./1_3_Stimuli/T_ambi40.png","朋友","Word","朋友","Match","f","true","Formal"
"","","","","","psychophysics","166","492456","0.0-9.0-0.0-0.55","669","","j","","","","","","","","","","","","","key","j","16.665740740740958","768","428","./1_3_Stimuli/C_ambi40.png","自我","Image","他人","Mismatch","j","true","Formal"
"","","","","","psychophysics","167","494256","0.0-9.0-0.0-0.56","649","","j","","","","","","","","","","","","","key","j","16.666037735849386","768","428","./1_3_Stimuli/C_ambi40.png","自我","Word","他人","Mismatch","j","true","Formal"
"","","","","","psychophysics","168","496394","0.0-9.0-0.0-0.57","987","","j","","","","","","","","","","","","","key","j","16.66692913385836","768","428","./1_3_Stimuli/C_ambi40.png","朋友","Word","他人","Mismatch","j","true","Formal"
"","","","","","psychophysics","169","498103","0.0-9.0-0.0-0.58","551","","j","","","","","","","","","","","","","key","j","16.667326732673498","768","428","./1_3_Stimuli/S_ambi40.png","他人","Image","自我","Mismatch","j","true","Formal"
"","","","","","psychophysics","170","499949","0.0-9.0-0.0-0.59","692","","j","","","","","","","","","","","","","key","j","16.66605504587188","768","428","./1_3_Stimuli/S_ambi40.png","朋友","Image","自我","Mismatch","j","true","Formal"
"","","","","","psychophysics","171","501748","0.0-9.0-0.0-0.60","641","","j","","","","","","","","","","","","","key","j","16.667289719625842","768","428","./1_3_Stimuli/T_ambi40.png","自我","Image","朋友","Mismatch","j","true","Formal"
"","","","","","psychophysics","172","503595","0.0-9.0-0.0-0.61","687","","j","","","","","","","","","","","","","key","j","16.669999999999575","768","428","./1_3_Stimuli/T_ambi40.png","他人","Word","朋友","Mismatch","j","true","Formal"
"","","","","","psychophysics","173","505529","0.0-9.0-0.0-0.62","776","","f","","","","","","","","","","","","","key","f","16.666956521738726","768","428","./1_3_Stimuli/T_ambi40.png","朋友","Image","朋友","Match","f","true","Formal"
"","","","","","psychophysics","174","507398","0.0-9.0-0.0-0.63","707","","f","","","","","","","","","","","","","key","f","16.667567567567882","768","428","./1_3_Stimuli/C_ambi40.png","他人","Word","他人","Match","f","true","Formal"
"","","","","","psychophysics","175","509647","0.0-9.0-0.0-0.64","1092","","f","","","","","","","","","","","","","key","f","16.667910447761194","768","428","./1_3_Stimuli/T_ambi40.png","他人","Image","朋友","Mismatch","j","false","Formal"
"","","","","","psychophysics","176","511626","0.0-9.0-0.0-0.65","826","","j","","","","","","","","","","","","","key","j","16.667796610169393","768","428","./1_3_Stimuli/S_ambi40.png","他人","Word","自我","Mismatch","j","true","Formal"
"","","","","","psychophysics","177","513718","0.0-9.0-0.0-0.66","938","","j","","","","","","","","","","","","","key","j","16.66532258064516","768","428","./1_3_Stimuli/T_ambi40.png","自我","Word","朋友","Mismatch","j","true","Formal"
"","","","","","psychophysics","178","515765","0.0-9.0-0.0-0.67","892","","f","","","","","","","","","","","","","key","f","16.6655737704919","768","428","./1_3_Stimuli/T_ambi40.png","朋友","Image","朋友","Match","f","true","Formal"
"","","","","","psychophysics","179","517927","0.0-9.0-0.0-0.68","1006","","j","","","","","","","","","","","","","key","j","16.667441860465388","768","428","./1_3_Stimuli/S_ambi40.png","朋友","Word","自我","Mismatch","j","true","Formal"
"","","","","","psychophysics","180","519771","0.0-9.0-0.0-0.69","681","","j","","","","","","","","","","","","","key","j","16.666055045871346","768","428","./1_3_Stimuli/C_ambi40.png","朋友","Image","他人","Mismatch","j","true","Formal"
"","","","","","psychophysics","181","521595","0.0-9.0-0.0-0.70","671","","f","","","","","","","","","","","","","key","f","16.665137614678898","768","428","./1_3_Stimuli/S_ambi40.png","自我","Image","自我","Match","f","true","Formal"
"","","","","","psychophysics","182","523619","0.0-9.0-0.0-0.71","869","","f","","","","","","","","","","","","","key","f","16.667499999999805","768","428","./1_3_Stimuli/C_ambi40.png","他人","Image","他人","Match","f","true","Formal"
"","","","","","psychophysics","183","525601","0.0-9.0-0.0-0.72","827","","j","","","","","","","","","","","","","key","j","16.666949152542966","768","428","./1_3_Stimuli/S_ambi40.png","他人","Image","自我","Mismatch","j","true","Formal"
"","","","","","psychophysics","184","527467","0.0-9.0-0.0-0.73","710","","j","","","","","","","","","","","","","key","j","16.665765765765975","768","428","./1_3_Stimuli/T_ambi40.png","他人","Word","朋友","Mismatch","j","true","Formal"
"","","","","","psychophysics","185","529514","0.0-9.0-0.0-0.74","891","","j","","","","","","","","","","","","","key","j","16.66639344262238","768","428","./1_3_Stimuli/T_ambi40.png","他人","Image","朋友","Mismatch","j","true","Formal"
"","","","","","psychophysics","186","531494","0.0-9.0-0.0-0.75","825","","f","","","","","","","","","","","","","key","f","16.666949152542966","768","428","./1_3_Stimuli/S_ambi40.png","自我","Image","自我","Match","f","true","Formal"
"","","","","","psychophysics","187","533586","0.0-9.0-0.0-0.76","940","","f","","","","","","","","","","","","","key","f","16.66532258064516","768","428","./1_3_Stimuli/C_ambi40.png","他人","Image","他人","Match","f","true","Formal"
"","","","","","psychophysics","188","535365","0.0-9.0-0.0-0.77","625","","j","","","","","","","","","","","","","key","j","16.666666666666668","768","428","./1_3_Stimuli/C_ambi40.png","朋友","Image","他人","Mismatch","j","true","Formal"
"","","","","","psychophysics","189","537165","0.0-9.0-0.0-0.78","641","","f","","","","","","","","","","","","","key","f","16.671028037382523","768","428","./1_3_Stimuli/S_ambi40.png","自我","Image","自我","Match","f","true","Formal"
"","","","","","psychophysics","190","538898","0.0-9.0-0.0-0.79","575","","j","","","","","","","","","","","","","key","j","16.666990291261683","768","428","./1_3_Stimuli/T_ambi40.png","自我","Image","朋友","Mismatch","j","true","Formal"
"","","","","","psychophysics","191","541033","0.0-9.0-0.0-0.80","976","","j","","","","","","","","","","","","","key","j","16.66692913385882","768","428","./1_3_Stimuli/S_ambi40.png","朋友","Image","自我","Mismatch","j","true","Formal"
"","","","","","psychophysics","192","542677","0.0-9.0-0.0-0.81","486","","j","","","","","","","","","","","","","key","j","16.66632653061272","768","428","./1_3_Stimuli/S_ambi40.png","朋友","Word","自我","Mismatch","j","true","Formal"
"","","","","","psychophysics","193","544477","0.0-9.0-0.0-0.82","642","","f","","","","","","","","","","","","","key","f","16.666355140187353","768","428","./1_3_Stimuli/C_ambi40.png","他人","Image","他人","Match","f","true","Formal"
"","","","","","psychophysics","194","546210","0.0-9.0-0.0-0.83","574","","f","","","","","","","","","","","","","key","f","16.666990291261683","768","428","./1_3_Stimuli/T_ambi40.png","朋友","Image","朋友","Match","f","true","Formal"
"","","","","","psychophysics","195","548031","0.0-9.0-0.0-0.84","662","","j","","","","","","","","","","","","","key","j","16.667592592592378","768","428","./1_3_Stimuli/S_ambi40.png","他人","Word","自我","Mismatch","j","true","Formal"
"","","","","","psychophysics","196","549718","0.0-9.0-0.0-0.85","527","","f","","","","","","","","","","","","","key","f","16.67","768","428","./1_3_Stimuli/T_ambi40.png","朋友","Word","朋友","Match","f","true","Formal"
"","","","","","psychophysics","197","551317","0.0-9.0-0.0-0.86","444","","f","","","","","","","","","","","","","key","f","16.66526315789425","768","428","./1_3_Stimuli/S_ambi40.png","自我","Word","自我","Match","f","true","Formal"
"","","","","","psychophysics","198","553026","0.0-9.0-0.0-0.87","553","","f","","","","","","","","","","","","","key","f","16.667647058823302","768","428","./1_3_Stimuli/C_ambi40.png","自我","Word","他人","Mismatch","j","false","Formal"
"","","","","","psychophysics","199","554850","0.0-9.0-0.0-0.88","671","","f","","","","","","","","","","","","","key","f","16.668518518518088","768","428","./1_3_Stimuli/T_ambi40.png","朋友","Image","朋友","Match","f","true","Formal"
"","","","","","psychophysics","200","556739","0.0-9.0-0.0-0.89","737","","j","","","","","","","","","","","","","key","j","16.66696428571387","768","428","./1_3_Stimuli/C_ambi40.png","朋友","Word","他人","Mismatch","j","true","Formal"
"","","","","","psychophysics","201","559057","0.0-9.0-0.0-0.90","1167","","j","","","","","","","","","","","","","key","j","16.665217391304687","768","428","./1_3_Stimuli/T_ambi40.png","自我","Word","朋友","Mismatch","j","true","Formal"
"","","","","","psychophysics","202","560880","0.0-9.0-0.0-0.91","667","","f","","","","","","","","","","","","","key","f","16.667592592592378","768","428","./1_3_Stimuli/C_ambi40.png","他人","Word","他人","Match","f","true","Formal"
"","","","","","psychophysics","203","562927","0.0-9.0-0.0-0.92","891","","j","","","","","","","","","","","","","key","j","16.664754098360465","768","428","./1_3_Stimuli/S_ambi40.png","自我","Word","自我","Match","f","false","Formal"
"","","","","","psychophysics","204","564703","0.0-9.0-0.0-0.93","622","","f","","","","","","","","","","","","","key","f","16.669523809524254","768","428","./1_3_Stimuli/T_ambi40.png","朋友","Word","朋友","Match","f","true","Formal"
"","","","","","psychophysics","205","566729","0.0-9.0-0.0-0.94","872","","j","","","","","","","","","","","","","key","j","16.666115702479146","768","428","./1_3_Stimuli/C_ambi40.png","自我","Image","他人","Mismatch","j","true","Formal"
"","","","","","psychophysics","206","568600","0.0-9.0-0.0-0.95","709","","f","","","","","","","","","","","","","key","f","16.667567567567357","768","428","./1_3_Stimuli/C_ambi40.png","他人","Word","他人","Match","f","true","Formal"
"","","","","","psychophysics","207","570576","0.0-9.0-0.0-0.96","819","","j","","","","","","","","","","","","","key","j","16.66864406779582","768","428","./1_3_Stimuli/S_ambi40.png","朋友","Image","自我","Mismatch","j","true","Formal"
"","","","","","psychophysics","208","572354","0.0-9.0-0.0-0.97","622","","f","","","","","","","","","","","","","key","f","16.668571428572093","768","428","./1_3_Stimuli/S_ambi40.png","自我","Image","自我","Match","f","true","Formal"
"","","","","","psychophysics","209","574311","0.0-9.0-0.0-0.98","805","","f","","","","","","","","","","","","","key","f","16.66896551724118","768","428","./1_3_Stimuli/C_ambi40.png","他人","Image","他人","Match","f","true","Formal"
"","","","","","psychophysics","210","576314","0.0-9.0-0.0-0.99","847","","f","","","","","","","","","","","","","key","f","16.66638655462224","768","428","./1_3_Stimuli/S_ambi40.png","自我","Word","自我","Match","f","true","Formal"
"","","","","","psychophysics","211","578069","0.0-9.0-0.0-0.100","595","","f","","","","","","","","","","","","","key","f","16.665384615385285","768","428","./1_3_Stimuli/S_ambi40.png","自我","Image","自我","Match","f","true","Formal"
"","","","","","psychophysics","212","579937","0.0-9.0-0.0-0.101","713","","j","","","","","","","","","","","","","key","j","16.666666666666668","768","428","./1_3_Stimuli/C_ambi40.png","自我","Image","他人","Mismatch","j","true","Formal"
"","","","","","psychophysics","213","581647","0.0-9.0-0.0-0.102","557","","f","","","","","","","","","","","","","key","f","16.66568627450889","768","428","./1_3_Stimuli/T_ambi40.png","朋友","Image","朋友","Match","f","true","Formal"
"","","","","","psychophysics","214","583356","0.0-9.0-0.0-0.103","552","","f","","","","","","","","","","","","","key","f","16.665346534654155","768","428","./1_3_Stimuli/C_ambi40.png","他人","Word","他人","Match","f","true","Formal"
"","","","","","psychophysics","215","585853","0.0-9.0-0.0-0.104","1345","","f","","","","","","","","","","","","","key","f","16.66891891891892","768","428","./1_3_Stimuli/T_ambi40.png","朋友","Word","朋友","Match","f","true","Formal"
"","","","","","psychophysics","216","587609","0.0-9.0-0.0-0.105","603","","j","","","","","","","","","","","","","key","j","16.666666666666668","768","428","./1_3_Stimuli/T_ambi40.png","他人","Word","朋友","Mismatch","j","true","Formal"
"","","","","","psychophysics","217","589432","0.0-9.0-0.0-0.106","664","","j","","","","","","","","","","","","","key","j","16.666666666666668","768","428","./1_3_Stimuli/C_ambi40.png","朋友","Word","他人","Mismatch","j","true","Formal"
"","","","","","psychophysics","218","591232","0.0-9.0-0.0-0.107","643","","f","","","","","","","","","","","","","key","f","16.66355140186916","768","428","./1_3_Stimuli/T_ambi40.png","朋友","Word","朋友","Match","f","true","Formal"
"","","","","","psychophysics","219","593212","0.0-9.0-0.0-0.108","820","","f","","","","","","","","","","","","","key","f","16.664406779661213","768","428","./1_3_Stimuli/C_ambi40.png","他人","Image","他人","Match","f","true","Formal"
"","","","","","psychophysics","220","594900","0.0-9.0-0.0-0.109","527","","f","","","","","","","","","","","","","key","f","16.67","768","428","./1_3_Stimuli/T_ambi40.png","朋友","Image","朋友","Match","f","true","Formal"
"","","","","","psychophysics","221","596766","0.0-9.0-0.0-0.110","715","","j","","","","","","","","","","","","","key","j","16.666666666666668","768","428","./1_3_Stimuli/T_ambi40.png","他人","Image","朋友","Mismatch","j","true","Formal"
"","","","","","psychophysics","222","598588","0.0-9.0-0.0-0.111","665","","j","","","","","","","","","","","","","key","j","16.665740740739878","768","428","./1_3_Stimuli/C_ambi40.png","朋友","Image","他人","Mismatch","j","true","Formal"
"","","","","","psychophysics","223","600413","0.0-9.0-0.0-0.112","673","","j","","","","","","","","","","","","","key","j","16.664220183486453","768","428","./1_3_Stimuli/T_ambi40.png","自我","Word","朋友","Mismatch","j","true","Formal"
"","","","","","psychophysics","224","602234","0.0-9.0-0.0-0.113","667","","f","","","","","","","","","","","","","key","f","16.666666666666668","768","428","./1_3_Stimuli/S_ambi40.png","朋友","Word","自我","Mismatch","j","false","Formal"
"","","","","","psychophysics","225","603990","0.0-9.0-0.0-0.114","605","","f","","","","","","","","","","","","","key","f","16.664423076923974","768","428","./1_3_Stimuli/C_ambi40.png","他人","Word","他人","Match","f","true","Formal"
"","","","","","psychophysics","226","605901","0.0-9.0-0.0-0.115","761","","j","","","","","","","","","","","","","key","j","16.668141592920353","768","428","./1_3_Stimuli/S_ambi40.png","他人","Word","自我","Mismatch","j","true","Formal"
"","","","","","psychophysics","227","608607","0.0-9.0-0.0-0.116","null","","null","","","","","","","","","","","","","key","null","16.66708074534176","768","428","./1_3_Stimuli/T_ambi40.png","自我","Image","朋友","Mismatch","j","false","Formal"
"","","","","","psychophysics","228","610423","0.0-9.0-0.0-0.117","665","","f","","","","","","","","","","","","","key","f","16.666355140186262","768","428","./1_3_Stimuli/S_ambi40.png","自我","Word","自我","Match","f","true","Formal"
"","","","","","psychophysics","229","612247","0.0-9.0-0.0-0.118","673","","j","","","","","","","","","","","","","key","j","16.664814814814168","768","428","./1_3_Stimuli/C_ambi40.png","自我","Word","他人","Mismatch","j","true","Formal"
"","","","","","psychophysics","230","614430","0.0-9.0-0.0-0.119","1024","","j","","","","","","","","","","","","","key","j","16.664615384615562","768","428","./1_3_Stimuli/S_ambi40.png","他人","Image","自我","Mismatch","j","true","Formal"
"","","","","","html-keyboard-response","231","626716","0.0-9.0-1.0","12284","<style>.context{color:white; font-size: 35px; line-height:40px}</style>                        <div><p class='context'>您正确回答了93% 的试次。</p><p class='context'>您的平均反应时为710毫秒。</p><p> <div style = 'color: green'><按任意键进入休息></div></p>"," ","","","","","","","","","","","","","","","","","","","","","","","","",""
"","","","","","html-button-response","232","686603","0.0-9.0-2.0","59883","
                  <p>您当前还剩余5组实验</p>
                  <p>现在是休息时间，当您结束休息后，您可以点击 结束休息 按钮 继续</p>
                  <p>建议休息时间还剩余<span id=""iii"">60</span>秒</p>","0","","","","","","","","","","","","","","","","","","","","","","","","",""
"","","","","","psychophysics","233","688366","0.0-9.0-0.1-0.120","608","","f","","","","","","","","","","","","","key","f","16.666666666666668","768","428","./1_3_Stimuli/S_ambi40.png","自我","Image","自我","Match","f","true","Formal"
"","","","","","psychophysics","234","690143","0.0-9.0-0.1-0.121","623","","j","","","","","","","","","","","","","key","j","16.666981132075033","768","428","./1_3_Stimuli/T_ambi40.png","他人","Image","朋友","Mismatch","j","true","Formal"
"","","","","","psychophysics","235","692664","0.0-9.0-0.1-0.122","1364","","j","","","","","","","","","","","","","key","j","16.665333333333646","768","428","./1_3_Stimuli/S_ambi40.png","朋友","Image","自我","Mismatch","j","true","Formal"
"","","","","","psychophysics","236","694328","0.0-9.0-0.1-0.123","508","","f","","","","","","","","","","","","","key","f","16.666666666666668","768","428","./1_3_Stimuli/S_ambi40.png","自我","Image","自我","Match","f","true","Formal"
"","","","","","psychophysics","237","696130","0.0-9.0-0.1-0.124","643","","f","","","","","","","","","","","","","key","f","16.666355140187353","768","428","./1_3_Stimuli/T_ambi40.png","朋友","Image","朋友","Match","f","true","Formal"
"","","","","","psychophysics","238","697998","0.0-9.0-0.1-0.125","705","","j","","","","","","","","","","","","","key","j","16.666666666666668","768","428","./1_3_Stimuli/S_ambi40.png","他人","Word","自我","Mismatch","j","true","Formal"
"","","","","","psychophysics","239","699907","0.0-9.0-0.1-0.126","752","","j","","","","","","","","","","","","","key","j","16.667256637168347","768","428","./1_3_Stimuli/T_ambi40.png","自我","Image","朋友","Mismatch","j","true","Formal"
"","","","","","psychophysics","240","701800","0.0-9.0-0.1-0.127","741","","j","","","","","","","","","","","","","key","j","16.66696428571387","768","428","./1_3_Stimuli/S_ambi40.png","朋友","Word","自我","Mismatch","j","true","Formal"
"","","","","","psychophysics","241","703668","0.0-9.0-0.1-0.128","716","","j","","","","","","","","","","","","","key","j","16.666666666666668","768","428","./1_3_Stimuli/T_ambi40.png","自我","Word","朋友","Mismatch","j","true","Formal"
"","","","","","psychophysics","242","705307","0.0-9.0-0.1-0.129","482","","f","","","","","","","","","","","","","key","f","16.668041237112682","768","428","./1_3_Stimuli/S_ambi40.png","自我","Word","自我","Match","f","true","Formal"
"","","","","","psychophysics","243","707107","0.0-9.0-0.1-0.130","649","","j","","","","","","","","","","","","","key","j","16.666981132075033","768","428","./1_3_Stimuli/C_ambi40.png","自我","Image","他人","Mismatch","j","true","Formal"
"","","","","","psychophysics","244","709045","0.0-9.0-0.1-0.131","787","","f","","","","","","","","","","","","","key","f","16.666956521738726","768","428","./1_3_Stimuli/C_ambi40.png","他人","Word","他人","Match","f","true","Formal"
"","","","","","psychophysics","245","710732","0.0-9.0-0.1-0.132","531","","f","","","","","","","","","","","","","key","f","16.665999999999766","768","428","./1_3_Stimuli/T_ambi40.png","朋友","Word","朋友","Match","f","true","Formal"
"","","","","","psychophysics","246","712936","0.0-9.0-0.1-0.133","1044","","j","","","","","","","","","","","","","key","j","16.667175572519263","768","428","./1_3_Stimuli/S_ambi40.png","他人","Image","自我","Mismatch","j","true","Formal"
"","","","","","psychophysics","247","714691","0.0-9.0-0.1-0.134","600","","f","","","","","","","","","","","","","key","f","16.665384615385285","768","428","./1_3_Stimuli/T_ambi40.png","朋友","Image","朋友","Match","f","true","Formal"
"","","","","","psychophysics","248","716468","0.0-9.0-0.1-0.135","626","","j","","","","","","","","","","","","","key","j","16.669523809523145","768","428","./1_3_Stimuli/C_ambi40.png","自我","Word","他人","Mismatch","j","true","Formal"
"","","","","","psychophysics","249","718382","0.0-9.0-0.1-0.136","762","","f","","","","","","","","","","","","","key","f","16.666666666666668","768","428","./1_3_Stimuli/C_ambi40.png","他人","Image","他人","Match","f","true","Formal"
"","","","","","psychophysics","250","720115","0.0-9.0-0.1-0.137","578","","j","","","","","","","","","","","","","key","j","16.666019417476633","768","428","./1_3_Stimuli/C_ambi40.png","朋友","Image","他人","Mismatch","j","true","Formal"
"","","","","","psychophysics","251","721936","0.0-9.0-0.1-0.138","668","","f","","","","","","","","","","","","","key","f","16.665740740740958","768","428","./1_3_Stimuli/T_ambi40.png","朋友","Word","朋友","Match","f","true","Formal"
"","","","","","psychophysics","252","723670","0.0-9.0-0.1-0.139","580","","j","","","","","","","","","","","","","key","j","16.666990291262813","768","428","./1_3_Stimuli/T_ambi40.png","他人","Word","朋友","Mismatch","j","true","Formal"
"","","","","","psychophysics","253","725491","0.0-9.0-0.1-0.140","668","","j","","","","","","","","","","","","","key","j","16.666666666666668","768","428","./1_3_Stimuli/C_ambi40.png","朋友","Word","他人","Mismatch","j","true","Formal"
"","","","","","psychophysics","254","727336","0.0-9.0-0.1-0.141","694","","f","","","","","","","","","","","","","key","f","16.663302752294005","768","428","./1_3_Stimuli/C_ambi40.png","他人","Word","他人","Match","f","true","Formal"
"","","","","","psychophysics","255","729473","0.0-9.0-0.1-0.142","981","","f","","","","","","","","","","","","","key","f","16.66692913385882","768","428","./1_3_Stimuli/S_ambi40.png","自我","Word","自我","Match","f","true","Formal"
"","","","","","psychophysics","256","731164","0.0-9.0-0.1-0.143","539","","j","","","","","","","","","","","","","key","j","16.66899999999907","768","428","./1_3_Stimuli/C_ambi40.png","他人","Image","他人","Match","f","false","Formal"
"","","","","","psychophysics","257","732894","0.0-9.0-0.1-0.144","572","","f","","","","","","","","","","","","","key","f","16.666990291261683","768","428","./1_3_Stimuli/S_ambi40.png","自我","Image","自我","Match","f","true","Formal"
"","","","","","psychophysics","258","734537","0.0-9.0-0.1-0.145","483","","f","","","","","","","","","","","","","key","f","16.66701030927907","768","428","./1_3_Stimuli/S_ambi40.png","自我","Image","自我","Match","f","true","Formal"
"","","","","","psychophysics","259","736269","0.0-9.0-0.1-0.146","577","","j","","","","","","","","","","","","","key","j","16.668932038834047","768","428","./1_3_Stimuli/C_ambi40.png","自我","Word","他人","Mismatch","j","true","Formal"
"","","","","","psychophysics","260","737955","0.0-9.0-0.1-0.147","530","","j","","","","","","","","","","","","","key","j","16.667000000000698","768","428","./1_3_Stimuli/T_ambi40.png","自我","Image","朋友","Mismatch","j","true","Formal"
"","","","","","psychophysics","261","739644","0.0-9.0-0.1-0.148","536","","j","","","","","","","","","","","","","key","j","16.67029702970251","768","428","./1_3_Stimuli/C_ambi40.png","自我","Image","他人","Mismatch","j","true","Formal"
"","","","","","psychophysics","262","741916","0.0-9.0-0.1-0.149","1117","","j","","","","","","","","","","","","","key","j","16.6644444444441","768","428","./1_3_Stimuli/S_ambi40.png","他人","Image","自我","Mismatch","j","true","Formal"
"","","","","","psychophysics","263","743783","0.0-9.0-0.1-0.150","708","","j","","","","","","","","","","","","","key","j","16.663963963963546","768","428","./1_3_Stimuli/C_ambi40.png","朋友","Image","他人","Mismatch","j","true","Formal"
"","","","","","psychophysics","264","745449","0.0-9.0-0.1-0.151","510","","f","","","","","","","","","","","","","key","f","16.667676767676532","768","428","./1_3_Stimuli/T_ambi40.png","朋友","Word","朋友","Match","f","true","Formal"
"","","","","","psychophysics","265","747203","0.0-9.0-0.1-0.152","596","","j","","","","","","","","","","","","","key","j","16.667307692307915","768","428","./1_3_Stimuli/S_ambi40.png","朋友","Image","自我","Mismatch","j","true","Formal"
"","","","","","psychophysics","266","749025","0.0-9.0-0.1-0.153","666","","j","","","","","","","","","","","","","key","j","16.666666666666668","768","428","./1_3_Stimuli/C_ambi40.png","他人","Image","他人","Match","f","false","Formal"
"","","","","","psychophysics","267","750938","0.0-9.0-0.1-0.154","762","","j","","","","","","","","","","","","","key","j","16.66637168141531","768","428","./1_3_Stimuli/T_ambi40.png","他人","Word","朋友","Mismatch","j","true","Formal"
"","","","","","psychophysics","268","752626","0.0-9.0-0.1-0.155","534","","f","","","","","","","","","","","","","key","f","16.666336633662674","768","428","./1_3_Stimuli/S_ambi40.png","自我","Word","自我","Match","f","true","Formal"
"","","","","","psychophysics","269","754673","0.0-9.0-0.1-0.156","882","","f","","","","","","","","","","","","","key","f","16.666115702479146","768","428","./1_3_Stimuli/S_ambi40.png","自我","Word","自我","Match","f","true","Formal"
"","","","","","psychophysics","270","756428","0.0-9.0-0.1-0.157","603","","j","","","","","","","","","","","","","key","j","16.666666666666668","768","428","./1_3_Stimuli/T_ambi40.png","自我","Word","朋友","Mismatch","j","true","Formal"
"","","","","","psychophysics","271","758116","0.0-9.0-0.1-0.158","526","","f","","","","","","","","","","","","","key","f","16.666999999999533","768","428","./1_3_Stimuli/T_ambi40.png","朋友","Word","朋友","Match","f","true","Formal"
"","","","","","psychophysics","272","759849","0.0-9.0-0.1-0.159","574","","f","","","","","","","","","","","","","key","f","16.666019417475503","768","428","./1_3_Stimuli/T_ambi40.png","朋友","Image","朋友","Match","f","true","Formal"
"","","","","","psychophysics","273","761582","0.0-9.0-0.1-0.160","575","","f","","","","","","","","","","","","","key","f","16.666990291262813","768","428","./1_3_Stimuli/T_ambi40.png","朋友","Image","朋友","Match","f","true","Formal"
"","","","","","psychophysics","274","763427","0.0-9.0-0.1-0.161","690","","j","","","","","","","","","","","","","key","j","16.6645454545463","768","428","./1_3_Stimuli/S_ambi40.png","朋友","Word","自我","Mismatch","j","true","Formal"
"","","","","","psychophysics","275","765294","0.0-9.0-0.1-0.162","710","","j","","","","","","","","","","","","","key","j","16.663963963963546","768","428","./1_3_Stimuli/T_ambi40.png","他人","Image","朋友","Mismatch","j","true","Formal"
"","","","","","psychophysics","276","766981","0.0-9.0-0.1-0.163","524","","f","","","","","","","","","","","","","key","f","16.663000000000466","768","428","./1_3_Stimuli/C_ambi40.png","他人","Word","他人","Match","f","true","Formal"
"","","","","","psychophysics","277","768691","0.0-9.0-0.1-0.164","548","","j","","","","","","","","","","","","","key","j","16.665346534654155","768","428","./1_3_Stimuli/S_ambi40.png","他人","Word","自我","Mismatch","j","true","Formal"
"","","","","","psychophysics","278","770311","0.0-9.0-0.1-0.165","469","","f","","","","","","","","","","","","","key","f","16.66979166666715","768","428","./1_3_Stimuli/C_ambi40.png","他人","Word","他人","Match","f","true","Formal"
"","","","","","psychophysics","279","772111","0.0-9.0-0.1-0.166","643","","j","","","","","","","","","","","","","key","j","16.6672897196253","768","428","./1_3_Stimuli/C_ambi40.png","朋友","Word","他人","Mismatch","j","true","Formal"
"","","","","","psychophysics","280","774070","0.0-9.0-0.1-0.167","795","","f","","","","","","","","","","","","","key","f","16.669827586206495","768","428","./1_3_Stimuli/C_ambi40.png","他人","Image","他人","Match","f","true","Formal"
"","","","","","psychophysics","281","775712","0.0-9.0-0.1-0.168","487","","f","","","","","","","","","","","","","key","f","16.667346938775747","768","428","./1_3_Stimuli/S_ambi40.png","自我","Image","自我","Match","f","true","Formal"
"","","","","","psychophysics","282","777579","0.0-9.0-0.1-0.169","704","","f","","","","","","","","","","","","","key","f","16.666666666666668","768","428","./1_3_Stimuli/C_ambi40.png","他人","Word","他人","Match","f","true","Formal"
"","","","","","psychophysics","283","779356","0.0-9.0-0.1-0.170","620","","j","","","","","","","","","","","","","key","j","16.663809523809082","768","428","./1_3_Stimuli/C_ambi40.png","朋友","Word","他人","Mismatch","j","true","Formal"
"","","","","","psychophysics","284","781044","0.0-9.0-0.1-0.171","535","","f","","","","","","","","","","","","","key","f","16.667326732673498","768","428","./1_3_Stimuli/C_ambi40.png","他人","Word","他人","Match","f","true","Formal"
"","","","","","psychophysics","285","782733","0.0-9.0-0.1-0.172","532","","f","","","","","","","","","","","","","key","f","16.665999999999766","768","428","./1_3_Stimuli/S_ambi40.png","自我","Word","自我","Match","f","true","Formal"
"","","","","","psychophysics","286","784510","0.0-9.0-0.1-0.173","618","","j","","","","","","","","","","","","","key","j","16.66698113207613","768","428","./1_3_Stimuli/T_ambi40.png","自我","Word","朋友","Mismatch","j","true","Formal"
"","","","","","psychophysics","287","786287","0.0-9.0-0.1-0.174","621","","j","","","","","","","","","","","","","key","j","16.666666666666668","768","428","./1_3_Stimuli/S_ambi40.png","朋友","Word","自我","Mismatch","j","true","Formal"
"","","","","","psychophysics","288","787996","0.0-9.0-0.1-0.175","554","","j","","","","","","","","","","","","","key","j","16.666666666666668","768","428","./1_3_Stimuli/C_ambi40.png","朋友","Image","他人","Mismatch","j","true","Formal"
"","","","","","psychophysics","289","789910","0.0-9.0-0.1-0.176","758","","j","","","","","","","","","","","","","key","j","16.66754385964892","768","428","./1_3_Stimuli/C_ambi40.png","自我","Word","他人","Mismatch","j","true","Formal"
"","","","","","psychophysics","290","791573","0.0-9.0-0.1-0.177","500","","f","","","","","","","","","","","","","key","f","16.664285714286663","768","428","./1_3_Stimuli/S_ambi40.png","自我","Image","自我","Match","f","true","Formal"
"","","","","","psychophysics","291","793305","0.0-9.0-0.1-0.178","580","","j","","","","","","","","","","","","","key","j","16.668932038835177","768","428","./1_3_Stimuli/T_ambi40.png","自我","Image","朋友","Mismatch","j","true","Formal"
"","","","","","psychophysics","292","795016","0.0-9.0-0.1-0.179","557","","j","","","","","","","","","","","","","key","j","16.666666666666668","768","428","./1_3_Stimuli/C_ambi40.png","自我","Image","他人","Mismatch","j","true","Formal"
"","","","","","psychophysics","293","796727","0.0-9.0-0.1-0.180","558","","j","","","","","","","","","","","","","key","j","16.667647058823302","768","428","./1_3_Stimuli/T_ambi40.png","他人","Image","朋友","Mismatch","j","true","Formal"
"","","","","","psychophysics","294","798390","0.0-9.0-0.1-0.181","510","","f","","","","","","","","","","","","","key","f","16.66632653061272","768","428","./1_3_Stimuli/T_ambi40.png","朋友","Word","朋友","Match","f","true","Formal"
"","","","","","psychophysics","295","800079","0.0-9.0-0.1-0.182","536","","f","","","","","","","","","","","","","key","f","16.666999999999533","768","428","./1_3_Stimuli/T_ambi40.png","朋友","Image","朋友","Match","f","true","Formal"
"","","","","","psychophysics","296","801856","0.0-9.0-0.1-0.183","621","","f","","","","","","","","","","","","","key","f","16.666666666666668","768","428","./1_3_Stimuli/S_ambi40.png","自我","Word","自我","Match","f","true","Formal"
"","","","","","psychophysics","297","803700","0.0-9.0-0.1-0.184","692","","j","","","","","","","","","","","","","key","j","16.66545454545412","768","428","./1_3_Stimuli/S_ambi40.png","朋友","Image","自我","Mismatch","j","true","Formal"
"","","","","","psychophysics","298","805412","0.0-9.0-0.1-0.185","553","","j","","","","","","","","","","","","","key","j","16.663725490196764","768","428","./1_3_Stimuli/T_ambi40.png","他人","Word","朋友","Mismatch","j","true","Formal"
"","","","","","psychophysics","299","807120","0.0-9.0-0.1-0.186","549","","f","","","","","","","","","","","","","key","f","16.66633663366383","768","428","./1_3_Stimuli/T_ambi40.png","朋友","Image","朋友","Match","f","true","Formal"
"","","","","","psychophysics","300","808966","0.0-9.0-0.1-0.187","691","","f","","","","","","","","","","","","","key","f","16.667272727272938","768","428","./1_3_Stimuli/C_ambi40.png","他人","Image","他人","Match","f","true","Formal"
"","","","","","psychophysics","301","810698","0.0-9.0-0.1-0.188","573","","j","","","","","","","","","","","","","key","j","16.66990291262136","768","428","./1_3_Stimuli/S_ambi40.png","他人","Word","自我","Mismatch","j","true","Formal"
"","","","","","psychophysics","302","812364","0.0-9.0-0.1-0.189","513","","f","","","","","","","","","","","","","key","f","16.6656565656568","768","428","./1_3_Stimuli/T_ambi40.png","朋友","Word","朋友","Match","f","true","Formal"
"","","","","","psychophysics","303","814117","0.0-9.0-0.1-0.190","594","","j","","","","","","","","","","","","","key","j","16.669230769230545","768","428","./1_3_Stimuli/S_ambi40.png","他人","Image","自我","Mismatch","j","true","Formal"
"","","","","","psychophysics","304","815829","0.0-9.0-0.1-0.191","558","","j","","","","","","","","","","","","","key","j","16.665686274510033","768","428","./1_3_Stimuli/C_ambi40.png","他人","Image","他人","Match","f","false","Formal"
"","","","","","psychophysics","305","817696","0.0-9.0-0.1-0.192","713","","f","","","","","","","","","","","","","key","f","16.67027027026943","768","428","./1_3_Stimuli/T_ambi40.png","朋友","Word","朋友","Match","f","true","Formal"
"","","","","","psychophysics","306","819968","0.0-9.0-0.1-0.193","1120","","j","","","","","","","","","","","","","key","j","16.66518518518553","768","428","./1_3_Stimuli/S_ambi40.png","他人","Word","自我","Mismatch","j","true","Formal"
"","","","","","psychophysics","307","821612","0.0-9.0-0.1-0.194","486","","f","","","","","","","","","","","","","key","f","16.667346938775747","768","428","./1_3_Stimuli/T_ambi40.png","朋友","Word","朋友","Match","f","true","Formal"
"","","","","","psychophysics","308","823186","0.0-9.0-0.1-0.195","419","","f","","","","","","","","","","","","","key","f","16.665591397849713","768","428","./1_3_Stimuli/S_ambi40.png","自我","Word","自我","Match","f","true","Formal"
"","","","","","psychophysics","309","825098","0.0-9.0-0.1-0.196","756","","j","","","","","","","","","","","","","key","j","16.666666666666668","768","428","./1_3_Stimuli/S_ambi40.png","自我","Image","自我","Match","f","false","Formal"
"","","","","","psychophysics","310","826899","0.0-9.0-0.1-0.197","648","","j","","","","","","","","","","","","","key","j","16.667289719626385","768","428","./1_3_Stimuli/T_ambi40.png","自我","Word","朋友","Mismatch","j","true","Formal"
"","","","","","psychophysics","311","828788","0.0-9.0-0.1-0.198","730","","j","","","","","","","","","","","","","key","j","16.665178571428573","768","428","./1_3_Stimuli/S_ambi40.png","他人","Image","自我","Mismatch","j","true","Formal"
"","","","","","psychophysics","312","830680","0.0-9.0-0.1-0.199","738","","f","","","","","","","","","","","","","key","f","16.66637168141531","768","428","./1_3_Stimuli/C_ambi40.png","他人","Word","他人","Match","f","true","Formal"
"","","","","","psychophysics","313","832412","0.0-9.0-0.1-0.200","576","","f","","","","","","","","","","","","","key","f","16.66407766990314","768","428","./1_3_Stimuli/S_ambi40.png","自我","Image","自我","Match","f","true","Formal"
"","","","","","psychophysics","314","834346","0.0-9.0-0.1-0.201","779","","j","","","","","","","","","","","","","key","j","16.66695652173974","768","428","./1_3_Stimuli/T_ambi40.png","他人","Word","朋友","Mismatch","j","true","Formal"
"","","","","","psychophysics","315","836078","0.0-9.0-0.1-0.202","575","","f","","","","","","","","","","","","","key","f","16.66407766990201","768","428","./1_3_Stimuli/S_ambi40.png","自我","Word","自我","Match","f","true","Formal"
"","","","","","psychophysics","316","838172","0.0-9.0-0.1-0.203","935","","j","","","","","","","","","","","","","key","j","16.66370967741879","768","428","./1_3_Stimuli/T_ambi40.png","他人","Image","朋友","Mismatch","j","true","Formal"
"","","","","","psychophysics","317","839792","0.0-9.0-0.1-0.204","466","","f","","","","","","","","","","","","","key","f","16.667708333333092","768","428","./1_3_Stimuli/C_ambi40.png","他人","Image","他人","Match","f","true","Formal"
"","","","","","psychophysics","318","841412","0.0-9.0-0.1-0.205","469","","f","","","","","","","","","","","","","key","f","16.66979166666715","768","428","./1_3_Stimuli/C_ambi40.png","他人","Word","他人","Match","f","true","Formal"
"","","","","","psychophysics","319","843347","0.0-9.0-0.1-0.206","781","","f","","","","","","","","","","","","","key","f","16.666956521738726","768","428","./1_3_Stimuli/T_ambi40.png","朋友","Image","朋友","Match","f","true","Formal"
"","","","","","psychophysics","320","845259","0.0-9.0-0.1-0.207","750","","f","","","","","","","","","","","","","key","f","16.66902654867339","768","428","./1_3_Stimuli/C_ambi40.png","他人","Image","他人","Match","f","true","Formal"
"","","","","","psychophysics","321","847014","0.0-9.0-0.1-0.208","604","","j","","","","","","","","","","","","","key","j","16.667307692306796","768","428","./1_3_Stimuli/C_ambi40.png","朋友","Word","他人","Mismatch","j","true","Formal"
"","","","","","psychophysics","322","848681","0.0-9.0-0.1-0.209","505","","j","","","","","","","","","","","","","key","j","16.6656565656568","768","428","./1_3_Stimuli/S_ambi40.png","朋友","Word","自我","Mismatch","j","true","Formal"
"","","","","","psychophysics","323","850546","0.0-9.0-0.1-0.210","707","","j","","","","","","","","","","","","","key","j","16.664864864865283","768","428","./1_3_Stimuli/T_ambi40.png","自我","Image","朋友","Mismatch","j","true","Formal"
"","","","","","psychophysics","324","852188","0.0-9.0-0.1-0.211","489","","f","","","","","","","","","","","","","key","f","16.663917525773435","768","428","./1_3_Stimuli/T_ambi40.png","朋友","Image","朋友","Match","f","true","Formal"
"","","","","","psychophysics","325","854618","0.0-9.0-0.1-0.212","1276","","j","","","","","","","","","","","","","key","j","16.666206896551564","768","428","./1_3_Stimuli/C_ambi40.png","朋友","Image","他人","Mismatch","j","true","Formal"
"","","","","","psychophysics","326","856485","0.0-9.0-0.1-0.213","714","","j","","","","","","","","","","","","","key","j","16.666666666666668","768","428","./1_3_Stimuli/C_ambi40.png","自我","Image","他人","Mismatch","j","true","Formal"
"","","","","","psychophysics","327","858308","0.0-9.0-0.1-0.214","666","","j","","","","","","","","","","","","","key","j","16.666666666666668","768","428","./1_3_Stimuli/S_ambi40.png","朋友","Image","自我","Mismatch","j","true","Formal"
"","","","","","psychophysics","328","860268","0.0-9.0-0.1-0.215","809","","j","","","","","","","","","","","","","key","j","16.667241379310546","768","428","./1_3_Stimuli/C_ambi40.png","自我","Word","他人","Mismatch","j","true","Formal"
"","","","","","psychophysics","329","862270","0.0-9.0-0.1-0.216","844","","j","","","","","","","","","","","","","key","j","16.6672268907565","768","428","./1_3_Stimuli/T_ambi40.png","他人","Word","朋友","Mismatch","j","true","Formal"
"","","","","","psychophysics","330","864046","0.0-9.0-0.1-0.217","622","","j","","","","","","","","","","","","","key","j","16.666037735848835","768","428","./1_3_Stimuli/C_ambi40.png","朋友","Image","他人","Mismatch","j","true","Formal"
"","","","","","psychophysics","331","865959","0.0-9.0-0.1-0.218","754","","f","","","","","","","","","","","","","key","f","16.667256637167316","768","428","./1_3_Stimuli/C_ambi40.png","他人","Word","他人","Match","f","true","Formal"
"","","","","","psychophysics","332","867983","0.0-9.0-0.1-0.219","873","","j","","","","","","","","","","","","","key","j","16.666666666666668","768","428","./1_3_Stimuli/T_ambi40.png","自我","Image","朋友","Mismatch","j","true","Formal"
"","","","","","psychophysics","333","869745","0.0-9.0-0.1-0.220","603","","j","","","","","","","","","","","","","key","j","16.666666666666668","768","428","./1_3_Stimuli/C_ambi40.png","朋友","Word","他人","Mismatch","j","true","Formal"
"","","","","","psychophysics","334","871540","0.0-9.0-0.1-0.221","642","","f","","","","","","","","","","","","","key","f","16.666981132075033","768","428","./1_3_Stimuli/S_ambi40.png","自我","Image","自我","Match","f","true","Formal"
"","","","","","psychophysics","335","873158","0.0-9.0-0.1-0.222","466","","f","","","","","","","","","","","","","key","f","16.665625000000244","768","428","./1_3_Stimuli/T_ambi40.png","朋友","Image","朋友","Match","f","true","Formal"
"","","","","","psychophysics","336","874824","0.0-9.0-0.1-0.223","514","","f","","","","","","","","","","","","","key","f","16.667346938775747","768","428","./1_3_Stimuli/T_ambi40.png","朋友","Image","朋友","Match","f","true","Formal"
"","","","","","psychophysics","337","876444","0.0-9.0-0.1-0.224","469","","f","","","","","","","","","","","","","key","f","16.667708333334303","768","428","./1_3_Stimuli/T_ambi40.png","朋友","Word","朋友","Match","f","true","Formal"
"","","","","","psychophysics","338","878558","0.0-9.0-0.1-0.225","960","","j","","","","","","","","","","","","","key","j","16.667199999999255","768","428","./1_3_Stimuli/T_ambi40.png","他人","Image","朋友","Mismatch","j","true","Formal"
"","","","","","psychophysics","339","880270","0.0-9.0-0.1-0.226","561","","j","","","","","","","","","","","","","key","j","16.667326732673498","768","428","./1_3_Stimuli/C_ambi40.png","自我","Word","他人","Mismatch","j","true","Formal"
"","","","","","psychophysics","340","882024","0.0-9.0-0.1-0.227","599","","j","","","","","","","","","","","","","key","j","16.667307692307915","768","428","./1_3_Stimuli/S_ambi40.png","朋友","Image","自我","Mismatch","j","true","Formal"
"","","","","","psychophysics","341","883712","0.0-9.0-0.1-0.228","536","","f","","","","","","","","","","","","","key","f","16.666999999999533","768","428","./1_3_Stimuli/C_ambi40.png","他人","Word","他人","Match","f","true","Formal"
"","","","","","psychophysics","342","885511","0.0-9.0-0.1-0.229","642","","f","","","","","","","","","","","","","key","f","16.666355140186262","768","428","./1_3_Stimuli/S_ambi40.png","自我","Image","自我","Match","f","true","Formal"
"","","","","","psychophysics","343","887200","0.0-9.0-0.1-0.230","534","","j","","","","","","","","","","","","","key","j","16.668000000000465","768","428","./1_3_Stimuli/S_ambi40.png","他人","Word","自我","Mismatch","j","true","Formal"
"","","","","","psychophysics","344","889135","0.0-9.0-0.1-0.231","783","","f","","","","","","","","","","","","","key","f","16.667826086955916","768","428","./1_3_Stimuli/C_ambi40.png","他人","Image","他人","Match","f","true","Formal"
"","","","","","psychophysics","345","890868","0.0-9.0-0.1-0.232","580","","j","","","","","","","","","","","","","key","j","16.67087378640754","768","428","./1_3_Stimuli/S_ambi40.png","朋友","Word","自我","Mismatch","j","true","Formal"
"","","","","","psychophysics","346","892601","0.0-9.0-0.1-0.233","578","","f","","","","","","","","","","","","","key","f","16.66990291262136","768","428","./1_3_Stimuli/C_ambi40.png","他人","Image","他人","Match","f","true","Formal"
"","","","","","psychophysics","347","894376","0.0-9.0-0.1-0.234","622","","j","","","","","","","","","","","","","key","j","16.666981132075033","768","428","./1_3_Stimuli/T_ambi40.png","自我","Word","朋友","Mismatch","j","true","Formal"
"","","","","","psychophysics","348","896040","0.0-9.0-0.1-0.235","508","","f","","","","","","","","","","","","","key","f","16.663265306122447","768","428","./1_3_Stimuli/S_ambi40.png","自我","Word","自我","Match","f","true","Formal"
"","","","","","psychophysics","349","897818","0.0-9.0-0.1-0.236","625","","j","","","","","","","","","","","","","key","j","16.666037735848835","768","428","./1_3_Stimuli/S_ambi40.png","他人","Image","自我","Mismatch","j","true","Formal"
"","","","","","psychophysics","350","899438","0.0-9.0-0.1-0.237","463","","f","","","","","","","","","","","","","key","f","16.667708333333092","768","428","./1_3_Stimuli/T_ambi40.png","朋友","Word","朋友","Match","f","true","Formal"
"","","","","","psychophysics","351","901104","0.0-9.0-0.1-0.238","513","","f","","","","","","","","","","","","","key","f","16.666666666666668","768","428","./1_3_Stimuli/S_ambi40.png","自我","Word","自我","Match","f","true","Formal"
"","","","","","psychophysics","352","902859","0.0-9.0-0.1-0.239","602","","j","","","","","","","","","","","","","key","j","16.669230769230545","768","428","./1_3_Stimuli/C_ambi40.png","自我","Image","他人","Mismatch","j","true","Formal"
"","","","","","html-keyboard-response","353","907943","0.0-9.0-1.1","5083","<style>.context{color:white; font-size: 35px; line-height:40px}</style>                        <div><p class='context'>您正确回答了97% 的试次。</p><p class='context'>您的平均反应时为647毫秒。</p><p> <div style = 'color: green'><按任意键进入休息></div></p>"," ","","","","","","","","","","","","","","","","","","","","","","","","",""
"","","","","","html-button-response","354","965136","0.0-9.0-2.1","57188","
                  <p>您当前还剩余4组实验</p>
                  <p>现在是休息时间，当您结束休息后，您可以点击 结束休息 按钮 继续</p>
                  <p>建议休息时间还剩余<span id=""iii"">60</span>秒</p>","0","","","","","","","","","","","","","","","","","","","","","","","","",""
"","","","","","psychophysics","355","966985","0.0-9.0-0.2-0.240","688","","j","","","","","","","","","","","","","key","j","16.668181818181818","768","428","./1_3_Stimuli/S_ambi40.png","他人","Word","自我","Mismatch","j","true","Formal"
"","","","","","psychophysics","356","968672","0.0-9.0-0.2-0.241","530","","j","","","","","","","","","","","","","key","j","16.665999999999766","768","428","./1_3_Stimuli/T_ambi40.png","自我","Word","朋友","Mismatch","j","true","Formal"
"","","","","","psychophysics","357","970383","0.0-9.0-0.2-0.242","557","","f","","","","","","","","","","","","","key","f","16.667326732672347","768","428","./1_3_Stimuli/C_ambi40.png","他人","Image","他人","Match","f","true","Formal"
"","","","","","psychophysics","358","972071","0.0-9.0-0.2-0.243","535","","j","","","","","","","","","","","","","key","j","16.666999999999533","768","428","./1_3_Stimuli/C_ambi40.png","自我","Word","他人","Mismatch","j","true","Formal"
"","","","","","psychophysics","359","973646","0.0-9.0-0.2-0.244","419","","f","","","","","","","","","","","","","key","f","16.668085106383476","768","428","./1_3_Stimuli/T_ambi40.png","朋友","Word","朋友","Match","f","true","Formal"
"","","","","","psychophysics","360","975356","0.0-9.0-0.2-0.245","547","","f","","","","","","","","","","","","","key","f","16.663366336633665","768","428","./1_3_Stimuli/S_ambi40.png","自我","Image","自我","Match","f","true","Formal"
"","","","","","psychophysics","361","977110","0.0-9.0-0.2-0.246","599","","j","","","","","","","","","","","","","key","j","16.66826923076923","768","428","./1_3_Stimuli/C_ambi40.png","朋友","Word","他人","Mismatch","j","true","Formal"
"","","","","","psychophysics","362","978933","0.0-9.0-0.2-0.247","673","","j","","","","","","","","","","","","","key","j","16.667592592593454","768","428","./1_3_Stimuli/C_ambi40.png","朋友","Image","他人","Mismatch","j","true","Formal"
"","","","","","psychophysics","363","980553","0.0-9.0-0.2-0.248","460","","f","","","","","","","","","","","","","key","f","16.666666666666668","768","428","./1_3_Stimuli/T_ambi40.png","朋友","Image","朋友","Match","f","true","Formal"
"","","","","","psychophysics","364","982172","0.0-9.0-0.2-0.249","466","","f","","","","","","","","","","","","","key","f","16.66562499999903","768","428","./1_3_Stimuli/S_ambi40.png","自我","Word","自我","Match","f","true","Formal"
"","","","","","psychophysics","365","983883","0.0-9.0-0.2-0.250","556","","f","","","","","","","","","","","","","key","f","16.666666666666668","768","428","./1_3_Stimuli/C_ambi40.png","他人","Word","他人","Match","f","true","Formal"
"","","","","","psychophysics","366","985504","0.0-9.0-0.2-0.251","465","","j","","","","","","","","","","","","","key","j","16.66979166666594","768","428","./1_3_Stimuli/T_ambi40.png","他人","Word","朋友","Mismatch","j","true","Formal"
"","","","","","psychophysics","367","987191","0.0-9.0-0.2-0.252","532","","j","","","","","","","","","","","","","key","j","16.665","768","428","./1_3_Stimuli/S_ambi40.png","朋友","Image","自我","Mismatch","j","true","Formal"
"","","","","","psychophysics","368","988788","0.0-9.0-0.2-0.253","444","","j","","","","","","","","","","","","","key","j","16.667368421052878","768","428","./1_3_Stimuli/C_ambi40.png","他人","Image","他人","Match","f","false","Formal"
"","","","","","psychophysics","369","990407","0.0-9.0-0.2-0.254","464","","f","","","","","","","","","","","","","key","f","16.670833333333576","768","428","./1_3_Stimuli/S_ambi40.png","自我","Word","自我","Match","f","true","Formal"
"","","","","","psychophysics","370","992208","0.0-9.0-0.2-0.255","648","","j","","","","","","","","","","","","","key","j","16.670093457944578","768","428","./1_3_Stimuli/C_ambi40.png","自我","Image","他人","Mismatch","j","true","Formal"
"","","","","","psychophysics","371","993828","0.0-9.0-0.2-0.256","467","","f","","","","","","","","","","","","","key","f","16.66597938144426","768","428","./1_3_Stimuli/T_ambi40.png","朋友","Word","朋友","Match","f","true","Formal"
"","","","","","psychophysics","372","995426","0.0-9.0-0.2-0.257","448","","f","","","","","","","","","","","","","key","f","16.664893617021278","768","428","./1_3_Stimuli/S_ambi40.png","自我","Image","自我","Match","f","true","Formal"
"","","","","","psychophysics","373","997181","0.0-9.0-0.2-0.258","604","","j","","","","","","","","","","","","","key","j","16.66346153846154","768","428","./1_3_Stimuli/T_ambi40.png","他人","Image","朋友","Mismatch","j","true","Formal"
"","","","","","psychophysics","374","999296","0.0-9.0-0.2-0.259","960","","j","","","","","","","","","","","","","key","j","16.668253968253598","768","428","./1_3_Stimuli/S_ambi40.png","朋友","Word","自我","Mismatch","j","true","Formal"
"","","","","","psychophysics","375","1001028","0.0-9.0-0.2-0.260","571","","f","","","","","","","","","","","","","key","f","16.666019417476633","768","428","./1_3_Stimuli/T_ambi40.png","朋友","Image","朋友","Match","f","true","Formal"
"","","","","","psychophysics","376","1002760","0.0-9.0-0.2-0.261","581","","f","","","","","","","","","","","","","key","f","16.66372549019562","768","428","./1_3_Stimuli/C_ambi40.png","他人","Word","他人","Match","f","true","Formal"
"","","","","","psychophysics","377","1004539","0.0-9.0-0.2-0.262","628","","j","","","","","","","","","","","","","key","j","16.666666666666668","768","428","./1_3_Stimuli/T_ambi40.png","自我","Image","朋友","Mismatch","j","true","Formal"
"","","","","","psychophysics","378","1006384","0.0-9.0-0.2-0.263","690","","j","","","","","","","","","","","","","key","j","16.668181818181818","768","428","./1_3_Stimuli/S_ambi40.png","他人","Image","自我","Mismatch","j","true","Formal"
"","","","","","psychophysics","379","1008185","0.0-9.0-0.2-0.264","645","","f","","","","","","","","","","","","","key","f","16.66355140186916","768","428","./1_3_Stimuli/T_ambi40.png","朋友","Image","朋友","Match","f","true","Formal"
"","","","","","psychophysics","380","1009892","0.0-9.0-0.2-0.265","550","","j","","","","","","","","","","","","","key","j","16.66633663366383","768","428","./1_3_Stimuli/C_ambi40.png","自我","Image","他人","Mismatch","j","true","Formal"
"","","","","","psychophysics","381","1011692","0.0-9.0-0.2-0.266","648","","f","","","","","","","","","","","","","key","f","16.663207547170252","768","428","./1_3_Stimuli/S_ambi40.png","自我","Image","自我","Match","f","true","Formal"
"","","","","","psychophysics","382","1013291","0.0-9.0-0.2-0.267","448","","f","","","","","","","","","","","","","key","f","16.667021276596486","768","428","./1_3_Stimuli/C_ambi40.png","他人","Word","他人","Match","f","true","Formal"
"","","","","","psychophysics","383","1015089","0.0-9.0-0.2-0.268","646","","j","","","","","","","","","","","","","key","j","16.665420560748316","768","428","./1_3_Stimuli/T_ambi40.png","自我","Image","朋友","Mismatch","j","true","Formal"
"","","","","","psychophysics","384","1016822","0.0-9.0-0.2-0.269","578","","j","","","","","","","","","","","","","key","j","16.666990291262813","768","428","./1_3_Stimuli/S_ambi40.png","朋友","Word","自我","Mismatch","j","true","Formal"
"","","","","","psychophysics","385","1018510","0.0-9.0-0.2-0.270","533","","f","","","","","","","","","","","","","key","f","16.667999999999303","768","428","./1_3_Stimuli/T_ambi40.png","朋友","Image","朋友","Match","f","true","Formal"
"","","","","","psychophysics","386","1020513","0.0-9.0-0.2-0.271","852","","j","","","","","","","","","","","","","key","j","16.668907563025016","768","428","./1_3_Stimuli/C_ambi40.png","自我","Word","他人","Mismatch","j","true","Formal"
"","","","","","psychophysics","387","1022651","0.0-9.0-0.2-0.272","976","","j","","","","","","","","","","","","","key","j","16.66771653543344","768","428","./1_3_Stimuli/S_ambi40.png","他人","Image","自我","Mismatch","j","true","Formal"
"","","","","","psychophysics","388","1024226","0.0-9.0-0.2-0.273","422","","f","","","","","","","","","","","","","key","f","16.66236559139885","768","428","./1_3_Stimuli/C_ambi40.png","他人","Word","他人","Match","f","true","Formal"
"","","","","","psychophysics","389","1026005","0.0-9.0-0.2-0.274","628","","j","","","","","","","","","","","","","key","j","16.668571428572093","768","428","./1_3_Stimuli/C_ambi40.png","朋友","Word","他人","Mismatch","j","true","Formal"
"","","","","","psychophysics","390","1027736","0.0-9.0-0.2-0.275","576","","f","","","","","","","","","","","","","key","f","16.666019417475503","768","428","./1_3_Stimuli/C_ambi40.png","他人","Image","他人","Match","f","true","Formal"
"","","","","","psychophysics","391","1029718","0.0-9.0-0.2-0.276","824","","f","","","","","","","","","","","","","key","f","16.66949152542373","768","428","./1_3_Stimuli/T_ambi40.png","朋友","Word","朋友","Match","f","true","Formal"
"","","","","","psychophysics","392","1031449","0.0-9.0-0.2-0.277","575","","j","","","","","","","","","","","","","key","j","16.666990291261683","768","428","./1_3_Stimuli/S_ambi40.png","朋友","Image","自我","Mismatch","j","true","Formal"
"","","","","","psychophysics","393","1033272","0.0-9.0-0.2-0.278","668","","j","","","","","","","","","","","","","key","j","16.668518518518088","768","428","./1_3_Stimuli/T_ambi40.png","他人","Word","朋友","Mismatch","j","true","Formal"
"","","","","","psychophysics","394","1034915","0.0-9.0-0.2-0.279","488","","f","","","","","","","","","","","","","key","f","16.669387755101802","768","428","./1_3_Stimuli/S_ambi40.png","自我","Word","自我","Match","f","true","Formal"
"","","","","","psychophysics","395","1036738","0.0-9.0-0.2-0.280","669","","j","","","","","","","","","","","","","key","j","16.666666666666668","768","428","./1_3_Stimuli/S_ambi40.png","他人","Word","自我","Mismatch","j","true","Formal"
"","","","","","psychophysics","396","1038469","0.0-9.0-0.2-0.281","575","","f","","","","","","","","","","","","","key","f","16.666019417475503","768","428","./1_3_Stimuli/S_ambi40.png","自我","Word","自我","Match","f","true","Formal"
"","","","","","psychophysics","397","1040202","0.0-9.0-0.2-0.282","578","","f","","","","","","","","","","","","","key","f","16.666990291262813","768","428","./1_3_Stimuli/S_ambi40.png","自我","Image","自我","Match","f","true","Formal"
"","","","","","psychophysics","398","1041912","0.0-9.0-0.2-0.283","550","","f","","","","","","","","","","","","","key","f","16.667647058823302","768","428","./1_3_Stimuli/C_ambi40.png","他人","Image","他人","Match","f","true","Formal"
"","","","","","psychophysics","399","1043621","0.0-9.0-0.2-0.284","559","","j","","","","","","","","","","","","","key","j","16.66633663366383","768","428","./1_3_Stimuli/C_ambi40.png","朋友","Image","他人","Mismatch","j","true","Formal"
"","","","","","psychophysics","400","1045375","0.0-9.0-0.2-0.285","598","","j","","","","","","","","","","","","","key","j","16.667307692306796","768","428","./1_3_Stimuli/T_ambi40.png","他人","Image","朋友","Mismatch","j","true","Formal"
"","","","","","psychophysics","401","1047334","0.0-9.0-0.2-0.286","791","","j","","","","","","","","","","","","","key","j","21.908988764046512","768","428","./1_3_Stimuli/T_ambi40.png","自我","Word","朋友","Mismatch","j","true","Formal"
"","","","","","psychophysics","402","1049224","0.0-9.0-0.2-0.287","736","","f","","","","","","","","","","","","","key","f","16.66607142857226","768","428","./1_3_Stimuli/T_ambi40.png","朋友","Word","朋友","Match","f","true","Formal"
"","","","","","psychophysics","403","1050911","0.0-9.0-0.2-0.288","535","","f","","","","","","","","","","","","","key","f","16.666999999999533","768","428","./1_3_Stimuli/T_ambi40.png","朋友","Image","朋友","Match","f","true","Formal"
"","","","","","psychophysics","404","1052665","0.0-9.0-0.2-0.289","603","","j","","","","","","","","","","","","","key","j","16.6663461538466","768","428","./1_3_Stimuli/T_ambi40.png","他人","Image","朋友","Mismatch","j","true","Formal"
"","","","","","psychophysics","405","1054331","0.0-9.0-0.2-0.290","504","","f","","","","","","","","","","","","","key","f","16.665656565655624","768","428","./1_3_Stimuli/S_ambi40.png","自我","Word","自我","Match","f","true","Formal"
"","","","","","psychophysics","406","1056063","0.0-9.0-0.2-0.291","576","","j","","","","","","","","","","","","","key","j","16.666019417476633","768","428","./1_3_Stimuli/C_ambi40.png","他人","Image","他人","Match","f","false","Formal"
"","","","","","psychophysics","407","1057864","0.0-9.0-0.2-0.292","649","","j","","","","","","","","","","","","","key","j","16.666355140187353","768","428","./1_3_Stimuli/T_ambi40.png","自我","Image","朋友","Mismatch","j","true","Formal"
"","","","","","psychophysics","408","1059605","0.0-9.0-0.2-0.293","580","","j","","","","","","","","","","","","","key","j","17.362244897959183","768","428","./1_3_Stimuli/T_ambi40.png","他人","Word","朋友","Mismatch","j","true","Formal"
"","","","","","psychophysics","409","1061420","0.0-9.0-0.2-0.294","647","","f","","","","","","","","","","","","","key","f","19.38369565217442","768","428","./1_3_Stimuli/T_ambi40.png","朋友","Word","朋友","Match","f","true","Formal"
"","","","","","psychophysics","410","1063197","0.0-9.0-0.2-0.295","620","","f","","","","","","","","","","","","","key","f","16.666981132075033","768","428","./1_3_Stimuli/C_ambi40.png","他人","Image","他人","Match","f","true","Formal"
"","","","","","psychophysics","411","1064928","0.0-9.0-0.2-0.296","578","","f","","","","","","","","","","","","","key","f","17.165","768","428","./1_3_Stimuli/S_ambi40.png","自我","Image","自我","Match","f","true","Formal"
"","","","","","psychophysics","412","1066570","0.0-9.0-0.2-0.297","485","","f","","","","","","","","","","","","","key","f","16.66597938144426","768","428","./1_3_Stimuli/S_ambi40.png","自我","Word","自我","Match","f","true","Formal"
"","","","","","psychophysics","413","1068280","0.0-9.0-0.2-0.298","558","","j","","","","","","","","","","","","","key","j","16.667647058824443","768","428","./1_3_Stimuli/C_ambi40.png","朋友","Word","他人","Mismatch","j","true","Formal"
"","","","","","psychophysics","414","1069946","0.0-9.0-0.2-0.299","503","","f","","","","","","","","","","","","","key","f","16.666666666666668","768","428","./1_3_Stimuli/C_ambi40.png","他人","Word","他人","Match","f","true","Formal"
"","","","","","psychophysics","415","1071610","0.0-9.0-0.2-0.300","511","","j","","","","","","","","","","","","","key","j","16.666326530610345","768","428","./1_3_Stimuli/S_ambi40.png","朋友","Word","自我","Mismatch","j","true","Formal"
"","","","","","psychophysics","416","1073342","0.0-9.0-0.2-0.301","566","","j","","","","","","","","","","","","","key","j","16.666666666666668","768","428","./1_3_Stimuli/T_ambi40.png","自我","Word","朋友","Mismatch","j","true","Formal"
"","","","","","psychophysics","417","1075075","0.0-9.0-0.2-0.302","581","","j","","","","","","","","","","","","","key","j","16.666666666666668","768","428","./1_3_Stimuli/C_ambi40.png","朋友","Image","他人","Mismatch","j","true","Formal"
"","","","","","psychophysics","418","1076807","0.0-9.0-0.2-0.303","580","","j","","","","","","","","","","","","","key","j","16.666990291261683","768","428","./1_3_Stimuli/S_ambi40.png","他人","Word","自我","Mismatch","j","true","Formal"
"","","","","","psychophysics","419","1078607","0.0-9.0-0.2-0.304","647","","j","","","","","","","","","","","","","key","j","16.666355140187353","768","428","./1_3_Stimuli/S_ambi40.png","他人","Image","自我","Mismatch","j","true","Formal"
"","","","","","psychophysics","420","1080296","0.0-9.0-0.2-0.305","535","","f","","","","","","","","","","","","","key","f","16.66600000000093","768","428","./1_3_Stimuli/T_ambi40.png","朋友","Word","朋友","Match","f","true","Formal"
"","","","","","psychophysics","421","1081938","0.0-9.0-0.2-0.306","481","","f","","","","","","","","","","","","","key","f","16.670103092783506","768","428","./1_3_Stimuli/S_ambi40.png","自我","Image","自我","Match","f","true","Formal"
"","","","","","psychophysics","422","1083536","0.0-9.0-0.2-0.307","442","","f","","","","","","","","","","","","","key","f","16.666315789471724","768","428","./1_3_Stimuli/C_ambi40.png","他人","Word","他人","Match","f","true","Formal"
