"success","timeout","failed_images","failed_audio","failed_video","trial_type","trial_index","time_elapsed","internal_node_id","rt","stimulus","response","value","item_width_mm","item_height_mm","item_width_px","px2mm","view_dist_mm","item_width_deg","px2deg","scale_factor","win_width_deg","win_height_deg","view_history","response_type","key_press","avg_frame_time","center_x","center_y","image","word","target","valence","matchness","correct_response","correct","exp_condition","question_order","result"
"true","false","[]","[]","[]","preload","0","584","0.0-0.0","","","","","","","","","","","","","","","","","","","","","","","","","","","","","",""
"","","","","","html-keyboard-response","1","43922","0.0-1.0","43338","
     <p>您好，欢迎参加本次实验。</p>
     <p>为充分保障您的权利，请确保您已经知晓并同意《参与实验同意书》以及《数据公开知情同意书》。</p>
     <p>如果您未见过上述内容，请咨询实验员。</p>
     <p>如果您选择继续实验，则表示您已经清楚两份知情同意书的内容并同意。</p>
     <p> <div style = ""color: green""><按任意键至下页></div> </p>
     ","shift","","","","","","","","","","","","","","","","","","","","","","","","","","",""
"","","","","","html-keyboard-response","2","47757","0.0-2.0-0.0","3834","
      <p>本实验首先需要您填写一些基本个人信息。</p>
      <p> <div style = ""color: green""><按任意键至下页></div></p>
      ","j","","","","","","","","","","","","","","","","","","","","","","","","","","",""
"","","","","","call-function","3","47757","0.0-2.0-1.0","","","","","","","","","","","","","","","","","","","","","","","","","","","","","",""
"","","","","","survey-html-form","4","53180","0.0-2.0-2.0","5420","","{""Q0"":""1039""}","","","","","","","","","","","","","","","","","","","","","","","","","","",""
"","","","","","html-button-response","5","54989","0.0-2.0-3.0","1808","<p style = 'color : white'>您的性别</p>","1","","","","","","","","","","","","","","","","","","","","","","","","","","",""
"","","","","","survey-html-form","6","61253","0.0-2.0-4.0","6263","","{""Q0"":""2002""}","","","","","","","","","","","","","","","","","","","","","","","","","","",""
"","","","","","survey-html-form","7","66309","0.0-2.0-5.0","5055","","{""Q0"":""5""}","","","","","","","","","","","","","","","","","","","","","","","","","","",""
"","","","","","virtual-chinrest","8","258901","0.0-3.0","192590","","","","85.6","53.98","625.2126941708865","7.304946245364502","390.67","12.50425388341773","49.99999999999999","0.6173898956288568","30.720000000000006","13.900000000000002","","","","","","","","","","","","","","","",""
"true","","","","","fullscreen","9","263002","0.0-4.0","","","","","","","","","","","","","","","","","","","","","","","","","","","","","",""
"","","","","","instructions","10","376340","0.0-5.0","113338","","","","","","","","","","","","","","[{""page_index"":0,""viewing_time"":7594},{""page_index"":1,""viewing_time"":75183},{""page_index"":2,""viewing_time"":12800},{""page_index"":3,""viewing_time"":17760}]","","","","","","","","","","","","","","",""
"","","","","","html-keyboard-response","11","379997","0.0-6.0","null","<count-down title=""""></count-down>","null","","","","","","","","","","","","","","","","","","","","","","","","","","",""
"","","","","","psychophysics","12","382383","0.0-7.0-0.0-0.0","1227","","j","","","","","","","","","","","","","key","j","16.658450704225352","768","428","./1_3_Stimuli/T_ambi40.png","朋友","Image","朋友","Match","j","true","Practice","",""
"","","","","","html-keyboard-response","13","382688","0.0-7.0-0.0-1.0","null","<span style='color:GreenYellow; font-size: 70px;'>正确! </span>","null","","","","","","","","","","","","","","","","","","","","","","","","","feedback","",""
"","","","","","psychophysics","14","384853","0.0-7.0-0.0-0.1","1007","","f","","","","","","","","","","","","","key","f","16.660465116278708","768","428","./1_3_Stimuli/S_ambi40.png","他人","Image","他人","Match","j","false","Practice","",""
"","","","","","html-keyboard-response","15","385154","0.0-7.0-0.0-1.1","null","<span style='color:red; font-size: 70px;'>错误! </span>","null","","","","","","","","","","","","","","","","","","","","","","","","","feedback","",""
"","","","","","psychophysics","16","387105","0.0-7.0-0.0-0.2","793","","f","","","","","","","","","","","","","key","f","16.662068965517644","768","428","./1_3_Stimuli/S_ambi40.png","自我","Image","他人","Mismatch","f","true","Practice","",""
"","","","","","html-keyboard-response","17","387410","0.0-7.0-0.0-1.2","null","<span style='color:GreenYellow; font-size: 70px;'>正确! </span>","null","","","","","","","","","","","","","","","","","","","","","","","","","feedback","",""
"","","","","","psychophysics","18","389438","0.0-7.0-0.0-0.3","877","","f","","","","","","","","","","","","","key","f","16.660833333333237","768","428","./1_3_Stimuli/T_ambi40.png","自我","Word","朋友","Mismatch","f","true","Practice","",""
"","","","","","html-keyboard-response","19","389743","0.0-7.0-0.0-1.3","null","<span style='color:GreenYellow; font-size: 70px;'>正确! </span>","null","","","","","","","","","","","","","","","","","","","","","","","","","feedback","",""
"","","","","","psychophysics","20","391598","0.0-7.0-0.0-0.4","704","","f","","","","","","","","","","","","","key","f","16.661818181818077","768","428","./1_3_Stimuli/T_ambi40.png","自我","Image","朋友","Mismatch","f","true","Practice","",""
"","","","","","html-keyboard-response","21","391911","0.0-7.0-0.0-1.4","null","<span style='color:GreenYellow; font-size: 70px;'>正确! </span>","null","","","","","","","","","","","","","","","","","","","","","","","","","feedback","",""
"","","","","","psychophysics","22","393947","0.0-7.0-0.0-0.5","884","","f","","","","","","","","","","","","","key","f","16.661983471074187","768","428","./1_3_Stimuli/S_ambi40.png","朋友","Word","他人","Mismatch","f","true","Practice","",""
"","","","","","html-keyboard-response","23","394256","0.0-7.0-0.0-1.5","null","<span style='color:GreenYellow; font-size: 70px;'>正确! </span>","null","","","","","","","","","","","","","","","","","","","","","","","","","feedback","",""
"","","","","","psychophysics","24","396194","0.0-7.0-0.0-0.6","786","","f","","","","","","","","","","","","","key","f","16.66206896551714","768","428","./1_3_Stimuli/C_ambi40.png","他人","Word","自我","Mismatch","f","true","Practice","",""
"","","","","","html-keyboard-response","25","396503","0.0-7.0-0.0-1.6","null","<span style='color:GreenYellow; font-size: 70px;'>正确! </span>","null","","","","","","","","","","","","","","","","","","","","","","","","","feedback","",""
"","","","","","psychophysics","26","398213","0.0-7.0-0.0-0.7","558","","f","","","","","","","","","","","","","key","f","16.66176470588235","768","428","./1_3_Stimuli/C_ambi40.png","他人","Image","自我","Mismatch","f","true","Practice","",""
"","","","","","html-keyboard-response","27","398523","0.0-7.0-0.0-1.7","null","<span style='color:GreenYellow; font-size: 70px;'>正确! </span>","null","","","","","","","","","","","","","","","","","","","","","","","","","feedback","",""
"","","","","","psychophysics","28","400178","0.0-7.0-0.0-0.8","505","","j","","","","","","","","","","","","","key","j","16.639795918367465","768","428","./1_3_Stimuli/C_ambi40.png","自我","Word","自我","Match","j","true","Practice","",""
"","","","","","html-keyboard-response","29","400483","0.0-7.0-0.0-1.8","null","<span style='color:GreenYellow; font-size: 70px;'>正确! </span>","null","","","","","","","","","","","","","","","","","","","","","","","","","feedback","",""
"","","","","","psychophysics","30","402167","0.0-7.0-0.0-0.9","527","","j","","","","","","","","","","","","","key","j","16.66100000000035","768","428","./1_3_Stimuli/T_ambi40.png","朋友","Word","朋友","Match","j","true","Practice","",""
"","","","","","html-keyboard-response","31","402472","0.0-7.0-0.0-1.9","null","<span style='color:GreenYellow; font-size: 70px;'>正确! </span>","null","","","","","","","","","","","","","","","","","","","","","","","","","feedback","",""
"","","","","","psychophysics","32","404138","0.0-7.0-0.0-0.10","501","","f","","","","","","","","","","","","","key","f","16.64897959183709","768","428","./1_3_Stimuli/S_ambi40.png","他人","Word","他人","Match","j","false","Practice","",""
"","","","","","html-keyboard-response","33","404446","0.0-7.0-0.0-1.10","null","<span style='color:red; font-size: 70px;'>错误! </span>","null","","","","","","","","","","","","","","","","","","","","","","","","","feedback","",""
"","","","","","psychophysics","34","406240","0.0-7.0-0.0-0.11","637","","f","","","","","","","","","","","","","key","f","16.66168224299109","768","428","./1_3_Stimuli/T_ambi40.png","朋友","Image","朋友","Match","j","false","Practice","",""
"","","","","","html-keyboard-response","35","406550","0.0-7.0-0.0-1.11","null","<span style='color:red; font-size: 70px;'>错误! </span>","null","","","","","","","","","","","","","","","","","","","","","","","","","feedback","",""
"","","","","","psychophysics","36","408732","0.0-7.0-0.0-0.12","1030","","f","","","","","","","","","","","","","key","f","16.662307692307962","768","428","./1_3_Stimuli/S_ambi40.png","朋友","Image","他人","Mismatch","f","true","Practice","",""
"","","","","","html-keyboard-response","37","409041","0.0-7.0-0.0-1.12","null","<span style='color:GreenYellow; font-size: 70px;'>正确! </span>","null","","","","","","","","","","","","","","","","","","","","","","","","","feedback","",""
"","","","","","psychophysics","38","410780","0.0-7.0-0.0-0.13","576","","f","","","","","","","","","","","","","key","f","16.66213592233021","768","428","./1_3_Stimuli/S_ambi40.png","他人","Image","他人","Match","j","false","Practice","",""
"","","","","","html-keyboard-response","39","411090","0.0-7.0-0.0-1.13","null","<span style='color:red; font-size: 70px;'>错误! </span>","null","","","","","","","","","","","","","","","","","","","","","","","","","feedback","",""
"","","","","","psychophysics","40","412920","0.0-7.0-0.0-0.14","676","","f","","","","","","","","","","","","","key","f","16.660185185185078","768","428","./1_3_Stimuli/C_ambi40.png","朋友","Image","自我","Mismatch","f","true","Practice","",""
"","","","","","html-keyboard-response","41","413227","0.0-7.0-0.0-1.14","null","<span style='color:GreenYellow; font-size: 70px;'>正确! </span>","null","","","","","","","","","","","","","","","","","","","","","","","","","feedback","",""
"","","","","","psychophysics","42","415110","0.0-7.0-0.0-0.15","723","","j","","","","","","","","","","","","","key","j","16.660714285714285","768","428","./1_3_Stimuli/S_ambi40.png","他人","Word","他人","Match","j","true","Practice","",""
"","","","","","html-keyboard-response","43","415422","0.0-7.0-0.0-1.15","null","<span style='color:GreenYellow; font-size: 70px;'>正确! </span>","null","","","","","","","","","","","","","","","","","","","","","","","","","feedback","",""
"","","","","","psychophysics","44","417356","0.0-7.0-0.0-0.16","780","","f","","","","","","","","","","","","","key","f","16.661739130435087","768","428","./1_3_Stimuli/C_ambi40.png","朋友","Word","自我","Mismatch","f","true","Practice","",""
"","","","","","html-keyboard-response","45","417665","0.0-7.0-0.0-1.16","null","<span style='color:GreenYellow; font-size: 70px;'>正确! </span>","null","","","","","","","","","","","","","","","","","","","","","","","","","feedback","",""
"","","","","","psychophysics","46","419336","0.0-7.0-0.0-0.17","518","","j","","","","","","","","","","","","","key","j","16.66100000000035","768","428","./1_3_Stimuli/C_ambi40.png","自我","Image","自我","Match","j","true","Practice","",""
"","","","","","html-keyboard-response","47","419642","0.0-7.0-0.0-1.17","null","<span style='color:GreenYellow; font-size: 70px;'>正确! </span>","null","","","","","","","","","","","","","","","","","","","","","","","","","feedback","",""
"","","","","","psychophysics","48","421312","0.0-7.0-0.0-0.18","512","","f","","","","","","","","","","","","","key","f","16.661616161616163","768","428","./1_3_Stimuli/S_ambi40.png","自我","Word","他人","Mismatch","f","true","Practice","",""
"","","","","","html-keyboard-response","49","421617","0.0-7.0-0.0-1.18","null","<span style='color:GreenYellow; font-size: 70px;'>正确! </span>","null","","","","","","","","","","","","","","","","","","","","","","","","","feedback","",""
"","","","","","psychophysics","50","423351","0.0-7.0-0.0-0.19","569","","j","","","","","","","","","","","","","key","j","16.66213592233021","768","428","./1_3_Stimuli/T_ambi40.png","朋友","Word","朋友","Match","j","true","Practice","",""
"","","","","","html-keyboard-response","51","423655","0.0-7.0-0.0-1.19","null","<span style='color:GreenYellow; font-size: 70px;'>正确! </span>","null","","","","","","","","","","","","","","","","","","","","","","","","","feedback","",""
"","","","","","psychophysics","52","425292","0.0-7.0-0.0-0.20","476","","j","","","","","","","","","","","","","key","j","16.66185567010321","768","428","./1_3_Stimuli/C_ambi40.png","自我","Image","自我","Match","j","true","Practice","",""
"","","","","","html-keyboard-response","53","425601","0.0-7.0-0.0-1.20","null","<span style='color:GreenYellow; font-size: 70px;'>正确! </span>","null","","","","","","","","","","","","","","","","","","","","","","","","","feedback","",""
"","","","","","psychophysics","54","427300","0.0-7.0-0.0-0.21","545","","f","","","","","","","","","","","","","key","f","16.660396039604077","768","428","./1_3_Stimuli/T_ambi40.png","他人","Image","朋友","Mismatch","f","true","Practice","",""
"","","","","","html-keyboard-response","55","427616","0.0-7.0-0.0-1.21","null","<span style='color:GreenYellow; font-size: 70px;'>正确! </span>","null","","","","","","","","","","","","","","","","","","","","","","","","","feedback","",""
"","","","","","psychophysics","56","429196","0.0-7.0-0.0-0.22","428","","j","","","","","","","","","","","","","key","j","16.6623655913976","768","428","./1_3_Stimuli/C_ambi40.png","自我","Word","自我","Match","j","true","Practice","",""
"","","","","","html-keyboard-response","57","429502","0.0-7.0-0.0-1.22","null","<span style='color:GreenYellow; font-size: 70px;'>正确! </span>","null","","","","","","","","","","","","","","","","","","","","","","","","","feedback","",""
"","","","","","psychophysics","58","431237","0.0-7.0-0.0-0.23","578","","j","","","","","","","","","","","","","key","j","16.66310679611639","768","428","./1_3_Stimuli/T_ambi40.png","他人","Word","朋友","Mismatch","f","false","Practice","",""
"","","","","","html-keyboard-response","59","431549","0.0-7.0-0.0-1.23","null","<span style='color:red; font-size: 70px;'>错误! </span>","null","","","","","","","","","","","","","","","","","","","","","","","","","feedback","",""
"","","","","","html-keyboard-response","60","465925","0.0-7.0-1.0-0.0","34376","<style>.context{color:white; font-size: 35px; line-height:40px}</style>                        <div><p class='context'>您正确回答了79% 的试次。</p><p class='context'>您的平均反应时为690毫秒。</p><p> <div style = 'color: green'><按空格键至下页></div></p>"," ","","","","","","","","","","","","","","","","","","","","","","","","","","",""
"","","","","","instructions","61","471940","0.0-7.0-1.0-1.0","6013","","","","","","","","","","","","","","[{""page_index"":0,""viewing_time"":2285},{""page_index"":1,""viewing_time"":2199},{""page_index"":2,""viewing_time"":1528}]","","","","","","","","","","","","","","",""
"","","","","","psychophysics","62","473814","0.0-7.1-0.1-0.24","715","","f","","","","","","","","","","","","","key","f","16.65945945945904","768","428","./1_3_Stimuli/C_ambi40.png","朋友","Word","自我","Mismatch","f","true","Practice","",""
"","","","","","html-keyboard-response","63","474124","0.0-7.1-0.1-1.24","null","<span style='color:GreenYellow; font-size: 70px;'>正确! </span>","null","","","","","","","","","","","","","","","","","","","","","","","","","feedback","",""
"","","","","","psychophysics","64","475916","0.0-7.1-0.1-0.25","641","","j","","","","","","","","","","","","","key","j","16.661682242990544","768","428","./1_3_Stimuli/T_ambi40.png","朋友","Word","朋友","Match","j","true","Practice","",""
"","","","","","html-keyboard-response","65","476227","0.0-7.1-0.1-1.25","null","<span style='color:GreenYellow; font-size: 70px;'>正确! </span>","null","","","","","","","","","","","","","","","","","","","","","","","","","feedback","",""
"","","","","","psychophysics","66","477952","0.0-7.1-0.1-0.26","571","","j","","","","","","","","","","","","","key","j","16.661165048544028","768","428","./1_3_Stimuli/C_ambi40.png","自我","Image","自我","Match","j","true","Practice","",""
"","","","","","html-keyboard-response","67","478262","0.0-7.1-0.1-1.26","null","<span style='color:GreenYellow; font-size: 70px;'>正确! </span>","null","","","","","","","","","","","","","","","","","","","","","","","","","feedback","",""
"","","","","","psychophysics","68","480266","0.0-7.1-0.1-0.27","852","","f","","","","","","","","","","","","","key","f","16.661666666666374","768","428","./1_3_Stimuli/T_ambi40.png","他人","Word","朋友","Mismatch","f","true","Practice","",""
"","","","","","html-keyboard-response","69","480571","0.0-7.1-0.1-1.27","null","<span style='color:GreenYellow; font-size: 70px;'>正确! </span>","null","","","","","","","","","","","","","","","","","","","","","","","","","feedback","",""
"","","","","","psychophysics","70","482145","0.0-7.1-0.1-0.28","416","","j","","","","","","","","","","","","","key","j","16.660215053763064","768","428","./1_3_Stimuli/C_ambi40.png","自我","Word","自我","Match","j","true","Practice","",""
"","","","","","html-keyboard-response","71","482460","0.0-7.1-0.1-1.28","null","<span style='color:GreenYellow; font-size: 70px;'>正确! </span>","null","","","","","","","","","","","","","","","","","","","","","","","","","feedback","",""
"","","","","","psychophysics","72","484199","0.0-7.1-0.1-0.29","587","","f","","","","","","","","","","","","","key","f","16.660576923076476","768","428","./1_3_Stimuli/S_ambi40.png","朋友","Word","他人","Mismatch","f","true","Practice","",""
"","","","","","html-keyboard-response","73","484502","0.0-7.1-0.1-1.29","null","<span style='color:GreenYellow; font-size: 70px;'>正确! </span>","null","","","","","","","","","","","","","","","","","","","","","","","","","feedback","",""
"","","","","","psychophysics","74","486443","0.0-7.1-0.1-0.30","784","","j","","","","","","","","","","","","","key","j","16.661739130435087","768","428","./1_3_Stimuli/T_ambi40.png","朋友","Image","朋友","Match","j","true","Practice","",""
"","","","","","html-keyboard-response","75","486749","0.0-7.1-0.1-1.30","null","<span style='color:GreenYellow; font-size: 70px;'>正确! </span>","null","","","","","","","","","","","","","","","","","","","","","","","","","feedback","",""
"","","","","","psychophysics","76","488393","0.0-7.1-0.1-0.31","482","","f","","","","","","","","","","","","","key","f","16.65979381443299","768","428","./1_3_Stimuli/S_ambi40.png","他人","Word","他人","Match","j","false","Practice","",""
"","","","","","html-keyboard-response","77","488703","0.0-7.1-0.1-1.31","null","<span style='color:red; font-size: 70px;'>错误! </span>","null","","","","","","","","","","","","","","","","","","","","","","","","","feedback","",""
"","","","","","psychophysics","78","490291","0.0-7.1-0.1-0.32","431","","j","","","","","","","","","","","","","key","j","16.661702127659698","768","428","./1_3_Stimuli/C_ambi40.png","他人","Image","自我","Mismatch","f","false","Practice","",""
"","","","","","html-keyboard-response","79","490597","0.0-7.1-0.1-1.32","null","<span style='color:red; font-size: 70px;'>错误! </span>","null","","","","","","","","","","","","","","","","","","","","","","","","","feedback","",""
"","","","","","psychophysics","80","492178","0.0-7.1-0.1-0.33","422","","j","","","","","","","","","","","","","key","j","16.662765957446684","768","428","./1_3_Stimuli/C_ambi40.png","自我","Word","自我","Match","j","true","Practice","",""
"","","","","","html-keyboard-response","81","492492","0.0-7.1-0.1-1.33","null","<span style='color:GreenYellow; font-size: 70px;'>正确! </span>","null","","","","","","","","","","","","","","","","","","","","","","","","","feedback","",""
"","","","","","psychophysics","82","494176","0.0-7.1-0.1-0.34","532","","f","","","","","","","","","","","","","key","f","16.661999999999534","768","428","./1_3_Stimuli/C_ambi40.png","朋友","Image","自我","Mismatch","f","true","Practice","",""
"","","","","","html-keyboard-response","83","494489","0.0-7.1-0.1-1.34","null","<span style='color:GreenYellow; font-size: 70px;'>正确! </span>","null","","","","","","","","","","","","","","","","","","","","","","","","","feedback","",""
"","","","","","psychophysics","84","496549","0.0-7.1-0.1-0.35","908","","f","","","","","","","","","","","","","key","f","16.660975609756477","768","428","./1_3_Stimuli/S_ambi40.png","朋友","Image","他人","Mismatch","f","true","Practice","",""
"","","","","","html-keyboard-response","85","496865","0.0-7.1-0.1-1.35","null","<span style='color:GreenYellow; font-size: 70px;'>正确! </span>","null","","","","","","","","","","","","","","","","","","","","","","","","","feedback","",""
"","","","","","psychophysics","86","498687","0.0-7.1-0.1-0.36","666","","f","","","","","","","","","","","","","key","f","16.661111111111328","768","428","./1_3_Stimuli/S_ambi40.png","自我","Image","他人","Mismatch","f","true","Practice","",""
"","","","","","html-keyboard-response","87","499003","0.0-7.1-0.1-1.36","null","<span style='color:GreenYellow; font-size: 70px;'>正确! </span>","null","","","","","","","","","","","","","","","","","","","","","","","","","feedback","",""
"","","","","","psychophysics","88","500796","0.0-7.1-0.1-0.37","640","","f","","","","","","","","","","","","","key","f","16.662616822430124","768","428","./1_3_Stimuli/C_ambi40.png","他人","Word","自我","Mismatch","f","true","Practice","",""
"","","","","","html-keyboard-response","89","501107","0.0-7.1-0.1-1.37","null","<span style='color:GreenYellow; font-size: 70px;'>正确! </span>","null","","","","","","","","","","","","","","","","","","","","","","","","","feedback","",""
"","","","","","psychophysics","90","502875","0.0-7.1-0.1-0.38","611","","f","","","","","","","","","","","","","key","f","16.65999999999989","768","428","./1_3_Stimuli/T_ambi40.png","自我","Word","朋友","Mismatch","f","true","Practice","",""
"","","","","","html-keyboard-response","91","503185","0.0-7.1-0.1-1.38","null","<span style='color:GreenYellow; font-size: 70px;'>正确! </span>","null","","","","","","","","","","","","","","","","","","","","","","","","","feedback","",""
"","","","","","psychophysics","92","504915","0.0-7.1-0.1-0.39","578","","j","","","","","","","","","","","","","key","j","16.658252427184355","768","428","./1_3_Stimuli/S_ambi40.png","他人","Image","他人","Match","j","true","Practice","",""
"","","","","","html-keyboard-response","93","505224","0.0-7.1-0.1-1.39","null","<span style='color:GreenYellow; font-size: 70px;'>正确! </span>","null","","","","","","","","","","","","","","","","","","","","","","","","","feedback","",""
"","","","","","psychophysics","94","506871","0.0-7.1-0.1-0.40","495","","f","","","","","","","","","","","","","key","f","16.66020408163277","768","428","./1_3_Stimuli/S_ambi40.png","自我","Word","他人","Mismatch","f","true","Practice","",""
"","","","","","html-keyboard-response","95","507173","0.0-7.1-0.1-1.40","null","<span style='color:GreenYellow; font-size: 70px;'>正确! </span>","null","","","","","","","","","","","","","","","","","","","","","","","","","feedback","",""
"","","","","","psychophysics","96","508974","0.0-7.1-0.1-0.41","647","","j","","","","","","","","","","","","","key","j","16.66074766355151","768","428","./1_3_Stimuli/T_ambi40.png","朋友","Image","朋友","Match","j","true","Practice","",""
"","","","","","html-keyboard-response","97","509279","0.0-7.1-0.1-1.41","null","<span style='color:GreenYellow; font-size: 70px;'>正确! </span>","null","","","","","","","","","","","","","","","","","","","","","","","","","feedback","",""
"","","","","","psychophysics","98","510965","0.0-7.1-0.1-0.42","529","","j","","","","","","","","","","","","","key","j","16.660999999999767","768","428","./1_3_Stimuli/T_ambi40.png","朋友","Word","朋友","Match","j","true","Practice","",""
"","","","","","html-keyboard-response","99","511271","0.0-7.1-0.1-1.42","null","<span style='color:GreenYellow; font-size: 70px;'>正确! </span>","null","","","","","","","","","","","","","","","","","","","","","","","","","feedback","",""
"","","","","","psychophysics","100","512867","0.0-7.1-0.1-0.43","438","","f","","","","","","","","","","","","","key","f","16.661702127659698","768","428","./1_3_Stimuli/S_ambi40.png","他人","Image","他人","Match","j","false","Practice","",""
"","","","","","html-keyboard-response","101","513178","0.0-7.1-0.1-1.43","null","<span style='color:red; font-size: 70px;'>错误! </span>","null","","","","","","","","","","","","","","","","","","","","","","","","","feedback","",""
"","","","","","psychophysics","102","514970","0.0-7.1-0.1-0.44","635","","f","","","","","","","","","","","","","key","f","16.66168224299109","768","428","./1_3_Stimuli/T_ambi40.png","他人","Image","朋友","Mismatch","f","true","Practice","",""
"","","","","","html-keyboard-response","103","515277","0.0-7.1-0.1-1.44","null","<span style='color:GreenYellow; font-size: 70px;'>正确! </span>","null","","","","","","","","","","","","","","","","","","","","","","","","","feedback","",""
"","","","","","psychophysics","104","517051","0.0-7.1-0.1-0.45","616","","j","","","","","","","","","","","","","key","j","16.6609523809526","768","428","./1_3_Stimuli/S_ambi40.png","他人","Word","他人","Match","j","true","Practice","",""
"","","","","","html-keyboard-response","105","517358","0.0-7.1-0.1-1.45","null","<span style='color:GreenYellow; font-size: 70px;'>正确! </span>","null","","","","","","","","","","","","","","","","","","","","","","","","","feedback","",""
"","","","","","psychophysics","106","519035","0.0-7.1-0.1-0.46","524","","f","","","","","","","","","","","","","key","f","16.66100000000035","768","428","./1_3_Stimuli/T_ambi40.png","自我","Image","朋友","Mismatch","f","true","Practice","",""
"","","","","","html-keyboard-response","107","519339","0.0-7.1-0.1-1.46","null","<span style='color:GreenYellow; font-size: 70px;'>正确! </span>","null","","","","","","","","","","","","","","","","","","","","","","","","","feedback","",""
"","","","","","psychophysics","108","520909","0.0-7.1-0.1-0.47","416","","j","","","","","","","","","","","","","key","j","16.661290322580644","768","428","./1_3_Stimuli/C_ambi40.png","自我","Image","自我","Match","j","true","Practice","",""
"","","","","","html-keyboard-response","109","521225","0.0-7.1-0.1-1.47","null","<span style='color:GreenYellow; font-size: 70px;'>正确! </span>","null","","","","","","","","","","","","","","","","","","","","","","","","","feedback","",""
"","","","","","html-keyboard-response","110","758504","0.0-8.0","237277","<style>.context{color:white; font-size: 35px; line-height:40px}</style>                          <div><p class='context'>您正确回答了88% 的试次。</p><p class='context'>您的平均反应时为609毫秒。</p><p class='context'>恭喜您完成练习。现在请休息3~5分钟。</p><p class='context'>之后，按任意键进入正式实验。需要注意的是，正式实验将不再提供反应是否正确的反馈。</p><p class='footer' style='font-size: 35px; line-height:40px;'>请在进入正式实验实验之前将您的<span style='color: lightgreen;'>食指</span>放在电脑键盘的相应键位上进行按键。</p>"," ","","","","","","","","","","","","","","","","","","","","","","","","","","",""
"","","","","","psychophysics","111","760164","0.0-9.0-0.0-0.0","503","","j","","","","","","","","","","","","","key","j","16.661224489795206","768","428","./1_3_Stimuli/C_ambi40.png","自我","Image","自我","Match","j","true","Formal","",""
"","","","","","psychophysics","112","761790","0.0-9.0-0.0-0.1","472","","j","","","","","","","","","","","","","key","j","16.660824742267803","768","428","./1_3_Stimuli/S_ambi40.png","自我","Word","他人","Mismatch","f","false","Formal","",""
"","","","","","psychophysics","113","763646","0.0-9.0-0.0-0.2","695","","j","","","","","","","","","","","","","key","j","16.660909090909726","768","428","./1_3_Stimuli/S_ambi40.png","朋友","Image","他人","Mismatch","f","false","Formal","",""
"","","","","","psychophysics","114","765768","0.0-9.0-0.0-0.3","968","","f","","","","","","","","","","","","","key","f","16.661417322834644","768","428","./1_3_Stimuli/T_ambi40.png","自我","Image","朋友","Mismatch","f","true","Formal","",""
"","","","","","psychophysics","115","767766","0.0-9.0-0.0-0.4","837","","j","","","","","","","","","","","","","key","j","16.661344537814735","768","428","./1_3_Stimuli/T_ambi40.png","朋友","Image","朋友","Match","j","true","Formal","",""
"","","","","","psychophysics","116","769644","0.0-9.0-0.0-0.5","727","","j","","","","","","","","","","","","","key","j","16.66126126126042","768","428","./1_3_Stimuli/S_ambi40.png","他人","Image","他人","Match","j","true","Formal","",""
"","","","","","psychophysics","117","771500","0.0-9.0-0.0-0.6","702","","j","","","","","","","","","","","","","key","j","16.660360360359732","768","428","./1_3_Stimuli/S_ambi40.png","他人","Word","他人","Match","j","true","Formal","",""
"","","","","","psychophysics","118","773444","0.0-9.0-0.0-0.7","784","","f","","","","","","","","","","","","","key","f","16.66260869565177","768","428","./1_3_Stimuli/T_ambi40.png","自我","Word","朋友","Mismatch","f","true","Formal","",""
"","","","","","psychophysics","119","775324","0.0-9.0-0.0-0.8","727","","f","","","","","","","","","","","","","key","f","16.661607142856933","768","428","./1_3_Stimuli/S_ambi40.png","自我","Image","他人","Mismatch","f","true","Formal","",""
"","","","","","psychophysics","120","776906","0.0-9.0-0.0-0.9","428","","j","","","","","","","","","","","","","key","j","16.66382978723429","768","428","./1_3_Stimuli/C_ambi40.png","自我","Word","自我","Match","j","true","Formal","",""
"","","","","","psychophysics","121","778738","0.0-9.0-0.0-0.10","676","","j","","","","","","","","","","","","","key","j","16.658715596329635","768","428","./1_3_Stimuli/S_ambi40.png","他人","Image","他人","Match","j","true","Formal","",""
"","","","","","psychophysics","122","780456","0.0-9.0-0.0-0.11","561","","f","","","","","","","","","","","","","key","f","16.66176470588235","768","428","./1_3_Stimuli/C_ambi40.png","他人","Image","自我","Mismatch","f","true","Formal","",""
"","","","","","psychophysics","123","782312","0.0-9.0-0.0-0.12","701","","f","","","","","","","","","","","","","key","f","16.663063063062854","768","428","./1_3_Stimuli/C_ambi40.png","他人","Word","自我","Mismatch","f","true","Formal","",""
"","","","","","psychophysics","124","784124","0.0-9.0-0.0-0.13","653","","j","","","","","","","","","","","","","key","j","16.660747663550968","768","428","./1_3_Stimuli/S_ambi40.png","他人","Word","他人","Match","j","true","Formal","",""
"","","","","","psychophysics","125","785976","0.0-9.0-0.0-0.14","699","","f","","","","","","","","","","","","","key","f","16.660909090908667","768","428","./1_3_Stimuli/C_ambi40.png","朋友","Image","自我","Mismatch","f","true","Formal","",""
"","","","","","psychophysics","126","787690","0.0-9.0-0.0-0.15","563","","j","","","","","","","","","","","","","key","j","16.66138613861317","768","428","./1_3_Stimuli/T_ambi40.png","朋友","Word","朋友","Match","j","true","Formal","",""
"","","","","","psychophysics","127","789232","0.0-9.0-0.0-0.16","390","","j","","","","","","","","","","","","","key","j","16.65978260869641","768","428","./1_3_Stimuli/C_ambi40.png","自我","Word","自我","Match","j","true","Formal","",""
"","","","","","psychophysics","128","790936","0.0-9.0-0.0-0.17","544","","f","","","","","","","","","","","","","key","f","16.660396039604652","768","428","./1_3_Stimuli/S_ambi40.png","朋友","Word","他人","Mismatch","f","true","Formal","",""
"","","","","","psychophysics","129","792498","0.0-9.0-0.0-0.18","406","","j","","","","","","","","","","","","","key","j","16.661290322580644","768","428","./1_3_Stimuli/C_ambi40.png","自我","Image","自我","Match","j","true","Formal","",""
"","","","","","psychophysics","130","794280","0.0-9.0-0.0-0.19","623","","f","","","","","","","","","","","","","key","f","16.660377358490567","768","428","./1_3_Stimuli/T_ambi40.png","他人","Word","朋友","Mismatch","f","true","Formal","",""
"","","","","","psychophysics","131","796226","0.0-9.0-0.0-0.20","786","","f","","","","","","","","","","","","","key","f","16.661206896551324","768","428","./1_3_Stimuli/C_ambi40.png","朋友","Word","自我","Mismatch","f","true","Formal","",""
"","","","","","psychophysics","132","797976","0.0-9.0-0.0-0.21","589","","f","","","","","","","","","","","","","key","f","16.66153846153779","768","428","./1_3_Stimuli/T_ambi40.png","他人","Image","朋友","Mismatch","f","true","Formal","",""
"","","","","","psychophysics","133","799757","0.0-9.0-0.0-0.22","620","","j","","","","","","","","","","","","","key","j","16.660377358490567","768","428","./1_3_Stimuli/T_ambi40.png","朋友","Image","朋友","Match","j","true","Formal","",""
"","","","","","psychophysics","134","801374","0.0-9.0-0.0-0.23","466","","j","","","","","","","","","","","","","key","j","16.662499999999756","768","428","./1_3_Stimuli/T_ambi40.png","朋友","Word","朋友","Match","j","true","Formal","",""
"","","","","","psychophysics","135","803192","0.0-9.0-0.0-0.24","659","","j","","","","","","","","","","","","","key","j","16.661111111111328","768","428","./1_3_Stimuli/S_ambi40.png","他人","Image","他人","Match","j","true","Formal","",""
"","","","","","psychophysics","136","804764","0.0-9.0-0.0-0.25","411","","j","","","","","","","","","","","","","key","j","16.661290322580644","768","428","./1_3_Stimuli/C_ambi40.png","自我","Image","自我","Match","j","true","Formal","",""
"","","","","","psychophysics","137","806546","0.0-9.0-0.0-0.26","627","","f","","","","","","","","","","","","","key","f","16.66132075471786","768","428","./1_3_Stimuli/T_ambi40.png","自我","Image","朋友","Mismatch","f","true","Formal","",""
"","","","","","psychophysics","138","808353","0.0-9.0-0.0-0.27","651","","f","","","","","","","","","","","","","key","f","16.662037037037038","768","428","./1_3_Stimuli/C_ambi40.png","他人","Word","自我","Mismatch","f","true","Formal","",""
"","","","","","psychophysics","139","810136","0.0-9.0-0.0-0.28","632","","f","","","","","","","","","","","","","key","f","16.661320754716762","768","428","./1_3_Stimuli/T_ambi40.png","自我","Word","朋友","Mismatch","f","true","Formal","",""
"","","","","","psychophysics","140","812242","0.0-9.0-0.0-0.29","949","","j","","","","","","","","","","","","","key","j","16.660799999999814","768","428","./1_3_Stimuli/T_ambi40.png","朋友","Image","朋友","Match","j","true","Formal","",""
"","","","","","psychophysics","141","813826","0.0-9.0-0.0-0.30","428","","j","","","","","","","","","","","","","key","j","16.659574468085108","768","428","./1_3_Stimuli/T_ambi40.png","朋友","Word","朋友","Match","j","true","Formal","",""
"","","","","","psychophysics","142","815491","0.0-9.0-0.0-0.31","514","","f","","","","","","","","","","","","","key","f","16.661616161616163","768","428","./1_3_Stimuli/T_ambi40.png","他人","Image","朋友","Mismatch","f","true","Formal","",""
"","","","","","psychophysics","143","817080","0.0-9.0-0.0-0.32","432","","j","","","","","","","","","","","","","key","j","16.660638297872094","768","428","./1_3_Stimuli/C_ambi40.png","自我","Image","自我","Match","j","true","Formal","",""
"","","","","","psychophysics","144","819042","0.0-9.0-0.0-0.33","811","","j","","","","","","","","","","","","","key","j","16.66153846153866","768","428","./1_3_Stimuli/S_ambi40.png","他人","Word","他人","Match","j","true","Formal","",""
"","","","","","psychophysics","145","820758","0.0-9.0-0.0-0.34","562","","f","","","","","","","","","","","","","key","f","16.660784313724577","768","428","./1_3_Stimuli/S_ambi40.png","自我","Word","他人","Mismatch","f","true","Formal","",""
"","","","","","psychophysics","146","822558","0.0-9.0-0.0-0.35","644","","f","","","","","","","","","","","","","key","f","16.66168224299109","768","428","./1_3_Stimuli/S_ambi40.png","自我","Image","他人","Mismatch","f","true","Formal","",""
"","","","","","psychophysics","147","824606","0.0-9.0-0.0-0.36","893","","f","","","","","","","","","","","","","key","f","16.66065573770568","768","428","./1_3_Stimuli/C_ambi40.png","朋友","Word","自我","Mismatch","f","true","Formal","",""
"","","","","","psychophysics","148","826213","0.0-9.0-0.0-0.37","451","","j","","","","","","","","","","","","","key","j","16.660416666666908","768","428","./1_3_Stimuli/T_ambi40.png","朋友","Image","朋友","Match","j","true","Formal","",""
"","","","","","psychophysics","149","828021","0.0-9.0-0.0-0.38","649","","j","","","","","","","","","","","","","key","j","16.66168224299109","768","428","./1_3_Stimuli/S_ambi40.png","他人","Image","他人","Match","j","true","Formal","",""
"","","","","","psychophysics","150","829780","0.0-9.0-0.0-0.39","602","","f","","","","","","","","","","","","","key","f","16.66190476190476","768","428","./1_3_Stimuli/S_ambi40.png","他人","Word","他人","Match","j","false","Formal","",""
"","","","","","psychophysics","151","831447","0.0-9.0-0.0-0.40","513","","j","","","","","","","","","","","","","key","j","16.660606060606295","768","428","./1_3_Stimuli/C_ambi40.png","自我","Word","自我","Match","j","true","Formal","",""
"","","","","","psychophysics","152","833328","0.0-9.0-0.0-0.41","718","","f","","","","","","","","","","","","","key","f","16.660714285714285","768","428","./1_3_Stimuli/C_ambi40.png","朋友","Image","自我","Mismatch","f","true","Formal","",""
"","","","","","psychophysics","153","835356","0.0-9.0-0.0-0.42","874","","f","","","","","","","","","","","","","key","f","16.66083333333275","768","428","./1_3_Stimuli/S_ambi40.png","朋友","Word","他人","Mismatch","f","true","Formal","",""
"","","","","","psychophysics","154","837078","0.0-9.0-0.0-0.43","569","","f","","","","","","","","","","","","","key","f","16.660194174757283","768","428","./1_3_Stimuli/C_ambi40.png","他人","Image","自我","Mismatch","f","true","Formal","",""
"","","","","","psychophysics","155","838688","0.0-9.0-0.0-0.44","450","","j","","","","","","","","","","","","","key","j","16.661052631579437","768","428","./1_3_Stimuli/C_ambi40.png","自我","Word","自我","Match","j","true","Formal","",""
"","","","","","psychophysics","156","841020","0.0-9.0-0.0-0.45","1179","","f","","","","","","","","","","","","","key","f","16.661151079136857","768","428","./1_3_Stimuli/S_ambi40.png","朋友","Image","他人","Mismatch","f","true","Formal","",""
"","","","","","psychophysics","157","842814","0.0-9.0-0.0-0.46","641","","j","","","","","","","","","","","","","key","j","16.66168224299109","768","428","./1_3_Stimuli/T_ambi40.png","朋友","Word","朋友","Match","j","true","Formal","",""
"","","","","","psychophysics","158","844552","0.0-9.0-0.0-0.47","579","","f","","","","","","","","","","","","","key","f","16.663106796116956","768","428","./1_3_Stimuli/T_ambi40.png","他人","Word","朋友","Mismatch","f","true","Formal","",""
"","","","","","psychophysics","159","846471","0.0-9.0-0.0-0.48","765","","f","","","","","","","","","","","","","key","f","16.661403508772135","768","428","./1_3_Stimuli/C_ambi40.png","朋友","Word","自我","Mismatch","f","true","Formal","",""
"","","","","","psychophysics","160","848271","0.0-9.0-0.0-0.49","650","","j","","","","","","","","","","","","","key","j","16.661320754716762","768","428","./1_3_Stimuli/T_ambi40.png","朋友","Word","朋友","Match","j","true","Formal","",""
"","","","","","psychophysics","161","849957","0.0-9.0-0.0-0.50","535","","j","","","","","","","","","","","","","key","j","16.660999999999767","768","428","./1_3_Stimuli/T_ambi40.png","朋友","Image","朋友","Match","j","true","Formal","",""
"","","","","","psychophysics","162","851620","0.0-9.0-0.0-0.51","509","","j","","","","","","","","","","","","","key","j","16.660204081633367","768","428","./1_3_Stimuli/C_ambi40.png","自我","Image","自我","Match","j","true","Formal","",""
"","","","","","psychophysics","163","853314","0.0-9.0-0.0-0.52","543","","f","","","","","","","","","","","","","key","f","16.661000000000932","768","428","./1_3_Stimuli/T_ambi40.png","他人","Word","朋友","Mismatch","f","true","Formal","",""
"","","","","","psychophysics","164","855029","0.0-9.0-0.0-0.53","564","","f","","","","","","","","","","","","","key","f","16.660784313725717","768","428","./1_3_Stimuli/C_ambi40.png","他人","Image","自我","Mismatch","f","true","Formal","",""
"","","","","","psychophysics","165","856655","0.0-9.0-0.0-0.54","470","","f","","","","","","","","","","","","","key","f","16.660824742267803","768","428","./1_3_Stimuli/T_ambi40.png","自我","Word","朋友","Mismatch","f","true","Formal","",""
"","","","","","psychophysics","166","858367","0.0-9.0-0.0-0.55","556","","j","","","","","","","","","","","","","key","j","16.660396039603498","768","428","./1_3_Stimuli/S_ambi40.png","朋友","Image","他人","Mismatch","f","false","Formal","",""
"","","","","","psychophysics","167","860095","0.0-9.0-0.0-0.56","577","","j","","","","","","","","","","","","","key","j","16.660784313724577","768","428","./1_3_Stimuli/T_ambi40.png","朋友","Image","朋友","Match","j","true","Formal","",""
"","","","","","psychophysics","168","861819","0.0-9.0-0.0-0.57","569","","f","","","","","","","","","","","","","key","f","16.656310679611426","768","428","./1_3_Stimuli/S_ambi40.png","自我","Word","他人","Mismatch","f","true","Formal","",""
"","","","","","psychophysics","169","863644","0.0-9.0-0.0-0.58","664","","j","","","","","","","","","","","","","key","j","16.662962962962748","768","428","./1_3_Stimuli/S_ambi40.png","他人","Image","他人","Match","j","true","Formal","",""
"","","","","","psychophysics","170","865212","0.0-9.0-0.0-0.59","413","","f","","","","","","","","","","","","","key","f","16.659139784945484","768","428","./1_3_Stimuli/S_ambi40.png","他人","Image","他人","Match","j","false","Formal","",""
"","","","","","psychophysics","171","866822","0.0-9.0-0.0-0.60","456","","j","","","","","","","","","","","","","key","j","16.661458333333332","768","428","./1_3_Stimuli/C_ambi40.png","自我","Word","自我","Match","j","true","Formal","",""
"","","","","","psychophysics","172","868498","0.0-9.0-0.0-0.61","520","","f","","","","","","","","","","","","","key","f","16.661616161616163","768","428","./1_3_Stimuli/C_ambi40.png","朋友","Image","自我","Mismatch","f","true","Formal","",""
"","","","","","psychophysics","173","870133","0.0-9.0-0.0-0.62","485","","j","","","","","","","","","","","","","key","j","16.660824742269","768","428","./1_3_Stimuli/C_ambi40.png","自我","Image","自我","Match","j","true","Formal","",""
"","","","","","psychophysics","174","871837","0.0-9.0-0.0-0.63","551","","j","","","","","","","","","","","","","key","j","16.660396039603498","768","428","./1_3_Stimuli/S_ambi40.png","他人","Word","他人","Match","j","true","Formal","",""
"","","","","","psychophysics","175","873512","0.0-9.0-0.0-0.64","520","","f","","","","","","","","","","","","","key","f","16.65959595959643","768","428","./1_3_Stimuli/T_ambi40.png","他人","Image","朋友","Mismatch","f","true","Formal","",""
"","","","","","psychophysics","176","875252","0.0-9.0-0.0-0.65","589","","j","","","","","","","","","","","","","key","j","16.661165048543463","768","428","./1_3_Stimuli/S_ambi40.png","他人","Word","他人","Match","j","true","Formal","",""
"","","","","","psychophysics","177","876881","0.0-9.0-0.0-0.66","472","","f","","","","","","","","","","","","","key","f","16.660824742267803","768","428","./1_3_Stimuli/S_ambi40.png","自我","Image","他人","Mismatch","f","true","Formal","",""
"","","","","","psychophysics","178","878474","0.0-9.0-0.0-0.67","436","","j","","","","","","","","","","","","","key","j","16.661702127660316","768","428","./1_3_Stimuli/C_ambi40.png","自我","Word","自我","Match","j","true","Formal","",""
"","","","","","psychophysics","179","880163","0.0-9.0-0.0-0.68","535","","f","","","","","","","","","","","","","key","f","16.661386138614322","768","428","./1_3_Stimuli/C_ambi40.png","他人","Word","自我","Mismatch","f","true","Formal","",""
"","","","","","psychophysics","180","881950","0.0-9.0-0.0-0.69","623","","f","","","","","","","","","","","","","key","f","16.660377358490567","768","428","./1_3_Stimuli/T_ambi40.png","自我","Image","朋友","Mismatch","f","true","Formal","",""
"","","","","","psychophysics","181","883626","0.0-9.0-0.0-0.70","517","","j","","","","","","","","","","","","","key","j","16.660606060606295","768","428","./1_3_Stimuli/T_ambi40.png","朋友","Word","朋友","Match","j","true","Formal","",""
"","","","","","psychophysics","182","885490","0.0-9.0-0.0-0.71","714","","j","","","","","","","","","","","","","key","j","16.659999999999787","768","428","./1_3_Stimuli/S_ambi40.png","朋友","Word","他人","Mismatch","f","false","Formal","",""
"","","","","","psychophysics","183","887152","0.0-9.0-0.0-0.72","510","","f","","","","","","","","","","","","","key","f","16.661616161616163","768","428","./1_3_Stimuli/T_ambi40.png","朋友","Word","朋友","Match","j","false","Formal","",""
"","","","","","psychophysics","184","888774","0.0-9.0-0.0-0.73","466","","j","","","","","","","","","","","","","key","j","16.661458333333332","768","428","./1_3_Stimuli/S_ambi40.png","自我","Image","他人","Mismatch","f","false","Formal","",""
"","","","","","psychophysics","185","890554","0.0-9.0-0.0-0.74","629","","j","","","","","","","","","","","","","key","j","16.660000000000444","768","428","./1_3_Stimuli/S_ambi40.png","他人","Image","他人","Match","j","true","Formal","",""
"","","","","","psychophysics","186","892268","0.0-9.0-0.0-0.75","560","","f","","","","","","","","","","","","","key","f","16.660784313725717","768","428","./1_3_Stimuli/C_ambi40.png","他人","Word","自我","Mismatch","f","true","Formal","",""
"","","","","","psychophysics","187","894005","0.0-9.0-0.0-0.76","582","","f","","","","","","","","","","","","","key","f","16.660194174757283","768","428","./1_3_Stimuli/S_ambi40.png","自我","Word","他人","Mismatch","f","true","Formal","",""
"","","","","","psychophysics","188","895678","0.0-9.0-0.0-0.77","522","","j","","","","","","","","","","","","","key","j","16.661999999999534","768","428","./1_3_Stimuli/T_ambi40.png","朋友","Word","朋友","Match","j","true","Formal","",""
"","","","","","psychophysics","189","897242","0.0-9.0-0.0-0.78","408","","j","","","","","","","","","","","","","key","j","16.66021505376244","768","428","./1_3_Stimuli/C_ambi40.png","自我","Word","自我","Match","j","true","Formal","",""
"","","","","","psychophysics","190","898852","0.0-9.0-0.0-0.79","451","","j","","","","","","","","","","","","","key","j","16.66210526315814","768","428","./1_3_Stimuli/C_ambi40.png","自我","Word","自我","Match","j","true","Formal","",""
"","","","","","psychophysics","191","900628","0.0-9.0-0.0-0.80","624","","j","","","","","","","","","","","","","key","j","16.661320754716762","768","428","./1_3_Stimuli/C_ambi40.png","自我","Image","自我","Match","j","true","Formal","",""
"","","","","","psychophysics","192","902250","0.0-9.0-0.0-0.81","463","","f","","","","","","","","","","","","","key","f","16.661458333333332","768","428","./1_3_Stimuli/C_ambi40.png","朋友","Image","自我","Mismatch","f","true","Formal","",""
"","","","","","psychophysics","193","904054","0.0-9.0-0.0-0.82","651","","j","","","","","","","","","","","","","key","j","16.661111111111328","768","428","./1_3_Stimuli/T_ambi40.png","朋友","Image","朋友","Match","j","true","Formal","",""
"","","","","","psychophysics","194","905803","0.0-9.0-0.0-0.83","594","","j","","","","","","","","","","","","","key","j","16.660576923076476","768","428","./1_3_Stimuli/S_ambi40.png","他人","Word","他人","Match","j","true","Formal","",""
"","","","","","psychophysics","195","907514","0.0-9.0-0.0-0.84","551","","f","","","","","","","","","","","","","key","f","16.660396039604652","768","428","./1_3_Stimuli/S_ambi40.png","朋友","Image","他人","Mismatch","f","true","Formal","",""
"","","","","","psychophysics","196","909184","0.0-9.0-0.0-0.85","516","","f","","","","","","","","","","","","","key","f","16.660606060606295","768","428","./1_3_Stimuli/C_ambi40.png","他人","Image","自我","Mismatch","f","true","Formal","",""
"","","","","","psychophysics","197","910862","0.0-9.0-0.0-0.86","528","","f","","","","","","","","","","","","","key","f","16.661616161616163","768","428","./1_3_Stimuli/S_ambi40.png","朋友","Word","他人","Mismatch","f","true","Formal","",""
"","","","","","psychophysics","198","912495","0.0-9.0-0.0-0.87","480","","f","","","","","","","","","","","","","key","f","16.661855670102614","768","428","./1_3_Stimuli/T_ambi40.png","自我","Word","朋友","Mismatch","f","true","Formal","",""
"","","","","","psychophysics","199","914278","0.0-9.0-0.0-0.88","628","","f","","","","","","","","","","","","","key","f","16.66132075471786","768","428","./1_3_Stimuli/T_ambi40.png","自我","Image","朋友","Mismatch","f","true","Formal","",""
"","","","","","psychophysics","200","916134","0.0-9.0-0.0-0.89","701","","f","","","","","","","","","","","","","key","f","16.66036036036078","768","428","./1_3_Stimuli/T_ambi40.png","他人","Image","朋友","Mismatch","f","true","Formal","",""
"","","","","","psychophysics","201","918072","0.0-9.0-0.0-0.90","776","","j","","","","","","","","","","","","","key","j","16.660869565217393","768","428","./1_3_Stimuli/S_ambi40.png","他人","Image","他人","Match","j","true","Formal","",""
"","","","","","psychophysics","202","919691","0.0-9.0-0.0-0.91","460","","f","","","","","","","","","","","","","key","f","16.660416666666908","768","428","./1_3_Stimuli/T_ambi40.png","他人","Word","朋友","Mismatch","f","true","Formal","",""
"","","","","","psychophysics","203","921449","0.0-9.0-0.0-0.92","602","","j","","","","","","","","","","","","","key","j","16.660952380951493","768","428","./1_3_Stimuli/T_ambi40.png","朋友","Image","朋友","Match","j","true","Formal","",""
"","","","","","psychophysics","204","923256","0.0-9.0-0.0-0.93","654","","f","","","","","","","","","","","","","key","f","16.65981308411193","768","428","./1_3_Stimuli/C_ambi40.png","朋友","Word","自我","Mismatch","f","true","Formal","",""
"","","","","","psychophysics","205","924850","0.0-9.0-0.0-0.94","437","","j","","","","","","","","","","","","","key","j","16.66210526315814","768","428","./1_3_Stimuli/C_ambi40.png","自我","Image","自我","Match","j","true","Formal","",""
"","","","","","psychophysics","206","926688","0.0-9.0-0.0-0.95","679","","j","","","","","","","","","","","","","key","j","16.66238532110156","768","428","./1_3_Stimuli/S_ambi40.png","他人","Word","他人","Match","j","true","Formal","",""
"","","","","","psychophysics","207","928390","0.0-9.0-0.0-0.96","545","","f","","","","","","","","","","","","","key","f","16.660396039603498","768","428","./1_3_Stimuli/S_ambi40.png","他人","Image","他人","Match","j","false","Formal","",""
"","","","","","psychophysics","208","930350","0.0-9.0-0.0-0.97","807","","f","","","","","","","","","","","","","key","f","16.660683760683163","768","428","./1_3_Stimuli/C_ambi40.png","朋友","Word","自我","Mismatch","f","true","Formal","",""
"","","","","","psychophysics","209","932036","0.0-9.0-0.0-0.98","534","","j","","","","","","","","","","","","","key","j","16.66","768","428","./1_3_Stimuli/T_ambi40.png","他人","Word","朋友","Mismatch","f","false","Formal","",""
"","","","","","psychophysics","210","933700","0.0-9.0-0.0-0.99","513","","j","","","","","","","","","","","","","key","j","16.660606060606295","768","428","./1_3_Stimuli/T_ambi40.png","朋友","Image","朋友","Match","j","true","Formal","",""
"","","","","","psychophysics","211","935400","0.0-9.0-0.0-0.100","541","","f","","","","","","","","","","","","","key","f","16.660396039604652","768","428","./1_3_Stimuli/C_ambi40.png","他人","Word","自我","Mismatch","f","true","Formal","",""
"","","","","","psychophysics","212","937206","0.0-9.0-0.0-0.101","648","","j","","","","","","","","","","","","","key","j","16.660747663552055","768","428","./1_3_Stimuli/S_ambi40.png","他人","Image","他人","Match","j","true","Formal","",""
"","","","","","psychophysics","213","939065","0.0-9.0-0.0-0.102","708","","f","","","","","","","","","","","","","key","f","16.661261261261473","768","428","./1_3_Stimuli/C_ambi40.png","朋友","Image","自我","Mismatch","f","true","Formal","",""
"","","","","","psychophysics","214","940802","0.0-9.0-0.0-0.103","584","","j","","","","","","","","","","","","","key","j","16.661165048543463","768","428","./1_3_Stimuli/S_ambi40.png","他人","Word","他人","Match","j","true","Formal","",""
"","","","","","psychophysics","215","942413","0.0-9.0-0.0-0.104","457","","j","","","","","","","","","","","","","key","j","16.660416666665697","768","428","./1_3_Stimuli/C_ambi40.png","自我","Image","自我","Match","j","true","Formal","",""
"","","","","","psychophysics","216","944137","0.0-9.0-0.0-0.105","567","","f","","","","","","","","","","","","","key","f","16.660784313725717","768","428","./1_3_Stimuli/T_ambi40.png","自我","Image","朋友","Mismatch","f","true","Formal","",""
"","","","","","psychophysics","217","945885","0.0-9.0-0.0-0.106","597","","f","","","","","","","","","","","","","key","f","16.661165048543463","768","428","./1_3_Stimuli/S_ambi40.png","自我","Image","他人","Mismatch","f","true","Formal","",""
"","","","","","psychophysics","218","947556","0.0-9.0-0.0-0.107","519","","f","","","","","","","","","","","","","key","f","16.660999999999767","768","428","./1_3_Stimuli/S_ambi40.png","自我","Word","他人","Mismatch","f","true","Formal","",""
"","","","","","psychophysics","219","950009","0.0-9.0-0.0-0.108","1291","","j","","","","","","","","","","","","","key","j","16.660958904109588","768","428","./1_3_Stimuli/S_ambi40.png","朋友","Word","他人","Mismatch","f","false","Formal","",""
"","","","","","psychophysics","220","951754","0.0-9.0-0.0-0.109","593","","j","","","","","","","","","","","","","key","j","16.65961538461516","768","428","./1_3_Stimuli/C_ambi40.png","自我","Word","自我","Match","j","true","Formal","",""
"","","","","","psychophysics","221","954017","0.0-9.0-0.0-0.110","1104","","f","","","","","","","","","","","","","key","f","16.661194029850574","768","428","./1_3_Stimuli/C_ambi40.png","他人","Image","自我","Mismatch","f","true","Formal","",""
"","","","","","psychophysics","222","955965","0.0-9.0-0.0-0.111","797","","j","","","","","","","","","","","","","key","j","16.66206896551664","768","428","./1_3_Stimuli/S_ambi40.png","朋友","Image","他人","Mismatch","f","false","Formal","",""
"","","","","","psychophysics","223","957950","0.0-9.0-0.0-0.112","832","","f","","","","","","","","","","","","","key","f","16.66186440678045","768","428","./1_3_Stimuli/T_ambi40.png","他人","Image","朋友","Mismatch","f","true","Formal","",""
"","","","","","psychophysics","224","959699","0.0-9.0-0.0-0.113","599","","f","","","","","","","","","","","","","key","f","16.661165048543463","768","428","./1_3_Stimuli/T_ambi40.png","自我","Word","朋友","Mismatch","f","true","Formal","",""
"","","","","","psychophysics","225","961391","0.0-9.0-0.0-0.114","542","","j","","","","","","","","","","","","","key","j","16.661999999999534","768","428","./1_3_Stimuli/C_ambi40.png","自我","Word","自我","Match","j","true","Formal","",""
"","","","","","psychophysics","226","963184","0.0-9.0-0.0-0.115","635","","j","","","","","","","","","","","","","key","j","16.65981308411193","768","428","./1_3_Stimuli/S_ambi40.png","他人","Word","他人","Match","j","true","Formal","",""
"","","","","","psychophysics","227","964947","0.0-9.0-0.0-0.116","606","","j","","","","","","","","","","","","","key","j","16.660576923077596","768","428","./1_3_Stimuli/T_ambi40.png","朋友","Word","朋友","Match","j","true","Formal","",""
"","","","","","psychophysics","228","966593","0.0-9.0-0.0-0.117","495","","j","","","","","","","","","","","","","key","j","16.661224489796393","768","428","./1_3_Stimuli/T_ambi40.png","朋友","Word","朋友","Match","j","true","Formal","",""
"","","","","","psychophysics","229","968159","0.0-9.0-0.0-0.118","414","","j","","","","","","","","","","","","","key","j","16.66021505376369","768","428","./1_3_Stimuli/C_ambi40.png","自我","Image","自我","Match","j","true","Formal","",""
"","","","","","psychophysics","230","969955","0.0-9.0-0.0-0.119","641","","j","","","","","","","","","","","","","key","j","16.66168224299109","768","428","./1_3_Stimuli/T_ambi40.png","朋友","Image","朋友","Match","j","true","Formal","",""
"","","","","","html-keyboard-response","231","974107","0.0-9.0-1.0","4152","<style>.context{color:white; font-size: 35px; line-height:40px}</style>                        <div><p class='context'>您正确回答了90% 的试次。</p><p class='context'>您的平均反应时为604毫秒。</p><p> <div style = 'color: green'><按任意键进入休息></div></p>"," ","","","","","","","","","","","","","","","","","","","","","","","","","","",""
"","","","","","html-button-response","232","1091833","0.0-9.0-2.0","117722","
                  <p>您当前还剩余5组实验</p>
                  <p>现在是休息时间，当您结束休息后，您可以点击 结束休息 按钮 继续</p>
                  <p>建议休息时间还剩余<span id=""iii"">60</span>秒</p>","0","","","","","","","","","","","","","","","","","","","","","","","","","","",""
"","","","","","psychophysics","233","1093719","0.0-9.0-0.1-0.120","731","","j","","","","","","","","","","","","","key","j","16.661607142855896","768","428","./1_3_Stimuli/S_ambi40.png","他人","Word","他人","Match","j","true","Formal","",""
"","","","","","psychophysics","234","1095455","0.0-9.0-0.1-0.121","583","","j","","","","","","","","","","","","","key","j","16.661165048544593","768","428","./1_3_Stimuli/T_ambi40.png","朋友","Word","朋友","Match","j","true","Formal","",""
"","","","","","psychophysics","235","1097215","0.0-9.0-0.1-0.122","603","","f","","","","","","","","","","","","","key","f","16.66153846153891","768","428","./1_3_Stimuli/S_ambi40.png","自我","Image","他人","Mismatch","f","true","Formal","",""
"","","","","","psychophysics","236","1098997","0.0-9.0-0.1-0.123","628","","f","","","","","","","","","","","","","key","f","16.662264150942956","768","428","./1_3_Stimuli/T_ambi40.png","他人","Image","朋友","Mismatch","f","true","Formal","",""
"","","","","","psychophysics","237","1100621","0.0-9.0-0.1-0.124","469","","j","","","","","","","","","","","","","key","j","16.65979381443299","768","428","./1_3_Stimuli/C_ambi40.png","朋友","Word","自我","Mismatch","f","false","Formal","",""
"","","","","","psychophysics","238","1102329","0.0-9.0-0.1-0.125","546","","f","","","","","","","","","","","","","key","f","16.659405940594983","768","428","./1_3_Stimuli/C_ambi40.png","朋友","Image","自我","Mismatch","f","true","Formal","",""
"","","","","","psychophysics","239","1103934","0.0-9.0-0.1-0.126","453","","j","","","","","","","","","","","","","key","j","16.661052631579437","768","428","./1_3_Stimuli/C_ambi40.png","自我","Word","自我","Match","j","true","Formal","",""
"","","","","","psychophysics","240","1105693","0.0-9.0-0.1-0.127","609","","f","","","","","","","","","","","","","key","f","16.659615384614042","768","428","./1_3_Stimuli/S_ambi40.png","朋友","Image","他人","Mismatch","f","true","Formal","",""
"","","","","","psychophysics","241","1107457","0.0-9.0-0.1-0.128","606","","j","","","","","","","","","","","","","key","j","16.660952380951493","768","428","./1_3_Stimuli/S_ambi40.png","他人","Image","他人","Match","j","true","Formal","",""
"","","","","","psychophysics","242","1109085","0.0-9.0-0.1-0.129","476","","f","","","","","","","","","","","","","key","f","16.661855670102614","768","428","./1_3_Stimuli/C_ambi40.png","他人","Image","自我","Mismatch","f","true","Formal","",""
"","","","","","psychophysics","243","1110789","0.0-9.0-0.1-0.130","540","","f","","","","","","","","","","","","","key","f","16.661386138614322","768","428","./1_3_Stimuli/T_ambi40.png","自我","Image","朋友","Mismatch","f","true","Formal","",""
"","","","","","psychophysics","244","1112347","0.0-9.0-0.1-0.131","400","","f","","","","","","","","","","","","","key","f","16.66195652173812","768","428","./1_3_Stimuli/S_ambi40.png","他人","Word","他人","Match","j","false","Formal","",""
"","","","","","psychophysics","245","1113893","0.0-9.0-0.1-0.132","395","","j","","","","","","","","","","","","","key","j","16.66195652174065","768","428","./1_3_Stimuli/C_ambi40.png","自我","Word","自我","Match","j","true","Formal","",""
"","","","","","psychophysics","246","1115474","0.0-9.0-0.1-0.133","427","","j","","","","","","","","","","","","","key","j","16.66170212765908","768","428","./1_3_Stimuli/C_ambi40.png","自我","Image","自我","Match","j","true","Formal","",""
"","","","","","psychophysics","247","1117066","0.0-9.0-0.1-0.134","440","","j","","","","","","","","","","","","","key","j","16.65999999999951","768","428","./1_3_Stimuli/T_ambi40.png","朋友","Image","朋友","Match","j","true","Formal","",""
"","","","","","psychophysics","248","1118725","0.0-9.0-0.1-0.135","495","","f","","","","","","","","","","","","","key","f","16.661224489796393","768","428","./1_3_Stimuli/S_ambi40.png","朋友","Word","他人","Mismatch","f","true","Formal","",""
"","","","","","psychophysics","249","1120328","0.0-9.0-0.1-0.136","449","","f","","","","","","","","","","","","","key","f","16.662105263159365","768","428","./1_3_Stimuli/S_ambi40.png","自我","Word","他人","Mismatch","f","true","Formal","",""
"","","","","","psychophysics","250","1122014","0.0-9.0-0.1-0.137","535","","f","","","","","","","","","","","","","key","f","16.6609999999986","768","428","./1_3_Stimuli/T_ambi40.png","自我","Word","朋友","Mismatch","f","true","Formal","",""
"","","","","","psychophysics","251","1123705","0.0-9.0-0.1-0.138","533","","j","","","","","","","","","","","","","key","j","16.6609999999986","768","428","./1_3_Stimuli/S_ambi40.png","他人","Image","他人","Match","j","true","Formal","",""
"","","","","","psychophysics","252","1125488","0.0-9.0-0.1-0.139","630","","f","","","","","","","","","","","","","key","f","16.661320754715664","768","428","./1_3_Stimuli/C_ambi40.png","他人","Word","自我","Mismatch","f","true","Formal","",""
"","","","","","psychophysics","253","1127173","0.0-9.0-0.1-0.140","534","","j","","","","","","","","","","","","","key","j","16.6590000000014","768","428","./1_3_Stimuli/C_ambi40.png","自我","Image","自我","Match","j","true","Formal","",""
"","","","","","psychophysics","254","1128827","0.0-9.0-0.1-0.141","500","","j","","","","","","","","","","","","","key","j","16.661616161616163","768","428","./1_3_Stimuli/T_ambi40.png","朋友","Image","朋友","Match","j","true","Formal","",""
"","","","","","psychophysics","255","1130446","0.0-9.0-0.1-0.142","464","","j","","","","","","","","","","","","","key","j","16.660416666668123","768","428","./1_3_Stimuli/T_ambi40.png","朋友","Word","朋友","Match","j","true","Formal","",""
"","","","","","psychophysics","256","1132121","0.0-9.0-0.1-0.143","524","","f","","","","","","","","","","","","","key","f","16.66060606060512","768","428","./1_3_Stimuli/T_ambi40.png","他人","Word","朋友","Mismatch","f","true","Formal","",""
"","","","","","psychophysics","257","1133803","0.0-9.0-0.1-0.144","529","","f","","","","","","","","","","","","","key","f","16.661000000000932","768","428","./1_3_Stimuli/T_ambi40.png","他人","Word","朋友","Mismatch","f","true","Formal","",""
"","","","","","psychophysics","258","1135407","0.0-9.0-0.1-0.145","453","","f","","","","","","","","","","","","","key","f","16.661052631576986","768","428","./1_3_Stimuli/T_ambi40.png","他人","Image","朋友","Mismatch","f","true","Formal","",""
"","","","","","psychophysics","259","1137004","0.0-9.0-0.1-0.146","447","","j","","","","","","","","","","","","","key","j","16.660638297870854","768","428","./1_3_Stimuli/T_ambi40.png","朋友","Word","朋友","Match","j","true","Formal","",""
"","","","","","psychophysics","260","1138523","0.0-9.0-0.1-0.147","367","","j","","","","","","","","","","","","","key","j","16.660439560438025","768","428","./1_3_Stimuli/C_ambi40.png","自我","Image","自我","Match","j","true","Formal","",""
"","","","","","psychophysics","261","1140212","0.0-9.0-0.1-0.148","536","","f","","","","","","","","","","","","","key","f","16.66","768","428","./1_3_Stimuli/S_ambi40.png","自我","Image","他人","Mismatch","f","true","Formal","",""
"","","","","","psychophysics","262","1141899","0.0-9.0-0.1-0.149","528","","j","","","","","","","","","","","","","key","j","16.66","768","428","./1_3_Stimuli/S_ambi40.png","朋友","Image","他人","Mismatch","f","false","Formal","",""
"","","","","","psychophysics","263","1143629","0.0-9.0-0.1-0.150","574","","f","","","","","","","","","","","","","key","f","16.660194174757283","768","428","./1_3_Stimuli/C_ambi40.png","他人","Image","自我","Mismatch","f","true","Formal","",""
"","","","","","psychophysics","264","1145272","0.0-9.0-0.1-0.151","485","","j","","","","","","","","","","","","","key","j","16.658163265306122","768","428","./1_3_Stimuli/S_ambi40.png","他人","Word","他人","Match","j","true","Formal","",""
"","","","","","psychophysics","265","1147005","0.0-9.0-0.1-0.152","572","","j","","","","","","","","","","","","","key","j","16.662135922329647","768","428","./1_3_Stimuli/S_ambi40.png","他人","Word","他人","Match","j","true","Formal","",""
"","","","","","psychophysics","266","1148610","0.0-9.0-0.1-0.153","454","","j","","","","","","","","","","","","","key","j","16.661052631579437","768","428","./1_3_Stimuli/T_ambi40.png","朋友","Image","朋友","Match","j","true","Formal","",""
"","","","","","psychophysics","267","1150083","0.0-9.0-0.1-0.154","314","","j","","","","","","","","","","","","","key","j","16.65977011494146","768","428","./1_3_Stimuli/C_ambi40.png","自我","Image","自我","Match","j","true","Formal","",""
"","","","","","psychophysics","268","1151615","0.0-9.0-0.1-0.155","380","","j","","","","","","","","","","","","","key","j","16.65934065934066","768","428","./1_3_Stimuli/C_ambi40.png","自我","Word","自我","Match","j","true","Formal","",""
"","","","","","psychophysics","269","1153134","0.0-9.0-0.1-0.156","365","","j","","","","","","","","","","","","","key","j","16.66111111111111","768","428","./1_3_Stimuli/T_ambi40.png","朋友","Image","朋友","Match","j","true","Formal","",""
"","","","","","psychophysics","270","1154761","0.0-9.0-0.1-0.157","476","","f","","","","","","","","","","","","","key","f","16.661458333333332","768","428","./1_3_Stimuli/S_ambi40.png","朋友","Word","他人","Mismatch","f","true","Formal","",""
"","","","","","psychophysics","271","1156501","0.0-9.0-0.1-0.158","590","","j","","","","","","","","","","","","","key","j","16.65961538461628","768","428","./1_3_Stimuli/T_ambi40.png","朋友","Word","朋友","Match","j","true","Formal","",""
"","","","","","psychophysics","272","1158147","0.0-9.0-0.1-0.159","493","","f","","","","","","","","","","","","","key","f","16.65979381443299","768","428","./1_3_Stimuli/C_ambi40.png","他人","Word","自我","Mismatch","f","true","Formal","",""
"","","","","","psychophysics","273","1159987","0.0-9.0-0.1-0.160","689","","f","","","","","","","","","","","","","key","f","16.661818181818607","768","428","./1_3_Stimuli/T_ambi40.png","自我","Image","朋友","Mismatch","f","true","Formal","",""
"","","","","","psychophysics","274","1161587","0.0-9.0-0.1-0.161","440","","j","","","","","","","","","","","","","key","j","16.661052631579437","768","428","./1_3_Stimuli/S_ambi40.png","他人","Image","他人","Match","j","true","Formal","",""
"","","","","","psychophysics","275","1163142","0.0-9.0-0.1-0.162","402","","j","","","","","","","","","","","","","key","j","16.660869565217897","768","428","./1_3_Stimuli/C_ambi40.png","自我","Word","自我","Match","j","true","Formal","",""
"","","","","","psychophysics","276","1164955","0.0-9.0-0.1-0.163","657","","j","","","","","","","","","","","","","key","j","16.661111111112405","768","428","./1_3_Stimuli/S_ambi40.png","他人","Image","他人","Match","j","true","Formal","",""
"","","","","","psychophysics","277","1166677","0.0-9.0-0.1-0.164","563","","f","","","","","","","","","","","","","key","f","16.66176470588235","768","428","./1_3_Stimuli/C_ambi40.png","朋友","Image","自我","Mismatch","f","true","Formal","",""
"","","","","","psychophysics","278","1168355","0.0-9.0-0.1-0.165","524","","f","","","","","","","","","","","","","key","f","16.663000000000466","768","428","./1_3_Stimuli/S_ambi40.png","自我","Word","他人","Mismatch","f","true","Formal","",""
"","","","","","psychophysics","279","1170091","0.0-9.0-0.1-0.166","578","","f","","","","","","","","","","","","","key","f","16.661165048544593","768","428","./1_3_Stimuli/C_ambi40.png","朋友","Word","自我","Mismatch","f","true","Formal","",""
"","","","","","psychophysics","280","1171837","0.0-9.0-0.1-0.167","592","","f","","","","","","","","","","","","","key","f","16.662500000001344","768","428","./1_3_Stimuli/T_ambi40.png","自我","Word","朋友","Mismatch","f","true","Formal","",""
"","","","","","psychophysics","281","1173441","0.0-9.0-0.1-0.168","446","","j","","","","","","","","","","","","","key","j","16.661052631579437","768","428","./1_3_Stimuli/C_ambi40.png","自我","Word","自我","Match","j","true","Formal","",""
"","","","","","psychophysics","282","1175057","0.0-9.0-0.1-0.169","465","","f","","","","","","","","","","","","","key","f","16.661458333333332","768","428","./1_3_Stimuli/S_ambi40.png","朋友","Word","他人","Mismatch","f","true","Formal","",""
"","","","","","psychophysics","283","1176635","0.0-9.0-0.1-0.170","425","","j","","","","","","","","","","","","","key","j","16.659574468085108","768","428","./1_3_Stimuli/C_ambi40.png","自我","Image","自我","Match","j","true","Formal","",""
"","","","","","psychophysics","284","1178605","0.0-9.0-0.1-0.171","812","","f","","","","","","","","","","","","","key","f","16.659829059828663","768","428","./1_3_Stimuli/S_ambi40.png","朋友","Image","他人","Mismatch","f","true","Formal","",""
"","","","","","psychophysics","285","1180191","0.0-9.0-0.1-0.172","434","","f","","","","","","","","","","","","","key","f","16.659574468085108","768","428","./1_3_Stimuli/C_ambi40.png","朋友","Word","自我","Mismatch","f","true","Formal","",""
"","","","","","psychophysics","286","1181883","0.0-9.0-0.1-0.173","541","","j","","","","","","","","","","","","","key","j","16.661386138614322","768","428","./1_3_Stimuli/T_ambi40.png","朋友","Word","朋友","Match","j","true","Formal","",""
"","","","","","psychophysics","287","1183425","0.0-9.0-0.1-0.174","390","","j","","","","","","","","","","","","","key","j","16.66195652174065","768","428","./1_3_Stimuli/C_ambi40.png","自我","Word","自我","Match","j","true","Formal","",""
"","","","","","psychophysics","288","1184994","0.0-9.0-0.1-0.175","411","","j","","","","","","","","","","","","","key","j","16.661290322580644","768","428","./1_3_Stimuli/T_ambi40.png","朋友","Image","朋友","Match","j","true","Formal","",""
"","","","","","psychophysics","289","1186595","0.0-9.0-0.1-0.176","448","","j","","","","","","","","","","","","","key","j","16.661052631579437","768","428","./1_3_Stimuli/T_ambi40.png","朋友","Image","朋友","Match","j","true","Formal","",""
"","","","","","psychophysics","290","1188235","0.0-9.0-0.1-0.177","480","","f","","","","","","","","","","","","","key","f","16.660824742269","768","428","./1_3_Stimuli/S_ambi40.png","他人","Image","他人","Match","j","false","Formal","",""
"","","","","","psychophysics","291","1190019","0.0-9.0-0.1-0.178","630","","f","","","","","","","","","","","","","key","f","16.662264150942956","768","428","./1_3_Stimuli/T_ambi40.png","自我","Image","朋友","Mismatch","f","true","Formal","",""
"","","","","","psychophysics","292","1191787","0.0-9.0-0.1-0.179","615","","j","","","","","","","","","","","","","key","j","16.66190476190476","768","428","./1_3_Stimuli/S_ambi40.png","他人","Word","他人","Match","j","true","Formal","",""
"","","","","","psychophysics","293","1193346","0.0-9.0-0.1-0.180","407","","f","","","","","","","","","","","","","key","f","16.66021505376244","768","428","./1_3_Stimuli/C_ambi40.png","他人","Word","自我","Mismatch","f","true","Formal","",""
"","","","","","psychophysics","294","1195043","0.0-9.0-0.1-0.181","539","","f","","","","","","","","","","","","","key","f","16.661386138614322","768","428","./1_3_Stimuli/T_ambi40.png","他人","Image","朋友","Mismatch","f","true","Formal","",""
"","","","","","psychophysics","295","1196616","0.0-9.0-0.1-0.182","413","","f","","","","","","","","","","","","","key","f","16.661290322580644","768","428","./1_3_Stimuli/T_ambi40.png","他人","Word","朋友","Mismatch","f","true","Formal","",""
"","","","","","psychophysics","296","1198163","0.0-9.0-0.1-0.183","393","","j","","","","","","","","","","","","","key","j","16.66195652173812","768","428","./1_3_Stimuli/C_ambi40.png","自我","Image","自我","Match","j","true","Formal","",""
"","","","","","psychophysics","297","1199837","0.0-9.0-0.1-0.184","522","","f","","","","","","","","","","","","","key","f","16.66","768","428","./1_3_Stimuli/S_ambi40.png","自我","Image","他人","Mismatch","f","true","Formal","",""
"","","","","","psychophysics","298","1201469","0.0-9.0-0.1-0.185","471","","f","","","","","","","","","","","","","key","f","16.660824742266602","768","428","./1_3_Stimuli/S_ambi40.png","自我","Word","他人","Mismatch","f","true","Formal","",""
"","","","","","psychophysics","299","1203137","0.0-9.0-0.1-0.186","517","","f","","","","","","","","","","","","","key","f","16.661616161616163","768","428","./1_3_Stimuli/C_ambi40.png","他人","Image","自我","Mismatch","f","true","Formal","",""
"","","","","","psychophysics","300","1204817","0.0-9.0-0.1-0.187","518","","j","","","","","","","","","","","","","key","j","16.66060606060747","768","428","./1_3_Stimuli/S_ambi40.png","他人","Word","他人","Match","j","true","Formal","",""
"","","","","","psychophysics","301","1206404","0.0-9.0-0.1-0.188","438","","f","","","","","","","","","","","","","key","f","16.662765957447302","768","428","./1_3_Stimuli/T_ambi40.png","自我","Word","朋友","Mismatch","f","true","Formal","",""
"","","","","","psychophysics","302","1208065","0.0-9.0-0.1-0.189","499","","j","","","","","","","","","","","","","key","j","16.661224489796393","768","428","./1_3_Stimuli/T_ambi40.png","朋友","Word","朋友","Match","j","true","Formal","",""
"","","","","","psychophysics","303","1209634","0.0-9.0-0.1-0.190","419","","f","","","","","","","","","","","","","key","f","16.663440860217058","768","428","./1_3_Stimuli/S_ambi40.png","他人","Image","他人","Match","j","false","Formal","",""
"","","","","","psychophysics","304","1211304","0.0-9.0-0.1-0.191","512","","f","","","","","","","","","","","","","key","f","16.66060606060512","768","428","./1_3_Stimuli/C_ambi40.png","朋友","Image","自我","Mismatch","f","true","Formal","",""
"","","","","","psychophysics","305","1212960","0.0-9.0-0.1-0.192","502","","j","","","","","","","","","","","","","key","j","16.66122448979402","768","428","./1_3_Stimuli/S_ambi40.png","他人","Word","他人","Match","j","true","Formal","",""
"","","","","","psychophysics","306","1214587","0.0-9.0-0.1-0.193","473","","f","","","","","","","","","","","","","key","f","16.660824742269","768","428","./1_3_Stimuli/C_ambi40.png","他人","Word","自我","Mismatch","f","true","Formal","",""
"","","","","","psychophysics","307","1216244","0.0-9.0-0.1-0.194","507","","f","","","","","","","","","","","","","key","f","16.660204081632177","768","428","./1_3_Stimuli/T_ambi40.png","他人","Word","朋友","Mismatch","f","true","Formal","",""
"","","","","","psychophysics","308","1217810","0.0-9.0-0.1-0.195","414","","j","","","","","","","","","","","","","key","j","16.661290322580644","768","428","./1_3_Stimuli/S_ambi40.png","他人","Image","他人","Match","j","true","Formal","",""
"","","","","","psychophysics","309","1219409","0.0-9.0-0.1-0.196","447","","j","","","","","","","","","","","","","key","j","16.660638297870854","768","428","./1_3_Stimuli/C_ambi40.png","自我","Word","自我","Match","j","true","Formal","",""
"","","","","","psychophysics","310","1220948","0.0-9.0-0.1-0.197","386","","f","","","","","","","","","","","","","key","f","16.659782608697675","768","428","./1_3_Stimuli/C_ambi40.png","自我","Image","自我","Match","j","false","Formal","",""
"","","","","","psychophysics","311","1222490","0.0-9.0-0.1-0.198","392","","j","","","","","","","","","","","","","key","j","16.660439560438025","768","428","./1_3_Stimuli/C_ambi40.png","自我","Word","自我","Match","j","true","Formal","",""
"","","","","","psychophysics","312","1224028","0.0-9.0-0.1-0.199","384","","j","","","","","","","","","","","","","key","j","16.660869565217897","768","428","./1_3_Stimuli/T_ambi40.png","朋友","Image","朋友","Match","j","true","Formal","",""
"","","","","","psychophysics","313","1225562","0.0-9.0-0.1-0.200","371","","j","","","","","","","","","","","","","key","j","16.66153846153795","768","428","./1_3_Stimuli/T_ambi40.png","他人","Image","朋友","Mismatch","f","false","Formal","",""
"","","","","","psychophysics","314","1227258","0.0-9.0-0.1-0.201","533","","f","","","","","","","","","","","","","key","f","16.661000000000932","768","428","./1_3_Stimuli/S_ambi40.png","朋友","Word","他人","Mismatch","f","true","Formal","",""
"","","","","","psychophysics","315","1229040","0.0-9.0-0.1-0.202","631","","f","","","","","","","","","","","","","key","f","16.658095238096124","768","428","./1_3_Stimuli/T_ambi40.png","自我","Word","朋友","Mismatch","f","true","Formal","",""
"","","","","","psychophysics","316","1230792","0.0-9.0-0.1-0.203","601","","f","","","","","","","","","","","","","key","f","16.660000000000444","768","428","./1_3_Stimuli/S_ambi40.png","自我","Image","他人","Mismatch","f","true","Formal","",""
"","","","","","psychophysics","317","1232433","0.0-9.0-0.1-0.204","480","","f","","","","","","","","","","","","","key","f","16.660824742269","768","428","./1_3_Stimuli/C_ambi40.png","他人","Image","自我","Mismatch","f","true","Formal","",""
"","","","","","psychophysics","318","1234065","0.0-9.0-0.1-0.205","475","","j","","","","","","","","","","","","","key","j","16.65979381443299","768","428","./1_3_Stimuli/T_ambi40.png","朋友","Word","朋友","Match","j","true","Formal","",""
"","","","","","psychophysics","319","1235740","0.0-9.0-0.1-0.206","517","","f","","","","","","","","","","","","","key","f","16.662000000001864","768","428","./1_3_Stimuli/C_ambi40.png","朋友","Word","自我","Mismatch","f","true","Formal","",""
"","","","","","psychophysics","320","1237458","0.0-9.0-0.1-0.207","563","","j","","","","","","","","","","","","","key","j","16.66176470588235","768","428","./1_3_Stimuli/T_ambi40.png","朋友","Image","朋友","Match","j","true","Formal","",""
"","","","","","psychophysics","321","1239122","0.0-9.0-0.1-0.208","501","","f","","","","","","","","","","","","","key","f","16.661616161616163","768","428","./1_3_Stimuli/T_ambi40.png","自我","Image","朋友","Mismatch","f","true","Formal","",""
"","","","","","psychophysics","322","1240776","0.0-9.0-0.1-0.209","495","","j","","","","","","","","","","","","","key","j","16.660204081632177","768","428","./1_3_Stimuli/C_ambi40.png","自我","Image","自我","Match","j","true","Formal","",""
"","","","","","psychophysics","323","1242423","0.0-9.0-0.1-0.210","486","","f","","","","","","","","","","","","","key","f","16.661224489796393","768","428","./1_3_Stimuli/C_ambi40.png","朋友","Image","自我","Mismatch","f","true","Formal","",""
"","","","","","psychophysics","324","1244100","0.0-9.0-0.1-0.211","526","","f","","","","","","","","","","","","","key","f","16.661616161616163","768","428","./1_3_Stimuli/T_ambi40.png","朋友","Word","朋友","Match","j","false","Formal","",""
"","","","","","psychophysics","325","1245860","0.0-9.0-0.1-0.212","608","","j","","","","","","","","","","","","","key","j","16.660952380953713","768","428","./1_3_Stimuli/S_ambi40.png","他人","Word","他人","Match","j","true","Formal","",""
"","","","","","psychophysics","326","1247612","0.0-9.0-0.1-0.213","598","","j","","","","","","","","","","","","","key","j","16.660576923076476","768","428","./1_3_Stimuli/S_ambi40.png","他人","Image","他人","Match","j","true","Formal","",""
"","","","","","psychophysics","327","1249314","0.0-9.0-0.1-0.214","546","","f","","","","","","","","","","","","","key","f","16.662376237625146","768","428","./1_3_Stimuli/S_ambi40.png","朋友","Image","他人","Mismatch","f","true","Formal","",""
"","","","","","psychophysics","328","1250972","0.0-9.0-0.1-0.215","504","","f","","","","","","","","","","","","","key","f","16.66060606060512","768","428","./1_3_Stimuli/S_ambi40.png","自我","Word","他人","Mismatch","f","true","Formal","",""
"","","","","","psychophysics","329","1252630","0.0-9.0-0.1-0.216","497","","f","","","","","","","","","","","","","key","f","16.661224489796393","768","428","./1_3_Stimuli/T_ambi40.png","自我","Word","朋友","Mismatch","f","true","Formal","",""
"","","","","","psychophysics","330","1254348","0.0-9.0-0.1-0.217","564","","f","","","","","","","","","","","","","key","f","16.66274509804013","768","428","./1_3_Stimuli/C_ambi40.png","朋友","Image","自我","Mismatch","f","true","Formal","",""
"","","","","","psychophysics","331","1255948","0.0-9.0-0.1-0.218","449","","j","","","","","","","","","","","","","key","j","16.661052631579437","768","428","./1_3_Stimuli/C_ambi40.png","自我","Word","自我","Match","j","true","Formal","",""
"","","","","","psychophysics","332","1257617","0.0-9.0-0.1-0.219","519","","f","","","","","","","","","","","","","key","f","16.65959595959643","768","428","./1_3_Stimuli/S_ambi40.png","朋友","Word","他人","Mismatch","f","true","Formal","",""
"","","","","","psychophysics","333","1259206","0.0-9.0-0.1-0.220","426","","f","","","","","","","","","","","","","key","f","16.66063829787333","768","428","./1_3_Stimuli/S_ambi40.png","他人","Word","他人","Match","j","false","Formal","",""
"","","","","","psychophysics","334","1260883","0.0-9.0-0.1-0.221","523","","f","","","","","","","","","","","","","key","f","16.661000000000932","768","428","./1_3_Stimuli/S_ambi40.png","自我","Word","他人","Mismatch","f","true","Formal","",""
"","","","","","psychophysics","335","1262547","0.0-9.0-0.1-0.222","507","","j","","","","","","","","","","","","","key","j","16.66224489795823","768","428","./1_3_Stimuli/S_ambi40.png","朋友","Image","他人","Mismatch","f","false","Formal","",""
"","","","","","psychophysics","336","1264222","0.0-9.0-0.1-0.223","525","","j","","","","","","","","","","","","","key","j","16.661616161616163","768","428","./1_3_Stimuli/T_ambi40.png","朋友","Word","朋友","Match","j","true","Formal","",""
"","","","","","psychophysics","337","1265952","0.0-9.0-0.1-0.224","574","","j","","","","","","","","","","","","","key","j","16.662135922329647","768","428","./1_3_Stimuli/S_ambi40.png","他人","Word","他人","Match","j","true","Formal","",""
"","","","","","psychophysics","338","1267513","0.0-9.0-0.1-0.225","409","","j","","","","","","","","","","","","","key","j","16.661290322580644","768","428","./1_3_Stimuli/C_ambi40.png","自我","Word","自我","Match","j","true","Formal","",""
"","","","","","psychophysics","339","1269285","0.0-9.0-0.1-0.226","620","","j","","","","","","","","","","","","","key","j","16.66190476190476","768","428","./1_3_Stimuli/S_ambi40.png","他人","Image","他人","Match","j","true","Formal","",""
"","","","","","psychophysics","340","1270911","0.0-9.0-0.1-0.227","473","","j","","","","","","","","","","","","","key","j","16.661458333333332","768","428","./1_3_Stimuli/T_ambi40.png","朋友","Image","朋友","Match","j","true","Formal","",""
"","","","","","psychophysics","341","1272634","0.0-9.0-0.1-0.228","573","","f","","","","","","","","","","","","","key","f","16.660784313724577","768","428","./1_3_Stimuli/S_ambi40.png","自我","Image","他人","Mismatch","f","true","Formal","",""
"","","","","","psychophysics","342","1274327","0.0-9.0-0.1-0.229","540","","j","","","","","","","","","","","","","key","j","16.661386138614322","768","428","./1_3_Stimuli/C_ambi40.png","朋友","Word","自我","Mismatch","f","false","Formal","",""
"","","","","","psychophysics","343","1276180","0.0-9.0-0.1-0.230","702","","f","","","","","","","","","","","","","key","f","16.660909090908667","768","428","./1_3_Stimuli/T_ambi40.png","自我","Image","朋友","Mismatch","f","true","Formal","",""
"","","","","","psychophysics","344","1277962","0.0-9.0-0.1-0.231","624","","f","","","","","","","","","","","","","key","f","16.66132075471786","768","428","./1_3_Stimuli/T_ambi40.png","朋友","Word","朋友","Match","j","false","Formal","",""
"","","","","","psychophysics","345","1279827","0.0-9.0-0.1-0.232","710","","f","","","","","","","","","","","","","key","f","16.65945945945904","768","428","./1_3_Stimuli/T_ambi40.png","他人","Word","朋友","Mismatch","f","true","Formal","",""
"","","","","","psychophysics","346","1281459","0.0-9.0-0.1-0.233","471","","j","","","","","","","","","","","","","key","j","16.660824742269","768","428","./1_3_Stimuli/C_ambi40.png","自我","Image","自我","Match","j","true","Formal","",""
"","","","","","psychophysics","347","1283233","0.0-9.0-0.1-0.234","614","","j","","","","","","","","","","","","","key","j","16.660952380951493","768","428","./1_3_Stimuli/S_ambi40.png","他人","Image","他人","Match","j","true","Formal","",""
"","","","","","psychophysics","348","1284846","0.0-9.0-0.1-0.235","462","","j","","","","","","","","","","","","","key","j","16.660416666665697","768","428","./1_3_Stimuli/T_ambi40.png","朋友","Image","朋友","Match","j","true","Formal","",""
"","","","","","psychophysics","349","1286525","0.0-9.0-0.1-0.236","526","","f","","","","","","","","","","","","","key","f","16.661000000000932","768","428","./1_3_Stimuli/T_ambi40.png","他人","Image","朋友","Mismatch","f","true","Formal","",""
"","","","","","psychophysics","350","1288142","0.0-9.0-0.1-0.237","465","","f","","","","","","","","","","","","","key","f","16.660416666665697","768","428","./1_3_Stimuli/C_ambi40.png","他人","Image","自我","Mismatch","f","true","Formal","",""
"","","","","","psychophysics","351","1289710","0.0-9.0-0.1-0.238","405","","j","","","","","","","","","","","","","key","j","16.66021505376244","768","428","./1_3_Stimuli/C_ambi40.png","自我","Image","自我","Match","j","true","Formal","",""
"","","","","","psychophysics","352","1291373","0.0-9.0-0.1-0.239","501","","f","","","","","","","","","","","","","key","f","16.661616161616163","768","428","./1_3_Stimuli/C_ambi40.png","他人","Word","自我","Mismatch","f","true","Formal","",""
"","","","","","html-keyboard-response","353","1345716","0.0-9.0-1.1","54343","<style>.context{color:white; font-size: 35px; line-height:40px}</style>                        <div><p class='context'>您正确回答了90% 的试次。</p><p class='context'>您的平均反应时为512毫秒。</p><p> <div style = 'color: green'><按任意键进入休息></div></p>"," ","","","","","","","","","","","","","","","","","","","","","","","","","","",""
"","","","","","html-button-response","354","1412145","0.0-9.0-2.1","66425","
                  <p>您当前还剩余4组实验</p>
                  <p>现在是休息时间，当您结束休息后，您可以点击 结束休息 按钮 继续</p>
                  <p>建议休息时间还剩余<span id=""iii"">60</span>秒</p>","0","","","","","","","","","","","","","","","","","","","","","","","","","","",""
"","","","","","psychophysics","355","1413952","0.0-9.0-0.2-0.240","655","","f","","","","","","","","","","","","","key","f","16.66261682243121","768","428","./1_3_Stimuli/T_ambi40.png","自我","Image","朋友","Mismatch","f","true","Formal","",""
"","","","","","psychophysics","356","1415544","0.0-9.0-0.2-0.241","436","","j","","","","","","","","","","","","","key","j","16.660638297870854","768","428","./1_3_Stimuli/S_ambi40.png","他人","Image","他人","Match","j","true","Formal","",""
"","","","","","psychophysics","357","1417055","0.0-9.0-0.2-0.242","361","","f","","","","","","","","","","","","","key","f","16.659999999998966","768","428","./1_3_Stimuli/T_ambi40.png","朋友","Word","朋友","Match","j","false","Formal","",""
"","","","","","psychophysics","358","1418625","0.0-9.0-0.2-0.243","414","","j","","","","","","","","","","","","","key","j","16.660215053764944","768","428","./1_3_Stimuli/C_ambi40.png","自我","Word","自我","Match","j","true","Formal","",""
"","","","","","psychophysics","359","1420233","0.0-9.0-0.2-0.244","456","","f","","","","","","","","","","","","","key","f","16.66000000000196","768","428","./1_3_Stimuli/C_ambi40.png","朋友","Image","自我","Mismatch","f","true","Formal","",""
"","","","","","psychophysics","360","1421879","0.0-9.0-0.2-0.245","486","","j","","","","","","","","","","","","","key","j","16.663265306122447","768","428","./1_3_Stimuli/C_ambi40.png","朋友","Word","自我","Mismatch","f","false","Formal","",""
"","","","","","psychophysics","361","1423620","0.0-9.0-0.2-0.246","581","","j","","","","","","","","","","","","","key","j","16.662135922329647","768","428","./1_3_Stimuli/C_ambi40.png","自我","Word","自我","Match","j","true","Formal","",""
"","","","","","psychophysics","362","1425305","0.0-9.0-0.2-0.247","530","","f","","","","","","","","","","","","","key","f","16.66","768","428","./1_3_Stimuli/S_ambi40.png","自我","Image","他人","Mismatch","f","true","Formal","",""
"","","","","","psychophysics","363","1426911","0.0-9.0-0.2-0.248","453","","j","","","","","","","","","","","","","key","j","16.661458333333332","768","428","./1_3_Stimuli/S_ambi40.png","朋友","Image","他人","Mismatch","f","false","Formal","",""
"","","","","","psychophysics","364","1428672","0.0-9.0-0.2-0.249","604","","f","","","","","","","","","","","","","key","f","16.66153846153891","768","428","./1_3_Stimuli/S_ambi40.png","自我","Word","他人","Mismatch","f","true","Formal","",""
"","","","","","psychophysics","365","1430268","0.0-9.0-0.2-0.250","444","","j","","","","","","","","","","","","","key","j","16.66063829787333","768","428","./1_3_Stimuli/C_ambi40.png","自我","Image","自我","Match","j","true","Formal","",""
"","","","","","psychophysics","366","1431825","0.0-9.0-0.2-0.251","406","","j","","","","","","","","","","","","","key","j","16.661290322580644","768","428","./1_3_Stimuli/C_ambi40.png","自我","Image","自我","Match","j","true","Formal","",""
"","","","","","psychophysics","367","1433474","0.0-9.0-0.2-0.252","492","","j","","","","","","","","","","","","","key","j","16.659183673470338","768","428","./1_3_Stimuli/S_ambi40.png","他人","Word","他人","Match","j","true","Formal","",""
"","","","","","psychophysics","368","1434974","0.0-9.0-0.2-0.253","344","","j","","","","","","","","","","","","","key","j","16.660674157303895","768","428","./1_3_Stimuli/T_ambi40.png","朋友","Image","朋友","Match","j","true","Formal","",""
"","","","","","psychophysics","369","1436486","0.0-9.0-0.2-0.254","355","","j","","","","","","","","","","","","","key","j","16.660674157303895","768","428","./1_3_Stimuli/T_ambi40.png","朋友","Image","朋友","Match","j","true","Formal","",""
"","","","","","psychophysics","370","1438173","0.0-9.0-0.2-0.255","535","","f","","","","","","","","","","","","","key","f","16.660396039605804","768","428","./1_3_Stimuli/C_ambi40.png","他人","Image","自我","Mismatch","f","true","Formal","",""
"","","","","","psychophysics","371","1439837","0.0-9.0-0.2-0.256","506","","f","","","","","","","","","","","","","key","f","16.65959595959643","768","428","./1_3_Stimuli/C_ambi40.png","他人","Word","自我","Mismatch","f","true","Formal","",""
"","","","","","psychophysics","372","1441628","0.0-9.0-0.2-0.257","638","","f","","","","","","","","","","","","","key","f","16.660377358490567","768","428","./1_3_Stimuli/T_ambi40.png","他人","Word","朋友","Mismatch","f","true","Formal","",""
"","","","","","psychophysics","373","1443316","0.0-9.0-0.2-0.258","530","","j","","","","","","","","","","","","","key","j","16.6609999999986","768","428","./1_3_Stimuli/S_ambi40.png","他人","Word","他人","Match","j","true","Formal","",""
"","","","","","psychophysics","374","1444961","0.0-9.0-0.2-0.259","493","","f","","","","","","","","","","","","","key","f","16.660204081632177","768","428","./1_3_Stimuli/S_ambi40.png","他人","Image","他人","Match","j","false","Formal","",""
"","","","","","psychophysics","375","1446842","0.0-9.0-0.2-0.260","728","","f","","","","","","","","","","","","","key","f","16.659821428572677","768","428","./1_3_Stimuli/S_ambi40.png","朋友","Word","他人","Mismatch","f","true","Formal","",""
"","","","","","psychophysics","376","1448537","0.0-9.0-0.2-0.261","536","","f","","","","","","","","","","","","","key","f","16.660396039603498","768","428","./1_3_Stimuli/T_ambi40.png","他人","Image","朋友","Mismatch","f","true","Formal","",""
"","","","","","psychophysics","377","1450172","0.0-9.0-0.2-0.262","482","","f","","","","","","","","","","","","","key","f","16.660824742269","768","428","./1_3_Stimuli/T_ambi40.png","自我","Word","朋友","Mismatch","f","true","Formal","",""
"","","","","","psychophysics","378","1451835","0.0-9.0-0.2-0.263","507","","f","","","","","","","","","","","","","key","f","16.661616161616163","768","428","./1_3_Stimuli/T_ambi40.png","朋友","Word","朋友","Match","j","false","Formal","",""
"","","","","","psychophysics","379","1453385","0.0-9.0-0.2-0.264","397","","j","","","","","","","","","","","","","key","j","16.660869565217897","768","428","./1_3_Stimuli/C_ambi40.png","自我","Word","自我","Match","j","true","Formal","",""
"","","","","","psychophysics","380","1455017","0.0-9.0-0.2-0.265","482","","j","","","","","","","","","","","","","key","j","16.660824742266602","768","428","./1_3_Stimuli/S_ambi40.png","他人","Image","他人","Match","j","true","Formal","",""
"","","","","","psychophysics","381","1456656","0.0-9.0-0.2-0.266","479","","f","","","","","","","","","","","","","key","f","16.661855670102614","768","428","./1_3_Stimuli/S_ambi40.png","自我","Image","他人","Mismatch","f","true","Formal","",""
"","","","","","psychophysics","382","1458412","0.0-9.0-0.2-0.267","602","","f","","","","","","","","","","","","","key","f","16.66153846153891","768","428","./1_3_Stimuli/S_ambi40.png","朋友","Image","他人","Mismatch","f","true","Formal","",""
"","","","","","psychophysics","383","1460115","0.0-9.0-0.2-0.268","552","","j","","","","","","","","","","","","","key","j","16.659405940594983","768","428","./1_3_Stimuli/T_ambi40.png","朋友","Image","朋友","Match","j","true","Formal","",""
"","","","","","psychophysics","384","1461799","0.0-9.0-0.2-0.269","529","","f","","","","","","","","","","","","","key","f","16.6609999999986","768","428","./1_3_Stimuli/C_ambi40.png","朋友","Image","自我","Mismatch","f","true","Formal","",""
"","","","","","psychophysics","385","1463383","0.0-9.0-0.2-0.270","429","","j","","","","","","","","","","","","","key","j","16.660638297870854","768","428","./1_3_Stimuli/C_ambi40.png","自我","Word","自我","Match","j","true","Formal","",""
"","","","","","psychophysics","386","1465046","0.0-9.0-0.2-0.271","502","","f","","","","","","","","","","","","","key","f","16.66262626262485","768","428","./1_3_Stimuli/T_ambi40.png","他人","Word","朋友","Mismatch","f","true","Formal","",""
"","","","","","psychophysics","387","1466749","0.0-9.0-0.2-0.272","546","","f","","","","","","","","","","","","","key","f","16.661386138614322","768","428","./1_3_Stimuli/T_ambi40.png","他人","Image","朋友","Mismatch","f","true","Formal","",""
"","","","","","psychophysics","388","1468373","0.0-9.0-0.2-0.273","466","","f","","","","","","","","","","","","","key","f","16.662499999998545","768","428","./1_3_Stimuli/S_ambi40.png","自我","Word","他人","Mismatch","f","true","Formal","",""
"","","","","","psychophysics","389","1469913","0.0-9.0-0.2-0.274","386","","j","","","","","","","","","","","","","key","j","16.66195652173812","768","428","./1_3_Stimuli/C_ambi40.png","自我","Image","自我","Match","j","true","Formal","",""
"","","","","","psychophysics","390","1471542","0.0-9.0-0.2-0.275","476","","j","","","","","","","","","","","","","key","j","16.66250000000097","768","428","./1_3_Stimuli/T_ambi40.png","朋友","Word","朋友","Match","j","true","Formal","",""
"","","","","","psychophysics","391","1473357","0.0-9.0-0.2-0.276","665","","j","","","","","","","","","","","","","key","j","16.661682242988913","768","428","./1_3_Stimuli/S_ambi40.png","他人","Word","他人","Match","j","true","Formal","",""
"","","","","","psychophysics","392","1475027","0.0-9.0-0.2-0.277","519","","f","","","","","","","","","","","","","key","f","16.65959595959643","768","428","./1_3_Stimuli/C_ambi40.png","朋友","Word","自我","Mismatch","f","true","Formal","",""
"","","","","","psychophysics","393","1476579","0.0-9.0-0.2-0.278","399","","j","","","","","","","","","","","","","key","j","16.660869565217897","768","428","./1_3_Stimuli/C_ambi40.png","自我","Image","自我","Match","j","true","Formal","",""
"","","","","","psychophysics","394","1478273","0.0-9.0-0.2-0.279","537","","f","","","","","","","","","","","","","key","f","16.661000000000932","768","428","./1_3_Stimuli/S_ambi40.png","朋友","Word","他人","Mismatch","f","true","Formal","",""
"","","","","","psychophysics","395","1480027","0.0-9.0-0.2-0.280","604","","f","","","","","","","","","","","","","key","f","16.660576923076476","768","428","./1_3_Stimuli/C_ambi40.png","他人","Word","自我","Mismatch","f","true","Formal","",""
"","","","","","psychophysics","396","1481677","0.0-9.0-0.2-0.281","490","","f","","","","","","","","","","","","","key","f","16.661224489796393","768","428","./1_3_Stimuli/C_ambi40.png","他人","Image","自我","Mismatch","f","true","Formal","",""
"","","","","","psychophysics","397","1483386","0.0-9.0-0.2-0.282","557","","f","","","","","","","","","","","","","key","f","16.66237623762284","768","428","./1_3_Stimuli/T_ambi40.png","自我","Word","朋友","Mismatch","f","true","Formal","",""
"","","","","","psychophysics","398","1485181","0.0-9.0-0.2-0.283","643","","f","","","","","","","","","","","","","key","f","16.660377358490567","768","428","./1_3_Stimuli/T_ambi40.png","自我","Image","朋友","Mismatch","f","true","Formal","",""
"","","","","","psychophysics","399","1486861","0.0-9.0-0.2-0.284","528","","j","","","","","","","","","","","","","key","j","16.661000000000932","768","428","./1_3_Stimuli/S_ambi40.png","他人","Image","他人","Match","j","true","Formal","",""
"","","","","","psychophysics","400","1488454","0.0-9.0-0.2-0.285","433","","j","","","","","","","","","","","","","key","j","16.661052631579437","768","428","./1_3_Stimuli/T_ambi40.png","朋友","Image","朋友","Match","j","true","Formal","",""
"","","","","","psychophysics","401","1490137","0.0-9.0-0.2-0.286","519","","f","","","","","","","","","","","","","key","f","16.661999999999534","768","428","./1_3_Stimuli/S_ambi40.png","他人","Word","他人","Match","j","false","Formal","",""
"","","","","","psychophysics","402","1491785","0.0-9.0-0.2-0.287","490","","j","","","","","","","","","","","","","key","j","16.661855670102614","768","428","./1_3_Stimuli/T_ambi40.png","朋友","Word","朋友","Match","j","true","Formal","",""
"","","","","","psychophysics","403","1493472","0.0-9.0-0.2-0.288","536","","j","","","","","","","","","","","","","key","j","16.661000000000932","768","428","./1_3_Stimuli/S_ambi40.png","他人","Word","他人","Match","j","true","Formal","",""
"","","","","","psychophysics","404","1495029","0.0-9.0-0.2-0.289","398","","j","","","","","","","","","","","","","key","j","16.659782608695146","768","428","./1_3_Stimuli/C_ambi40.png","自我","Word","自我","Match","j","true","Formal","",""
"","","","","","psychophysics","405","1496633","0.0-9.0-0.2-0.290","452","","j","","","","","","","","","","","","","key","j","16.661052631576986","768","428","./1_3_Stimuli/S_ambi40.png","自我","Image","他人","Mismatch","f","false","Formal","",""
"","","","","","psychophysics","406","1498199","0.0-9.0-0.2-0.291","415","","j","","","","","","","","","","","","","key","j","16.661290322580644","768","428","./1_3_Stimuli/C_ambi40.png","自我","Word","自我","Match","j","true","Formal","",""
"","","","","","psychophysics","407","1499823","0.0-9.0-0.2-0.292","473","","f","","","","","","","","","","","","","key","f","16.659375000000484","768","428","./1_3_Stimuli/C_ambi40.png","他人","Word","自我","Mismatch","f","true","Formal","",""
"","","","","","psychophysics","408","1501467","0.0-9.0-0.2-0.293","493","","j","","","","","","","","","","","","","key","j","16.663265306122447","768","428","./1_3_Stimuli/S_ambi40.png","他人","Image","他人","Match","j","true","Formal","",""
"","","","","","psychophysics","409","1503017","0.0-9.0-0.2-0.294","400","","j","","","","","","","","","","","","","key","j","16.659782608695146","768","428","./1_3_Stimuli/T_ambi40.png","朋友","Image","朋友","Match","j","true","Formal","",""
"","","","","","psychophysics","410","1504489","0.0-9.0-0.2-0.295","316","","j","","","","","","","","","","","","","key","j","16.659770114944134","768","428","./1_3_Stimuli/T_ambi40.png","自我","Image","朋友","Mismatch","f","false","Formal","",""
"","","","","","psychophysics","411","1506035","0.0-9.0-0.2-0.296","393","","j","","","","","","","","","","","","","key","j","16.660869565217897","768","428","./1_3_Stimuli/C_ambi40.png","自我","Image","自我","Match","j","true","Formal","",""
