"success","timeout","failed_images","failed_audio","failed_video","trial_type","trial_index","time_elapsed","internal_node_id","rt","stimulus","response","value","item_width_mm","item_height_mm","item_width_px","px2mm","view_dist_mm","item_width_deg","px2deg","scale_factor","win_width_deg","win_height_deg","view_history","response_type","key_press","avg_frame_time","center_x","center_y","image","word","target","valence","matchness","correct_response","correct","exp_condition","question_order"
"true","false","[]","[]","[]","preload","0","5","0.0-0.0","","","","","","","","","","","","","","","","","","","","","","","","","","","","",""
"","","","","","html-keyboard-response","1","13850","0.0-1.0","13842","
     <p>您好，欢迎参加本次实验。</p>
     <p>为充分保障您的权利，请确保您已经知晓并同意《参与实验同意书》以及《数据公开知情同意书》。</p>
     <p>如果您未见过上述内容，请咨询实验员。</p>
     <p>如果您选择继续实验，则表示您已经清楚两份知情同意书的内容并同意。</p>
     <p> <div style = ""color: green""><按任意键至下页></div> </p>
     ","a","","","","","","","","","","","","","","","","","","","","","","","","","",""
"","","","","","html-keyboard-response","2","15190","0.0-2.0-0.0","1340","
      <p>本实验首先需要您填写一些基本个人信息。</p>
      <p> <div style = ""color: green""><按任意键至下页></div></p>
      ","a","","","","","","","","","","","","","","","","","","","","","","","","","",""
"","","","","","call-function","3","15190","0.0-2.0-1.0","","","","","","","","","","","","","","","","","","","","","","","","","","","","",""
"","","","","","survey-html-form","4","21256","0.0-2.0-2.0","6064","","{""Q0"":""1030""}","","","","","","","","","","","","","","","","","","","","","","","","","",""
"","","","","","html-button-response","5","22392","0.0-2.0-3.0","1136","<p style = 'color : white'>您的性别</p>","1","","","","","","","","","","","","","","","","","","","","","","","","","",""
"","","","","","survey-html-form","6","27725","0.0-2.0-4.0","5332","","{""Q0"":""2001""}","","","","","","","","","","","","","","","","","","","","","","","","","",""
"","","","","","survey-html-form","7","34504","0.0-2.0-5.0","6778","","{""Q0"":""5""}","","","","","","","","","","","","","","","","","","","","","","","","","",""
"","","","","","virtual-chinrest","8","172701","0.0-3.0","138170","","","","85.6","53.98","617.7142158981162","7.213967438621028","395.45","12.354284317962325","50","0.6847826860921203","27.84","16.76","","","","","","","","","","","","","","",""
"true","","","","","fullscreen","9","178391","0.0-4.0","","","","","","","","","","","","","","","","","","","","","","","","","","","","",""
"","","","","","instructions","10","281187","0.0-5.0","102771","","","","","","","","","","","","","","[{""page_index"":0,""viewing_time"":12095},{""page_index"":1,""viewing_time"":77613},{""page_index"":2,""viewing_time"":10879},{""page_index"":3,""viewing_time"":2183}]","","","","","","","","","","","","","",""
"","","","","","html-keyboard-response","11","284841","0.0-6.0","null","<count-down title=""""></count-down>","null","","","","","","","","","","","","","","","","","","","","","","","","","",""
"","","","","","psychophysics","12","287574","0.0-7.0-0.0-0.0","null","","null","","","","","","","","","","","","","key","null","16.66543209876572","720","476","./1_3_Stimuli/T_ambi40.png","朋友","Word","朋友","Match","f","false","Practice",""
"","","","","","html-keyboard-response","13","287906","0.0-7.0-0.0-1.0","null","<span class='add_' style='color:yellow; font-size: 70px;'> 太慢! </span>","null","","","","","","","","","","","","","","","","","","","","","","","","","feedback",""
"","","","","","psychophysics","14","290631","0.0-7.0-0.0-0.1","null","","null","","","","","","","","","","","","","key","null","16.659259259259187","720","476","./1_3_Stimuli/S_ambi40.png","他人","Image","自我","Mismatch","j","false","Practice",""
"","","","","","html-keyboard-response","15","290961","0.0-7.0-0.0-1.1","null","<span class='add_' style='color:yellow; font-size: 70px;'> 太慢! </span>","null","","","","","","","","","","","","","","","","","","","","","","","","","feedback",""
"","","","","","psychophysics","16","293691","0.0-7.0-0.0-0.2","null","","null","","","","","","","","","","","","","key","null","16.666871165643887","720","476","./1_3_Stimuli/S_ambi40.png","朋友","Image","自我","Mismatch","j","false","Practice",""
"","","","","","html-keyboard-response","17","294024","0.0-7.0-0.0-1.2","null","<span class='add_' style='color:yellow; font-size: 70px;'> 太慢! </span>","null","","","","","","","","","","","","","","","","","","","","","","","","","feedback",""
"","","","","","psychophysics","18","296758","0.0-7.0-0.0-0.3","null","","null","","","","","","","","","","","","","key","null","16.665644171779142","720","476","./1_3_Stimuli/S_ambi40.png","朋友","Word","自我","Mismatch","j","false","Practice",""
"","","","","","html-keyboard-response","19","297091","0.0-7.0-0.0-1.3","null","<span class='add_' style='color:yellow; font-size: 70px;'> 太慢! </span>","null","","","","","","","","","","","","","","","","","","","","","","","","","feedback",""
"","","","","","psychophysics","20","298526","0.0-7.0-0.0-0.4","266","","f","","","","","","","","","","","","","key","f","16.669411764705472","720","476","./1_3_Stimuli/T_ambi40.png","他人","Word","朋友","Mismatch","j","false","Practice",""
"","","","","","html-keyboard-response","21","298836","0.0-7.0-0.0-1.4","null","<span style='color:red; font-size: 70px;'>错误! </span>","null","","","","","","","","","","","","","","","","","","","","","","","","","feedback",""
"","","","","","psychophysics","22","300567","0.0-7.0-0.0-0.5","576","","f","","","","","","","","","","","","","key","f","16.66372549019562","720","476","./1_3_Stimuli/C_ambi40.png","朋友","Word","他人","Mismatch","j","false","Practice",""
"","","","","","html-keyboard-response","23","300870","0.0-7.0-0.0-1.5","null","<span style='color:red; font-size: 70px;'>错误! </span>","null","","","","","","","","","","","","","","","","","","","","","","","","","feedback",""
"","","","","","psychophysics","24","303592","0.0-7.0-0.0-0.6","null","","null","","","","","","","","","","","","","key","null","16.666049382716192","720","476","./1_3_Stimuli/S_ambi40.png","他人","Word","自我","Mismatch","j","false","Practice",""
"","","","","","html-keyboard-response","25","303928","0.0-7.0-0.0-1.6","null","<span class='add_' style='color:yellow; font-size: 70px;'> 太慢! </span>","null","","","","","","","","","","","","","","","","","","","","","","","","","feedback",""
"","","","","","psychophysics","26","306655","0.0-7.0-0.0-0.7","null","","null","","","","","","","","","","","","","key","null","16.66543209876536","720","476","./1_3_Stimuli/C_ambi40.png","他人","Word","他人","Match","f","false","Practice",""
"","","","","","html-keyboard-response","27","306983","0.0-7.0-0.0-1.7","null","<span class='add_' style='color:yellow; font-size: 70px;'> 太慢! </span>","null","","","","","","","","","","","","","","","","","","","","","","","","","feedback",""
"","","","","","psychophysics","28","308343","0.0-7.0-0.0-0.8","191","","f","","","","","","","","","","","","","key","f","16.67283950617284","720","476","./1_3_Stimuli/S_ambi40.png","自我","Image","自我","Match","f","true","Practice",""
"","","","","","html-keyboard-response","29","308650","0.0-7.0-0.0-1.8","null","<span style='color:yellow; font-size: 70px;'>过快! </span>","null","","","","","","","","","","","","","","","","","","","","","","","","","feedback",""
"","","","","","psychophysics","30","310976","0.0-7.0-0.0-0.9","1175","","j","","","","","","","","","","","","","key","j","16.666187050359962","720","476","./1_3_Stimuli/T_ambi40.png","自我","Word","朋友","Mismatch","j","true","Practice",""
"","","","","","html-keyboard-response","31","311281","0.0-7.0-0.0-1.9","null","<span style='color:GreenYellow; font-size: 70px;'>正确! </span>","null","","","","","","","","","","","","","","","","","","","","","","","","","feedback",""
"","","","","","psychophysics","32","313991","0.0-7.0-0.0-0.10","null","","null","","","","","","","","","","","","","key","null","16.664596273291924","720","476","./1_3_Stimuli/C_ambi40.png","他人","Image","他人","Match","f","false","Practice",""
"","","","","","html-keyboard-response","33","314304","0.0-7.0-0.0-1.10","null","<span class='add_' style='color:yellow; font-size: 70px;'> 太慢! </span>","null","","","","","","","","","","","","","","","","","","","","","","","","","feedback",""
"","","","","","psychophysics","34","315764","0.0-7.0-0.0-0.11","307","","f","","","","","","","","","","","","","key","f","16.66436781609182","720","476","./1_3_Stimuli/T_ambi40.png","朋友","Word","朋友","Match","f","true","Practice",""
"","","","","","html-keyboard-response","35","316080","0.0-7.0-0.0-1.11","null","<span style='color:GreenYellow; font-size: 70px;'>正确! </span>","null","","","","","","","","","","","","","","","","","","","","","","","","","feedback",""
"","","","","","psychophysics","36","318683","0.0-7.0-0.0-0.12","1443","","j","","","","","","","","","","","","","key","j","16.66322580645154","720","476","./1_3_Stimuli/C_ambi40.png","朋友","Image","他人","Mismatch","j","true","Practice",""
"","","","","","html-keyboard-response","37","319023","0.0-7.0-0.0-1.12","null","<span style='color:GreenYellow; font-size: 70px;'>正确! </span>","null","","","","","","","","","","","","","","","","","","","","","","","","","feedback",""
"","","","","","psychophysics","38","320704","0.0-7.0-0.0-0.13","514","","f","","","","","","","","","","","","","key","f","16.666666666666668","720","476","./1_3_Stimuli/T_ambi40.png","朋友","Image","朋友","Match","f","true","Practice",""
"","","","","","html-keyboard-response","39","321015","0.0-7.0-0.0-1.13","null","<span style='color:GreenYellow; font-size: 70px;'>正确! </span>","null","","","","","","","","","","","","","","","","","","","","","","","","","feedback",""
"","","","","","psychophysics","40","322478","0.0-7.0-0.0-0.14","311","","f","","","","","","","","","","","","","key","f","16.667816091953757","720","476","./1_3_Stimuli/C_ambi40.png","自我","Word","他人","Mismatch","j","false","Practice",""
"","","","","","html-keyboard-response","41","322790","0.0-7.0-0.0-1.14","null","<span style='color:red; font-size: 70px;'>错误! </span>","null","","","","","","","","","","","","","","","","","","","","","","","","","feedback",""
"","","","","","psychophysics","42","325501","0.0-7.0-0.0-0.15","null","","null","","","","","","","","","","","","","key","null","16.66645962732912","720","476","./1_3_Stimuli/T_ambi40.png","自我","Image","朋友","Mismatch","j","false","Practice",""
"","","","","","html-keyboard-response","43","325826","0.0-7.0-0.0-1.15","null","<span class='add_' style='color:yellow; font-size: 70px;'> 太慢! </span>","null","","","","","","","","","","","","","","","","","","","","","","","","","feedback",""
"","","","","","psychophysics","44","327381","0.0-7.0-0.0-0.16","388","","j","","","","","","","","","","","","","key","j","16.664130434782354","720","476","./1_3_Stimuli/S_ambi40.png","自我","Word","自我","Match","f","false","Practice",""
"","","","","","html-keyboard-response","45","327687","0.0-7.0-0.0-1.16","null","<span style='color:red; font-size: 70px;'>错误! </span>","null","","","","","","","","","","","","","","","","","","","","","","","","","feedback",""
"","","","","","psychophysics","46","329124","0.0-7.0-0.0-0.17","272","","f","","","","","","","","","","","","","key","f","16.667058823529548","720","476","./1_3_Stimuli/S_ambi40.png","自我","Image","自我","Match","f","true","Practice",""
"","","","","","html-keyboard-response","47","329438","0.0-7.0-0.0-1.17","null","<span style='color:GreenYellow; font-size: 70px;'>正确! </span>","null","","","","","","","","","","","","","","","","","","","","","","","","","feedback",""
"","","","","","psychophysics","48","332140","0.0-7.0-0.0-0.18","null","","null","","","","","","","","","","","","","key","null","16.665838509316842","720","476","./1_3_Stimuli/T_ambi40.png","他人","Image","朋友","Mismatch","j","false","Practice",""
"","","","","","html-keyboard-response","49","332467","0.0-7.0-0.0-1.18","null","<span class='add_' style='color:yellow; font-size: 70px;'> 太慢! </span>","null","","","","","","","","","","","","","","","","","","","","","","","","","feedback",""
"","","","","","psychophysics","50","335201","0.0-7.0-0.0-0.19","null","","null","","","","","","","","","","","","","key","null","16.664814814814886","720","476","./1_3_Stimuli/S_ambi40.png","自我","Word","自我","Match","f","false","Practice",""
"","","","","","html-keyboard-response","51","335531","0.0-7.0-0.0-1.19","null","<span class='add_' style='color:yellow; font-size: 70px;'> 太慢! </span>","null","","","","","","","","","","","","","","","","","","","","","","","","","feedback",""
"","","","","","psychophysics","52","338259","0.0-7.0-0.0-0.20","null","","null","","","","","","","","","","","","","key","null","16.665644171779142","720","476","./1_3_Stimuli/C_ambi40.png","他人","Word","他人","Match","f","false","Practice",""
"","","","","","html-keyboard-response","53","338586","0.0-7.0-0.0-1.20","null","<span class='add_' style='color:yellow; font-size: 70px;'> 太慢! </span>","null","","","","","","","","","","","","","","","","","","","","","","","","","feedback",""
"","","","","","psychophysics","54","339971","0.0-7.0-0.0-0.21","219","","f","","","","","","","","","","","","","key","f","16.66707317073114","720","476","./1_3_Stimuli/T_ambi40.png","朋友","Image","朋友","Match","f","true","Practice",""
"","","","","","html-keyboard-response","55","340284","0.0-7.0-0.0-1.21","null","<span style='color:GreenYellow; font-size: 70px;'>正确! </span>","null","","","","","","","","","","","","","","","","","","","","","","","","","feedback",""
"","","","","","psychophysics","56","342996","0.0-7.0-0.0-0.22","null","","null","","","","","","","","","","","","","key","null","16.6617283950618","720","476","./1_3_Stimuli/C_ambi40.png","自我","Image","他人","Mismatch","j","false","Practice",""
"","","","","","html-keyboard-response","57","343309","0.0-7.0-0.0-1.22","null","<span class='add_' style='color:yellow; font-size: 70px;'> 太慢! </span>","null","","","","","","","","","","","","","","","","","","","","","","","","","feedback",""
"","","","","","psychophysics","58","345726","0.0-7.0-0.0-0.23","1259","","f","","","","","","","","","","","","","key","f","16.665972222222383","720","476","./1_3_Stimuli/C_ambi40.png","他人","Image","他人","Match","f","true","Practice",""
"","","","","","html-keyboard-response","59","346035","0.0-7.0-0.0-1.23","null","<span style='color:GreenYellow; font-size: 70px;'>正确! </span>","null","","","","","","","","","","","","","","","","","","","","","","","","","feedback",""
"","","","","","html-keyboard-response","60","369019","0.0-7.0-1.0-0.0","22982","<style>.context{color:white; font-size: 35px; line-height:40px}</style>                        <div><p class='context'>您正确回答了33% 的试次。</p><p class='context'>您的平均反应时为673毫秒。</p><p> <div style = 'color: green'><按空格键至下页></div></p>"," ","","","","","","","","","","","","","","","","","","","","","","","","","",""
"","","","","","instructions","61","416825","0.0-7.0-1.0-1.0","47793","","","","","","","","","","","","","","[{""page_index"":0,""viewing_time"":18727},{""page_index"":1,""viewing_time"":26421},{""page_index"":2,""viewing_time"":2644}]","","","","","","","","","","","","","",""
"","","","","","psychophysics","62","418786","0.0-7.1-0.1-0.24","801","","j","","","","","","","","","","","","","key","j","16.665517241378907","720","476","./1_3_Stimuli/S_ambi40.png","朋友","Word","自我","Mismatch","j","true","Practice",""
"","","","","","html-keyboard-response","63","419090","0.0-7.1-0.1-1.24","null","<span style='color:GreenYellow; font-size: 70px;'>正确! </span>","null","","","","","","","","","","","","","","","","","","","","","","","","","feedback",""
"","","","","","psychophysics","64","420940","0.0-7.1-0.1-0.25","699","","j","","","","","","","","","","","","","key","j","16.668181818181818","720","476","./1_3_Stimuli/S_ambi40.png","自我","Word","自我","Match","f","false","Practice",""
"","","","","","html-keyboard-response","65","421250","0.0-7.1-0.1-1.25","null","<span style='color:red; font-size: 70px;'>错误! </span>","null","","","","","","","","","","","","","","","","","","","","","","","","","feedback",""
"","","","","","psychophysics","66","422723","0.0-7.1-0.1-0.26","301","","f","","","","","","","","","","","","","key","f","16.668181818181687","720","476","./1_3_Stimuli/T_ambi40.png","自我","Word","朋友","Mismatch","j","false","Practice",""
"","","","","","html-keyboard-response","67","423031","0.0-7.1-0.1-1.26","null","<span style='color:red; font-size: 70px;'>错误! </span>","null","","","","","","","","","","","","","","","","","","","","","","","","","feedback",""
"","","","","","psychophysics","68","424971","0.0-7.1-0.1-0.27","789","","f","","","","","","","","","","","","","key","f","16.66782608695642","720","476","./1_3_Stimuli/C_ambi40.png","他人","Word","他人","Match","f","true","Practice",""
"","","","","","html-keyboard-response","69","425286","0.0-7.1-0.1-1.27","null","<span style='color:GreenYellow; font-size: 70px;'>正确! </span>","null","","","","","","","","","","","","","","","","","","","","","","","","","feedback",""
"","","","","","psychophysics","70","427446","0.0-7.1-0.1-0.28","1006","","j","","","","","","","","","","","","","key","j","16.66434108527096","720","476","./1_3_Stimuli/S_ambi40.png","他人","Image","自我","Mismatch","j","true","Practice",""
"","","","","","html-keyboard-response","71","427756","0.0-7.1-0.1-1.28","null","<span style='color:GreenYellow; font-size: 70px;'>正确! </span>","null","","","","","","","","","","","","","","","","","","","","","","","","","feedback",""
"","","","","","psychophysics","72","429541","0.0-7.1-0.1-0.29","603","","f","","","","","","","","","","","","","key","f","16.52857142857143","720","476","./1_3_Stimuli/S_ambi40.png","自我","Word","自我","Match","f","true","Practice",""
"","","","","","html-keyboard-response","73","429856","0.0-7.1-0.1-1.29","null","<span style='color:GreenYellow; font-size: 70px;'>正确! </span>","null","","","","","","","","","","","","","","","","","","","","","","","","","feedback",""
"","","","","","psychophysics","74","431699","0.0-7.1-0.1-0.30","677","","j","","","","","","","","","","","","","key","j","16.666972477064327","720","476","./1_3_Stimuli/C_ambi40.png","自我","Word","他人","Mismatch","j","true","Practice",""
"","","","","","html-keyboard-response","75","432003","0.0-7.1-0.1-1.30","null","<span style='color:GreenYellow; font-size: 70px;'>正确! </span>","null","","","","","","","","","","","","","","","","","","","","","","","","","feedback",""
"","","","","","psychophysics","76","433839","0.0-7.1-0.1-0.31","682","","f","","","","","","","","","","","","","key","f","16.663636363636364","720","476","./1_3_Stimuli/S_ambi40.png","他人","Word","自我","Mismatch","j","false","Practice",""
"","","","","","html-keyboard-response","77","434157","0.0-7.1-0.1-1.31","null","<span style='color:red; font-size: 70px;'>错误! </span>","null","","","","","","","","","","","","","","","","","","","","","","","","","feedback",""
"","","","","","psychophysics","78","435954","0.0-7.1-0.1-0.32","634","","j","","","","","","","","","","","","","key","j","16.665420560747773","720","476","./1_3_Stimuli/T_ambi40.png","朋友","Word","朋友","Match","f","false","Practice",""
"","","","","","html-keyboard-response","79","436268","0.0-7.1-0.1-1.32","null","<span style='color:red; font-size: 70px;'>错误! </span>","null","","","","","","","","","","","","","","","","","","","","","","","","","feedback",""
"","","","","","psychophysics","80","438019","0.0-7.1-0.1-0.33","598","","f","","","","","","","","","","","","","key","f","16.666346153846042","720","476","./1_3_Stimuli/T_ambi40.png","朋友","Image","朋友","Match","f","true","Practice",""
"","","","","","html-keyboard-response","81","438332","0.0-7.1-0.1-1.33","null","<span style='color:GreenYellow; font-size: 70px;'>正确! </span>","null","","","","","","","","","","","","","","","","","","","","","","","","","feedback",""
"","","","","","psychophysics","82","439951","0.0-7.1-0.1-0.34","463","","f","","","","","","","","","","","","","key","f","16.667708333333092","720","476","./1_3_Stimuli/T_ambi40.png","朋友","Image","朋友","Match","f","true","Practice",""
"","","","","","html-keyboard-response","83","440253","0.0-7.1-0.1-1.34","null","<span style='color:GreenYellow; font-size: 70px;'>正确! </span>","null","","","","","","","","","","","","","","","","","","","","","","","","","feedback",""
"","","","","","psychophysics","84","442117","0.0-7.1-0.1-0.35","679","","f","","","","","","","","","","","","","key","f","16.66454545454577","720","476","./1_3_Stimuli/S_ambi40.png","自我","Image","自我","Match","f","true","Practice",""
"","","","","","html-keyboard-response","85","442419","0.0-7.1-0.1-1.35","null","<span style='color:GreenYellow; font-size: 70px;'>正确! </span>","null","","","","","","","","","","","","","","","","","","","","","","","","","feedback",""
"","","","","","psychophysics","86","443973","0.0-7.1-0.1-0.36","402","","j","","","","","","","","","","","","","key","j","16.66774193548362","720","476","./1_3_Stimuli/C_ambi40.png","他人","Image","他人","Match","f","false","Practice",""
"","","","","","html-keyboard-response","87","444277","0.0-7.1-0.1-1.36","null","<span style='color:red; font-size: 70px;'>错误! </span>","null","","","","","","","","","","","","","","","","","","","","","","","","","feedback",""
"","","","","","psychophysics","88","446186","0.0-7.1-0.1-0.37","746","","j","","","","","","","","","","","","","key","j","16.667256637168347","720","476","./1_3_Stimuli/T_ambi40.png","他人","Image","朋友","Mismatch","j","true","Practice",""
"","","","","","html-keyboard-response","89","446493","0.0-7.1-0.1-1.37","null","<span style='color:GreenYellow; font-size: 70px;'>正确! </span>","null","","","","","","","","","","","","","","","","","","","","","","","","","feedback",""
"","","","","","psychophysics","90","448208","0.0-7.1-0.1-0.38","525","","f","","","","","","","","","","","","","key","f","16.667326732672922","720","476","./1_3_Stimuli/C_ambi40.png","他人","Image","他人","Match","f","true","Practice",""
"","","","","","html-keyboard-response","91","448512","0.0-7.1-0.1-1.38","null","<span style='color:GreenYellow; font-size: 70px;'>正确! </span>","null","","","","","","","","","","","","","","","","","","","","","","","","","feedback",""
"","","","","","psychophysics","92","450108","0.0-7.1-0.1-0.39","441","","f","","","","","","","","","","","","","key","f","16.66315789473684","720","476","./1_3_Stimuli/C_ambi40.png","他人","Word","他人","Match","f","true","Practice",""
"","","","","","html-keyboard-response","93","450416","0.0-7.1-0.1-1.39","null","<span style='color:GreenYellow; font-size: 70px;'>正确! </span>","null","","","","","","","","","","","","","","","","","","","","","","","","","feedback",""
"","","","","","psychophysics","94","452002","0.0-7.1-0.1-0.40","432","","f","","","","","","","","","","","","","key","f","16.66702127659525","720","476","./1_3_Stimuli/S_ambi40.png","自我","Image","自我","Match","f","true","Practice",""
"","","","","","html-keyboard-response","95","452305","0.0-7.1-0.1-1.40","null","<span style='color:GreenYellow; font-size: 70px;'>正确! </span>","null","","","","","","","","","","","","","","","","","","","","","","","","","feedback",""
"","","","","","psychophysics","96","454162","0.0-7.1-0.1-0.41","687","","j","","","","","","","","","","","","","key","j","16.663636363636364","720","476","./1_3_Stimuli/C_ambi40.png","自我","Image","他人","Mismatch","j","true","Practice",""
"","","","","","html-keyboard-response","97","454466","0.0-7.1-0.1-1.41","null","<span style='color:GreenYellow; font-size: 70px;'>正确! </span>","null","","","","","","","","","","","","","","","","","","","","","","","","","feedback",""
"","","","","","psychophysics","98","456397","0.0-7.1-0.1-0.42","780","","j","","","","","","","","","","","","","key","j","16.664912280701653","720","476","./1_3_Stimuli/T_ambi40.png","自我","Image","朋友","Mismatch","j","true","Practice",""
"","","","","","html-keyboard-response","99","456709","0.0-7.1-0.1-1.42","null","<span style='color:GreenYellow; font-size: 70px;'>正确! </span>","null","","","","","","","","","","","","","","","","","","","","","","","","","feedback",""
"","","","","","psychophysics","100","458617","0.0-7.1-0.1-0.43","751","","f","","","","","","","","","","","","","key","f","16.67543859649123","720","476","./1_3_Stimuli/T_ambi40.png","朋友","Word","朋友","Match","f","true","Practice",""
"","","","","","html-keyboard-response","101","458920","0.0-7.1-0.1-1.43","null","<span style='color:GreenYellow; font-size: 70px;'>正确! </span>","null","","","","","","","","","","","","","","","","","","","","","","","","","feedback",""
"","","","","","psychophysics","102","461189","0.0-7.1-0.1-0.44","1106","","j","","","","","","","","","","","","","key","j","16.667407407407236","720","476","./1_3_Stimuli/C_ambi40.png","朋友","Image","他人","Mismatch","j","true","Practice",""
"","","","","","html-keyboard-response","103","461505","0.0-7.1-0.1-1.44","null","<span style='color:GreenYellow; font-size: 70px;'>正确! </span>","null","","","","","","","","","","","","","","","","","","","","","","","","","feedback",""
"","","","","","psychophysics","104","463936","0.0-7.1-0.1-0.45","1278","","j","","","","","","","","","","","","","key","j","16.664137931034404","720","476","./1_3_Stimuli/T_ambi40.png","他人","Word","朋友","Mismatch","j","true","Practice",""
"","","","","","html-keyboard-response","105","464251","0.0-7.1-0.1-1.45","null","<span style='color:GreenYellow; font-size: 70px;'>正确! </span>","null","","","","","","","","","","","","","","","","","","","","","","","","","feedback",""
"","","","","","psychophysics","106","466310","0.0-7.1-0.1-0.46","905","","j","","","","","","","","","","","","","key","j","16.65655737704899","720","476","./1_3_Stimuli/C_ambi40.png","朋友","Word","他人","Mismatch","j","true","Practice",""
"","","","","","html-keyboard-response","107","466619","0.0-7.1-0.1-1.46","null","<span style='color:GreenYellow; font-size: 70px;'>正确! </span>","null","","","","","","","","","","","","","","","","","","","","","","","","","feedback",""
"","","","","","psychophysics","108","468869","0.0-7.1-0.1-0.47","1094","","j","","","","","","","","","","","","","key","j","16.562406015037507","720","476","./1_3_Stimuli/S_ambi40.png","朋友","Image","自我","Mismatch","j","true","Practice",""
"","","","","","html-keyboard-response","109","469178","0.0-7.1-0.1-1.47","null","<span style='color:GreenYellow; font-size: 70px;'>正确! </span>","null","","","","","","","","","","","","","","","","","","","","","","","","","feedback",""
"","","","","","html-keyboard-response","110","474631","0.0-7.1-1.1-0.1","5451","<style>.context{color:white; font-size: 35px; line-height:40px}</style>                        <div><p class='context'>您正确回答了79% 的试次。</p><p class='context'>您的平均反应时为756毫秒。</p><p> <div style = 'color: green'><按空格键至下页></div></p>"," ","","","","","","","","","","","","","","","","","","","","","","","","","",""
"","","","","","instructions","111","514232","0.0-7.1-1.1-1.1","39588","","","","","","","","","","","","","","[{""page_index"":0,""viewing_time"":10158},{""page_index"":1,""viewing_time"":26809},{""page_index"":2,""viewing_time"":2622}]","","","","","","","","","","","","","",""
"","","","","","psychophysics","112","516518","0.0-7.2-0.2-0.48","1133","","j","","","","","","","","","","","","","key","j","16.666176470588063","720","476","./1_3_Stimuli/C_ambi40.png","他人","Image","他人","Match","f","false","Practice",""
"","","","","","html-keyboard-response","113","516824","0.0-7.2-0.2-1.48","null","<span style='color:red; font-size: 70px;'>错误! </span>","null","","","","","","","","","","","","","","","","","","","","","","","","","feedback",""
"","","","","","psychophysics","114","519502","0.0-7.2-0.2-0.49","1518","","j","","","","","","","","","","","","","key","j","16.666666666666668","720","476","./1_3_Stimuli/S_ambi40.png","他人","Word","自我","Mismatch","j","true","Practice",""
"","","","","","html-keyboard-response","115","519808","0.0-7.2-0.2-1.49","null","<span class='add_' style='color:yellow; font-size: 70px;'> 太慢! </span>","null","","","","","","","","","","","","","","","","","","","","","","","","","feedback",""
"","","","","","psychophysics","116","522186","0.0-7.2-0.2-0.50","1225","","f","","","","","","","","","","","","","key","f","16.666197183098838","720","476","./1_3_Stimuli/C_ambi40.png","他人","Image","他人","Match","f","true","Practice",""
"","","","","","html-keyboard-response","117","522503","0.0-7.2-0.2-1.50","null","<span style='color:GreenYellow; font-size: 70px;'>正确! </span>","null","","","","","","","","","","","","","","","","","","","","","","","","","feedback",""
"","","","","","psychophysics","118","524557","0.0-7.2-0.2-0.51","902","","f","","","","","","","","","","","","","key","f","16.667213114753814","720","476","./1_3_Stimuli/S_ambi40.png","自我","Word","自我","Match","f","true","Practice",""
"","","","","","html-keyboard-response","119","524862","0.0-7.2-0.2-1.51","null","<span style='color:GreenYellow; font-size: 70px;'>正确! </span>","null","","","","","","","","","","","","","","","","","","","","","","","","","feedback",""
"","","","","","psychophysics","120","526997","0.0-7.2-0.2-0.52","980","","j","","","","","","","","","","","","","key","j","16.66692913385882","720","476","./1_3_Stimuli/T_ambi40.png","朋友","Image","朋友","Match","f","false","Practice",""
"","","","","","html-keyboard-response","121","527300","0.0-7.2-0.2-1.52","null","<span style='color:red; font-size: 70px;'>错误! </span>","null","","","","","","","","","","","","","","","","","","","","","","","","","feedback",""
"","","","","","psychophysics","122","529242","0.0-7.2-0.2-0.53","790","","f","","","","","","","","","","","","","key","f","16.645689655172614","720","476","./1_3_Stimuli/S_ambi40.png","自我","Image","自我","Match","f","true","Practice",""
"","","","","","html-keyboard-response","123","529543","0.0-7.2-0.2-1.53","null","<span style='color:GreenYellow; font-size: 70px;'>正确! </span>","null","","","","","","","","","","","","","","","","","","","","","","","","","feedback",""
"","","","","","psychophysics","124","531900","0.0-7.2-0.2-0.54","1197","","j","","","","","","","","","","","","","key","j","16.666428571428906","720","476","./1_3_Stimuli/T_ambi40.png","朋友","Word","朋友","Match","f","false","Practice",""
"","","","","","html-keyboard-response","125","532205","0.0-7.2-0.2-1.54","null","<span style='color:red; font-size: 70px;'>错误! </span>","null","","","","","","","","","","","","","","","","","","","","","","","","","feedback",""
"","","","","","psychophysics","126","534283","0.0-7.2-0.2-0.55","909","","j","","","","","","","","","","","","","key","j","16.695041322314818","720","476","./1_3_Stimuli/C_ambi40.png","朋友","Word","他人","Mismatch","j","true","Practice",""
"","","","","","html-keyboard-response","127","534590","0.0-7.2-0.2-1.55","null","<span style='color:GreenYellow; font-size: 70px;'>正确! </span>","null","","","","","","","","","","","","","","","","","","","","","","","","","feedback",""
"","","","","","psychophysics","128","537036","0.0-7.2-0.2-0.56","1291","","j","","","","","","","","","","","","","key","j","16.66758620689607","720","476","./1_3_Stimuli/C_ambi40.png","朋友","Image","他人","Mismatch","j","true","Practice",""
"","","","","","html-keyboard-response","129","537349","0.0-7.2-0.2-1.56","null","<span style='color:GreenYellow; font-size: 70px;'>正确! </span>","null","","","","","","","","","","","","","","","","","","","","","","","","","feedback",""
"","","","","","psychophysics","130","539776","0.0-7.2-0.2-0.57","1274","","j","","","","","","","","","","","","","key","j","16.660000000000483","720","476","./1_3_Stimuli/T_ambi40.png","他人","Word","朋友","Mismatch","j","true","Practice",""
"","","","","","html-keyboard-response","131","540087","0.0-7.2-0.2-1.57","null","<span style='color:GreenYellow; font-size: 70px;'>正确! </span>","null","","","","","","","","","","","","","","","","","","","","","","","","","feedback",""
"","","","","","psychophysics","132","541944","0.0-7.2-0.2-0.58","704","","f","","","","","","","","","","","","","key","f","16.663636363636364","720","476","./1_3_Stimuli/T_ambi40.png","朋友","Image","朋友","Match","f","true","Practice",""
"","","","","","html-keyboard-response","133","542253","0.0-7.2-0.2-1.58","null","<span style='color:GreenYellow; font-size: 70px;'>正确! </span>","null","","","","","","","","","","","","","","","","","","","","","","","","","feedback",""
"","","","","","psychophysics","134","544039","0.0-7.2-0.2-0.59","628","","f","","","","","","","","","","","","","key","f","16.66320754716915","720","476","./1_3_Stimuli/S_ambi40.png","自我","Word","自我","Match","f","true","Practice",""
"","","","","","html-keyboard-response","135","544343","0.0-7.2-0.2-1.59","null","<span style='color:GreenYellow; font-size: 70px;'>正确! </span>","null","","","","","","","","","","","","","","","","","","","","","","","","","feedback",""
"","","","","","psychophysics","136","546557","0.0-7.2-0.2-0.60","1030","","j","","","","","","","","","","","","","key","j","16.669696969697146","720","476","./1_3_Stimuli/T_ambi40.png","他人","Image","朋友","Mismatch","j","true","Practice",""
"","","","","","html-keyboard-response","137","546866","0.0-7.2-0.2-1.60","null","<span style='color:GreenYellow; font-size: 70px;'>正确! </span>","null","","","","","","","","","","","","","","","","","","","","","","","","","feedback",""
"","","","","","psychophysics","138","548772","0.0-7.2-0.2-0.61","754","","j","","","","","","","","","","","","","key","j","16.665789473684416","720","476","./1_3_Stimuli/T_ambi40.png","自我","Image","朋友","Mismatch","j","true","Practice",""
"","","","","","html-keyboard-response","139","549079","0.0-7.2-0.2-1.61","null","<span style='color:GreenYellow; font-size: 70px;'>正确! </span>","null","","","","","","","","","","","","","","","","","","","","","","","","","feedback",""
"","","","","","psychophysics","140","551219","0.0-7.2-0.2-0.62","983","","f","","","","","","","","","","","","","key","f","16.66692913385882","720","476","./1_3_Stimuli/C_ambi40.png","他人","Word","他人","Match","f","true","Practice",""
"","","","","","html-keyboard-response","141","551527","0.0-7.2-0.2-1.62","null","<span style='color:GreenYellow; font-size: 70px;'>正确! </span>","null","","","","","","","","","","","","","","","","","","","","","","","","","feedback",""
"","","","","","psychophysics","142","553527","0.0-7.2-0.2-0.63","832","","j","","","","","","","","","","","","","key","j","16.67058823529451","720","476","./1_3_Stimuli/S_ambi40.png","朋友","Word","自我","Mismatch","j","true","Practice",""
"","","","","","html-keyboard-response","143","553833","0.0-7.2-0.2-1.63","null","<span style='color:GreenYellow; font-size: 70px;'>正确! </span>","null","","","","","","","","","","","","","","","","","","","","","","","","","feedback",""
"","","","","","psychophysics","144","555939","0.0-7.2-0.2-0.64","953","","j","","","","","","","","","","","","","key","j","16.668799999999813","720","476","./1_3_Stimuli/S_ambi40.png","朋友","Image","自我","Mismatch","j","true","Practice",""
"","","","","","html-keyboard-response","145","556252","0.0-7.2-0.2-1.64","null","<span style='color:GreenYellow; font-size: 70px;'>正确! </span>","null","","","","","","","","","","","","","","","","","","","","","","","","","feedback",""
"","","","","","psychophysics","146","558363","0.0-7.2-0.2-0.65","944","","j","","","","","","","","","","","","","key","j","16.668","720","476","./1_3_Stimuli/C_ambi40.png","自我","Image","他人","Mismatch","j","true","Practice",""
"","","","","","html-keyboard-response","147","558677","0.0-7.2-0.2-1.65","null","<span style='color:GreenYellow; font-size: 70px;'>正确! </span>","null","","","","","","","","","","","","","","","","","","","","","","","","","feedback",""
"","","","","","psychophysics","148","560565","0.0-7.2-0.2-0.66","728","","j","","","","","","","","","","","","","key","j","16.66696428571387","720","476","./1_3_Stimuli/T_ambi40.png","自我","Word","朋友","Mismatch","j","true","Practice",""
"","","","","","html-keyboard-response","149","560874","0.0-7.2-0.2-1.66","null","<span style='color:GreenYellow; font-size: 70px;'>正确! </span>","null","","","","","","","","","","","","","","","","","","","","","","","","","feedback",""
"","","","","","psychophysics","150","562816","0.0-7.2-0.2-0.67","781","","f","","","","","","","","","","","","","key","f","16.666086956521536","720","476","./1_3_Stimuli/C_ambi40.png","他人","Word","他人","Match","f","true","Practice",""
"","","","","","html-keyboard-response","151","563127","0.0-7.2-0.2-1.67","null","<span style='color:GreenYellow; font-size: 70px;'>正确! </span>","null","","","","","","","","","","","","","","","","","","","","","","","","","feedback",""
"","","","","","psychophysics","152","565155","0.0-7.2-0.2-0.68","871","","f","","","","","","","","","","","","","key","f","16.669421487603305","720","476","./1_3_Stimuli/S_ambi40.png","自我","Image","自我","Match","f","true","Practice",""
"","","","","","html-keyboard-response","153","565456","0.0-7.2-0.2-1.68","null","<span style='color:GreenYellow; font-size: 70px;'>正确! </span>","null","","","","","","","","","","","","","","","","","","","","","","","","","feedback",""
"","","","","","psychophysics","154","567181","0.0-7.2-0.2-0.69","562","","j","","","","","","","","","","","","","key","j","16.665686274510033","720","476","./1_3_Stimuli/S_ambi40.png","他人","Image","自我","Mismatch","j","true","Practice",""
"","","","","","html-keyboard-response","155","567493","0.0-7.2-0.2-1.69","null","<span style='color:GreenYellow; font-size: 70px;'>正确! </span>","null","","","","","","","","","","","","","","","","","","","","","","","","","feedback",""
"","","","","","psychophysics","156","569231","0.0-7.2-0.2-0.70","580","","j","","","","","","","","","","","","","key","j","16.667961165047867","720","476","./1_3_Stimuli/C_ambi40.png","自我","Word","他人","Mismatch","j","true","Practice",""
"","","","","","html-keyboard-response","157","569540","0.0-7.2-0.2-1.70","null","<span style='color:GreenYellow; font-size: 70px;'>正确! </span>","null","","","","","","","","","","","","","","","","","","","","","","","","","feedback",""
"","","","","","psychophysics","158","571526","0.0-7.2-0.2-0.71","823","","f","","","","","","","","","","","","","key","f","16.666666666666668","720","476","./1_3_Stimuli/T_ambi40.png","朋友","Word","朋友","Match","f","true","Practice",""
"","","","","","html-keyboard-response","159","571841","0.0-7.2-0.2-1.71","null","<span style='color:GreenYellow; font-size: 70px;'>正确! </span>","null","","","","","","","","","","","","","","","","","","","","","","","","","feedback",""
"","","","","","html-keyboard-response","160","680253","0.0-8.0","108390","<style>.context{color:white; font-size: 35px; line-height:40px}</style>                          <div><p class='context'>您正确回答了88% 的试次。</p><p class='context'>您的平均反应时为909毫秒。</p><p class='context'>恭喜您完成练习。现在请休息3~5分钟。</p><p class='context'>之后，按任意键进入正式实验。需要注意的是，正式实验将不再提供反应是否正确的反馈。</p><p class='footer' style='font-size: 35px; line-height:40px;'>请在进入正式实验实验之前将您的<span style='color: lightgreen;'>食指</span>放在电脑键盘的相应键位上进行按键。</p>","k","","","","","","","","","","","","","","","","","","","","","","","","","",""
"","","","","","psychophysics","161","682568","0.0-9.0-0.0-0.0","1154","","j","","","","","","","","","","","","","key","j","16.665942028985675","720","476","./1_3_Stimuli/C_ambi40.png","朋友","Image","他人","Mismatch","j","true","Formal",""
"","","","","","psychophysics","162","684857","0.0-9.0-0.0-0.1","1124","","j","","","","","","","","","","","","","key","j","16.66691176470554","720","476","./1_3_Stimuli/C_ambi40.png","他人","Image","他人","Match","f","false","Formal",""
"","","","","","psychophysics","163","686698","0.0-9.0-0.0-0.2","682","","j","","","","","","","","","","","","","key","j","16.666055045872415","720","476","./1_3_Stimuli/C_ambi40.png","自我","Word","他人","Mismatch","j","true","Formal",""
"","","","","","psychophysics","164","688726","0.0-9.0-0.0-0.3","877","","f","","","","","","","","","","","","","key","f","16.665833333332557","720","476","./1_3_Stimuli/C_ambi40.png","他人","Image","他人","Match","f","true","Formal",""
"","","","","","psychophysics","165","690661","0.0-9.0-0.0-0.4","779","","j","","","","","","","","","","","","","key","j","16.667826086956925","720","476","./1_3_Stimuli/T_ambi40.png","他人","Image","朋友","Mismatch","j","true","Formal",""
"","","","","","psychophysics","166","693039","0.0-9.0-0.0-0.5","1205","","f","","","","","","","","","","","","","key","f","16.665957446808676","720","476","./1_3_Stimuli/C_ambi40.png","他人","Word","他人","Match","f","true","Formal",""
"","","","","","psychophysics","167","694824","0.0-9.0-0.0-0.6","624","","f","","","","","","","","","","","","","key","f","16.666037735848835","720","476","./1_3_Stimuli/S_ambi40.png","自我","Word","自我","Match","f","true","Formal",""
"","","","","","psychophysics","168","696567","0.0-9.0-0.0-0.7","583","","j","","","","","","","","","","","","","key","j","16.665384615385285","720","476","./1_3_Stimuli/S_ambi40.png","朋友","Image","自我","Mismatch","j","true","Formal",""
"","","","","","psychophysics","169","698305","0.0-9.0-0.0-0.8","577","","f","","","","","","","","","","","","","key","f","16.666019417475503","720","476","./1_3_Stimuli/S_ambi40.png","自我","Image","自我","Match","f","true","Formal",""
"","","","","","psychophysics","170","700124","0.0-9.0-0.0-0.9","661","","j","","","","","","","","","","","","","key","j","16.665740740740958","720","476","./1_3_Stimuli/C_ambi40.png","自我","Image","他人","Mismatch","j","true","Formal",""
"","","","","","psychophysics","171","702211","0.0-9.0-0.0-0.10","929","","f","","","","","","","","","","","","","key","f","16.666129032257878","720","476","./1_3_Stimuli/C_ambi40.png","他人","Word","他人","Match","f","true","Formal",""
"","","","","","psychophysics","172","704947","0.0-9.0-0.0-0.11","null","","null","","","","","","","","","","","","","key","null","16.665432098765002","720","476","./1_3_Stimuli/S_ambi40.png","他人","Image","自我","Mismatch","j","false","Formal",""
"","","","","","psychophysics","173","706794","0.0-9.0-0.0-0.12","695","","f","","","","","","","","","","","","","key","f","16.66636363636406","720","476","./1_3_Stimuli/T_ambi40.png","朋友","Image","朋友","Match","f","true","Formal",""
"","","","","","psychophysics","174","708654","0.0-9.0-0.0-0.13","704","","f","","","","","","","","","","","","","key","f","16.664545454545244","720","476","./1_3_Stimuli/T_ambi40.png","朋友","Word","朋友","Match","f","true","Formal",""
"","","","","","psychophysics","175","710269","0.0-9.0-0.0-0.14","461","","f","","","","","","","","","","","","","key","f","16.665625000000244","720","476","./1_3_Stimuli/T_ambi40.png","朋友","Image","朋友","Match","f","true","Formal",""
"","","","","","psychophysics","176","711952","0.0-9.0-0.0-0.15","520","","j","","","","","","","","","","","","","key","j","16.665","720","476","./1_3_Stimuli/C_ambi40.png","朋友","Word","他人","Mismatch","j","true","Formal",""
"","","","","","psychophysics","177","713907","0.0-9.0-0.0-0.16","791","","j","","","","","","","","","","","","","key","j","16.66896551724118","720","476","./1_3_Stimuli/T_ambi40.png","自我","Word","朋友","Mismatch","j","true","Formal",""
"","","","","","psychophysics","178","715911","0.0-9.0-0.0-0.17","850","","j","","","","","","","","","","","","","key","j","16.665546218487982","720","476","./1_3_Stimuli/T_ambi40.png","自我","Image","朋友","Mismatch","j","true","Formal",""
"","","","","","psychophysics","179","717599","0.0-9.0-0.0-0.18","533","","f","","","","","","","","","","","","","key","f","16.664000000000232","720","476","./1_3_Stimuli/S_ambi40.png","自我","Image","自我","Match","f","true","Formal",""
"","","","","","psychophysics","180","719361","0.0-9.0-0.0-0.19","612","","j","","","","","","","","","","","","","key","j","16.66442307692285","720","476","./1_3_Stimuli/S_ambi40.png","朋友","Word","自我","Mismatch","j","true","Formal",""
"","","","","","psychophysics","181","721059","0.0-9.0-0.0-0.20","543","","f","","","","","","","","","","","","","key","f","16.667326732673498","720","476","./1_3_Stimuli/S_ambi40.png","自我","Word","自我","Match","f","true","Formal",""
"","","","","","psychophysics","182","723176","0.0-9.0-0.0-0.21","961","","j","","","","","","","","","","","","","key","j","16.667460317461057","720","476","./1_3_Stimuli/T_ambi40.png","他人","Word","朋友","Mismatch","j","true","Formal",""
"","","","","","psychophysics","183","724992","0.0-9.0-0.0-0.22","660","","f","","","","","","","","","","","","","key","f","16.664814814815244","720","476","./1_3_Stimuli/T_ambi40.png","朋友","Word","朋友","Match","f","true","Formal",""
"","","","","","psychophysics","184","727224","0.0-9.0-0.0-0.23","1061","","j","","","","","","","","","","","","","key","j","16.666917293232732","720","476","./1_3_Stimuli/S_ambi40.png","他人","Word","自我","Mismatch","j","true","Formal",""
"","","","","","psychophysics","185","728883","0.0-9.0-0.0-0.24","501","","f","","","","","","","","","","","","","key","f","16.66363636363589","720","476","./1_3_Stimuli/S_ambi40.png","自我","Image","自我","Match","f","true","Formal",""
"","","","","","psychophysics","186","730755","0.0-9.0-0.0-0.25","707","","j","","","","","","","","","","","","","key","j","16.666666666666668","720","476","./1_3_Stimuli/C_ambi40.png","朋友","Word","他人","Mismatch","j","true","Formal",""
"","","","","","psychophysics","187","733105","0.0-9.0-0.0-0.26","1190","","j","","","","","","","","","","","","","key","j","16.667857142857144","720","476","./1_3_Stimuli/C_ambi40.png","朋友","Image","他人","Mismatch","j","true","Formal",""
"","","","","","psychophysics","188","734945","0.0-9.0-0.0-0.27","680","","f","","","","","","","","","","","","","key","f","16.667889908257308","720","476","./1_3_Stimuli/T_ambi40.png","朋友","Word","朋友","Match","f","true","Formal",""
"","","","","","psychophysics","189","736790","0.0-9.0-0.0-0.28","681","","f","","","","","","","","","","","","","key","f","16.666055045872415","720","476","./1_3_Stimuli/T_ambi40.png","朋友","Word","朋友","Match","f","true","Formal",""
"","","","","","psychophysics","190","738410","0.0-9.0-0.0-0.29","467","","f","","","","","","","","","","","","","key","f","16.664583333332605","720","476","./1_3_Stimuli/T_ambi40.png","朋友","Image","朋友","Match","f","true","Formal",""
"","","","","","psychophysics","191","740255","0.0-9.0-0.0-0.30","683","","j","","","","","","","","","","","","","key","j","16.665137614678898","720","476","./1_3_Stimuli/S_ambi40.png","朋友","Word","自我","Mismatch","j","true","Formal",""
"","","","","","psychophysics","192","742451","0.0-9.0-0.0-0.31","1042","","j","","","","","","","","","","","","","key","j","16.668461538461717","720","476","./1_3_Stimuli/T_ambi40.png","他人","Image","朋友","Mismatch","j","true","Formal",""
"","","","","","psychophysics","193","744070","0.0-9.0-0.0-0.32","445","","f","","","","","","","","","","","","","key","f","16.665625000000244","720","476","./1_3_Stimuli/C_ambi40.png","他人","Image","他人","Match","f","true","Formal",""
"","","","","","psychophysics","194","745840","0.0-9.0-0.0-0.33","618","","j","","","","","","","","","","","","","key","j","16.665384615384166","720","476","./1_3_Stimuli/T_ambi40.png","他人","Word","朋友","Mismatch","j","true","Formal",""
"","","","","","psychophysics","195","747836","0.0-9.0-0.0-0.34","843","","f","","","","","","","","","","","","","key","f","16.666101694915056","720","476","./1_3_Stimuli/C_ambi40.png","他人","Word","他人","Match","f","true","Formal",""
"","","","","","psychophysics","196","749702","0.0-9.0-0.0-0.35","710","","j","","","","","","","","","","","","","key","j","16.666666666666668","720","476","./1_3_Stimuli/S_ambi40.png","他人","Word","自我","Mismatch","j","true","Formal",""
"","","","","","psychophysics","197","751595","0.0-9.0-0.0-0.36","737","","j","","","","","","","","","","","","","key","j","16.663716814159294","720","476","./1_3_Stimuli/T_ambi40.png","自我","Word","朋友","Mismatch","j","true","Formal",""
"","","","","","psychophysics","198","753336","0.0-9.0-0.0-0.37","587","","f","","","","","","","","","","","","","key","f","16.66407766990314","720","476","./1_3_Stimuli/S_ambi40.png","自我","Word","自我","Match","f","true","Formal",""
"","","","","","psychophysics","199","755159","0.0-9.0-0.0-0.38","671","","j","","","","","","","","","","","","","key","j","16.666666666666668","720","476","./1_3_Stimuli/C_ambi40.png","自我","Word","他人","Mismatch","j","true","Formal",""
"","","","","","psychophysics","200","756690","0.0-9.0-0.0-0.39","379","","f","","","","","","","","","","","","","key","f","16.666666666666668","720","476","./1_3_Stimuli/S_ambi40.png","自我","Image","自我","Match","f","true","Formal",""
"","","","","","psychophysics","201","759093","0.0-9.0-0.0-0.40","1251","","f","","","","","","","","","","","","","key","f","16.665034965034803","720","476","./1_3_Stimuli/T_ambi40.png","朋友","Image","朋友","Match","f","true","Formal",""
"","","","","","psychophysics","202","760766","0.0-9.0-0.0-0.41","491","","f","","","","","","","","","","","","","key","f","16.6656565656568","720","476","./1_3_Stimuli/S_ambi40.png","自我","Word","自我","Match","f","true","Formal",""
"","","","","","psychophysics","203","762760","0.0-9.0-0.0-0.42","835","","j","","","","","","","","","","","","","key","j","16.666101694915056","720","476","./1_3_Stimuli/C_ambi40.png","自我","Image","他人","Mismatch","j","true","Formal",""
"","","","","","psychophysics","204","765011","0.0-9.0-0.0-0.43","1091","","j","","","","","","","","","","","","","key","j","16.66417910447761","720","476","./1_3_Stimuli/S_ambi40.png","朋友","Image","自我","Mismatch","j","true","Formal",""
"","","","","","psychophysics","205","766887","0.0-9.0-0.0-0.44","695","","j","","","","","","","","","","","","","key","j","16.664864864864235","720","476","./1_3_Stimuli/S_ambi40.png","他人","Image","自我","Mismatch","j","true","Formal",""
"","","","","","psychophysics","206","768505","0.0-9.0-0.0-0.45","464","","f","","","","","","","","","","","","","key","f","16.66421052631677","720","476","./1_3_Stimuli/C_ambi40.png","他人","Word","他人","Match","f","true","Formal",""
"","","","","","psychophysics","207","770485","0.0-9.0-0.0-0.46","827","","f","","","","","","","","","","","","","key","f","16.667796610169887","720","476","./1_3_Stimuli/C_ambi40.png","他人","Image","他人","Match","f","true","Formal",""
"","","","","","psychophysics","208","772461","0.0-9.0-0.0-0.47","819","","j","","","","","","","","","","","","","key","j","16.666101694915056","720","476","./1_3_Stimuli/T_ambi40.png","自我","Image","朋友","Mismatch","j","true","Formal",""
"","","","","","psychophysics","209","774330","0.0-9.0-0.0-0.48","714","","f","","","","","","","","","","","","","key","f","16.665765765765975","720","476","./1_3_Stimuli/S_ambi40.png","自我","Word","自我","Match","f","true","Formal",""
"","","","","","psychophysics","210","776006","0.0-9.0-0.0-0.49","520","","f","","","","","","","","","","","","","key","f","16.66464646464576","720","476","./1_3_Stimuli/S_ambi40.png","自我","Image","自我","Match","f","true","Formal",""
"","","","","","psychophysics","211","777901","0.0-9.0-0.0-0.50","743","","j","","","","","","","","","","","","","key","j","16.668141592920353","720","476","./1_3_Stimuli/C_ambi40.png","朋友","Word","他人","Mismatch","j","true","Formal",""
"","","","","","psychophysics","212","779567","0.0-9.0-0.0-0.51","513","","f","","","","","","","","","","","","","key","f","16.666666666666668","720","476","./1_3_Stimuli/C_ambi40.png","自我","Word","他人","Mismatch","j","false","Formal",""
"","","","","","psychophysics","213","781968","0.0-9.0-0.0-0.52","1245","","j","","","","","","","","","","","","","key","j","16.667832167832167","720","476","./1_3_Stimuli/C_ambi40.png","朋友","Image","他人","Mismatch","j","true","Formal",""
"","","","","","psychophysics","214","784146","0.0-9.0-0.0-0.53","1010","","j","","","","","","","","","","","","","key","j","16.666923076923613","720","476","./1_3_Stimuli/C_ambi40.png","自我","Image","他人","Mismatch","j","true","Formal",""
"","","","","","psychophysics","215","786269","0.0-9.0-0.0-0.54","960","","f","","","","","","","","","","","","","key","f","16.667460317460133","720","476","./1_3_Stimuli/C_ambi40.png","他人","Image","他人","Match","f","true","Formal",""
"","","","","","psychophysics","216","788153","0.0-9.0-0.0-0.55","729","","f","","","","","","","","","","","","","key","f","16.651785714285715","720","476","./1_3_Stimuli/T_ambi40.png","朋友","Word","朋友","Match","f","true","Formal",""
"","","","","","psychophysics","217","790307","0.0-9.0-0.0-0.56","983","","j","","","","","","","","","","","","","key","j","16.666406250000364","720","476","./1_3_Stimuli/S_ambi40.png","他人","Image","自我","Mismatch","j","true","Formal",""
"","","","","","psychophysics","218","792140","0.0-9.0-0.0-0.57","681","","j","","","","","","","","","","","","","key","j","16.666666666666668","720","476","./1_3_Stimuli/T_ambi40.png","他人","Image","朋友","Mismatch","j","true","Formal",""
"","","","","","psychophysics","219","794007","0.0-9.0-0.0-0.58","715","","j","","","","","","","","","","","","","key","j","16.66545454545518","720","476","./1_3_Stimuli/T_ambi40.png","自我","Word","朋友","Mismatch","j","true","Formal",""
"","","","","","psychophysics","220","796016","0.0-9.0-0.0-0.59","858","","f","","","","","","","","","","","","","key","f","16.668907563025016","720","476","./1_3_Stimuli/C_ambi40.png","他人","Image","他人","Match","f","true","Formal",""
"","","","","","psychophysics","221","797672","0.0-9.0-0.0-0.60","493","","f","","","","","","","","","","","","","key","f","16.669387755101802","720","476","./1_3_Stimuli/C_ambi40.png","他人","Word","他人","Match","f","true","Formal",""
"","","","","","psychophysics","222","799321","0.0-9.0-0.0-0.61","489","","j","","","","","","","","","","","","","key","j","16.66632653061272","720","476","./1_3_Stimuli/S_ambi40.png","他人","Word","自我","Mismatch","j","true","Formal",""
"","","","","","psychophysics","223","801146","0.0-9.0-0.0-0.62","667","","f","","","","","","","","","","","","","key","f","16.664814814815244","720","476","./1_3_Stimuli/S_ambi40.png","自我","Word","自我","Match","f","true","Formal",""
"","","","","","psychophysics","224","802925","0.0-9.0-0.0-0.63","624","","j","","","","","","","","","","","","","key","j","16.666666666666668","720","476","./1_3_Stimuli/S_ambi40.png","朋友","Image","自我","Mismatch","j","true","Formal",""
"","","","","","psychophysics","225","804755","0.0-9.0-0.0-0.64","680","","f","","","","","","","","","","","","","key","f","16.666055045871346","720","476","./1_3_Stimuli/T_ambi40.png","自我","Image","朋友","Mismatch","j","false","Formal",""
"","","","","","psychophysics","226","807487","0.0-9.0-0.0-0.65","null","","null","","","","","","","","","","","","","key","null","16.666257668711513","720","476","./1_3_Stimuli/T_ambi40.png","朋友","Image","朋友","Match","f","false","Formal",""
"","","","","","psychophysics","227","809647","0.0-9.0-0.0-0.66","996","","j","","","","","","","","","","","","","key","j","16.666406249999454","720","476","./1_3_Stimuli/S_ambi40.png","朋友","Word","自我","Mismatch","j","true","Formal",""
"","","","","","psychophysics","228","811400","0.0-9.0-0.0-0.67","599","","f","","","","","","","","","","","","","key","f","16.66990291262136","720","476","./1_3_Stimuli/S_ambi40.png","自我","Image","自我","Match","f","true","Formal",""
"","","","","","psychophysics","229","813975","0.0-9.0-0.0-0.68","1424","","j","","","","","","","","","","","","","key","j","16.667320261437755","720","476","./1_3_Stimuli/T_ambi40.png","朋友","Image","朋友","Match","f","false","Formal",""
"","","","","","psychophysics","230","815919","0.0-9.0-0.0-0.69","754","","j","","","","","","","","","","","","","key","j","16.66293103448296","720","476","./1_3_Stimuli/C_ambi40.png","他人","Word","他人","Match","f","false","Formal",""
"","","","","","psychophysics","231","818623","0.0-9.0-0.0-0.70","null","","null","","","","","","","","","","","","","key","null","16.77106918238979","720","476","./1_3_Stimuli/T_ambi40.png","他人","Word","朋友","Mismatch","j","false","Formal",""
"","","","","","psychophysics","232","821335","0.0-9.0-0.0-0.71","null","","null","","","","","","","","","","","","","key","null","17.200641025641325","720","476","./1_3_Stimuli/T_ambi40.png","朋友","Word","朋友","Match","f","false","Formal",""
"","","","","","psychophysics","233","824069","0.0-9.0-0.0-0.72","null","","null","","","","","","","","","","","","","key","null","16.668098159509345","720","476","./1_3_Stimuli/S_ambi40.png","朋友","Word","自我","Mismatch","j","false","Formal",""
"","","","","","psychophysics","234","826801","0.0-9.0-0.0-0.73","null","","null","","","","","","","","","","","","","key","null","16.666049382716192","720","476","./1_3_Stimuli/C_ambi40.png","自我","Image","他人","Mismatch","j","false","Formal",""
"","","","","","psychophysics","235","829529","0.0-9.0-0.0-0.74","null","","null","","","","","","","","","","","","","key","null","16.66543209876572","720","476","./1_3_Stimuli/T_ambi40.png","自我","Image","朋友","Mismatch","j","false","Formal",""
"","","","","","psychophysics","236","832258","0.0-9.0-0.0-0.75","null","","null","","","","","","","","","","","","","key","null","16.660122699387074","720","476","./1_3_Stimuli/S_ambi40.png","他人","Image","自我","Mismatch","j","false","Formal",""
"","","","","","psychophysics","237","834985","0.0-9.0-0.0-0.76","null","","null","","","","","","","","","","","","","key","null","16.66503067484677","720","476","./1_3_Stimuli/S_ambi40.png","朋友","Image","自我","Mismatch","j","false","Formal",""
"","","","","","psychophysics","238","837717","0.0-9.0-0.0-0.77","null","","null","","","","","","","","","","","","","key","null","16.665432098765002","720","476","./1_3_Stimuli/C_ambi40.png","朋友","Word","他人","Mismatch","j","false","Formal",""
"","","","","","psychophysics","239","840452","0.0-9.0-0.0-0.78","null","","null","","","","","","","","","","","","","key","null","16.663190184048936","720","476","./1_3_Stimuli/S_ambi40.png","自我","Word","自我","Match","f","false","Formal",""
"","","","","","psychophysics","240","843180","0.0-9.0-0.0-0.79","null","","null","","","","","","","","","","","","","key","null","16.66543209876572","720","476","./1_3_Stimuli/T_ambi40.png","朋友","Word","朋友","Match","f","false","Formal",""
"","","","","","psychophysics","241","845911","0.0-9.0-0.0-0.80","null","","null","","","","","","","","","","","","","key","null","16.66319018404965","720","476","./1_3_Stimuli/T_ambi40.png","自我","Word","朋友","Mismatch","j","false","Formal",""
"","","","","","psychophysics","242","848635","0.0-9.0-0.0-0.81","null","","null","","","","","","","","","","","","","key","null","16.6668711656446","720","476","./1_3_Stimuli/T_ambi40.png","朋友","Word","朋友","Match","f","false","Formal",""
"","","","","","psychophysics","243","851835","0.0-9.0-0.0-0.82","null","","null","","","","","","","","","","","","","key","null","16.66596858638719","720","476","./1_3_Stimuli/C_ambi40.png","他人","Word","他人","Match","f","false","Formal",""
"","","","","","psychophysics","244","854835","0.0-9.0-0.0-0.83","null","","null","","","","","","","","","","","","","key","null","17.34476744186006","720","476","./1_3_Stimuli/T_ambi40.png","他人","Image","朋友","Mismatch","j","false","Formal",""
"","","","","","psychophysics","245","857845","0.0-9.0-0.0-0.84","null","","null","","","","","","","","","","","","","key","null","16.666480446926982","720","476","./1_3_Stimuli/T_ambi40.png","朋友","Image","朋友","Match","f","false","Formal",""
"","","","","","psychophysics","246","860845","0.0-9.0-0.0-0.85","null","","null","","","","","","","","","","","","","key","null","16.666480446927636","720","476","./1_3_Stimuli/C_ambi40.png","他人","Image","他人","Match","f","false","Formal",""
"","","","","","psychophysics","247","863845","0.0-9.0-0.0-0.86","null","","null","","","","","","","","","","","","","key","null","16.66703910614538","720","476","./1_3_Stimuli/C_ambi40.png","他人","Image","他人","Match","f","false","Formal",""
"","","","","","psychophysics","248","866845","0.0-9.0-0.0-0.87","null","","null","","","","","","","","","","","","","key","null","16.85593220338983","720","476","./1_3_Stimuli/S_ambi40.png","自我","Image","自我","Match","f","false","Formal",""
"","","","","","psychophysics","249","869845","0.0-9.0-0.0-0.88","null","","null","","","","","","","","","","","","","key","null","16.66703910614538","720","476","./1_3_Stimuli/C_ambi40.png","朋友","Image","他人","Mismatch","j","false","Formal",""
"","","","","","psychophysics","250","872845","0.0-9.0-0.0-0.89","null","","null","","","","","","","","","","","","","key","null","16.668156424580875","720","476","./1_3_Stimuli/T_ambi40.png","朋友","Image","朋友","Match","f","false","Formal",""
"","","","","","psychophysics","251","875859","0.0-9.0-0.0-0.90","null","","null","","","","","","","","","","","","","key","null","16.665921787709237","720","476","./1_3_Stimuli/C_ambi40.png","自我","Word","他人","Mismatch","j","false","Formal",""
"","","","","","psychophysics","252","878851","0.0-9.0-0.0-0.91","null","","null","","","","","","","","","","","","","key","null","16.666853932584008","720","476","./1_3_Stimuli/S_ambi40.png","自我","Image","自我","Match","f","false","Formal",""
"","","","","","psychophysics","253","881845","0.0-9.0-0.0-0.92","null","","null","","","","","","","","","","","","","key","null","16.66759776536313","720","476","./1_3_Stimuli/C_ambi40.png","他人","Word","他人","Match","f","false","Formal",""
"","","","","","psychophysics","254","884853","0.0-9.0-0.0-0.93","null","","null","","","","","","","","","","","","","key","null","16.66759776536313","720","476","./1_3_Stimuli/T_ambi40.png","他人","Word","朋友","Mismatch","j","false","Formal",""
"","","","","","psychophysics","255","887848","0.0-9.0-0.0-0.94","null","","null","","","","","","","","","","","","","key","null","16.665921787709888","720","476","./1_3_Stimuli/S_ambi40.png","自我","Word","自我","Match","f","false","Formal",""
"","","","","","psychophysics","256","890846","0.0-9.0-0.0-0.95","null","","null","","","","","","","","","","","","","key","null","16.66703910614538","720","476","./1_3_Stimuli/S_ambi40.png","他人","Word","自我","Mismatch","j","false","Formal",""
"","","","","","psychophysics","257","893845","0.0-9.0-0.0-0.96","null","","null","","","","","","","","","","","","","key","null","16.66703910614538","720","476","./1_3_Stimuli/S_ambi40.png","自我","Image","自我","Match","f","false","Formal",""
"","","","","","psychophysics","258","896845","0.0-9.0-0.0-0.97","null","","null","","","","","","","","","","","","","key","null","16.668156424580875","720","476","./1_3_Stimuli/T_ambi40.png","朋友","Word","朋友","Match","f","false","Formal",""
"","","","","","psychophysics","259","899845","0.0-9.0-0.0-0.98","null","","null","","","","","","","","","","","","","key","null","16.66759776536313","720","476","./1_3_Stimuli/S_ambi40.png","自我","Image","自我","Match","f","false","Formal",""
"","","","","","psychophysics","260","902862","0.0-9.0-0.0-0.99","null","","null","","","","","","","","","","","","","key","null","16.666666666666668","720","476","./1_3_Stimuli/T_ambi40.png","朋友","Image","朋友","Match","f","false","Formal",""
"","","","","","psychophysics","261","905849","0.0-9.0-0.0-0.100","null","","null","","","","","","","","","","","","","key","null","16.66741573033734","720","476","./1_3_Stimuli/C_ambi40.png","他人","Word","他人","Match","f","false","Formal",""
"","","","","","psychophysics","262","908855","0.0-9.0-0.0-0.101","null","","null","","","","","","","","","","","","","key","null","16.66759776536313","720","476","./1_3_Stimuli/S_ambi40.png","朋友","Image","自我","Mismatch","j","false","Formal",""
"","","","","","psychophysics","263","911856","0.0-9.0-0.0-0.102","null","","null","","","","","","","","","","","","","key","null","16.664245810055345","720","476","./1_3_Stimuli/S_ambi40.png","他人","Image","自我","Mismatch","j","false","Formal",""
"","","","","","psychophysics","264","914845","0.0-9.0-0.0-0.103","null","","null","","","","","","","","","","","","","key","null","16.76123595505618","720","476","./1_3_Stimuli/C_ambi40.png","自我","Image","他人","Mismatch","j","false","Formal",""
"","","","","","psychophysics","265","917861","0.0-9.0-0.0-0.104","null","","null","","","","","","","","","","","","","key","null","16.66703910614473","720","476","./1_3_Stimuli/T_ambi40.png","自我","Word","朋友","Mismatch","j","false","Formal",""
"","","","","","psychophysics","266","920867","0.0-9.0-0.0-0.105","null","","null","","","","","","","","","","","","","key","null","16.66759776536313","720","476","./1_3_Stimuli/S_ambi40.png","他人","Word","自我","Mismatch","j","false","Formal",""
"","","","","","psychophysics","267","923872","0.0-9.0-0.0-0.106","null","","null","","","","","","","","","","","","","key","null","16.667977528089363","720","476","./1_3_Stimuli/C_ambi40.png","朋友","Word","他人","Mismatch","j","false","Formal",""
"","","","","","psychophysics","268","926864","0.0-9.0-0.0-0.107","null","","null","","","","","","","","","","","","","key","null","16.666853932584008","720","476","./1_3_Stimuli/C_ambi40.png","自我","Word","他人","Mismatch","j","false","Formal",""
"","","","","","psychophysics","269","929855","0.0-9.0-0.0-0.108","null","","null","","","","","","","","","","","","","key","null","16.66759776536313","720","476","./1_3_Stimuli/C_ambi40.png","他人","Image","他人","Match","f","false","Formal",""
"","","","","","psychophysics","270","932859","0.0-9.0-0.0-0.109","null","","null","","","","","","","","","","","","","key","null","16.668156424580875","720","476","./1_3_Stimuli/T_ambi40.png","他人","Word","朋友","Mismatch","j","false","Formal",""
"","","","","","psychophysics","271","935862","0.0-9.0-0.0-0.110","null","","null","","","","","","","","","","","","","key","null","16.66759776536313","720","476","./1_3_Stimuli/T_ambi40.png","朋友","Image","朋友","Match","f","false","Formal",""
"","","","","","psychophysics","272","938869","0.0-9.0-0.0-0.111","null","","null","","","","","","","","","","","","","key","null","16.660335195531115","720","476","./1_3_Stimuli/T_ambi40.png","自我","Image","朋友","Mismatch","j","false","Formal",""
"","","","","","psychophysics","273","941871","0.0-9.0-0.0-0.112","null","","null","","","","","","","","","","","","","key","null","16.665921787709237","720","476","./1_3_Stimuli/T_ambi40.png","他人","Image","朋友","Mismatch","j","false","Formal",""
"","","","","","psychophysics","274","944863","0.0-9.0-0.0-0.113","null","","null","","","","","","","","","","","","","key","null","16.66797752809002","720","476","./1_3_Stimuli/S_ambi40.png","朋友","Word","自我","Mismatch","j","false","Formal",""
"","","","","","psychophysics","275","947859","0.0-9.0-0.0-0.114","null","","null","","","","","","","","","","","","","key","null","16.66312849161985","720","476","./1_3_Stimuli/S_ambi40.png","自我","Word","自我","Match","f","false","Formal",""
"","","","","","psychophysics","276","950863","0.0-9.0-0.0-0.115","null","","null","","","","","","","","","","","","","key","null","16.66759776536313","720","476","./1_3_Stimuli/C_ambi40.png","他人","Image","他人","Match","f","false","Formal",""
"","","","","","psychophysics","277","953863","0.0-9.0-0.0-0.116","null","","null","","","","","","","","","","","","","key","null","16.666480446927636","720","476","./1_3_Stimuli/T_ambi40.png","朋友","Word","朋友","Match","f","false","Formal",""
"","","","","","psychophysics","278","956869","0.0-9.0-0.0-0.117","null","","null","","","","","","","","","","","","","key","null","16.666111111111242","720","476","./1_3_Stimuli/C_ambi40.png","他人","Word","他人","Match","f","false","Formal",""
"","","","","","psychophysics","279","959858","0.0-9.0-0.0-0.118","null","","null","","","","","","","","","","","","","key","null","16.665730337078653","720","476","./1_3_Stimuli/S_ambi40.png","自我","Word","自我","Match","f","false","Formal",""
"","","","","","psychophysics","280","962863","0.0-9.0-0.0-0.119","null","","null","","","","","","","","","","","","","key","null","16.666480446926982","720","476","./1_3_Stimuli/C_ambi40.png","朋友","Image","他人","Mismatch","j","false","Formal",""
"","","","","","html-keyboard-response","281","1100872","0.0-9.0-1.0","137983","<style>.context{color:white; font-size: 35px; line-height:40px}</style>                        <div><p class='context'>您正确回答了53% 的试次。</p><p class='context'>您的平均反应时为744毫秒。</p><p> <div style = 'color: green'><按任意键进入休息></div></p>"," ","","","","","","","","","","","","","","","","","","","","","","","","","",""
"","","","","","html-button-response","282","1164583","0.0-9.0-2.0","63696","
                  <p>您当前还剩余5组实验</p>
                  <p>现在是休息时间，当您结束休息后，您可以点击 结束休息 按钮 继续</p>
                  <p>建议休息时间还剩余<span id=""iii"">60</span>秒</p>","0","","","","","","","","","","","","","","","","","","","","","","","","","",""
"","","","","","psychophysics","283","1166968","0.0-9.0-0.1-0.120","1232","","f","","","","","","","","","","","","","key","f","16.674647887324273","720","476","./1_3_Stimuli/T_ambi40.png","朋友","Word","朋友","Match","f","true","Formal",""
"","","","","","psychophysics","284","1168974","0.0-9.0-0.1-0.121","847","","f","","","","","","","","","","","","","key","f","16.66638655462224","720","476","./1_3_Stimuli/C_ambi40.png","他人","Word","他人","Match","f","true","Formal",""
"","","","","","psychophysics","285","1170658","0.0-9.0-0.1-0.122","518","","f","","","","","","","","","","","","","key","f","16.666999999999533","720","476","./1_3_Stimuli/S_ambi40.png","自我","Word","自我","Match","f","true","Formal",""
"","","","","","psychophysics","286","1172584","0.0-9.0-0.1-0.123","774","","j","","","","","","","","","","","","","key","j","16.665789473683393","720","476","./1_3_Stimuli/C_ambi40.png","自我","Word","他人","Mismatch","j","true","Formal",""
"","","","","","psychophysics","287","1174647","0.0-9.0-0.1-0.124","905","","f","","","","","","","","","","","","","key","f","16.65609756097523","720","476","./1_3_Stimuli/S_ambi40.png","自我","Image","自我","Match","f","true","Formal",""
"","","","","","psychophysics","288","1176559","0.0-9.0-0.1-0.125","748","","j","","","","","","","","","","","","","key","j","16.664601769912327","720","476","./1_3_Stimuli/T_ambi40.png","自我","Image","朋友","Mismatch","j","true","Formal",""
"","","","","","psychophysics","289","1178295","0.0-9.0-0.1-0.126","585","","f","","","","","","","","","","","","","key","f","16.666666666666668","720","476","./1_3_Stimuli/S_ambi40.png","自我","Image","自我","Match","f","true","Formal",""
"","","","","","psychophysics","290","1180255","0.0-9.0-0.1-0.127","803","","f","","","","","","","","","","","","","key","f","16.665517241380915","720","476","./1_3_Stimuli/C_ambi40.png","他人","Image","他人","Match","f","true","Formal",""
"","","","","","psychophysics","291","1182550","0.0-9.0-0.1-0.128","1140","","j","","","","","","","","","","","","","key","j","16.667153284670853","720","476","./1_3_Stimuli/T_ambi40.png","自我","Word","朋友","Mismatch","j","true","Formal",""
"","","","","","psychophysics","292","1184283","0.0-9.0-0.1-0.129","578","","f","","","","","","","","","","","","","key","f","16.667961165046734","720","476","./1_3_Stimuli/T_ambi40.png","朋友","Word","朋友","Match","f","true","Formal",""
"","","","","","psychophysics","293","1186229","0.0-9.0-0.1-0.130","786","","f","","","","","","","","","","","","","key","f","16.666379310345228","720","476","./1_3_Stimuli/C_ambi40.png","他人","Word","他人","Match","f","true","Formal",""
"","","","","","psychophysics","294","1188655","0.0-9.0-0.1-0.131","1268","","j","","","","","","","","","","","","","key","j","16.668750000000323","720","476","./1_3_Stimuli/C_ambi40.png","朋友","Image","他人","Mismatch","j","true","Formal",""
"","","","","","psychophysics","295","1190580","0.0-9.0-0.1-0.132","772","","f","","","","","","","","","","","","","key","f","16.667826086956925","720","476","./1_3_Stimuli/T_ambi40.png","朋友","Image","朋友","Match","f","true","Formal",""
"","","","","","psychophysics","296","1192434","0.0-9.0-0.1-0.133","691","","f","","","","","","","","","","","","","key","f","16.66545454545624","720","476","./1_3_Stimuli/T_ambi40.png","朋友","Image","朋友","Match","f","true","Formal",""
"","","","","","psychophysics","297","1194498","0.0-9.0-0.1-0.134","904","","j","","","","","","","","","","","","","key","j","16.66504065040499","720","476","./1_3_Stimuli/T_ambi40.png","他人","Image","朋友","Mismatch","j","true","Formal",""
"","","","","","psychophysics","298","1197016","0.0-9.0-0.1-0.135","1359","","j","","","","","","","","","","","","","key","j","16.778523489932887","720","476","./1_3_Stimuli/C_ambi40.png","朋友","Word","他人","Mismatch","j","true","Formal",""
"","","","","","psychophysics","299","1198770","0.0-9.0-0.1-0.136","595","","f","","","","","","","","","","","","","key","f","16.667307692306796","720","476","./1_3_Stimuli/S_ambi40.png","自我","Word","自我","Match","f","true","Formal",""
"","","","","","psychophysics","300","1200860","0.0-9.0-0.1-0.137","933","","j","","","","","","","","","","","","","key","j","16.666129032258816","720","476","./1_3_Stimuli/T_ambi40.png","他人","Word","朋友","Mismatch","j","true","Formal",""
"","","","","","psychophysics","301","1202927","0.0-9.0-0.1-0.138","908","","f","","","","","","","","","","","","","key","f","16.664227642276042","720","476","./1_3_Stimuli/C_ambi40.png","他人","Image","他人","Match","f","true","Formal",""
"","","","","","psychophysics","302","1204834","0.0-9.0-0.1-0.139","753","","j","","","","","","","","","","","","","key","j","16.662831858408317","720","476","./1_3_Stimuli/C_ambi40.png","自我","Image","他人","Mismatch","j","true","Formal",""
"","","","","","psychophysics","303","1206855","0.0-9.0-0.1-0.140","839","","j","","","","","","","","","","","","","key","j","16.664999999998447","720","476","./1_3_Stimuli/S_ambi40.png","朋友","Word","自我","Mismatch","j","true","Formal",""
"","","","","","psychophysics","304","1209065","0.0-9.0-0.1-0.141","1049","","j","","","","","","","","","","","","","key","j","16.667692307692665","720","476","./1_3_Stimuli/S_ambi40.png","他人","Image","自我","Mismatch","j","true","Formal",""
"","","","","","psychophysics","305","1211136","0.0-9.0-0.1-0.142","919","","j","","","","","","","","","","","","","key","j","16.66585365853772","720","476","./1_3_Stimuli/S_ambi40.png","他人","Word","自我","Mismatch","j","true","Formal",""
"","","","","","psychophysics","306","1213242","0.0-9.0-0.1-0.143","940","","j","","","","","","","","","","","","","key","j","16.66559999999963","720","476","./1_3_Stimuli/S_ambi40.png","朋友","Image","自我","Mismatch","j","true","Formal",""
"","","","","","psychophysics","307","1215242","0.0-9.0-0.1-0.144","840","","j","","","","","","","","","","","","","key","j","16.665546218487005","720","476","./1_3_Stimuli/S_ambi40.png","朋友","Image","自我","Mismatch","j","true","Formal",""
"","","","","","psychophysics","308","1217148","0.0-9.0-0.1-0.145","746","","j","","","","","","","","","","","","","key","j","16.66902654867133","720","476","./1_3_Stimuli/T_ambi40.png","自我","Image","朋友","Mismatch","j","true","Formal",""
"","","","","","psychophysics","309","1218915","0.0-9.0-0.1-0.146","591","","f","","","","","","","","","","","","","key","f","16.667619047617716","720","476","./1_3_Stimuli/C_ambi40.png","他人","Image","他人","Match","f","true","Formal",""
"","","","","","psychophysics","310","1220827","0.0-9.0-0.1-0.147","760","","j","","","","","","","","","","","","","key","j","16.667256637167316","720","476","./1_3_Stimuli/S_ambi40.png","他人","Word","自我","Mismatch","j","true","Formal",""
"","","","","","psychophysics","311","1222621","0.0-9.0-0.1-0.148","641","","j","","","","","","","","","","","","","key","j","16.667289719627473","720","476","./1_3_Stimuli/C_ambi40.png","自我","Image","他人","Mismatch","j","true","Formal",""
"","","","","","psychophysics","312","1224555","0.0-9.0-0.1-0.149","772","","j","","","","","","","","","","","","","key","j","16.668695652173103","720","476","./1_3_Stimuli/T_ambi40.png","他人","Word","朋友","Mismatch","j","true","Formal",""
"","","","","","psychophysics","313","1226299","0.0-9.0-0.1-0.150","585","","j","","","","","","","","","","","","","key","j","16.667961165048997","720","476","./1_3_Stimuli/T_ambi40.png","自我","Word","朋友","Mismatch","j","true","Formal",""
"","","","","","psychophysics","314","1228014","0.0-9.0-0.1-0.151","563","","f","","","","","","","","","","","","","key","f","16.663366336633665","720","476","./1_3_Stimuli/S_ambi40.png","自我","Word","自我","Match","f","true","Formal",""
"","","","","","psychophysics","315","1229927","0.0-9.0-0.1-0.152","761","","f","","","","","","","","","","","","","key","f","16.669298245614442","720","476","./1_3_Stimuli/C_ambi40.png","他人","Word","他人","Match","f","true","Formal",""
"","","","","","psychophysics","316","1231935","0.0-9.0-0.1-0.153","853","","j","","","","","","","","","","","","","key","j","16.665833333332557","720","476","./1_3_Stimuli/S_ambi40.png","他人","Image","自我","Mismatch","j","true","Formal",""
"","","","","","psychophysics","317","1233770","0.0-9.0-0.1-0.154","675","","f","","","","","","","","","","","","","key","f","16.664220183485384","720","476","./1_3_Stimuli/S_ambi40.png","自我","Word","自我","Match","f","true","Formal",""
"","","","","","psychophysics","318","1236054","0.0-9.0-0.1-0.155","1125","","j","","","","","","","","","","","","","key","j","16.66691176470554","720","476","./1_3_Stimuli/T_ambi40.png","他人","Image","朋友","Mismatch","j","true","Formal",""
"","","","","","psychophysics","319","1237870","0.0-9.0-0.1-0.156","655","","j","","","","","","","","","","","","","key","j","16.667592592591298","720","476","./1_3_Stimuli/C_ambi40.png","朋友","Image","他人","Mismatch","j","true","Formal",""
"","","","","","psychophysics","320","1240052","0.0-9.0-0.1-0.157","1028","","f","","","","","","","","","","","","","key","f","16.66461538461646","720","476","./1_3_Stimuli/S_ambi40.png","自我","Image","自我","Match","f","true","Formal",""
"","","","","","psychophysics","321","1242090","0.0-9.0-0.1-0.158","874","","j","","","","","","","","","","","","","key","j","16.666942148759947","720","476","./1_3_Stimuli/C_ambi40.png","他人","Word","他人","Match","f","false","Formal",""
"","","","","","psychophysics","322","1243833","0.0-9.0-0.1-0.159","582","","f","","","","","","","","","","","","","key","f","16.66504854368932","720","476","./1_3_Stimuli/S_ambi40.png","自我","Image","自我","Match","f","true","Formal",""
"","","","","","psychophysics","323","1245554","0.0-9.0-0.1-0.160","559","","f","","","","","","","","","","","","","key","f","16.667647058824443","720","476","./1_3_Stimuli/T_ambi40.png","朋友","Image","朋友","Match","f","true","Formal",""
"","","","","","psychophysics","324","1247282","0.0-9.0-0.1-0.161","574","","f","","","","","","","","","","","","","key","f","16.666666666666668","720","476","./1_3_Stimuli/T_ambi40.png","朋友","Word","朋友","Match","f","true","Formal",""
"","","","","","psychophysics","325","1248828","0.0-9.0-0.1-0.162","383","","f","","","","","","","","","","","","","key","f","16.66813186813238","720","476","./1_3_Stimuli/T_ambi40.png","朋友","Image","朋友","Match","f","true","Formal",""
"","","","","","psychophysics","326","1250779","0.0-9.0-0.1-0.163","797","","f","","","","","","","","","","","","","key","f","16.66521739130435","720","476","./1_3_Stimuli/C_ambi40.png","他人","Image","他人","Match","f","true","Formal",""
"","","","","","psychophysics","327","1252503","0.0-9.0-0.1-0.164","570","","j","","","","","","","","","","","","","key","j","16.666666666666668","720","476","./1_3_Stimuli/C_ambi40.png","自我","Word","他人","Mismatch","j","true","Formal",""
"","","","","","psychophysics","328","1254124","0.0-9.0-0.1-0.165","457","","f","","","","","","","","","","","","","key","f","16.668749999999516","720","476","./1_3_Stimuli/T_ambi40.png","朋友","Word","朋友","Match","f","true","Formal",""
"","","","","","psychophysics","329","1255818","0.0-9.0-0.1-0.166","536","","j","","","","","","","","","","","","","key","j","16.663366336633665","720","476","./1_3_Stimuli/S_ambi40.png","朋友","Word","自我","Mismatch","j","true","Formal",""
"","","","","","psychophysics","330","1258557","0.0-9.0-0.1-0.167","null","","null","","","","","","","","","","","","","key","null","16.665644171779142","720","476","./1_3_Stimuli/C_ambi40.png","朋友","Word","他人","Mismatch","j","false","Formal",""
"","","","","","psychophysics","331","1260234","0.0-9.0-0.1-0.168","522","","f","","","","","","","","","","","","","key","f","16.665999999998604","720","476","./1_3_Stimuli/S_ambi40.png","自我","Word","自我","Match","f","true","Formal",""
"","","","","","psychophysics","332","1262948","0.0-9.0-0.1-0.169","null","","null","","","","","","","","","","","","","key","null","16.667701863354036","720","476","./1_3_Stimuli/C_ambi40.png","他人","Image","他人","Match","f","false","Formal",""
"","","","","","psychophysics","333","1265421","0.0-9.0-0.1-0.170","1306","","j","","","","","","","","","","","","","key","j","16.665986394558775","720","476","./1_3_Stimuli/S_ambi40.png","他人","Image","自我","Mismatch","j","true","Formal",""
"","","","","","psychophysics","334","1267253","0.0-9.0-0.1-0.171","670","","j","","","","","","","","","","","","","key","j","16.668807339450822","720","476","./1_3_Stimuli/C_ambi40.png","朋友","Word","他人","Mismatch","j","true","Formal",""
"","","","","","psychophysics","335","1269220","0.0-9.0-0.1-0.172","807","","j","","","","","","","","","","","","","key","j","16.66724137930954","720","476","./1_3_Stimuli/S_ambi40.png","他人","Word","自我","Mismatch","j","true","Formal",""
"","","","","","psychophysics","336","1271415","0.0-9.0-0.1-0.173","1042","","f","","","","","","","","","","","","","key","f","16.667692307692665","720","476","./1_3_Stimuli/S_ambi40.png","自我","Image","自我","Match","f","true","Formal",""
"","","","","","psychophysics","337","1274122","0.0-9.0-0.1-0.174","null","","null","","","","","","","","","","","","","key","null","16.664596273291924","720","476","./1_3_Stimuli/T_ambi40.png","朋友","Word","朋友","Match","f","false","Formal",""
"","","","","","psychophysics","338","1275991","0.0-9.0-0.1-0.175","718","","j","","","","","","","","","","","","","key","j","17.130555555556416","720","476","./1_3_Stimuli/T_ambi40.png","他人","Word","朋友","Mismatch","j","true","Formal",""
"","","","","","psychophysics","339","1278010","0.0-9.0-0.1-0.176","838","","j","","","","","","","","","","","","","key","j","16.66416666666628","720","476","./1_3_Stimuli/T_ambi40.png","自我","Word","朋友","Mismatch","j","true","Formal",""
"","","","","","psychophysics","340","1280165","0.0-9.0-0.1-0.177","992","","f","","","","","","","","","","","","","key","f","16.93095238095275","720","476","./1_3_Stimuli/T_ambi40.png","朋友","Image","朋友","Match","f","true","Formal",""
"","","","","","psychophysics","341","1282873","0.0-9.0-0.1-0.178","null","","null","","","","","","","","","","","","","key","null","16.667283950617858","720","476","./1_3_Stimuli/C_ambi40.png","他人","Word","他人","Match","f","false","Formal",""
"","","","","","psychophysics","342","1284757","0.0-9.0-0.1-0.179","733","","f","","","","","","","","","","","","","key","f","16.66756756756631","720","476","./1_3_Stimuli/S_ambi40.png","自我","Word","自我","Match","f","true","Formal",""
"","","","","","psychophysics","343","1286790","0.0-9.0-0.1-0.180","880","","f","","","","","","","","","","","","","key","f","16.663636363636748","720","476","./1_3_Stimuli/T_ambi40.png","朋友","Word","朋友","Match","f","true","Formal",""
"","","","","","psychophysics","344","1288709","0.0-9.0-0.1-0.181","759","","j","","","","","","","","","","","","","key","j","16.666666666666668","720","476","./1_3_Stimuli/C_ambi40.png","朋友","Image","他人","Mismatch","j","true","Formal",""
"","","","","","psychophysics","345","1290292","0.0-9.0-0.1-0.182","431","","f","","","","","","","","","","","","","key","f","16.665957446807024","720","476","./1_3_Stimuli/S_ambi40.png","自我","Image","自我","Match","f","true","Formal",""
"","","","","","psychophysics","346","1292328","0.0-9.0-0.1-0.183","876","","f","","","","","","","","","","","","","key","f","16.667768595041707","720","476","./1_3_Stimuli/T_ambi40.png","朋友","Image","朋友","Match","f","true","Formal",""
"","","","","","psychophysics","347","1294297","0.0-9.0-0.1-0.184","807","","j","","","","","","","","","","","","","key","j","16.66581196581316","720","476","./1_3_Stimuli/C_ambi40.png","自我","Image","他人","Mismatch","j","true","Formal",""
"","","","","","psychophysics","348","1296213","0.0-9.0-0.1-0.185","758","","j","","","","","","","","","","","","","key","j","16.669298245614442","720","476","./1_3_Stimuli/C_ambi40.png","自我","Word","他人","Mismatch","j","true","Formal",""
"","","","","","psychophysics","349","1298381","0.0-9.0-0.1-0.186","1009","","j","","","","","","","","","","","","","key","j","16.66511627907013","720","476","./1_3_Stimuli/T_ambi40.png","自我","Image","朋友","Mismatch","j","true","Formal",""
"","","","","","psychophysics","350","1300175","0.0-9.0-0.1-0.187","630","","f","","","","","","","","","","","","","key","f","16.666355140187353","720","476","./1_3_Stimuli/C_ambi40.png","他人","Word","他人","Match","f","true","Formal",""
"","","","","","psychophysics","351","1301912","0.0-9.0-0.1-0.188","580","","j","","","","","","","","","","","","","key","j","16.667961165048997","720","476","./1_3_Stimuli/S_ambi40.png","朋友","Image","自我","Mismatch","j","true","Formal",""
"","","","","","psychophysics","352","1304149","0.0-9.0-0.1-0.189","1076","","j","","","","","","","","","","","","","key","j","16.666917293232732","720","476","./1_3_Stimuli/T_ambi40.png","他人","Image","朋友","Mismatch","j","true","Formal",""
"","","","","","psychophysics","353","1306013","0.0-9.0-0.1-0.190","678","","j","","","","","","","","","","","","","key","j","16.66756756756841","720","476","./1_3_Stimuli/S_ambi40.png","朋友","Word","自我","Mismatch","j","true","Formal",""
"","","","","","psychophysics","354","1307956","0.0-9.0-0.1-0.191","784","","f","","","","","","","","","","","","","key","f","16.665517241378907","720","476","./1_3_Stimuli/C_ambi40.png","他人","Image","他人","Match","f","true","Formal",""
"","","","","","psychophysics","355","1309887","0.0-9.0-0.1-0.192","777","","j","","","","","","","","","","","","","key","j","16.665789473683393","720","476","./1_3_Stimuli/S_ambi40.png","他人","Word","自我","Mismatch","j","true","Formal",""
"","","","","","psychophysics","356","1311640","0.0-9.0-0.1-0.193","575","","f","","","","","","","","","","","","","key","f","16.6663461538466","720","476","./1_3_Stimuli/C_ambi40.png","他人","Image","他人","Match","f","true","Formal",""
"","","","","","psychophysics","357","1313391","0.0-9.0-0.1-0.194","597","","j","","","","","","","","","","","","","key","j","16.66826923076923","720","476","./1_3_Stimuli/C_ambi40.png","朋友","Image","他人","Mismatch","j","true","Formal",""
"","","","","","psychophysics","358","1315484","0.0-9.0-0.1-0.195","940","","j","","","","","","","","","","","","","key","j","16.664516129031508","720","476","./1_3_Stimuli/C_ambi40.png","朋友","Word","他人","Mismatch","j","true","Formal",""
"","","","","","psychophysics","359","1317215","0.0-9.0-0.1-0.196","577","","f","","","","","","","","","","","","","key","f","16.66504854368932","720","476","./1_3_Stimuli/S_ambi40.png","自我","Image","自我","Match","f","true","Formal",""
"","","","","","psychophysics","360","1319111","0.0-9.0-0.1-0.197","739","","j","","","","","","","","","","","","","key","j","16.668141592920353","720","476","./1_3_Stimuli/C_ambi40.png","自我","Word","他人","Mismatch","j","true","Formal",""
"","","","","","psychophysics","361","1320774","0.0-9.0-0.1-0.198","509","","f","","","","","","","","","","","","","key","f","16.66767676767771","720","476","./1_3_Stimuli/S_ambi40.png","自我","Word","自我","Match","f","true","Formal",""
"","","","","","psychophysics","362","1322564","0.0-9.0-0.1-0.199","637","","f","","","","","","","","","","","","","key","f","16.664150943397544","720","476","./1_3_Stimuli/T_ambi40.png","朋友","Image","朋友","Match","f","true","Formal",""
"","","","","","psychophysics","363","1324253","0.0-9.0-0.1-0.200","533","","f","","","","","","","","","","","","","key","f","16.669000000001397","720","476","./1_3_Stimuli/T_ambi40.png","朋友","Word","朋友","Match","f","true","Formal",""
"","","","","","psychophysics","364","1326045","0.0-9.0-0.1-0.201","641","","j","","","","","","","","","","","","","key","j","16.666037735847738","720","476","./1_3_Stimuli/T_ambi40.png","自我","Word","朋友","Mismatch","j","true","Formal",""
"","","","","","psychophysics","365","1328225","0.0-9.0-0.1-0.202","1024","","j","","","","","","","","","","","","","key","j","16.66615384615277","720","476","./1_3_Stimuli/T_ambi40.png","他人","Word","朋友","Mismatch","j","true","Formal",""
"","","","","","psychophysics","366","1330003","0.0-9.0-0.1-0.203","614","","j","","","","","","","","","","","","","key","j","16.663809523809082","720","476","./1_3_Stimuli/T_ambi40.png","他人","Image","朋友","Mismatch","j","true","Formal",""
"","","","","","psychophysics","367","1331765","0.0-9.0-0.1-0.204","601","","f","","","","","","","","","","","","","key","f","16.6657142857134","720","476","./1_3_Stimuli/C_ambi40.png","他人","Image","他人","Match","f","true","Formal",""
"","","","","","psychophysics","368","1333660","0.0-9.0-0.1-0.205","738","","j","","","","","","","","","","","","","key","j","16.663392857143272","720","476","./1_3_Stimuli/T_ambi40.png","自我","Image","朋友","Mismatch","j","true","Formal",""
"","","","","","psychophysics","369","1335491","0.0-9.0-0.1-0.206","666","","j","","","","","","","","","","","","","key","j","16.666666666666668","720","476","./1_3_Stimuli/S_ambi40.png","他人","Image","自我","Mismatch","j","true","Formal",""
"","","","","","psychophysics","370","1337220","0.0-9.0-0.1-0.207","575","","f","","","","","","","","","","","","","key","f","16.665686274511174","720","476","./1_3_Stimuli/S_ambi40.png","自我","Word","自我","Match","f","true","Formal",""
"","","","","","psychophysics","371","1338924","0.0-9.0-0.1-0.208","545","","j","","","","","","","","","","","","","key","j","16.665346534653004","720","476","./1_3_Stimuli/S_ambi40.png","朋友","Image","自我","Mismatch","j","true","Formal",""
"","","","","","psychophysics","372","1340724","0.0-9.0-0.1-0.209","644","","f","","","","","","","","","","","","","key","f","16.666981132075033","720","476","./1_3_Stimuli/C_ambi40.png","他人","Word","他人","Match","f","true","Formal",""
"","","","","","psychophysics","373","1342607","0.0-9.0-0.1-0.210","729","","j","","","","","","","","","","","","","key","j","16.664285714284883","720","476","./1_3_Stimuli/C_ambi40.png","自我","Image","他人","Mismatch","j","true","Formal",""
"","","","","","psychophysics","374","1344988","0.0-9.0-0.1-0.211","1226","","f","","","","","","","","","","","","","key","f","16.668085106382648","720","476","./1_3_Stimuli/C_ambi40.png","他人","Word","他人","Match","f","true","Formal",""
"","","","","","psychophysics","375","1347695","0.0-9.0-0.1-0.212","null","","null","","","","","","","","","","","","","key","null","16.668322981367037","720","476","./1_3_Stimuli/T_ambi40.png","朋友","Image","朋友","Match","f","false","Formal",""
"","","","","","psychophysics","376","1350018","0.0-9.0-0.1-0.213","1161","","j","","","","","","","","","","","","","key","j","16.665942028984833","720","476","./1_3_Stimuli/S_ambi40.png","朋友","Word","自我","Mismatch","j","true","Formal",""
"","","","","","psychophysics","377","1352043","0.0-9.0-0.1-0.214","866","","f","","","","","","","","","","","","","key","f","16.665000000000386","720","476","./1_3_Stimuli/T_ambi40.png","朋友","Word","朋友","Match","f","true","Formal",""
"","","","","","psychophysics","378","1353975","0.0-9.0-0.1-0.215","781","","f","","","","","","","","","","","","","key","f","16.664912280700122","720","476","./1_3_Stimuli/S_ambi40.png","自我","Image","自我","Match","f","true","Formal",""
"","","","","","psychophysics","379","1355974","0.0-9.0-0.1-0.216","829","","f","","","","","","","","","","","","","key","f","16.66638655462224","720","476","./1_3_Stimuli/C_ambi40.png","他人","Word","他人","Match","f","true","Formal",""
"","","","","","psychophysics","380","1357855","0.0-9.0-0.1-0.217","728","","j","","","","","","","","","","","","","key","j","16.663963963965642","720","476","./1_3_Stimuli/S_ambi40.png","他人","Image","自我","Mismatch","j","true","Formal",""
"","","","","","psychophysics","381","1359571","0.0-9.0-0.1-0.218","561","","f","","","","","","","","","","","","","key","f","16.667647058824443","720","476","./1_3_Stimuli/S_ambi40.png","自我","Word","自我","Match","f","true","Formal",""
"","","","","","psychophysics","382","1361600","0.0-9.0-0.1-0.219","873","","f","","","","","","","","","","","","","key","f","16.671900826446667","720","476","./1_3_Stimuli/C_ambi40.png","他人","Word","他人","Match","f","true","Formal",""
"","","","","","psychophysics","383","1363233","0.0-9.0-0.1-0.220","470","","f","","","","","","","","","","","","","key","f","16.663917525774636","720","476","./1_3_Stimuli/C_ambi40.png","他人","Image","他人","Match","f","true","Formal",""
"","","","","","psychophysics","384","1365119","0.0-9.0-0.1-0.221","723","","j","","","","","","","","","","","","","key","j","16.66785714285756","720","476","./1_3_Stimuli/T_ambi40.png","他人","Image","朋友","Mismatch","j","true","Formal",""
"","","","","","psychophysics","385","1366838","0.0-9.0-0.1-0.222","560","","f","","","","","","","","","","","","","key","f","16.6647058823534","720","476","./1_3_Stimuli/S_ambi40.png","自我","Word","自我","Match","f","true","Formal",""
"","","","","","psychophysics","386","1368997","0.0-9.0-0.1-0.223","1004","","j","","","","","","","","","","","","","key","j","16.667187499999272","720","476","./1_3_Stimuli/C_ambi40.png","自我","Image","他人","Mismatch","j","true","Formal",""
"","","","","","psychophysics","387","1371220","0.0-9.0-0.1-0.224","1065","","j","","","","","","","","","","","","","key","j","16.66439393939535","720","476","./1_3_Stimuli/C_ambi40.png","朋友","Word","他人","Mismatch","j","true","Formal",""
"","","","","","psychophysics","388","1372918","0.0-9.0-0.1-0.225","522","","f","","","","","","","","","","","","","key","f","16.667326732672347","720","476","./1_3_Stimuli/T_ambi40.png","朋友","Image","朋友","Match","f","true","Formal",""
"","","","","","psychophysics","389","1374977","0.0-9.0-0.1-0.226","902","","f","","","","","","","","","","","","","key","f","16.65819672130995","720","476","./1_3_Stimuli/T_ambi40.png","朋友","Word","朋友","Match","f","true","Formal",""
"","","","","","psychophysics","390","1376879","0.0-9.0-0.1-0.227","748","","j","","","","","","","","","","","","","key","j","16.66696428571387","720","476","./1_3_Stimuli/S_ambi40.png","朋友","Image","自我","Mismatch","j","true","Formal",""
"","","","","","psychophysics","391","1378673","0.0-9.0-0.1-0.228","612","","j","","","","","","","","","","","","","key","j","16.66509433962264","720","476","./1_3_Stimuli/S_ambi40.png","朋友","Word","自我","Mismatch","j","true","Formal",""
"","","","","","psychophysics","392","1380583","0.0-9.0-0.1-0.229","757","","f","","","","","","","","","","","","","key","f","16.665486725663303","720","476","./1_3_Stimuli/C_ambi40.png","他人","Image","他人","Match","f","true","Formal",""
"","","","","","psychophysics","393","1382506","0.0-9.0-0.1-0.230","763","","j","","","","","","","","","","","","","key","j","16.666666666666668","720","476","./1_3_Stimuli/C_ambi40.png","自我","Word","他人","Mismatch","j","true","Formal",""
"","","","","","psychophysics","394","1384641","0.0-9.0-0.1-0.231","983","","f","","","","","","","","","","","","","key","f","16.6661417322842","720","476","./1_3_Stimuli/S_ambi40.png","自我","Image","自我","Match","f","true","Formal",""
"","","","","","psychophysics","395","1386808","0.0-9.0-0.1-0.232","1012","","j","","","","","","","","","","","","","key","j","16.666666666666668","720","476","./1_3_Stimuli/S_ambi40.png","他人","Word","自我","Mismatch","j","true","Formal",""
"","","","","","psychophysics","396","1388724","0.0-9.0-0.1-0.233","762","","j","","","","","","","","","","","","","key","j","16.66902654867339","720","476","./1_3_Stimuli/C_ambi40.png","朋友","Image","他人","Mismatch","j","true","Formal",""
"","","","","","psychophysics","397","1390627","0.0-9.0-0.1-0.234","742","","f","","","","","","","","","","","","","key","f","16.66637168141634","720","476","./1_3_Stimuli/T_ambi40.png","朋友","Image","朋友","Match","f","true","Formal",""
"","","","","","psychophysics","398","1392518","0.0-9.0-0.1-0.235","733","","j","","","","","","","","","","","","","key","j","16.66785714285548","720","476","./1_3_Stimuli/T_ambi40.png","自我","Image","朋友","Mismatch","j","true","Formal",""
"","","","","","psychophysics","399","1394580","0.0-9.0-0.1-0.236","901","","f","","","","","","","","","","","","","key","f","16.667213114753334","720","476","./1_3_Stimuli/S_ambi40.png","自我","Image","自我","Match","f","true","Formal",""
"","","","","","psychophysics","400","1397106","0.0-9.0-0.1-0.237","1371","","j","","","","","","","","","","","","","key","j","16.664666666666356","720","476","./1_3_Stimuli/T_ambi40.png","他人","Word","朋友","Mismatch","j","true","Formal",""
"","","","","","psychophysics","401","1399052","0.0-9.0-0.1-0.238","794","","f","","","","","","","","","","","","","key","f","16.66695652174075","720","476","./1_3_Stimuli/T_ambi40.png","朋友","Word","朋友","Match","f","true","Formal",""
"","","","","","psychophysics","402","1401475","0.0-9.0-0.1-0.239","1272","","j","","","","","","","","","","","","","key","j","16.665972222221576","720","476","./1_3_Stimuli/T_ambi40.png","自我","Word","朋友","Mismatch","j","true","Formal",""
"","","","","","html-keyboard-response","403","1406016","0.0-9.0-1.1","4540","<style>.context{color:white; font-size: 35px; line-height:40px}</style>                        <div><p class='context'>您正确回答了95% 的试次。</p><p class='context'>您的平均反应时为782毫秒。</p><p> <div style = 'color: green'><按任意键进入休息></div></p>"," ","","","","","","","","","","","","","","","","","","","","","","","","","",""
"","","","","","html-button-response","404","1468684","0.0-9.0-2.1","62655","
                  <p>您当前还剩余4组实验</p>
                  <p>现在是休息时间，当您结束休息后，您可以点击 结束休息 按钮 继续</p>
                  <p>建议休息时间还剩余<span id=""iii"">60</span>秒</p>","0","","","","","","","","","","","","","","","","","","","","","","","","","",""
"","","","","","psychophysics","405","1471388","0.0-9.0-0.2-0.240","null","","null","","","","","","","","","","","","","key","null","16.768944099379173","720","476","./1_3_Stimuli/S_ambi40.png","他人","Image","自我","Mismatch","j","false","Formal",""
"","","","","","psychophysics","406","1473198","0.0-9.0-0.2-0.241","643","","f","","","","","","","","","","","","","key","f","16.666355140185175","720","476","./1_3_Stimuli/S_ambi40.png","自我","Image","自我","Match","f","true","Formal",""
"","","","","","psychophysics","407","1475064","0.0-9.0-0.2-0.242","692","","j","","","","","","","","","","","","","key","j","16.665765765767024","720","476","./1_3_Stimuli/S_ambi40.png","他人","Word","自我","Mismatch","j","true","Formal",""
"","","","","","psychophysics","408","1476855","0.0-9.0-0.2-0.243","634","","f","","","","","","","","","","","","","key","f","16.667924528302326","720","476","./1_3_Stimuli/T_ambi40.png","朋友","Image","朋友","Match","f","true","Formal",""
"","","","","","psychophysics","409","1478622","0.0-9.0-0.2-0.244","607","","j","","","","","","","","","","","","","key","j","16.668571428570985","720","476","./1_3_Stimuli/S_ambi40.png","朋友","Image","自我","Mismatch","j","true","Formal",""
"","","","","","psychophysics","410","1480706","0.0-9.0-0.2-0.245","926","","f","","","","","","","","","","","","","key","f","16.666935483870592","720","476","./1_3_Stimuli/C_ambi40.png","朋友","Word","他人","Mismatch","j","false","Formal",""
"","","","","","psychophysics","411","1482478","0.0-9.0-0.2-0.246","609","","f","","","","","","","","","","","","","key","f","16.664761904762347","720","476","./1_3_Stimuli/S_ambi40.png","自我","Image","自我","Match","f","true","Formal",""
"","","","","","psychophysics","412","1484646","0.0-9.0-0.2-0.247","1015","","f","","","","","","","","","","","","","key","f","16.66356589147359","720","476","./1_3_Stimuli/C_ambi40.png","他人","Image","他人","Match","f","true","Formal",""
