"success","timeout","failed_images","failed_audio","failed_video","trial_type","trial_index","time_elapsed","internal_node_id","rt","stimulus","response","value","item_width_mm","item_height_mm","item_width_px","px2mm","view_dist_mm","item_width_deg","px2deg","scale_factor","win_width_deg","win_height_deg","view_history","response_type","key_press","avg_frame_time","center_x","center_y","image","word","target","valence","matchness","correct_response","correct","exp_condition"
"true","false","[]","[]","[]","preload","0","473","0.0-0.0","","","","","","","","","","","","","","","","","","","","","","","","","","","",""
"","","","","","html-keyboard-response","1","6447","0.0-1.0","5972","
     <p>您好，欢迎参加本次实验。</p>
     <p>为充分保障您的权利，请确保您已经知晓并同意《参与实验同意书》以及《数据公开知情同意书》。</p>
     <p>如果您未见过上述内容，请咨询实验员。</p>
     <p>如果您选择继续实验，则表示您已经清楚两份知情同意书的内容并同意。</p>
     <p> <div style = ""color: green""><按任意键至下页></div> </p>
     "," ","","","","","","","","","","","","","","","","","","","","","","","","",""
"","","","","","html-keyboard-response","2","7930","0.0-2.0-0.0","1483","
      <p>本实验首先需要您填写一些基本个人信息。</p>
      <p> <div style = ""color: green""><按任意键至下页></div></p>
      "," ","","","","","","","","","","","","","","","","","","","","","","","","",""
"","","","","","call-function","3","7933","0.0-2.0-1.0","","","","","","","","","","","","","","","","","","","","","","","","","","","",""
"","","","","","survey-html-form","4","22674","0.0-2.0-2.0","14737","","{""Q0"":""1006""}","","","","","","","","","","","","","","","","","","","","","","","","",""
"","","","","","html-button-response","5","23699","0.0-2.0-3.0","1022","<p style = 'color : white'>您的性别</p>","1","","","","","","","","","","","","","","","","","","","","","","","","",""
"","","","","","survey-html-form","6","31517","0.0-2.0-4.0","7817","","{""Q0"":""2003""}","","","","","","","","","","","","","","","","","","","","","","","","",""
"","","","","","survey-html-form","7","36332","0.0-2.0-5.0","4811","","{""Q0"":""5""}","","","","","","","","","","","","","","","","","","","","","","","","",""
"","","","","","virtual-chinrest","8","161734","0.0-3.0","125400","","","","85.6","53.98","483.2667526307925","5.642767863087866","506.23","9.66533505261585","50.00000000000001","0.7159606948263169","25.599999999999998","12.619999999999997","","","","","","","","","","","","","",""
"true","","","","","fullscreen","9","165480","0.0-4.0","","","","","","","","","","","","","","","","","","","","","","","","","","","",""
"","","","","","instructions","10","228575","0.0-5.0","63093","","","","","","","","","","","","","","[{""page_index"":0,""viewing_time"":4829},{""page_index"":1,""viewing_time"":37398},{""page_index"":2,""viewing_time"":18136},{""page_index"":3,""viewing_time"":2729}]","","","","","","","","","","","","",""
"","","","","","html-keyboard-response","11","232231","0.0-6.0","null","<count-down title=""""></count-down>","null","","","","","","","","","","","","","","","","","","","","","","","","",""
"","","","","","psychophysics","12","234969","0.0-7.0-0.0-0.0","null","","null","","","","","","","","","","","","","key","null","16.667512345678936","640","356","./1_3_Stimuli/T_ambi40.png","朋友","Image","朋友","Match","f","false","Practice"
"","","","","","html-keyboard-response","13","235274","0.0-7.0-0.0-1.0","null","<span class='add_' style='color:yellow; font-size: 70px;'> 太慢! </span>","null","","","","","","","","","","","","","","","","","","","","","","","","","feedback"
"","","","","","psychophysics","14","237099","0.0-7.0-0.0-0.1","672","","j","","","","","","","","","","","","","key","j","16.666898148148093","640","356","./1_3_Stimuli/S_ambi40.png","自我","Image","自我","Match","f","false","Practice"
"","","","","","html-keyboard-response","15","237408","0.0-7.0-0.0-1.1","null","<span style='color:red; font-size: 70px;'>错误! </span>","null","","","","","","","","","","","","","","","","","","","","","","","","","feedback"
"","","","","","psychophysics","16","239387","0.0-7.0-0.0-0.2","827","","f","","","","","","","","","","","","","key","f","16.66766666666665","640","356","./1_3_Stimuli/C_ambi40.png","朋友","Image","他人","Mismatch","j","false","Practice"
"","","","","","html-keyboard-response","17","239704","0.0-7.0-0.0-1.2","null","<span style='color:red; font-size: 70px;'>错误! </span>","null","","","","","","","","","","","","","","","","","","","","","","","","","feedback"
"","","","","","psychophysics","18","242002","0.0-7.0-0.0-0.3","1146","","j","","","","","","","","","","","","","key","j","16.667350364963475","640","356","./1_3_Stimuli/S_ambi40.png","朋友","Word","自我","Mismatch","j","true","Practice"
"","","","","","html-keyboard-response","19","242318","0.0-7.0-0.0-1.3","null","<span style='color:GreenYellow; font-size: 70px;'>正确! </span>","null","","","","","","","","","","","","","","","","","","","","","","","","","feedback"
"","","","","","psychophysics","20","244518","0.0-7.0-0.0-0.4","1047","","j","","","","","","","","","","","","","key","j","16.667335877862612","640","356","./1_3_Stimuli/C_ambi40.png","自我","Image","他人","Mismatch","j","true","Practice"
"","","","","","html-keyboard-response","21","244834","0.0-7.0-0.0-1.4","null","<span style='color:GreenYellow; font-size: 70px;'>正确! </span>","null","","","","","","","","","","","","","","","","","","","","","","","","","feedback"
"","","","","","psychophysics","22","246863","0.0-7.0-0.0-0.5","878","","f","","","","","","","","","","","","","key","f","16.664991735537008","640","356","./1_3_Stimuli/T_ambi40.png","朋友","Word","朋友","Match","f","true","Practice"
"","","","","","html-keyboard-response","23","247175","0.0-7.0-0.0-1.5","null","<span style='color:GreenYellow; font-size: 70px;'>正确! </span>","null","","","","","","","","","","","","","","","","","","","","","","","","","feedback"
"","","","","","psychophysics","24","249274","0.0-7.0-0.0-0.6","947","","j","","","","","","","","","","","","","key","j","16.666540322580747","640","356","./1_3_Stimuli/S_ambi40.png","他人","Word","自我","Mismatch","j","true","Practice"
"","","","","","html-keyboard-response","25","249581","0.0-7.0-0.0-1.6","null","<span style='color:GreenYellow; font-size: 70px;'>正确! </span>","null","","","","","","","","","","","","","","","","","","","","","","","","","feedback"
"","","","","","psychophysics","26","251664","0.0-7.0-0.0-0.7","931","","f","","","","","","","","","","","","","key","f","16.666741935483692","640","356","./1_3_Stimuli/S_ambi40.png","他人","Image","自我","Mismatch","j","false","Practice"
"","","","","","html-keyboard-response","27","251968","0.0-7.0-0.0-1.7","null","<span style='color:red; font-size: 70px;'>错误! </span>","null","","","","","","","","","","","","","","","","","","","","","","","","","feedback"
"","","","","","psychophysics","28","254188","0.0-7.0-0.0-0.8","1068","","f","","","","","","","","","","","","","key","f","16.66733333333325","640","356","./1_3_Stimuli/S_ambi40.png","朋友","Image","自我","Mismatch","j","false","Practice"
"","","","","","html-keyboard-response","29","254497","0.0-7.0-0.0-1.8","null","<span style='color:red; font-size: 70px;'>错误! </span>","null","","","","","","","","","","","","","","","","","","","","","","","","","feedback"
"","","","","","psychophysics","30","256484","0.0-7.0-0.0-0.9","827","","f","","","","","","","","","","","","","key","f","16.667754237287998","640","356","./1_3_Stimuli/C_ambi40.png","朋友","Word","他人","Mismatch","j","false","Practice"
"","","","","","html-keyboard-response","31","256789","0.0-7.0-0.0-1.9","null","<span style='color:red; font-size: 70px;'>错误! </span>","null","","","","","","","","","","","","","","","","","","","","","","","","","feedback"
"","","","","","psychophysics","32","259083","0.0-7.0-0.0-0.10","1141","","j","","","","","","","","","","","","","key","j","16.587499999999956","640","356","./1_3_Stimuli/T_ambi40.png","自我","Word","朋友","Mismatch","j","true","Practice"
"","","","","","html-keyboard-response","33","259399","0.0-7.0-0.0-1.10","null","<span style='color:GreenYellow; font-size: 70px;'>正确! </span>","null","","","","","","","","","","","","","","","","","","","","","","","","","feedback"
"","","","","","psychophysics","34","261743","0.0-7.0-0.0-0.11","1191","","f","","","","","","","","","","","","","key","f","16.665657142857007","640","356","./1_3_Stimuli/T_ambi40.png","朋友","Image","朋友","Match","f","true","Practice"
"","","","","","html-keyboard-response","35","262051","0.0-7.0-0.0-1.11","null","<span style='color:GreenYellow; font-size: 70px;'>正确! </span>","null","","","","","","","","","","","","","","","","","","","","","","","","","feedback"
"","","","","","psychophysics","36","263944","0.0-7.0-0.0-0.12","741","","j","","","","","","","","","","","","","key","j","16.66750442477889","640","356","./1_3_Stimuli/T_ambi40.png","自我","Image","朋友","Mismatch","j","true","Practice"
"","","","","","html-keyboard-response","37","264255","0.0-7.0-0.0-1.12","null","<span style='color:GreenYellow; font-size: 70px;'>正确! </span>","null","","","","","","","","","","","","","","","","","","","","","","","","","feedback"
"","","","","","psychophysics","38","266334","0.0-7.0-0.0-0.13","927","","j","","","","","","","","","","","","","key","j","16.66750000000015","640","356","./1_3_Stimuli/S_ambi40.png","自我","Word","自我","Match","f","false","Practice"
"","","","","","html-keyboard-response","39","266642","0.0-7.0-0.0-1.13","null","<span style='color:red; font-size: 70px;'>错误! </span>","null","","","","","","","","","","","","","","","","","","","","","","","","","feedback"
"","","","","","psychophysics","40","268565","0.0-7.0-0.0-0.14","770","","j","","","","","","","","","","","","","key","j","16.66730701754364","640","356","./1_3_Stimuli/C_ambi40.png","他人","Word","他人","Match","f","false","Practice"
"","","","","","html-keyboard-response","41","268873","0.0-7.0-0.0-1.14","null","<span style='color:red; font-size: 70px;'>错误! </span>","null","","","","","","","","","","","","","","","","","","","","","","","","","feedback"
"","","","","","psychophysics","42","271117","0.0-7.0-0.0-0.15","1091","","j","","","","","","","","","","","","","key","j","16.667639097744594","640","356","./1_3_Stimuli/T_ambi40.png","他人","Image","朋友","Mismatch","j","true","Practice"
"","","","","","html-keyboard-response","43","271432","0.0-7.0-0.0-1.15","null","<span style='color:GreenYellow; font-size: 70px;'>正确! </span>","null","","","","","","","","","","","","","","","","","","","","","","","","","feedback"
"","","","","","psychophysics","44","273394","0.0-7.0-0.0-0.16","811","","f","","","","","","","","","","","","","key","f","16.666717948718393","640","356","./1_3_Stimuli/T_ambi40.png","他人","Word","朋友","Mismatch","j","false","Practice"
"","","","","","html-keyboard-response","45","273700","0.0-7.0-0.0-1.16","null","<span style='color:red; font-size: 70px;'>错误! </span>","null","","","","","","","","","","","","","","","","","","","","","","","","","feedback"
"","","","","","psychophysics","46","276080","0.0-7.0-0.0-0.17","1229","","j","","","","","","","","","","","","","key","j","16.66717605633804","640","356","./1_3_Stimuli/S_ambi40.png","自我","Image","自我","Match","f","false","Practice"
"","","","","","html-keyboard-response","47","276396","0.0-7.0-0.0-1.17","null","<span style='color:red; font-size: 70px;'>错误! </span>","null","","","","","","","","","","","","","","","","","","","","","","","","","feedback"
"","","","","","psychophysics","48","278555","0.0-7.0-0.0-0.18","1007","","j","","","","","","","","","","","","","key","j","16.66640624999991","640","356","./1_3_Stimuli/C_ambi40.png","他人","Word","他人","Match","f","false","Practice"
"","","","","","html-keyboard-response","49","278871","0.0-7.0-0.0-1.18","null","<span style='color:red; font-size: 70px;'>错误! </span>","null","","","","","","","","","","","","","","","","","","","","","","","","","feedback"
"","","","","","psychophysics","50","280851","0.0-7.0-0.0-0.19","827","","j","","","","","","","","","","","","","key","j","16.66711016949138","640","356","./1_3_Stimuli/C_ambi40.png","自我","Word","他人","Mismatch","j","true","Practice"
"","","","","","html-keyboard-response","51","281164","0.0-7.0-0.0-1.19","null","<span style='color:GreenYellow; font-size: 70px;'>正确! </span>","null","","","","","","","","","","","","","","","","","","","","","","","","","feedback"
"","","","","","psychophysics","52","283318","0.0-7.0-0.0-0.20","1003","","f","","","","","","","","","","","","","key","f","16.666828124999938","640","356","./1_3_Stimuli/T_ambi40.png","朋友","Word","朋友","Match","f","true","Practice"
"","","","","","html-keyboard-response","53","283626","0.0-7.0-0.0-1.20","null","<span style='color:GreenYellow; font-size: 70px;'>正确! </span>","null","","","","","","","","","","","","","","","","","","","","","","","","","feedback"
"","","","","","psychophysics","54","285741","0.0-7.0-0.0-0.21","964","","j","","","","","","","","","","","","","key","j","16.667134920634986","640","356","./1_3_Stimuli/C_ambi40.png","他人","Image","他人","Match","f","false","Practice"
"","","","","","html-keyboard-response","55","286047","0.0-7.0-0.0-1.21","null","<span style='color:red; font-size: 70px;'>错误! </span>","null","","","","","","","","","","","","","","","","","","","","","","","","","feedback"
"","","","","","psychophysics","56","288418","0.0-7.0-0.0-0.22","1219","","f","","","","","","","","","","","","","key","f","16.667092198581543","640","356","./1_3_Stimuli/S_ambi40.png","自我","Word","自我","Match","f","true","Practice"
"","","","","","html-keyboard-response","57","288723","0.0-7.0-0.0-1.22","null","<span style='color:GreenYellow; font-size: 70px;'>正确! </span>","null","","","","","","","","","","","","","","","","","","","","","","","","","feedback"
"","","","","","psychophysics","58","290867","0.0-7.0-0.0-0.23","992","","j","","","","","","","","","","","","","key","j","16.66703937007857","640","356","./1_3_Stimuli/C_ambi40.png","他人","Image","他人","Match","f","false","Practice"
"","","","","","html-keyboard-response","59","291182","0.0-7.0-0.0-1.23","null","<span style='color:red; font-size: 70px;'>错误! </span>","null","","","","","","","","","","","","","","","","","","","","","","","","","feedback"
"","","","","","html-keyboard-response","60","340965","0.0-7.0-1.0-0.0","49780","<style>.context{color:white; font-size: 35px; line-height:40px}</style>                        <div><p class='context'>您正确回答了46% 的试次。</p><p class='context'>您的平均反应时为1021毫秒。</p><p> <div style = 'color: green'><按空格键至下页></div></p>"," ","","","","","","","","","","","","","","","","","","","","","","","","",""
"","","","","","instructions","61","367697","0.0-7.0-1.0-1.0","26727","","","","","","","","","","","","","","[{""page_index"":0,""viewing_time"":6848},{""page_index"":1,""viewing_time"":16593},{""page_index"":2,""viewing_time"":3286}]","","","","","","","","","","","","",""
"","","","","","psychophysics","62","370401","0.0-7.1-0.1-0.24","null","","null","","","","","","","","","","","","","key","null","16.667186335403827","640","356","./1_3_Stimuli/T_ambi40.png","朋友","Word","朋友","Match","f","false","Practice"
"","","","","","html-keyboard-response","63","370706","0.0-7.1-0.1-1.24","null","<span class='add_' style='color:yellow; font-size: 70px;'> 太慢! </span>","null","","","","","","","","","","","","","","","","","","","","","","","","","feedback"
"","","","","","psychophysics","64","372871","0.0-7.1-0.1-0.25","1012","","j","","","","","","","","","","","","","key","j","16.667620155038925","640","356","./1_3_Stimuli/T_ambi40.png","自我","Image","朋友","Mismatch","j","true","Practice"
"","","","","","html-keyboard-response","65","373188","0.0-7.1-0.1-1.25","null","<span style='color:GreenYellow; font-size: 70px;'>正确! </span>","null","","","","","","","","","","","","","","","","","","","","","","","","","feedback"
"","","","","","psychophysics","66","375337","0.0-7.1-0.1-0.26","994","","j","","","","","","","","","","","","","key","j","16.667398437500196","640","356","./1_3_Stimuli/S_ambi40.png","朋友","Word","自我","Mismatch","j","true","Practice"
"","","","","","html-keyboard-response","67","375649","0.0-7.1-0.1-1.26","null","<span style='color:GreenYellow; font-size: 70px;'>正确! </span>","null","","","","","","","","","","","","","","","","","","","","","","","","","feedback"
"","","","","","psychophysics","68","377815","0.0-7.1-0.1-0.27","1013","","f","","","","","","","","","","","","","key","f","16.667038759689998","640","356","./1_3_Stimuli/S_ambi40.png","自我","Word","自我","Match","f","true","Practice"
"","","","","","html-keyboard-response","69","378126","0.0-7.1-0.1-1.27","null","<span style='color:GreenYellow; font-size: 70px;'>正确! </span>","null","","","","","","","","","","","","","","","","","","","","","","","","","feedback"
"","","","","","psychophysics","70","380267","0.0-7.1-0.1-0.28","990","","f","","","","","","","","","","","","","key","f","16.66703937007857","640","356","./1_3_Stimuli/S_ambi40.png","自我","Image","自我","Match","f","true","Practice"
"","","","","","html-keyboard-response","71","380572","0.0-7.1-0.1-1.28","null","<span style='color:GreenYellow; font-size: 70px;'>正确! </span>","null","","","","","","","","","","","","","","","","","","","","","","","","","feedback"
"","","","","","psychophysics","72","383017","0.0-7.1-0.1-0.29","1284","","j","","","","","","","","","","","","","key","j","16.667438356164357","640","356","./1_3_Stimuli/S_ambi40.png","他人","Word","自我","Mismatch","j","true","Practice"
"","","","","","html-keyboard-response","73","383330","0.0-7.1-0.1-1.29","null","<span style='color:GreenYellow; font-size: 70px;'>正确! </span>","null","","","","","","","","","","","","","","","","","","","","","","","","","feedback"
"","","","","","psychophysics","74","385287","0.0-7.1-0.1-0.30","805","","f","","","","","","","","","","","","","key","f","16.667051724137654","640","356","./1_3_Stimuli/T_ambi40.png","朋友","Image","朋友","Match","f","true","Practice"
"","","","","","html-keyboard-response","75","385593","0.0-7.1-0.1-1.30","null","<span style='color:GreenYellow; font-size: 70px;'>正确! </span>","null","","","","","","","","","","","","","","","","","","","","","","","","","feedback"
"","","","","","psychophysics","76","387822","0.0-7.1-0.1-0.31","1078","","j","","","","","","","","","","","","","key","j","16.667219696969507","640","356","./1_3_Stimuli/C_ambi40.png","自我","Image","他人","Mismatch","j","true","Practice"
"","","","","","html-keyboard-response","77","388134","0.0-7.1-0.1-1.31","null","<span style='color:GreenYellow; font-size: 70px;'>正确! </span>","null","","","","","","","","","","","","","","","","","","","","","","","","","feedback"
"","","","","","psychophysics","78","390592","0.0-7.1-0.1-0.32","1307","","j","","","","","","","","","","","","","key","j","16.665239726027398","640","356","./1_3_Stimuli/T_ambi40.png","他人","Image","朋友","Mismatch","j","true","Practice"
"","","","","","html-keyboard-response","79","390909","0.0-7.1-0.1-1.32","null","<span style='color:GreenYellow; font-size: 70px;'>正确! </span>","null","","","","","","","","","","","","","","","","","","","","","","","","","feedback"
"","","","","","psychophysics","80","392915","0.0-7.1-0.1-0.33","853","","f","","","","","","","","","","","","","key","f","16.561100840336202","640","356","./1_3_Stimuli/T_ambi40.png","朋友","Image","朋友","Match","f","true","Practice"
"","","","","","html-keyboard-response","81","393218","0.0-7.1-0.1-1.33","null","<span style='color:GreenYellow; font-size: 70px;'>正确! </span>","null","","","","","","","","","","","","","","","","","","","","","","","","","feedback"
"","","","","","psychophysics","82","395508","0.0-7.1-0.1-0.34","1138","","j","","","","","","","","","","","","","key","j","16.664419117646876","640","356","./1_3_Stimuli/S_ambi40.png","他人","Image","自我","Mismatch","j","true","Practice"
"","","","","","html-keyboard-response","83","395822","0.0-7.1-0.1-1.34","null","<span style='color:GreenYellow; font-size: 70px;'>正确! </span>","null","","","","","","","","","","","","","","","","","","","","","","","","","feedback"
"","","","","","psychophysics","84","398133","0.0-7.1-0.1-0.35","1159","","j","","","","","","","","","","","","","key","j","16.664586956521656","640","356","./1_3_Stimuli/C_ambi40.png","朋友","Word","他人","Mismatch","j","true","Practice"
"","","","","","html-keyboard-response","85","398441","0.0-7.1-0.1-1.35","null","<span style='color:GreenYellow; font-size: 70px;'>正确! </span>","null","","","","","","","","","","","","","","","","","","","","","","","","","feedback"
"","","","","","psychophysics","86","401138","0.0-7.1-0.1-0.36","1545","","f","","","","","","","","","","","","","key","f","16.667316770186122","640","356","./1_3_Stimuli/S_ambi40.png","自我","Image","自我","Match","f","true","Practice"
"","","","","","html-keyboard-response","87","401452","0.0-7.1-0.1-1.36","null","<span class='add_' style='color:yellow; font-size: 70px;'> 太慢! </span>","null","","","","","","","","","","","","","","","","","","","","","","","","","feedback"
"","","","","","psychophysics","88","403898","0.0-7.1-0.1-0.37","1294","","j","","","","","","","","","","","","","key","j","16.66727397260288","640","356","./1_3_Stimuli/C_ambi40.png","朋友","Image","他人","Mismatch","j","true","Practice"
"","","","","","html-keyboard-response","89","404202","0.0-7.1-0.1-1.37","null","<span style='color:GreenYellow; font-size: 70px;'>正确! </span>","null","","","","","","","","","","","","","","","","","","","","","","","","","feedback"
"","","","","","psychophysics","90","406615","0.0-7.1-0.1-0.38","1253","","j","","","","","","","","","","","","","key","j","16.667354166666982","640","356","./1_3_Stimuli/C_ambi40.png","自我","Word","他人","Mismatch","j","true","Practice"
"","","","","","html-keyboard-response","91","406928","0.0-7.1-0.1-1.38","null","<span style='color:GreenYellow; font-size: 70px;'>正确! </span>","null","","","","","","","","","","","","","","","","","","","","","","","","","feedback"
"","","","","","psychophysics","92","409208","0.0-7.1-0.1-0.39","1128","","j","","","","","","","","","","","","","key","j","16.666762962963226","640","356","./1_3_Stimuli/T_ambi40.png","他人","Word","朋友","Mismatch","j","true","Practice"
"","","","","","html-keyboard-response","93","409519","0.0-7.1-0.1-1.39","null","<span style='color:GreenYellow; font-size: 70px;'>正确! </span>","null","","","","","","","","","","","","","","","","","","","","","","","","","feedback"
"","","","","","psychophysics","94","412015","0.0-7.1-0.1-0.40","1345","","j","","","","","","","","","","","","","key","j","16.667315436241562","640","356","./1_3_Stimuli/C_ambi40.png","他人","Image","他人","Match","f","false","Practice"
"","","","","","html-keyboard-response","95","412326","0.0-7.1-0.1-1.40","null","<span style='color:red; font-size: 70px;'>错误! </span>","null","","","","","","","","","","","","","","","","","","","","","","","","","feedback"
"","","","","","psychophysics","96","414548","0.0-7.1-0.1-0.41","1070","","f","","","","","","","","","","","","","key","f","16.569143939393776","640","356","./1_3_Stimuli/C_ambi40.png","他人","Image","他人","Match","f","true","Practice"
"","","","","","html-keyboard-response","97","414856","0.0-7.1-0.1-1.41","null","<span style='color:GreenYellow; font-size: 70px;'>正确! </span>","null","","","","","","","","","","","","","","","","","","","","","","","","","feedback"
"","","","","","psychophysics","98","417034","0.0-7.1-0.1-0.42","1026","","f","","","","","","","","","","","","","key","f","16.66736923076902","640","356","./1_3_Stimuli/S_ambi40.png","自我","Word","自我","Match","f","true","Practice"
"","","","","","html-keyboard-response","99","417346","0.0-7.1-0.1-1.42","null","<span style='color:GreenYellow; font-size: 70px;'>正确! </span>","null","","","","","","","","","","","","","","","","","","","","","","","","","feedback"
"","","","","","psychophysics","100","420049","0.0-7.1-0.1-0.43","null","","null","","","","","","","","","","","","","key","null","16.66726086956524","640","356","./1_3_Stimuli/T_ambi40.png","自我","Word","朋友","Mismatch","j","false","Practice"
"","","","","","html-keyboard-response","101","420356","0.0-7.1-0.1-1.43","null","<span class='add_' style='color:yellow; font-size: 70px;'> 太慢! </span>","null","","","","","","","","","","","","","","","","","","","","","","","","","feedback"
"","","","","","psychophysics","102","422480","0.0-7.1-0.1-0.44","973","","f","","","","","","","","","","","","","key","f","16.666417322834718","640","356","./1_3_Stimuli/T_ambi40.png","朋友","Word","朋友","Match","f","true","Practice"
"","","","","","html-keyboard-response","103","422791","0.0-7.1-0.1-1.44","null","<span style='color:GreenYellow; font-size: 70px;'>正确! </span>","null","","","","","","","","","","","","","","","","","","","","","","","","","feedback"
"","","","","","psychophysics","104","424845","0.0-7.1-0.1-0.45","900","","j","","","","","","","","","","","","","key","j","16.66763114754099","640","356","./1_3_Stimuli/S_ambi40.png","朋友","Image","自我","Mismatch","j","true","Practice"
"","","","","","html-keyboard-response","105","425158","0.0-7.1-0.1-1.45","null","<span style='color:GreenYellow; font-size: 70px;'>正确! </span>","null","","","","","","","","","","","","","","","","","","","","","","","","","feedback"
"","","","","","psychophysics","106","427693","0.0-7.1-0.1-0.46","1383","","f","","","","","","","","","","","","","key","f","16.66739735099339","640","356","./1_3_Stimuli/C_ambi40.png","他人","Word","他人","Match","f","true","Practice"
"","","","","","html-keyboard-response","107","427999","0.0-7.1-0.1-1.46","null","<span style='color:GreenYellow; font-size: 70px;'>正确! </span>","null","","","","","","","","","","","","","","","","","","","","","","","","","feedback"
"","","","","","psychophysics","108","430117","0.0-7.1-0.1-0.47","967","","f","","","","","","","","","","","","","key","f","16.667047619047697","640","356","./1_3_Stimuli/C_ambi40.png","他人","Word","他人","Match","f","true","Practice"
"","","","","","html-keyboard-response","109","430418","0.0-7.1-0.1-1.47","null","<span style='color:GreenYellow; font-size: 70px;'>正确! </span>","null","","","","","","","","","","","","","","","","","","","","","","","","","feedback"
"","","","","","html-keyboard-response","110","499111","0.0-8.0","68689","<style>.context{color:white; font-size: 35px; line-height:40px}</style>                          <div><p class='context'>您正确回答了88% 的试次。</p><p class='context'>您的平均反应时为1103毫秒。</p><p class='context'>恭喜您完成练习。现在请休息3~5分钟。</p><p class='context'>之后，按任意键进入正式实验。需要注意的是，正式实验将不再提供反应是否正确的反馈。</p><p class='footer' style='font-size: 35px; line-height:40px;'>请在进入正式实验实验之前将您的<span style='color: lightgreen;'>食指</span>放在电脑键盘的相应键位上进行按键。</p>","f","","","","","","","","","","","","","","","","","","","","","","","","",""
"","","","","","psychophysics","111","501556","0.0-9.0-0.0-0.0","1270","","f","","","","","","","","","","","","","key","f","16.633696551724128","640","356","./1_3_Stimuli/S_ambi40.png","自我","Image","自我","Match","f","true","Formal"
"","","","","","psychophysics","112","503979","0.0-9.0-0.0-0.1","1265","","j","","","","","","","","","","","","","key","j","16.666041666666892","640","356","./1_3_Stimuli/C_ambi40.png","自我","Image","他人","Mismatch","j","true","Formal"
"","","","","","psychophysics","113","506132","0.0-9.0-0.0-0.2","994","","f","","","","","","","","","","","","","key","f","16.667913385826864","640","356","./1_3_Stimuli/C_ambi40.png","他人","Word","他人","Match","f","true","Formal"
"","","","","","psychophysics","114","508145","0.0-9.0-0.0-0.3","852","","f","","","","","","","","","","","","","key","f","16.66742016806731","640","356","./1_3_Stimuli/S_ambi40.png","自我","Word","自我","Match","f","true","Formal"
"","","","","","psychophysics","115","510374","0.0-9.0-0.0-0.4","1074","","j","","","","","","","","","","","","","key","j","16.666886363636657","640","356","./1_3_Stimuli/S_ambi40.png","朋友","Image","自我","Mismatch","j","true","Formal"
"","","","","","psychophysics","116","512836","0.0-9.0-0.0-0.5","1306","","j","","","","","","","","","","","","","key","j","16.66696575342491","640","356","./1_3_Stimuli/T_ambi40.png","自我","Image","朋友","Mismatch","j","true","Formal"
"","","","","","psychophysics","117","515417","0.0-9.0-0.0-0.6","1420","","j","","","","","","","","","","","","","key","j","16.666999999999852","640","356","./1_3_Stimuli/S_ambi40.png","他人","Image","自我","Mismatch","j","true","Formal"
"","","","","","psychophysics","118","517457","0.0-9.0-0.0-0.7","876","","j","","","","","","","","","","","","","key","j","16.667256198347207","640","356","./1_3_Stimuli/T_ambi40.png","他人","Image","朋友","Mismatch","j","true","Formal"
"","","","","","psychophysics","119","519503","0.0-9.0-0.0-0.8","889","","j","","","","","","","","","","","","","key","j","16.66866666666659","640","356","./1_3_Stimuli/C_ambi40.png","自我","Word","他人","Mismatch","j","true","Formal"
"","","","","","psychophysics","120","521707","0.0-9.0-0.0-0.9","1043","","f","","","","","","","","","","","","","key","f","16.6670305343511","640","356","./1_3_Stimuli/C_ambi40.png","他人","Image","他人","Match","f","true","Formal"
"","","","","","psychophysics","121","523733","0.0-9.0-0.0-0.10","865","","f","","","","","","","","","","","","","key","f","17.097896551723885","640","356","./1_3_Stimuli/T_ambi40.png","朋友","Word","朋友","Match","f","true","Formal"
"","","","","","psychophysics","122","526250","0.0-9.0-0.0-0.11","1361","","f","","","","","","","","","","","","","key","f","16.666523489933116","640","356","./1_3_Stimuli/S_ambi40.png","自我","Word","自我","Match","f","true","Formal"
"","","","","","psychophysics","123","528424","0.0-9.0-0.0-0.12","1020","","f","","","","","","","","","","","","","key","f","16.666480620155227","640","356","./1_3_Stimuli/S_ambi40.png","自我","Image","自我","Match","f","true","Formal"
"","","","","","psychophysics","124","530437","0.0-9.0-0.0-0.13","860","","j","","","","","","","","","","","","","key","j","16.667100840336214","640","356","./1_3_Stimuli/T_ambi40.png","自我","Word","朋友","Mismatch","j","true","Formal"
"","","","","","psychophysics","125","533145","0.0-9.0-0.0-0.14","null","","null","","","","","","","","","","","","","key","null","16.666801242236634","640","356","./1_3_Stimuli/C_ambi40.png","朋友","Image","他人","Mismatch","j","false","Formal"
"","","","","","psychophysics","126","535142","0.0-9.0-0.0-0.15","833","","f","","","","","","","","","","","","","key","f","16.80916239316257","640","356","./1_3_Stimuli/T_ambi40.png","朋友","Image","朋友","Match","f","true","Formal"
"","","","","","psychophysics","127","537316","0.0-9.0-0.0-0.16","1019","","f","","","","","","","","","","","","","key","f","16.668217054263206","640","356","./1_3_Stimuli/S_ambi40.png","他人","Word","自我","Mismatch","j","false","Formal"
"","","","","","psychophysics","128","540017","0.0-9.0-0.0-0.17","1538","","f","","","","","","","","","","","","","key","f","16.667431249999936","640","356","./1_3_Stimuli/C_ambi40.png","他人","Word","他人","Match","f","true","Formal"
"","","","","","psychophysics","129","541904","0.0-9.0-0.0-0.18","719","","f","","","","","","","","","","","","","key","f","16.667535714285414","640","356","./1_3_Stimuli/T_ambi40.png","朋友","Word","朋友","Match","f","true","Formal"
"","","","","","psychophysics","130","544386","0.0-9.0-0.0-0.19","1321","","j","","","","","","","","","","","","","key","j","16.66728378378399","640","356","./1_3_Stimuli/C_ambi40.png","朋友","Word","他人","Mismatch","j","true","Formal"
"","","","","","psychophysics","131","546912","0.0-9.0-0.0-0.20","1367","","j","","","","","","","","","","","","","key","j","16.6674800000006","640","356","./1_3_Stimuli/T_ambi40.png","他人","Word","朋友","Mismatch","j","true","Formal"
"","","","","","psychophysics","132","549038","0.0-9.0-0.0-0.21","962","","f","","","","","","","","","","","","","key","f","16.6680396825393","640","356","./1_3_Stimuli/T_ambi40.png","朋友","Image","朋友","Match","f","true","Formal"
"","","","","","psychophysics","133","551212","0.0-9.0-0.0-0.22","1014","","j","","","","","","","","","","","","","key","j","16.66721705426354","640","356","./1_3_Stimuli/C_ambi40.png","他人","Image","他人","Match","f","false","Formal"
"","","","","","psychophysics","134","553734","0.0-9.0-0.0-0.23","1368","","j","","","","","","","","","","","","","key","j","16.666393333333545","640","356","./1_3_Stimuli/S_ambi40.png","朋友","Word","自我","Mismatch","j","true","Formal"
"","","","","","psychophysics","135","555794","0.0-9.0-0.0-0.24","898","","f","","","","","","","","","","","","","key","f","16.667942622950353","640","356","./1_3_Stimuli/C_ambi40.png","他人","Word","他人","Match","f","true","Formal"
"","","","","","psychophysics","136","558004","0.0-9.0-0.0-0.25","1055","","j","","","","","","","","","","","","","key","j","16.666992307692553","640","356","./1_3_Stimuli/T_ambi40.png","他人","Image","朋友","Mismatch","j","true","Formal"
"","","","","","psychophysics","137","560084","0.0-9.0-0.0-0.26","927","","f","","","","","","","","","","","","","key","f","16.667447154471702","640","356","./1_3_Stimuli/C_ambi40.png","他人","Image","他人","Match","f","true","Formal"
"","","","","","psychophysics","138","562170","0.0-9.0-0.0-0.27","933","","f","","","","","","","","","","","","","key","f","16.6673790322581","640","356","./1_3_Stimuli/S_ambi40.png","自我","Image","自我","Match","f","true","Formal"
"","","","","","psychophysics","139","564605","0.0-9.0-0.0-0.28","1282","","j","","","","","","","","","","","","","key","j","16.667110344826984","640","356","./1_3_Stimuli/C_ambi40.png","朋友","Image","他人","Mismatch","j","true","Formal"
"","","","","","psychophysics","140","567338","0.0-9.0-0.0-0.29","null","","null","","","","","","","","","","","","","key","null","16.66693167701893","640","356","./1_3_Stimuli/T_ambi40.png","朋友","Word","朋友","Match","f","false","Formal"
"","","","","","psychophysics","141","569545","0.0-9.0-0.0-0.30","1053","","f","","","","","","","","","","","","","key","f","16.66680152671774","640","356","./1_3_Stimuli/C_ambi40.png","他人","Word","他人","Match","f","true","Formal"
"","","","","","psychophysics","142","571569","0.0-9.0-0.0-0.31","864","","j","","","","","","","","","","","","","key","j","16.666549999999308","640","356","./1_3_Stimuli/S_ambi40.png","他人","Image","自我","Mismatch","j","true","Formal"
"","","","","","psychophysics","143","574278","0.0-9.0-0.0-0.32","null","","null","","","","","","","","","","","","","key","null","16.667819875776217","640","356","./1_3_Stimuli/C_ambi40.png","自我","Word","他人","Mismatch","j","false","Formal"
"","","","","","psychophysics","144","576364","0.0-9.0-0.0-0.33","925","","f","","","","","","","","","","","","","key","f","16.666967479674888","640","356","./1_3_Stimuli/T_ambi40.png","朋友","Image","朋友","Match","f","true","Formal"
"","","","","","psychophysics","145","578767","0.0-9.0-0.0-0.34","1248","","j","","","","","","","","","","","","","key","j","16.66691549295727","640","356","./1_3_Stimuli/T_ambi40.png","自我","Image","朋友","Mismatch","j","true","Formal"
"","","","","","psychophysics","146","581495","0.0-9.0-0.0-0.35","null","","null","","","","","","","","","","","","","key","null","16.667716049382975","640","356","./1_3_Stimuli/C_ambi40.png","朋友","Word","他人","Mismatch","j","false","Formal"
"","","","","","psychophysics","147","584205","0.0-9.0-0.0-0.36","null","","null","","","","","","","","","","","","","key","null","16.666857142857513","640","356","./1_3_Stimuli/C_ambi40.png","他人","Image","他人","Match","f","false","Formal"
"","","","","","psychophysics","148","586580","0.0-9.0-0.0-0.37","1221","","j","","","","","","","","","","","","","key","j","16.66712765957407","640","356","./1_3_Stimuli/T_ambi40.png","自我","Word","朋友","Mismatch","j","true","Formal"
"","","","","","psychophysics","149","588827","0.0-9.0-0.0-0.38","1090","","f","","","","","","","","","","","","","key","f","16.6673684210527","640","356","./1_3_Stimuli/T_ambi40.png","朋友","Image","朋友","Match","f","true","Formal"
"","","","","","psychophysics","150","590978","0.0-9.0-0.0-0.39","998","","f","","","","","","","","","","","","","key","f","16.667559055118332","640","356","./1_3_Stimuli/S_ambi40.png","自我","Word","自我","Match","f","true","Formal"
"","","","","","psychophysics","151","593188","0.0-9.0-0.0-0.40","1050","","f","","","","","","","","","","","","","key","f","16.667137404580295","640","356","./1_3_Stimuli/S_ambi40.png","自我","Image","自我","Match","f","true","Formal"
"","","","","","psychophysics","152","595357","0.0-9.0-0.0-0.41","1004","","j","","","","","","","","","","","","","key","j","16.667748031496092","640","356","./1_3_Stimuli/S_ambi40.png","他人","Word","自我","Mismatch","j","true","Formal"
"","","","","","psychophysics","153","597125","0.0-9.0-0.0-0.42","609","","f","","","","","","","","","","","","","key","f","16.666447619047194","640","356","./1_3_Stimuli/T_ambi40.png","朋友","Word","朋友","Match","f","true","Formal"
"","","","","","psychophysics","154","599344","0.0-9.0-0.0-0.43","1062","","j","","","","","","","","","","","","","key","j","16.667469696969917","640","356","./1_3_Stimuli/T_ambi40.png","他人","Word","朋友","Mismatch","j","true","Formal"
"","","","","","psychophysics","155","602075","0.0-9.0-0.0-0.44","1577","","j","","","","","","","","","","","","","key","j","16.667425925926057","640","356","./1_3_Stimuli/S_ambi40.png","朋友","Image","自我","Mismatch","j","true","Formal"
"","","","","","psychophysics","156","604525","0.0-9.0-0.0-0.45","1297","","j","","","","","","","","","","","","","key","j","16.667342465753627","640","356","./1_3_Stimuli/S_ambi40.png","朋友","Word","自我","Mismatch","j","true","Formal"
"","","","","","psychophysics","157","607237","0.0-9.0-0.0-0.46","null","","null","","","","","","","","","","","","","key","null","16.666006172839754","640","356","./1_3_Stimuli/C_ambi40.png","自我","Image","他人","Mismatch","j","false","Formal"
"","","","","","psychophysics","158","609304","0.0-9.0-0.0-0.47","913","","f","","","","","","","","","","","","","key","f","16.66817213114748","640","356","./1_3_Stimuli/S_ambi40.png","自我","Word","自我","Match","f","true","Formal"
"","","","","","psychophysics","159","611655","0.0-9.0-0.0-0.48","1194","","f","","","","","","","","","","","","","key","f","16.66659285714268","640","356","./1_3_Stimuli/T_ambi40.png","朋友","Word","朋友","Match","f","true","Formal"
"","","","","","psychophysics","160","614364","0.0-9.0-0.0-0.49","null","","null","","","","","","","","","","","","","key","null","16.66688819875744","640","356","./1_3_Stimuli/C_ambi40.png","自我","Word","他人","Mismatch","j","false","Formal"
"","","","","","psychophysics","161","616725","0.0-9.0-0.0-0.50","1205","","j","","","","","","","","","","","","","key","j","16.668335714285163","640","356","./1_3_Stimuli/S_ambi40.png","朋友","Image","自我","Mismatch","j","true","Formal"
"","","","","","psychophysics","162","619007","0.0-9.0-0.0-0.51","1128","","j","","","","","","","","","","","","","key","j","16.666911764706395","640","356","./1_3_Stimuli/T_ambi40.png","自我","Word","朋友","Mismatch","j","true","Formal"
"","","","","","psychophysics","163","621306","0.0-9.0-0.0-0.52","1144","","j","","","","","","","","","","","","","key","j","16.6670735294114","640","356","./1_3_Stimuli/C_ambi40.png","朋友","Image","他人","Mismatch","j","true","Formal"
"","","","","","psychophysics","164","623528","0.0-9.0-0.0-0.53","1068","","f","","","","","","","","","","","","","key","f","16.666522727272945","640","356","./1_3_Stimuli/C_ambi40.png","他人","Image","他人","Match","f","true","Formal"
"","","","","","psychophysics","165","625670","0.0-9.0-0.0-0.54","988","","f","","","","","","","","","","","","","key","f","16.66740944881843","640","356","./1_3_Stimuli/T_ambi40.png","朋友","Word","朋友","Match","f","true","Formal"
"","","","","","psychophysics","166","628105","0.0-9.0-0.0-0.55","1282","","f","","","","","","","","","","","","","key","f","16.666475862068733","640","356","./1_3_Stimuli/S_ambi40.png","自我","Word","自我","Match","f","true","Formal"
"","","","","","psychophysics","167","630254","0.0-9.0-0.0-0.56","996","","f","","","","","","","","","","","","","key","f","16.667867187499724","640","356","./1_3_Stimuli/C_ambi40.png","他人","Image","他人","Match","f","true","Formal"
"","","","","","psychophysics","168","632436","0.0-9.0-0.0-0.57","1028","","j","","","","","","","","","","","","","key","j","16.667085937499905","640","356","./1_3_Stimuli/S_ambi40.png","他人","Image","自我","Mismatch","j","true","Formal"
"","","","","","psychophysics","169","634809","0.0-9.0-0.0-0.58","1219","","f","","","","","","","","","","","","","key","f","16.66775886524809","640","356","./1_3_Stimuli/S_ambi40.png","自我","Image","自我","Match","f","true","Formal"
"","","","","","psychophysics","170","637470","0.0-9.0-0.0-0.59","1508","","j","","","","","","","","","","","","","key","j","16.667050632911945","640","356","./1_3_Stimuli/S_ambi40.png","他人","Word","自我","Mismatch","j","true","Formal"
"","","","","","psychophysics","171","639815","0.0-9.0-0.0-0.60","1192","","f","","","","","","","","","","","","","key","f","16.667036231883895","640","356","./1_3_Stimuli/C_ambi40.png","自我","Image","他人","Mismatch","j","false","Formal"
"","","","","","psychophysics","172","642533","0.0-9.0-0.0-0.61","null","","null","","","","","","","","","","","","","key","null","16.66707453416134","640","356","./1_3_Stimuli/C_ambi40.png","朋友","Word","他人","Mismatch","j","false","Formal"
"","","","","","psychophysics","173","645204","0.0-9.0-0.0-0.62","1508","","j","","","","","","","","","","","","","key","j","16.668150943396437","640","356","./1_3_Stimuli/S_ambi40.png","朋友","Word","自我","Mismatch","j","true","Formal"
"","","","","","psychophysics","174","647941","0.0-9.0-0.0-0.63","null","","null","","","","","","","","","","","","","key","null","16.666975308641543","640","356","./1_3_Stimuli/S_ambi40.png","自我","Image","自我","Match","f","false","Formal"
"","","","","","psychophysics","175","650462","0.0-9.0-0.0-0.64","1365","","f","","","","","","","","","","","","","key","f","16.667053333333072","640","356","./1_3_Stimuli/S_ambi40.png","自我","Word","自我","Match","f","true","Formal"
"","","","","","psychophysics","176","652353","0.0-9.0-0.0-0.65","736","","j","","","","","","","","","","","","","key","j","16.667008928571054","640","356","./1_3_Stimuli/T_ambi40.png","自我","Image","朋友","Mismatch","j","true","Formal"
"","","","","","psychophysics","177","654819","0.0-9.0-0.0-0.66","1302","","j","","","","","","","","","","","","","key","j","16.666751724137956","640","356","./1_3_Stimuli/T_ambi40.png","他人","Image","朋友","Mismatch","j","true","Formal"
"","","","","","psychophysics","178","656875","0.0-9.0-0.0-0.67","895","","j","","","","","","","","","","","","","key","j","16.667491803278757","640","356","./1_3_Stimuli/T_ambi40.png","他人","Word","朋友","Mismatch","j","true","Formal"
"","","","","","psychophysics","179","659312","0.0-9.0-0.0-0.68","1278","","f","","","","","","","","","","","","","key","f","16.667606896551423","640","356","./1_3_Stimuli/C_ambi40.png","他人","Word","他人","Match","f","true","Formal"
"","","","","","psychophysics","180","661979","0.0-9.0-0.0-0.69","1508","","f","","","","","","","","","","","","","key","f","16.66692405063261","640","356","./1_3_Stimuli/C_ambi40.png","他人","Word","他人","Match","f","true","Formal"
"","","","","","psychophysics","181","664040","0.0-9.0-0.0-0.70","901","","f","","","","","","","","","","","","","key","f","16.666106557377162","640","356","./1_3_Stimuli/T_ambi40.png","朋友","Image","朋友","Match","f","true","Formal"
"","","","","","psychophysics","182","666171","0.0-9.0-0.0-0.71","978","","f","","","","","","","","","","","","","key","f","16.666598425197275","640","356","./1_3_Stimuli/T_ambi40.png","朋友","Image","朋友","Match","f","true","Formal"
"","","","","","psychophysics","183","668111","0.0-9.0-0.0-0.72","781","","f","","","","","","","","","","","","","key","f","16.666657894736424","640","356","./1_3_Stimuli/T_ambi40.png","朋友","Word","朋友","Match","f","true","Formal"
"","","","","","psychophysics","184","670062","0.0-9.0-0.0-0.73","788","","j","","","","","","","","","","","","","key","j","16.666139130435035","640","356","./1_3_Stimuli/S_ambi40.png","朋友","Image","自我","Mismatch","j","true","Formal"
"","","","","","psychophysics","185","672772","0.0-9.0-0.0-0.74","null","","null","","","","","","","","","","","","","key","null","16.666670807453613","640","356","./1_3_Stimuli/S_ambi40.png","自我","Image","自我","Match","f","false","Formal"
"","","","","","psychophysics","186","675188","0.0-9.0-0.0-0.75","1264","","f","","","","","","","","","","","","","key","f","16.667763888888455","640","356","./1_3_Stimuli/C_ambi40.png","他人","Word","他人","Match","f","true","Formal"
"","","","","","psychophysics","187","677236","0.0-9.0-0.0-0.76","892","","j","","","","","","","","","","","","","key","j","16.66721487603312","640","356","./1_3_Stimuli/T_ambi40.png","他人","Word","朋友","Mismatch","j","true","Formal"
"","","","","","psychophysics","188","679674","0.0-9.0-0.0-0.77","1283","","j","","","","","","","","","","","","","key","j","16.665779310345233","640","356","./1_3_Stimuli/T_ambi40.png","自我","Word","朋友","Mismatch","j","true","Formal"
"","","","","","psychophysics","189","681792","0.0-9.0-0.0-0.78","965","","f","","","","","","","","","","","","","key","f","16.666595238095542","640","356","./1_3_Stimuli/C_ambi40.png","他人","Word","他人","Match","f","true","Formal"
"","","","","","psychophysics","190","684023","0.0-9.0-0.0-0.79","1078","","f","","","","","","","","","","","","","key","f","16.666939393939117","640","356","./1_3_Stimuli/S_ambi40.png","自我","Image","自我","Match","f","true","Formal"
"","","","","","psychophysics","191","686593","0.0-9.0-0.0-0.80","1415","","j","","","","","","","","","","","","","key","j","16.667418300653534","640","356","./1_3_Stimuli/S_ambi40.png","朋友","Word","自我","Mismatch","j","true","Formal"
"","","","","","psychophysics","192","689300","0.0-9.0-0.0-0.81","null","","null","","","","","","","","","","","","","key","null","16.66688819875744","640","356","./1_3_Stimuli/C_ambi40.png","他人","Image","他人","Match","f","false","Formal"
"","","","","","psychophysics","193","691619","0.0-9.0-0.0-0.82","1162","","f","","","","","","","","","","","","","key","f","16.66693430656931","640","356","./1_3_Stimuli/T_ambi40.png","朋友","Image","朋友","Match","f","true","Formal"
"","","","","","psychophysics","194","693560","0.0-9.0-0.0-0.83","787","","j","","","","","","","","","","","","","key","j","16.666330434782836","640","356","./1_3_Stimuli/T_ambi40.png","他人","Image","朋友","Mismatch","j","true","Formal"
"","","","","","psychophysics","195","695671","0.0-9.0-0.0-0.84","958","","f","","","","","","","","","","","","","key","f","16.66657599999942","640","356","./1_3_Stimuli/T_ambi40.png","朋友","Image","朋友","Match","f","true","Formal"
"","","","","","psychophysics","196","698138","0.0-9.0-0.0-0.85","1314","","j","","","","","","","","","","","","","key","j","16.66636301369856","640","356","./1_3_Stimuli/T_ambi40.png","自我","Image","朋友","Mismatch","j","true","Formal"
"","","","","","psychophysics","197","700749","0.0-9.0-0.0-0.86","1458","","f","","","","","","","","","","","","","key","f","16.666612903226255","640","356","./1_3_Stimuli/S_ambi40.png","自我","Word","自我","Match","f","true","Formal"
"","","","","","psychophysics","198","702673","0.0-9.0-0.0-0.87","763","","j","","","","","","","","","","","","","key","j","16.667610619469563","640","356","./1_3_Stimuli/C_ambi40.png","自我","Word","他人","Mismatch","j","true","Formal"
"","","","","","psychophysics","199","704956","0.0-9.0-0.0-0.88","1126","","f","","","","","","","","","","","","","key","f","16.667614814814147","640","356","./1_3_Stimuli/S_ambi40.png","自我","Word","自我","Match","f","true","Formal"
"","","","","","psychophysics","200","707404","0.0-9.0-0.0-0.89","1294","","j","","","","","","","","","","","","","key","j","16.6667034482752","640","356","./1_3_Stimuli/C_ambi40.png","朋友","Image","他人","Mismatch","j","true","Formal"
"","","","","","psychophysics","201","709706","0.0-9.0-0.0-0.90","1141","","j","","","","","","","","","","","","","key","j","16.667110294117318","640","356","./1_3_Stimuli/C_ambi40.png","自我","Image","他人","Mismatch","j","true","Formal"
"","","","","","psychophysics","202","711470","0.0-9.0-0.0-0.91","603","","f","","","","","","","","","","","","","key","f","16.667846153846206","640","356","./1_3_Stimuli/T_ambi40.png","朋友","Word","朋友","Match","f","true","Formal"
"","","","","","psychophysics","203","713812","0.0-9.0-0.0-0.92","1186","","f","","","","","","","","","","","","","key","f","16.666791366906534","640","356","./1_3_Stimuli/C_ambi40.png","他人","Image","他人","Match","f","true","Formal"
"","","","","","psychophysics","204","716255","0.0-9.0-0.0-0.93","1283","","j","","","","","","","","","","","","","key","j","16.666701388888114","640","356","./1_3_Stimuli/S_ambi40.png","他人","Image","自我","Mismatch","j","true","Formal"
"","","","","","psychophysics","205","718842","0.0-9.0-0.0-0.94","1433","","j","","","","","","","","","","","","","key","j","16.666707792208232","640","356","./1_3_Stimuli/S_ambi40.png","他人","Word","自我","Mismatch","j","true","Formal"
"","","","","","psychophysics","206","720906","0.0-9.0-0.0-0.95","905","","j","","","","","","","","","","","","","key","j","16.666115702479146","640","356","./1_3_Stimuli/C_ambi40.png","朋友","Word","他人","Mismatch","j","true","Formal"
"","","","","","psychophysics","207","722741","0.0-9.0-0.0-0.96","674","","f","","","","","","","","","","","","","key","f","16.666768518519046","640","356","./1_3_Stimuli/T_ambi40.png","朋友","Word","朋友","Match","f","true","Formal"
"","","","","","psychophysics","208","725454","0.0-9.0-0.0-0.97","null","","null","","","","","","","","","","","","","key","null","16.66932919254651","640","356","./1_3_Stimuli/S_ambi40.png","自我","Word","自我","Match","f","false","Formal"
"","","","","","psychophysics","209","727273","0.0-9.0-0.0-0.98","655","","j","","","","","","","","","","","","","key","j","16.66785185185209","640","356","./1_3_Stimuli/C_ambi40.png","自我","Word","他人","Mismatch","j","true","Formal"
"","","","","","psychophysics","210","729891","0.0-9.0-0.0-0.99","1450","","f","","","","","","","","","","","","","key","f","16.666980769230765","640","356","./1_3_Stimuli/S_ambi40.png","自我","Image","自我","Match","f","true","Formal"
"","","","","","psychophysics","211","731926","0.0-9.0-0.0-0.100","875","","j","","","","","","","","","","","","","key","j","16.666591666666985","640","356","./1_3_Stimuli/S_ambi40.png","朋友","Image","自我","Mismatch","j","true","Formal"
"","","","","","psychophysics","212","734160","0.0-9.0-0.0-0.101","1075","","f","","","","","","","","","","","","","key","f","16.667774436090323","640","356","./1_3_Stimuli/S_ambi40.png","自我","Image","自我","Match","f","true","Formal"
"","","","","","psychophysics","213","736511","0.0-9.0-0.0-0.102","1193","","j","","","","","","","","","","","","","key","j","16.66569285714234","640","356","./1_3_Stimuli/T_ambi40.png","自我","Image","朋友","Mismatch","j","true","Formal"
"","","","","","psychophysics","214","738682","0.0-9.0-0.0-0.103","1018","","j","","","","","","","","","","","","","key","j","16.667666666667238","640","356","./1_3_Stimuli/C_ambi40.png","自我","Image","他人","Mismatch","j","true","Formal"
"","","","","","psychophysics","215","740489","0.0-9.0-0.0-0.104","646","","j","","","","","","","","","","","","","key","j","16.666820754717712","640","356","./1_3_Stimuli/C_ambi40.png","朋友","Word","他人","Mismatch","j","true","Formal"
"","","","","","psychophysics","216","742748","0.0-9.0-0.0-0.105","1096","","j","","","","","","","","","","","","","key","j","16.668656716418607","640","356","./1_3_Stimuli/T_ambi40.png","他人","Image","朋友","Mismatch","j","true","Formal"
"","","","","","psychophysics","217","745098","0.0-9.0-0.0-0.106","1196","","f","","","","","","","","","","","","","key","f","16.666942446043702","640","356","./1_3_Stimuli/C_ambi40.png","他人","Image","他人","Match","f","true","Formal"
"","","","","","psychophysics","218","746984","0.0-9.0-0.0-0.107","731","","f","","","","","","","","","","","","","key","f","16.666612612613193","640","356","./1_3_Stimuli/T_ambi40.png","朋友","Word","朋友","Match","f","true","Formal"
"","","","","","psychophysics","219","748899","0.0-9.0-0.0-0.108","759","","j","","","","","","","","","","","","","key","j","16.667327433627765","640","356","./1_3_Stimuli/T_ambi40.png","他人","Word","朋友","Mismatch","j","true","Formal"
"","","","","","psychophysics","220","750780","0.0-9.0-0.0-0.109","721","","j","","","","","","","","","","","","","key","j","16.667090090090273","640","356","./1_3_Stimuli/T_ambi40.png","自我","Word","朋友","Mismatch","j","true","Formal"
"","","","","","psychophysics","221","752649","0.0-9.0-0.0-0.110","712","","j","","","","","","","","","","","","","key","j","16.667454545454927","640","356","./1_3_Stimuli/S_ambi40.png","朋友","Word","自我","Mismatch","j","true","Formal"
"","","","","","psychophysics","222","755065","0.0-9.0-0.0-0.111","1262","","f","","","","","","","","","","","","","key","f","16.66790909090949","640","356","./1_3_Stimuli/C_ambi40.png","他人","Image","他人","Match","f","true","Formal"
"","","","","","psychophysics","223","757717","0.0-9.0-0.0-0.112","1493","","f","","","","","","","","","","","","","key","f","16.666496815286713","640","356","./1_3_Stimuli/T_ambi40.png","朋友","Image","朋友","Match","f","true","Formal"
"","","","","","psychophysics","224","759789","0.0-9.0-0.0-0.113","902","","j","","","","","","","","","","","","","key","j","16.66959836065567","640","356","./1_3_Stimuli/C_ambi40.png","朋友","Image","他人","Mismatch","j","true","Formal"
"","","","","","psychophysics","225","762293","0.0-9.0-0.0-0.114","1347","","j","","","","","","","","","","","","","key","j","16.666885906040523","640","356","./1_3_Stimuli/S_ambi40.png","他人","Word","自我","Mismatch","j","true","Formal"
"","","","","","psychophysics","226","764550","0.0-9.0-0.0-0.115","1098","","f","","","","","","","","","","","","","key","f","16.665503759398405","640","356","./1_3_Stimuli/S_ambi40.png","自我","Word","自我","Match","f","true","Formal"
"","","","","","psychophysics","227","766816","0.0-9.0-0.0-0.116","1110","","j","","","","","","","","","","","","","key","j","16.669432835821098","640","356","./1_3_Stimuli/C_ambi40.png","他人","Word","他人","Match","f","false","Formal"
"","","","","","psychophysics","228","769040","0.0-9.0-0.0-0.117","1058","","f","","","","","","","","","","","","","key","f","16.666885496182935","640","356","./1_3_Stimuli/T_ambi40.png","朋友","Image","朋友","Match","f","true","Formal"
"","","","","","psychophysics","229","771759","0.0-9.0-0.0-0.118","null","","null","","","","","","","","","","","","","key","null","16.66738271604962","640","356","./1_3_Stimuli/S_ambi40.png","他人","Image","自我","Mismatch","j","false","Formal"
"","","","","","psychophysics","230","773625","0.0-9.0-0.0-0.119","709","","f","","","","","","","","","","","","","key","f","16.66526363636367","640","356","./1_3_Stimuli/C_ambi40.png","他人","Word","他人","Match","f","true","Formal"
"","","","","","html-keyboard-response","231","782067","0.0-9.0-1.0","8435","<style>.context{color:white; font-size: 35px; line-height:40px}</style>                        <div><p class='context'>您正确回答了86% 的试次。</p><p class='context'>您的平均反应时为1078毫秒。</p><p> <div style = 'color: green'><按任意键进入休息></div></p>"," ","","","","","","","","","","","","","","","","","","","","","","","","",""
"","","","","","html-button-response","232","818735","0.0-9.0-2.0","36609","
                  <p>您当前还剩余5组实验</p>
                  <p>现在是休息时间，当您结束休息后，您可以点击 结束休息 按钮 继续</p>
                  <p>建议休息时间还剩余<span id=""iii"">60</span>秒</p>","0","","","","","","","","","","","","","","","","","","","","","","","","",""
"","","","","","psychophysics","233","820783","0.0-9.0-0.1-0.120","893","","f","","","","","","","","","","","","","key","f","16.667950819672054","640","356","./1_3_Stimuli/C_ambi40.png","他人","Word","他人","Match","f","true","Formal"
"","","","","","psychophysics","234","822990","0.0-9.0-0.1-0.121","1051","","j","","","","","","","","","","","","","key","j","16.666246153845883","640","356","./1_3_Stimuli/S_ambi40.png","朋友","Image","自我","Mismatch","j","true","Formal"
"","","","","","psychophysics","235","825602","0.0-9.0-0.1-0.122","1459","","f","","","","","","","","","","","","","key","f","16.667541935484135","640","356","./1_3_Stimuli/S_ambi40.png","自我","Image","自我","Match","f","true","Formal"
"","","","","","psychophysics","236","827817","0.0-9.0-0.1-0.123","1058","","j","","","","","","","","","","","","","key","j","16.6668244274813","640","356","./1_3_Stimuli/S_ambi40.png","朋友","Word","自我","Mismatch","j","true","Formal"
"","","","","","psychophysics","237","830066","0.0-9.0-0.1-0.124","1092","","f","","","","","","","","","","","","","key","f","16.667195488722413","640","356","./1_3_Stimuli/S_ambi40.png","自我","Word","自我","Match","f","true","Formal"
"","","","","","psychophysics","238","832775","0.0-9.0-0.1-0.125","null","","null","","","","","","","","","","","","","key","null","16.666788819875794","640","356","./1_3_Stimuli/C_ambi40.png","朋友","Word","他人","Mismatch","j","false","Formal"
"","","","","","psychophysics","239","834785","0.0-9.0-0.1-0.126","858","","j","","","","","","","","","","","","","key","j","16.666915254237257","640","356","./1_3_Stimuli/T_ambi40.png","自我","Image","朋友","Mismatch","j","true","Formal"
"","","","","","psychophysics","240","836609","0.0-9.0-0.1-0.127","666","","f","","","","","","","","","","","","","key","f","16.666999999999664","640","356","./1_3_Stimuli/S_ambi40.png","自我","Image","自我","Match","f","true","Formal"
"","","","","","psychophysics","241","838700","0.0-9.0-0.1-0.128","938","","f","","","","","","","","","","","","","key","f","16.66743548387087","640","356","./1_3_Stimuli/C_ambi40.png","他人","Image","他人","Match","f","true","Formal"
"","","","","","psychophysics","242","840507","0.0-9.0-0.1-0.129","655","","f","","","","","","","","","","","","","key","f","16.666509433961387","640","356","./1_3_Stimuli/T_ambi40.png","朋友","Word","朋友","Match","f","true","Formal"
"","","","","","psychophysics","243","842333","0.0-9.0-0.1-0.130","674","","j","","","","","","","","","","","","","key","j","16.668611111111844","640","356","./1_3_Stimuli/T_ambi40.png","他人","Word","朋友","Mismatch","j","true","Formal"
"","","","","","psychophysics","244","844742","0.0-9.0-0.1-0.131","1255","","j","","","","","","","","","","","","","key","j","16.666307692307736","640","356","./1_3_Stimuli/C_ambi40.png","朋友","Image","他人","Mismatch","j","true","Formal"
"","","","","","psychophysics","245","846650","0.0-9.0-0.1-0.132","756","","j","","","","","","","","","","","","","key","j","16.66449557522114","640","356","./1_3_Stimuli/T_ambi40.png","他人","Image","朋友","Mismatch","j","true","Formal"
"","","","","","psychophysics","246","848368","0.0-9.0-0.1-0.133","557","","f","","","","","","","","","","","","","key","f","16.666623762376506","640","356","./1_3_Stimuli/S_ambi40.png","自我","Word","自我","Match","f","true","Formal"
"","","","","","psychophysics","247","850268","0.0-9.0-0.1-0.134","740","","j","","","","","","","","","","","","","key","j","16.81769369369444","640","356","./1_3_Stimuli/S_ambi40.png","他人","Word","自我","Mismatch","j","true","Formal"
"","","","","","psychophysics","248","852042","0.0-9.0-0.1-0.135","604","","f","","","","","","","","","","","","","key","f","16.66677142857197","640","356","./1_3_Stimuli/T_ambi40.png","朋友","Image","朋友","Match","f","true","Formal"
"","","","","","psychophysics","249","854566","0.0-9.0-0.1-0.136","1359","","j","","","","","","","","","","","","","key","j","16.66756666666673","640","356","./1_3_Stimuli/S_ambi40.png","他人","Image","自我","Mismatch","j","true","Formal"
"","","","","","psychophysics","250","856412","0.0-9.0-0.1-0.137","690","","f","","","","","","","","","","","","","key","f","16.666944954127775","640","356","./1_3_Stimuli/T_ambi40.png","朋友","Image","朋友","Match","f","true","Formal"
"","","","","","psychophysics","251","858352","0.0-9.0-0.1-0.138","781","","f","","","","","","","","","","","","","key","f","16.66597391304398","640","356","./1_3_Stimuli/T_ambi40.png","朋友","Word","朋友","Match","f","true","Formal"
"","","","","","psychophysics","252","860574","0.0-9.0-0.1-0.139","1063","","f","","","","","","","","","","","","","key","f","16.66736641221321","640","356","./1_3_Stimuli/C_ambi40.png","他人","Image","他人","Match","f","true","Formal"
"","","","","","psychophysics","253","862793","0.0-9.0-0.1-0.140","1066","","f","","","","","","","","","","","","","key","f","16.668590909091467","640","356","./1_3_Stimuli/C_ambi40.png","他人","Word","他人","Match","f","true","Formal"
"","","","","","psychophysics","254","864940","0.0-9.0-0.1-0.141","992","","j","","","","","","","","","","","","","key","j","16.665826771653066","640","356","./1_3_Stimuli/C_ambi40.png","自我","Image","他人","Mismatch","j","true","Formal"
"","","","","","psychophysics","255","867127","0.0-9.0-0.1-0.142","1034","","j","","","","","","","","","","","","","key","j","16.66737984496082","640","356","./1_3_Stimuli/T_ambi40.png","自我","Word","朋友","Mismatch","j","true","Formal"
"","","","","","psychophysics","256","869446","0.0-9.0-0.1-0.143","1158","","j","","","","","","","","","","","","","key","j","16.667459854014883","640","356","./1_3_Stimuli/C_ambi40.png","自我","Word","他人","Mismatch","j","true","Formal"
"","","","","","psychophysics","257","871498","0.0-9.0-0.1-0.144","892","","j","","","","","","","","","","","","","key","j","16.6671157024795","640","356","./1_3_Stimuli/C_ambi40.png","朋友","Word","他人","Mismatch","j","true","Formal"
"","","","","","psychophysics","258","873416","0.0-9.0-0.1-0.145","762","","f","","","","","","","","","","","","","key","f","16.665947368420586","640","356","./1_3_Stimuli/T_ambi40.png","朋友","Word","朋友","Match","f","true","Formal"
"","","","","","psychophysics","259","875807","0.0-9.0-0.1-0.146","1236","","j","","","","","","","","","","","","","key","j","16.6676760563376","640","356","./1_3_Stimuli/S_ambi40.png","他人","Word","自我","Mismatch","j","true","Formal"
"","","","","","psychophysics","260","877598","0.0-9.0-0.1-0.147","627","","f","","","","","","","","","","","","","key","f","16.66742452830164","640","356","./1_3_Stimuli/T_ambi40.png","朋友","Word","朋友","Match","f","true","Formal"
"","","","","","psychophysics","261","879861","0.0-9.0-0.1-0.148","1106","","f","","","","","","","","","","","","","key","f","16.66734074074085","640","356","./1_3_Stimuli/C_ambi40.png","他人","Image","他人","Match","f","true","Formal"
"","","","","","psychophysics","262","882417","0.0-9.0-0.1-0.149","1400","","j","","","","","","","","","","","","","key","j","16.6675033112587","640","356","./1_3_Stimuli/S_ambi40.png","朋友","Image","自我","Mismatch","j","true","Formal"
"","","","","","psychophysics","263","885128","0.0-9.0-0.1-0.150","null","","null","","","","","","","","","","","","","key","null","16.667018633540458","640","356","./1_3_Stimuli/C_ambi40.png","他人","Word","他人","Match","f","false","Formal"
"","","","","","psychophysics","264","886998","0.0-9.0-0.1-0.151","710","","j","","","","","","","","","","","","","key","j","16.665711711711452","640","356","./1_3_Stimuli/T_ambi40.png","他人","Word","朋友","Mismatch","j","true","Formal"
"","","","","","psychophysics","265","889498","0.0-9.0-0.1-0.152","1343","","j","","","","","","","","","","","","","key","j","16.66789189189188","640","356","./1_3_Stimuli/C_ambi40.png","自我","Image","他人","Mismatch","j","true","Formal"
"","","","","","psychophysics","266","891361","0.0-9.0-0.1-0.153","705","","f","","","","","","","","","","","","","key","f","16.668333333333837","640","356","./1_3_Stimuli/S_ambi40.png","自我","Word","自我","Match","f","true","Formal"
"","","","","","psychophysics","267","893559","0.0-9.0-0.1-0.154","1041","","j","","","","","","","","","","","","","key","j","16.666259541984946","640","356","./1_3_Stimuli/T_ambi40.png","自我","Word","朋友","Mismatch","j","true","Formal"
"","","","","","psychophysics","268","896278","0.0-9.0-0.1-0.155","null","","null","","","","","","","","","","","","","key","null","16.66724074074142","640","356","./1_3_Stimuli/S_ambi40.png","他人","Image","自我","Mismatch","j","false","Formal"
"","","","","","psychophysics","269","898445","0.0-9.0-0.1-0.156","1006","","f","","","","","","","","","","","","","key","f","16.668860465116698","640","356","./1_3_Stimuli/S_ambi40.png","自我","Word","自我","Match","f","true","Formal"
"","","","","","psychophysics","270","900630","0.0-9.0-0.1-0.157","1024","","f","","","","","","","","","","","","","key","f","16.667341085270863","640","356","./1_3_Stimuli/C_ambi40.png","他人","Word","他人","Match","f","true","Formal"
"","","","","","psychophysics","271","902695","0.0-9.0-0.1-0.158","912","","f","","","","","","","","","","","","","key","f","16.66639024390256","640","356","./1_3_Stimuli/C_ambi40.png","他人","Image","他人","Match","f","true","Formal"
"","","","","","psychophysics","272","904810","0.0-9.0-0.1-0.159","955","","f","","","","","","","","","","","","","key","f","16.665992063491434","640","356","./1_3_Stimuli/S_ambi40.png","自我","Image","自我","Match","f","true","Formal"
"","","","","","psychophysics","273","906671","0.0-9.0-0.1-0.160","700","","j","","","","","","","","","","","","","key","j","16.667889908257308","640","356","./1_3_Stimuli/S_ambi40.png","朋友","Word","自我","Mismatch","j","true","Formal"
"","","","","","psychophysics","274","908396","0.0-9.0-0.1-0.161","568","","f","","","","","","","","","","","","","key","f","16.66670588235252","640","356","./1_3_Stimuli/T_ambi40.png","朋友","Image","朋友","Match","f","true","Formal"
"","","","","","psychophysics","275","910443","0.0-9.0-0.1-0.162","887","","j","","","","","","","","","","","","","key","j","16.668330578512535","640","356","./1_3_Stimuli/C_ambi40.png","自我","Word","他人","Mismatch","j","true","Formal"
"","","","","","psychophysics","276","912508","0.0-9.0-0.1-0.163","911","","j","","","","","","","","","","","","","key","j","16.66703278688546","640","356","./1_3_Stimuli/C_ambi40.png","朋友","Image","他人","Mismatch","j","true","Formal"
"","","","","","psychophysics","277","914487","0.0-9.0-0.1-0.164","825","","f","","","","","","","","","","","","","key","f","16.667820512820594","640","356","./1_3_Stimuli/S_ambi40.png","自我","Image","自我","Match","f","true","Formal"
"","","","","","psychophysics","278","916262","0.0-9.0-0.1-0.165","618","","j","","","","","","","","","","","","","key","j","16.666838095238475","640","356","./1_3_Stimuli/T_ambi40.png","自我","Image","朋友","Mismatch","j","true","Formal"
"","","","","","psychophysics","279","918323","0.0-9.0-0.1-0.166","908","","j","","","","","","","","","","","","","key","j","16.667696721311735","640","356","./1_3_Stimuli/T_ambi40.png","他人","Image","朋友","Mismatch","j","true","Formal"
"","","","","","psychophysics","280","920247","0.0-9.0-0.1-0.167","769","","f","","","","","","","","","","","","","key","f","16.668745614034776","640","356","./1_3_Stimuli/T_ambi40.png","朋友","Image","朋友","Match","f","true","Formal"
"","","","","","psychophysics","281","922370","0.0-9.0-0.1-0.168","967","","f","","","","","","","","","","","","","key","f","16.66571999999974","640","356","./1_3_Stimuli/C_ambi40.png","他人","Word","他人","Match","f","true","Formal"
"","","","","","psychophysics","282","924618","0.0-9.0-0.1-0.169","1090","","f","","","","","","","","","","","","","key","f","16.666736842105095","640","356","./1_3_Stimuli/T_ambi40.png","朋友","Image","朋友","Match","f","true","Formal"
"","","","","","psychophysics","283","926498","0.0-9.0-0.1-0.170","721","","j","","","","","","","","","","","","","key","j","16.666603603603754","640","356","./1_3_Stimuli/T_ambi40.png","他人","Image","朋友","Mismatch","j","true","Formal"
"","","","","","psychophysics","284","928743","0.0-9.0-0.1-0.171","1092","","f","","","","","","","","","","","","","key","f","16.66723484848538","640","356","./1_3_Stimuli/C_ambi40.png","他人","Image","他人","Match","f","true","Formal"
"","","","","","psychophysics","285","930962","0.0-9.0-0.1-0.172","1061","","j","","","","","","","","","","","","","key","j","16.667060606060797","640","356","./1_3_Stimuli/S_ambi40.png","朋友","Image","自我","Mismatch","j","true","Formal"
"","","","","","psychophysics","286","933361","0.0-9.0-0.1-0.173","1245","","j","","","","","","","","","","","","","key","j","16.66739860139836","640","356","./1_3_Stimuli/T_ambi40.png","他人","Word","朋友","Mismatch","j","true","Formal"
"","","","","","psychophysics","287","935392","0.0-9.0-0.1-0.174","879","","j","","","","","","","","","","","","","key","j","16.668100840336752","640","356","./1_3_Stimuli/T_ambi40.png","自我","Word","朋友","Mismatch","j","true","Formal"
"","","","","","psychophysics","288","937163","0.0-9.0-0.1-0.175","613","","f","","","","","","","","","","","","","key","f","16.666666666666668","640","356","./1_3_Stimuli/S_ambi40.png","自我","Image","自我","Match","f","true","Formal"
"","","","","","psychophysics","289","939401","0.0-9.0-0.1-0.176","1084","","f","","","","","","","","","","","","","key","f","16.666067669173366","640","356","./1_3_Stimuli/C_ambi40.png","自我","Image","他人","Mismatch","j","false","Formal"
"","","","","","psychophysics","290","941420","0.0-9.0-0.1-0.177","859","","j","","","","","","","","","","","","","key","j","16.667285714285768","640","356","./1_3_Stimuli/C_ambi40.png","朋友","Image","他人","Mismatch","j","true","Formal"
"","","","","","psychophysics","291","943348","0.0-9.0-0.1-0.178","772","","f","","","","","","","","","","","","","key","f","16.66645614035109","640","356","./1_3_Stimuli/T_ambi40.png","朋友","Word","朋友","Match","f","true","Formal"
"","","","","","psychophysics","292","945237","0.0-9.0-0.1-0.179","735","","j","","","","","","","","","","","","","key","j","16.667785714285856","640","356","./1_3_Stimuli/S_ambi40.png","朋友","Word","自我","Mismatch","j","true","Formal"
"","","","","","psychophysics","293","947644","0.0-9.0-0.1-0.180","1251","","f","","","","","","","","","","","","","key","f","16.66693006993037","640","356","./1_3_Stimuli/T_ambi40.png","朋友","Word","朋友","Match","f","true","Formal"
"","","","","","psychophysics","294","949601","0.0-9.0-0.1-0.181","804","","f","","","","","","","","","","","","","key","f","16.6673448275863","640","356","./1_3_Stimuli/S_ambi40.png","自我","Word","自我","Match","f","true","Formal"
"","","","","","psychophysics","295","951482","0.0-9.0-0.1-0.182","720","","j","","","","","","","","","","","","","key","j","16.667999999999353","640","356","./1_3_Stimuli/C_ambi40.png","朋友","Word","他人","Mismatch","j","true","Formal"
"","","","","","psychophysics","296","953351","0.0-9.0-0.1-0.183","716","","f","","","","","","","","","","","","","key","f","16.665432432431494","640","356","./1_3_Stimuli/S_ambi40.png","自我","Image","自我","Match","f","true","Formal"
"","","","","","psychophysics","297","955704","0.0-9.0-0.1-0.184","1201","","f","","","","","","","","","","","","","key","f","16.667685714285888","640","356","./1_3_Stimuli/C_ambi40.png","他人","Image","他人","Match","f","true","Formal"
"","","","","","psychophysics","298","957864","0.0-9.0-0.1-0.185","986","","j","","","","","","","","","","","","","key","j","16.66776377952742","640","356","./1_3_Stimuli/S_ambi40.png","他人","Word","自我","Mismatch","j","true","Formal"
"","","","","","psychophysics","299","960291","0.0-9.0-0.1-0.186","1267","","j","","","","","","","","","","","","","key","j","16.666562499999902","640","356","./1_3_Stimuli/S_ambi40.png","他人","Image","自我","Mismatch","j","true","Formal"
"","","","","","psychophysics","300","962261","0.0-9.0-0.1-0.187","808","","f","","","","","","","","","","","","","key","f","16.66455555555578","640","356","./1_3_Stimuli/S_ambi40.png","自我","Word","自我","Match","f","true","Formal"
"","","","","","psychophysics","301","964384","0.0-9.0-0.1-0.188","964","","j","","","","","","","","","","","","","key","j","16.66744000000041","640","356","./1_3_Stimuli/C_ambi40.png","自我","Word","他人","Mismatch","j","true","Formal"
"","","","","","psychophysics","302","966954","0.0-9.0-0.1-0.189","1414","","f","","","","","","","","","","","","","key","f","16.66779605263161","640","356","./1_3_Stimuli/C_ambi40.png","他人","Word","他人","Match","f","true","Formal"
"","","","","","psychophysics","303","968828","0.0-9.0-0.1-0.190","717","","j","","","","","","","","","","","","","key","j","16.667477477477185","640","356","./1_3_Stimuli/T_ambi40.png","自我","Image","朋友","Mismatch","j","true","Formal"
"","","","","","psychophysics","304","970609","0.0-9.0-0.1-0.191","619","","f","","","","","","","","","","","","","key","f","16.667019047618044","640","356","./1_3_Stimuli/T_ambi40.png","朋友","Image","朋友","Match","f","true","Formal"
"","","","","","psychophysics","305","973321","0.0-9.0-0.1-0.192","null","","null","","","","","","","","","","","","","key","null","16.66703726708027","640","356","./1_3_Stimuli/S_ambi40.png","自我","Image","自我","Match","f","false","Formal"
"","","","","","psychophysics","306","975199","0.0-9.0-0.1-0.193","725","","f","","","","","","","","","","","","","key","f","16.668477477477484","640","356","./1_3_Stimuli/S_ambi40.png","自我","Word","自我","Match","f","true","Formal"
"","","","","","psychophysics","307","977743","0.0-9.0-0.1-0.194","1382","","f","","","","","","","","","","","","","key","f","16.666499999999846","640","356","./1_3_Stimuli/T_ambi40.png","朋友","Image","朋友","Match","f","true","Formal"
"","","","","","psychophysics","308","979755","0.0-9.0-0.1-0.195","855","","f","","","","","","","","","","","","","key","f","16.665823529411828","640","356","./1_3_Stimuli/C_ambi40.png","他人","Word","他人","Match","f","true","Formal"
"","","","","","psychophysics","309","982328","0.0-9.0-0.1-0.196","1415","","j","","","","","","","","","","","","","key","j","16.666671052631788","640","356","./1_3_Stimuli/C_ambi40.png","自我","Image","他人","Mismatch","j","true","Formal"
"","","","","","psychophysics","310","984837","0.0-9.0-0.1-0.197","1351","","j","","","","","","","","","","","","","key","j","16.66677702702676","640","356","./1_3_Stimuli/S_ambi40.png","他人","Image","自我","Mismatch","j","true","Formal"
"","","","","","psychophysics","311","987088","0.0-9.0-0.1-0.198","1097","","j","","","","","","","","","","","","","key","j","16.666736842105095","640","356","./1_3_Stimuli/S_ambi40.png","他人","Word","自我","Mismatch","j","true","Formal"
"","","","","","psychophysics","312","989062","0.0-9.0-0.1-0.199","815","","f","","","","","","","","","","","","","key","f","16.663512820513265","640","356","./1_3_Stimuli/C_ambi40.png","他人","Image","他人","Match","f","true","Formal"
"","","","","","psychophysics","313","990810","0.0-9.0-0.1-0.200","588","","f","","","","","","","","","","","","","key","f","16.667843137254856","640","356","./1_3_Stimuli/T_ambi40.png","朋友","Image","朋友","Match","f","true","Formal"
"","","","","","psychophysics","314","992927","0.0-9.0-0.1-0.201","958","","f","","","","","","","","","","","","","key","f","16.664776000000536","640","356","./1_3_Stimuli/C_ambi40.png","他人","Word","他人","Match","f","true","Formal"
"","","","","","psychophysics","315","995643","0.0-9.0-0.1-0.202","null","","null","","","","","","","","","","","","","key","null","16.666875776397326","640","356","./1_3_Stimuli/S_ambi40.png","朋友","Image","自我","Mismatch","j","false","Formal"
"","","","","","psychophysics","316","997985","0.0-9.0-0.1-0.203","1183","","j","","","","","","","","","","","","","key","j","16.667482014387854","640","356","./1_3_Stimuli/T_ambi40.png","他人","Word","朋友","Mismatch","j","true","Formal"
"","","","","","psychophysics","317","999986","0.0-9.0-0.1-0.204","843","","f","","","","","","","","","","","","","key","f","16.667398305084966","640","356","./1_3_Stimuli/S_ambi40.png","自我","Word","自我","Match","f","true","Formal"
"","","","","","psychophysics","318","1002338","0.0-9.0-0.1-0.205","1197","","j","","","","","","","","","","","","","key","j","16.66748201438869","640","356","./1_3_Stimuli/C_ambi40.png","自我","Word","他人","Mismatch","j","true","Formal"
"","","","","","psychophysics","319","1004533","0.0-9.0-0.1-0.206","1036","","j","","","","","","","","","","","","","key","j","16.66706153846149","640","356","./1_3_Stimuli/C_ambi40.png","朋友","Image","他人","Mismatch","j","true","Formal"
"","","","","","psychophysics","320","1007242","0.0-9.0-0.1-0.207","null","","null","","","","","","","","","","","","","key","null","16.667124223602524","640","356","./1_3_Stimuli/S_ambi40.png","自我","Image","自我","Match","f","false","Formal"
"","","","","","psychophysics","321","1009469","0.0-9.0-0.1-0.208","1066","","f","","","","","","","","","","","","","key","f","16.666962121212045","640","356","./1_3_Stimuli/T_ambi40.png","朋友","Word","朋友","Match","f","true","Formal"
"","","","","","psychophysics","322","1011283","0.0-9.0-0.1-0.209","656","","f","","","","","","","","","","","","","key","f","16.66826851851807","640","356","./1_3_Stimuli/T_ambi40.png","朋友","Word","朋友","Match","f","true","Formal"
"","","","","","psychophysics","323","1013048","0.0-9.0-0.1-0.210","607","","j","","","","","","","","","","","","","key","j","16.66608653846197","640","356","./1_3_Stimuli/C_ambi40.png","朋友","Word","他人","Mismatch","j","true","Formal"
"","","","","","psychophysics","324","1014999","0.0-9.0-0.1-0.211","791","","j","","","","","","","","","","","","","key","j","16.667382608695238","640","356","./1_3_Stimuli/T_ambi40.png","自我","Word","朋友","Mismatch","j","true","Formal"
"","","","","","psychophysics","325","1017348","0.0-9.0-0.1-0.212","1190","","j","","","","","","","","","","","","","key","j","16.66807857142828","640","356","./1_3_Stimuli/T_ambi40.png","他人","Image","朋友","Mismatch","j","true","Formal"
"","","","","","psychophysics","326","1019254","0.0-9.0-0.1-0.213","746","","j","","","","","","","","","","","","","key","j","16.666938053097873","640","356","./1_3_Stimuli/T_ambi40.png","自我","Image","朋友","Mismatch","j","true","Formal"
"","","","","","psychophysics","327","1021969","0.0-9.0-0.1-0.214","null","","null","","","","","","","","","","","","","key","null","16.666074534160842","640","356","./1_3_Stimuli/S_ambi40.png","朋友","Word","自我","Mismatch","j","false","Formal"
"","","","","","psychophysics","328","1024135","0.0-9.0-0.1-0.215","1010","","f","","","","","","","","","","","","","key","f","16.666945312499593","640","356","./1_3_Stimuli/C_ambi40.png","他人","Image","他人","Match","f","true","Formal"
"","","","","","psychophysics","329","1025982","0.0-9.0-0.1-0.216","690","","j","","","","","","","","","","","","","key","j","16.665064220183204","640","356","./1_3_Stimuli/T_ambi40.png","他人","Word","朋友","Mismatch","j","true","Formal"
"","","","","","psychophysics","330","1027931","0.0-9.0-0.1-0.217","795","","f","","","","","","","","","","","","","key","f","16.666931034483273","640","356","./1_3_Stimuli/S_ambi40.png","自我","Image","自我","Match","f","true","Formal"
"","","","","","psychophysics","331","1029737","0.0-9.0-0.1-0.218","646","","j","","","","","","","","","","","","","key","j","16.665719626168936","640","356","./1_3_Stimuli/C_ambi40.png","他人","Word","他人","Match","f","false","Formal"
"","","","","","psychophysics","332","1031736","0.0-9.0-0.1-0.219","844","","j","","","","","","","","","","","","","key","j","16.664847457626543","640","356","./1_3_Stimuli/T_ambi40.png","自我","Image","朋友","Mismatch","j","true","Formal"
"","","","","","psychophysics","333","1034114","0.0-9.0-0.1-0.220","1223","","f","","","","","","","","","","","","","key","f","16.66973049645411","640","356","./1_3_Stimuli/S_ambi40.png","自我","Image","自我","Match","f","true","Formal"
"","","","","","psychophysics","334","1036029","0.0-9.0-0.1-0.221","754","","f","","","","","","","","","","","","","key","f","16.66715044247716","640","356","./1_3_Stimuli/S_ambi40.png","自我","Word","自我","Match","f","true","Formal"
"","","","","","psychophysics","335","1038246","0.0-9.0-0.1-0.222","1063","","f","","","","","","","","","","","","","key","f","16.66954198473254","640","356","./1_3_Stimuli/C_ambi40.png","他人","Word","他人","Match","f","true","Formal"
"","","","","","psychophysics","336","1040516","0.0-9.0-0.1-0.223","1116","","j","","","","","","","","","","","","","key","j","16.666496296295964","640","356","./1_3_Stimuli/T_ambi40.png","自我","Word","朋友","Mismatch","j","true","Formal"
"","","","","","psychophysics","337","1042385","0.0-9.0-0.1-0.224","715","","f","","","","","","","","","","","","","key","f","16.668207207206965","640","356","./1_3_Stimuli/T_ambi40.png","朋友","Word","朋友","Match","f","true","Formal"
"","","","","","psychophysics","338","1044883","0.0-9.0-0.1-0.225","1341","","f","","","","","","","","","","","","","key","f","16.667571428571637","640","356","./1_3_Stimuli/C_ambi40.png","他人","Image","他人","Match","f","true","Formal"
"","","","","","psychophysics","339","1046899","0.0-9.0-0.1-0.226","861","","j","","","","","","","","","","","","","key","j","16.66710833333394","640","356","./1_3_Stimuli/C_ambi40.png","自我","Image","他人","Mismatch","j","true","Formal"
"","","","","","psychophysics","340","1048712","0.0-9.0-0.1-0.227","653","","j","","","","","","","","","","","","","key","j","16.667055555555702","640","356","./1_3_Stimuli/C_ambi40.png","朋友","Word","他人","Mismatch","j","true","Formal"
"","","","","","psychophysics","341","1050867","0.0-9.0-0.1-0.228","983","","j","","","","","","","","","","","","","key","j","16.667132812499403","640","356","./1_3_Stimuli/S_ambi40.png","他人","Word","自我","Mismatch","j","true","Formal"
"","","","","","psychophysics","342","1052852","0.0-9.0-0.1-0.229","827","","j","","","","","","","","","","","","","key","j","16.666222222223002","640","356","./1_3_Stimuli/C_ambi40.png","自我","Word","他人","Mismatch","j","true","Formal"
"","","","","","psychophysics","343","1054742","0.0-9.0-0.1-0.230","733","","j","","","","","","","","","","","","","key","j","16.66718018018045","640","356","./1_3_Stimuli/S_ambi40.png","朋友","Word","自我","Mismatch","j","true","Formal"
"","","","","","psychophysics","344","1056595","0.0-9.0-0.1-0.231","697","","j","","","","","","","","","","","","","key","j","16.666427272727542","640","356","./1_3_Stimuli/S_ambi40.png","朋友","Image","自我","Mismatch","j","true","Formal"
"","","","","","psychophysics","345","1058884","0.0-9.0-0.1-0.232","1124","","j","","","","","","","","","","","","","key","j","16.66791911764577","640","356","./1_3_Stimuli/S_ambi40.png","他人","Image","自我","Mismatch","j","true","Formal"
"","","","","","psychophysics","346","1060875","0.0-9.0-0.1-0.233","833","","f","","","","","","","","","","","","","key","f","16.667655172412573","640","356","./1_3_Stimuli/T_ambi40.png","朋友","Image","朋友","Match","f","true","Formal"
"","","","","","psychophysics","347","1062969","0.0-9.0-0.1-0.234","934","","f","","","","","","","","","","","","","key","f","16.66610483870834","640","356","./1_3_Stimuli/T_ambi40.png","朋友","Word","朋友","Match","f","true","Formal"
"","","","","","psychophysics","348","1064816","0.0-9.0-0.1-0.235","691","","j","","","","","","","","","","","","","key","j","16.667318181818437","640","356","./1_3_Stimuli/C_ambi40.png","朋友","Image","他人","Mismatch","j","true","Formal"
"","","","","","psychophysics","349","1066907","0.0-9.0-0.1-0.236","933","","f","","","","","","","","","","","","","key","f","16.667569105691328","640","356","./1_3_Stimuli/S_ambi40.png","自我","Word","自我","Match","f","true","Formal"
"","","","","","psychophysics","350","1068816","0.0-9.0-0.1-0.237","745","","f","","","","","","","","","","","","","key","f","16.667000000000378","640","356","./1_3_Stimuli/T_ambi40.png","朋友","Image","朋友","Match","f","true","Formal"
"","","","","","psychophysics","351","1071514","0.0-9.0-0.1-0.238","1538","","f","","","","","","","","","","","","","key","f","16.667366459627306","640","356","./1_3_Stimuli/C_ambi40.png","他人","Image","他人","Match","f","true","Formal"
"","","","","","psychophysics","352","1073248","0.0-9.0-0.1-0.239","581","","j","","","","","","","","","","","","","key","j","16.66665686274349","640","356","./1_3_Stimuli/T_ambi40.png","他人","Image","朋友","Mismatch","j","true","Formal"
"","","","","","html-keyboard-response","353","1081973","0.0-9.0-1.1","8715","<style>.context{color:white; font-size: 35px; line-height:40px}</style>                        <div><p class='context'>您正确回答了93% 的试次。</p><p class='context'>您的平均反应时为928毫秒。</p><p> <div style = 'color: green'><按任意键进入休息></div></p>"," ","","","","","","","","","","","","","","","","","","","","","","","","",""
"","","","","","html-button-response","354","1112571","0.0-9.0-2.1","30561","
                  <p>您当前还剩余4组实验</p>
                  <p>现在是休息时间，当您结束休息后，您可以点击 结束休息 按钮 继续</p>
                  <p>建议休息时间还剩余<span id=""iii"">60</span>秒</p>","0","","","","","","","","","","","","","","","","","","","","","","","","",""
"","","","","","psychophysics","355","1114779","0.0-9.0-0.2-0.240","1053","","f","","","","","","","","","","","","","key","f","16.668442748092428","640","356","./1_3_Stimuli/C_ambi40.png","他人","Word","他人","Match","f","true","Formal"
"","","","","","psychophysics","356","1116819","0.0-9.0-0.2-0.241","880","","j","","","","","","","","","","","","","key","j","16.667628099174","640","356","./1_3_Stimuli/S_ambi40.png","朋友","Image","自我","Mismatch","j","true","Formal"
"","","","","","psychophysics","357","1118813","0.0-9.0-0.2-0.242","837","","j","","","","","","","","","","","","","key","j","16.66784745762598","640","356","./1_3_Stimuli/T_ambi40.png","他人","Word","朋友","Mismatch","j","true","Formal"
"","","","","","psychophysics","358","1120759","0.0-9.0-0.2-0.243","791","","f","","","","","","","","","","","","","key","f","16.667113043479215","640","356","./1_3_Stimuli/T_ambi40.png","朋友","Image","朋友","Match","f","true","Formal"
"","","","","","psychophysics","359","1122622","0.0-9.0-0.2-0.244","707","","j","","","","","","","","","","","","","key","j","16.667836363636887","640","356","./1_3_Stimuli/T_ambi40.png","自我","Image","朋友","Mismatch","j","true","Formal"
"","","","","","psychophysics","360","1125127","0.0-9.0-0.2-0.245","1344","","f","","","","","","","","","","","","","key","f","16.667155405405808","640","356","./1_3_Stimuli/S_ambi40.png","自我","Word","自我","Match","f","true","Formal"
"","","","","","psychophysics","361","1126967","0.0-9.0-0.2-0.246","679","","f","","","","","","","","","","","","","key","f","16.66750458715518","640","356","./1_3_Stimuli/T_ambi40.png","朋友","Word","朋友","Match","f","true","Formal"
"","","","","","psychophysics","362","1129172","0.0-9.0-0.2-0.247","1046","","j","","","","","","","","","","","","","key","j","16.665564885496284","640","356","./1_3_Stimuli/C_ambi40.png","自我","Word","他人","Mismatch","j","true","Formal"
"","","","","","psychophysics","363","1131230","0.0-9.0-0.2-0.248","900","","f","","","","","","","","","","","","","key","f","16.666570247934114","640","356","./1_3_Stimuli/S_ambi40.png","自我","Image","自我","Match","f","true","Formal"
"","","","","","psychophysics","364","1132962","0.0-9.0-0.2-0.249","569","","j","","","","","","","","","","","","","key","j","16.666509803920967","640","356","./1_3_Stimuli/T_ambi40.png","自我","Word","朋友","Mismatch","j","true","Formal"
"","","","","","psychophysics","365","1135353","0.0-9.0-0.2-0.250","1229","","j","","","","","","","","","","","","","key","j","16.66766197183071","640","356","./1_3_Stimuli/S_ambi40.png","他人","Image","自我","Mismatch","j","true","Formal"
"","","","","","psychophysics","366","1137554","0.0-9.0-0.2-0.251","1044","","f","","","","","","","","","","","","","key","f","16.6675153846154","640","356","./1_3_Stimuli/S_ambi40.png","自我","Word","自我","Match","f","true","Formal"
"","","","","","psychophysics","367","1139281","0.0-9.0-0.2-0.252","570","","f","","","","","","","","","","","","","key","f","16.667446601941496","640","356","./1_3_Stimuli/T_ambi40.png","朋友","Word","朋友","Match","f","true","Formal"
"","","","","","psychophysics","368","1141241","0.0-9.0-0.2-0.253","797","","f","","","","","","","","","","","","","key","f","16.667327586206174","640","356","./1_3_Stimuli/S_ambi40.png","自我","Image","自我","Match","f","true","Formal"
"","","","","","psychophysics","369","1143891","0.0-9.0-0.2-0.254","1494","","j","","","","","","","","","","","","","key","j","16.667350318471183","640","356","./1_3_Stimuli/S_ambi40.png","朋友","Word","自我","Mismatch","j","true","Formal"
"","","","","","psychophysics","370","1146038","0.0-9.0-0.2-0.255","989","","j","","","","","","","","","","","","","key","j","16.666661417322587","640","356","./1_3_Stimuli/S_ambi40.png","他人","Word","自我","Mismatch","j","true","Formal"
"","","","","","psychophysics","371","1148747","0.0-9.0-0.2-0.256","null","","null","","","","","","","","","","","","","key","null","16.667006172839105","640","356","./1_3_Stimuli/C_ambi40.png","朋友","Word","他人","Mismatch","j","false","Formal"
"","","","","","psychophysics","372","1150948","0.0-9.0-0.2-0.257","1048","","j","","","","","","","","","","","","","key","j","16.65848837209353","640","356","./1_3_Stimuli/C_ambi40.png","自我","Image","他人","Mismatch","j","true","Formal"
"","","","","","psychophysics","373","1153239","0.0-9.0-0.2-0.258","1137","","f","","","","","","","","","","","","","key","f","16.667073529412257","640","356","./1_3_Stimuli/C_ambi40.png","他人","Image","他人","Match","f","true","Formal"
"","","","","","psychophysics","374","1155133","0.0-9.0-0.2-0.259","740","","f","","","","","","","","","","","","","key","f","16.666803571426758","640","356","./1_3_Stimuli/T_ambi40.png","朋友","Image","朋友","Match","f","true","Formal"
"","","","","","psychophysics","375","1157196","0.0-9.0-0.2-0.260","911","","f","","","","","","","","","","","","","key","f","16.667289256199055","640","356","./1_3_Stimuli/C_ambi40.png","他人","Word","他人","Match","f","true","Formal"
"","","","","","psychophysics","376","1159485","0.0-9.0-0.2-0.261","1136","","j","","","","","","","","","","","","","key","j","16.666845588234377","640","356","./1_3_Stimuli/T_ambi40.png","他人","Image","朋友","Mismatch","j","true","Formal"
"","","","","","psychophysics","377","1161692","0.0-9.0-0.2-0.262","1054","","f","","","","","","","","","","","","","key","f","16.666030534351144","640","356","./1_3_Stimuli/C_ambi40.png","他人","Image","他人","Match","f","true","Formal"
"","","","","","psychophysics","378","1163597","0.0-9.0-0.2-0.263","748","","j","","","","","","","","","","","","","key","j","16.66822321428585","640","356","./1_3_Stimuli/C_ambi40.png","朋友","Image","他人","Mismatch","j","true","Formal"
"","","","","","psychophysics","379","1165392","0.0-9.0-0.2-0.264","640","","f","","","","","","","","","","","","","key","f","16.66527358490429","640","356","./1_3_Stimuli/S_ambi40.png","自我","Image","自我","Match","f","true","Formal"
"","","","","","psychophysics","380","1167431","0.0-9.0-0.2-0.265","883","","j","","","","","","","","","","","","","key","j","16.665983471074643","640","356","./1_3_Stimuli/T_ambi40.png","他人","Word","朋友","Mismatch","j","true","Formal"
"","","","","","psychophysics","381","1169221","0.0-9.0-0.2-0.266","638","","f","","","","","","","","","","","","","key","f","16.666754716980922","640","356","./1_3_Stimuli/T_ambi40.png","朋友","Image","朋友","Match","f","true","Formal"
"","","","","","psychophysics","382","1171754","0.0-9.0-0.2-0.267","1381","","f","","","","","","","","","","","","","key","f","16.667926666666755","640","356","./1_3_Stimuli/C_ambi40.png","他人","Word","他人","Match","f","true","Formal"
"","","","","","psychophysics","383","1174092","0.0-9.0-0.2-0.268","1184","","f","","","","","","","","","","","","","key","f","16.66741007194258","640","356","./1_3_Stimuli/S_ambi40.png","自我","Word","自我","Match","f","true","Formal"
"","","","","","psychophysics","384","1176380","0.0-9.0-0.2-0.269","1132","","j","","","","","","","","","","","","","key","j","16.667303703704643","640","356","./1_3_Stimuli/C_ambi40.png","朋友","Image","他人","Mismatch","j","true","Formal"
"","","","","","psychophysics","385","1178715","0.0-9.0-0.2-0.270","1177","","f","","","","","","","","","","","","","key","f","16.666514492753986","640","356","./1_3_Stimuli/T_ambi40.png","朋友","Word","朋友","Match","f","true","Formal"
"","","","","","psychophysics","386","1180431","0.0-9.0-0.2-0.271","559","","f","","","","","","","","","","","","","key","f","16.667499999999634","640","356","./1_3_Stimuli/T_ambi40.png","朋友","Word","朋友","Match","f","true","Formal"
"","","","","","psychophysics","387","1182059","0.0-9.0-0.2-0.272","473","","f","","","","","","","","","","","","","key","f","16.66557291666686","640","356","./1_3_Stimuli/S_ambi40.png","自我","Word","自我","Match","f","true","Formal"
"","","","","","psychophysics","388","1183821","0.0-9.0-0.2-0.273","603","","j","","","","","","","","","","","","","key","j","16.6672019230766","640","356","./1_3_Stimuli/T_ambi40.png","自我","Image","朋友","Mismatch","j","true","Formal"
"","","","","","psychophysics","389","1185912","0.0-9.0-0.2-0.274","937","","j","","","","","","","","","","","","","key","j","16.666596774192108","640","356","./1_3_Stimuli/S_ambi40.png","他人","Image","自我","Mismatch","j","true","Formal"
"","","","","","psychophysics","390","1187784","0.0-9.0-0.2-0.275","718","","f","","","","","","","","","","","","","key","f","16.66751351351388","640","356","./1_3_Stimuli/S_ambi40.png","朋友","Image","自我","Mismatch","j","false","Formal"
"","","","","","psychophysics","391","1189738","0.0-9.0-0.2-0.276","800","","f","","","","","","","","","","","","","key","f","16.666999999998623","640","356","./1_3_Stimuli/T_ambi40.png","朋友","Image","朋友","Match","f","true","Formal"
"","","","","","psychophysics","392","1191489","0.0-9.0-0.2-0.277","597","","j","","","","","","","","","","","","","key","j","16.667485436894797","640","356","./1_3_Stimuli/S_ambi40.png","朋友","Word","自我","Mismatch","j","true","Formal"
"","","","","","psychophysics","393","1193645","0.0-9.0-0.2-0.278","1002","","j","","","","","","","","","","","","","key","j","16.66686614173259","640","356","./1_3_Stimuli/C_ambi40.png","自我","Image","他人","Mismatch","j","true","Formal"
"","","","","","psychophysics","394","1195458","0.0-9.0-0.2-0.279","656","","j","","","","","","","","","","","","","key","j","16.668130841121407","640","356","./1_3_Stimuli/T_ambi40.png","他人","Image","朋友","Mismatch","j","true","Formal"
"","","","","","psychophysics","395","1197252","0.0-9.0-0.2-0.280","637","","f","","","","","","","","","","","","","key","f","16.667038095239107","640","356","./1_3_Stimuli/S_ambi40.png","自我","Image","自我","Match","f","true","Formal"
"","","","","","psychophysics","396","1199220","0.0-9.0-0.2-0.281","815","","j","","","","","","","","","","","","","key","j","16.66652136752143","640","356","./1_3_Stimuli/C_ambi40.png","自我","Word","他人","Mismatch","j","true","Formal"
"","","","","","psychophysics","397","1201550","0.0-9.0-0.2-0.282","1177","","j","","","","","","","","","","","","","key","j","16.666644927536044","640","356","./1_3_Stimuli/C_ambi40.png","朋友","Word","他人","Mismatch","j","true","Formal"
"","","","","","psychophysics","398","1204254","0.0-9.0-0.2-0.283","null","","null","","","","","","","","","","","","","key","null","16.666732919254912","640","356","./1_3_Stimuli/C_ambi40.png","他人","Word","他人","Match","f","false","Formal"
"","","","","","psychophysics","399","1206966","0.0-9.0-0.2-0.284","null","","null","","","","","","","","","","","","","key","null","16.66703703703738","640","356","./1_3_Stimuli/C_ambi40.png","他人","Image","他人","Match","f","false","Formal"
"","","","","","psychophysics","400","1208737","0.0-9.0-0.2-0.285","616","","j","","","","","","","","","","","","","key","j","16.667019230770304","640","356","./1_3_Stimuli/S_ambi40.png","他人","Word","自我","Mismatch","j","true","Formal"
"","","","","","psychophysics","401","1211443","0.0-9.0-0.2-0.286","null","","null","","","","","","","","","","","","","key","null","16.667310559005703","640","356","./1_3_Stimuli/C_ambi40.png","他人","Image","他人","Match","f","false","Formal"
"","","","","","psychophysics","402","1213404","0.0-9.0-0.2-0.287","802","","j","","","","","","","","","","","","","key","j","16.66477586206948","640","356","./1_3_Stimuli/T_ambi40.png","自我","Word","朋友","Mismatch","j","true","Formal"
"","","","","","psychophysics","403","1216123","0.0-9.0-0.2-0.288","null","","null","","","","","","","","","","","","","key","null","16.669490683229455","640","356","./1_3_Stimuli/S_ambi40.png","他人","Image","自我","Mismatch","j","false","Formal"
"","","","","","psychophysics","404","1218834","0.0-9.0-0.2-0.289","null","","null","","","","","","","","","","","","","key","null","16.667366459627306","640","356","./1_3_Stimuli/S_ambi40.png","自我","Word","自我","Match","f","false","Formal"
"","","","","","psychophysics","405","1220995","0.0-9.0-0.2-0.290","1008","","j","","","","","","","","","","","","","key","j","16.667195312500553","640","356","./1_3_Stimuli/T_ambi40.png","自我","Image","朋友","Mismatch","j","true","Formal"
"","","","","","psychophysics","406","1222988","0.0-9.0-0.2-0.291","828","","j","","","","","","","","","","","","","key","j","16.667435897436615","640","356","./1_3_Stimuli/T_ambi40.png","他人","Image","朋友","Mismatch","j","true","Formal"
"","","","","","psychophysics","407","1224900","0.0-9.0-0.2-0.292","755","","f","","","","","","","","","","","","","key","f","16.666769911506236","640","356","./1_3_Stimuli/T_ambi40.png","朋友","Image","朋友","Match","f","true","Formal"
"","","","","","psychophysics","408","1226935","0.0-9.0-0.2-0.293","878","","f","","","","","","","","","","","","","key","f","16.667225000000325","640","356","./1_3_Stimuli/S_ambi40.png","自我","Image","自我","Match","f","true","Formal"
"","","","","","psychophysics","409","1228700","0.0-9.0-0.2-0.294","604","","j","","","","","","","","","","","","","key","j","16.668754901960675","640","356","./1_3_Stimuli/C_ambi40.png","自我","Word","他人","Mismatch","j","true","Formal"
"","","","","","psychophysics","410","1230837","0.0-9.0-0.2-0.295","975","","j","","","","","","","","","","","","","key","j","16.667291338583013","640","356","./1_3_Stimuli/C_ambi40.png","自我","Image","他人","Mismatch","j","true","Formal"
"","","","","","psychophysics","411","1233001","0.0-9.0-0.2-0.296","1001","","j","","","","","","","","","","","","","key","j","16.667335937499956","640","356","./1_3_Stimuli/S_ambi40.png","他人","Word","自我","Mismatch","j","true","Formal"
"","","","","","psychophysics","412","1234776","0.0-9.0-0.2-0.297","614","","f","","","","","","","","","","","","","key","f","16.667471153847426","640","356","./1_3_Stimuli/S_ambi40.png","自我","Image","自我","Match","f","true","Formal"
"","","","","","psychophysics","413","1236574","0.0-9.0-0.2-0.298","639","","f","","","","","","","","","","","","","key","f","16.666575471697076","640","356","./1_3_Stimuli/T_ambi40.png","朋友","Image","朋友","Match","f","true","Formal"
"","","","","","psychophysics","414","1238504","0.0-9.0-0.2-0.299","777","","f","","","","","","","","","","","","","key","f","16.666965217392324","640","356","./1_3_Stimuli/C_ambi40.png","他人","Image","他人","Match","f","true","Formal"
"","","","","","psychophysics","415","1240335","0.0-9.0-0.2-0.300","673","","j","","","","","","","","","","","","","key","j","16.667351851852057","640","356","./1_3_Stimuli/C_ambi40.png","朋友","Image","他人","Mismatch","j","true","Formal"
"","","","","","psychophysics","416","1242236","0.0-9.0-0.2-0.301","745","","j","","","","","","","","","","","","","key","j","16.666566371680773","640","356","./1_3_Stimuli/C_ambi40.png","朋友","Word","他人","Mismatch","j","true","Formal"
"","","","","","psychophysics","417","1244935","0.0-9.0-0.2-0.302","1540","","j","","","","","","","","","","","","","key","j","16.667180124223407","640","356","./1_3_Stimuli/S_ambi40.png","朋友","Word","自我","Mismatch","j","true","Formal"
"","","","","","psychophysics","418","1246817","0.0-9.0-0.2-0.303","721","","j","","","","","","","","","","","","","key","j","16.666054054052225","640","356","./1_3_Stimuli/S_ambi40.png","朋友","Image","自我","Mismatch","j","true","Formal"
"","","","","","psychophysics","419","1248619","0.0-9.0-0.2-0.304","637","","f","","","","","","","","","","","","","key","f","16.66608411214906","640","356","./1_3_Stimuli/T_ambi40.png","朋友","Word","朋友","Match","f","true","Formal"
"","","","","","psychophysics","420","1250500","0.0-9.0-0.2-0.305","721","","j","","","","","","","","","","","","","key","j","16.66516964285776","640","356","./1_3_Stimuli/T_ambi40.png","自我","Word","朋友","Mismatch","j","true","Formal"
