"success","timeout","failed_images","failed_audio","failed_video","trial_type","trial_index","time_elapsed","internal_node_id","rt","stimulus","response","value","item_width_mm","item_height_mm","item_width_px","px2mm","view_dist_mm","item_width_deg","px2deg","scale_factor","win_width_deg","win_height_deg","view_history","response_type","key_press","avg_frame_time","center_x","center_y","image","word","target","valence","matchness","correct_response","correct","exp_condition","question_order"
"true","false","[]","[]","[]","preload","0","915","0.0-0.0","","","","","","","","","","","","","","","","","","","","","","","","","","","","",""
"","","","","","html-keyboard-response","1","4970","0.0-1.0","4052","
     <p>您好，欢迎参加本次实验。</p>
     <p>为充分保障您的权利，请确保您已经知晓并同意《参与实验同意书》以及《数据公开知情同意书》。</p>
     <p>如果您未见过上述内容，请咨询实验员。</p>
     <p>如果您选择继续实验，则表示您已经清楚两份知情同意书的内容并同意。</p>
     <p> <div style = ""color: green""><按任意键至下页></div> </p>
     ","arrowright","","","","","","","","","","","","","","","","","","","","","","","","","",""
"","","","","","html-keyboard-response","2","6329","0.0-2.0-0.0","1358","
      <p>本实验首先需要您填写一些基本个人信息。</p>
      <p> <div style = ""color: green""><按任意键至下页></div></p>
      ","arrowright","","","","","","","","","","","","","","","","","","","","","","","","","",""
"","","","","","call-function","3","6331","0.0-2.0-1.0","","","","","","","","","","","","","","","","","","","","","","","","","","","","",""
"","","","","","survey-html-form","4","19918","0.0-2.0-2.0","13581","","{""Q0"":""1027""}","","","","","","","","","","","","","","","","","","","","","","","","","",""
"","","","","","html-button-response","5","21153","0.0-2.0-3.0","1233","<p style = 'color : white'>您的性别</p>","1","","","","","","","","","","","","","","","","","","","","","","","","","",""
"","","","","","survey-html-form","6","31269","0.0-2.0-4.0","10112","","{""Q0"":""2002""}","","","","","","","","","","","","","","","","","","","","","","","","","",""
"","","","","","survey-html-form","7","34953","0.0-2.0-5.0","3683","","{""Q0"":""5""}","","","","","","","","","","","","","","","","","","","","","","","","","",""
"","","","","","virtual-chinrest","8","182308","0.0-3.0","147351","","","","85.6","53.98","812.7693427740327","9.495334148754324","299.69","16.255386855480655","49.99999999999999","0.5118303288607884","28.800000000000004","16.060000000000002","","","","","","","","","","","","","","",""
"true","","","","","fullscreen","9","187696","0.0-4.0","","","","","","","","","","","","","","","","","","","","","","","","","","","","",""
"","","","","","instructions","10","274525","0.0-5.0","86820","","","","","","","","","","","","","","[{""page_index"":0,""viewing_time"":21824},{""page_index"":1,""viewing_time"":46715},{""page_index"":2,""viewing_time"":10582},{""page_index"":3,""viewing_time"":7699}]","","","","","","","","","","","","","",""
"","","","","","html-keyboard-response","11","278178","0.0-6.0","null","<count-down title=""""></count-down>","null","","","","","","","","","","","","","","","","","","","","","","","","","",""
"","","","","","psychophysics","12","280900","0.0-7.0-0.0-0.0","null","","null","","","","","","","","","","","","","key","null","33.96545569620189","720","476","./1_3_Stimuli/C_ambi40.png","自我","Image","自我","Match","j","false","Practice",""
"","","","","","html-keyboard-response","13","281204","0.0-7.0-0.0-1.0","null","<span class='add_' style='color:yellow; font-size: 70px;'> 太慢! </span>","null","","","","","","","","","","","","","","","","","","","","","","","","","feedback",""
"","","","","","psychophysics","14","283735","0.0-7.0-0.0-0.1","1378","","f","","","","","","","","","","","","","key","f","33.33371999999974","720","476","./1_3_Stimuli/S_ambi40.png","他人","Word","他人","Match","j","false","Practice",""
"","","","","","html-keyboard-response","15","284038","0.0-7.0-0.0-1.1","null","<span style='color:red; font-size: 70px;'>错误! </span>","null","","","","","","","","","","","","","","","","","","","","","","","","","feedback",""
"","","","","","psychophysics","16","286745","0.0-7.0-0.0-0.2","null","","null","","","","","","","","","","","","","key","null","33.33428749999948","720","476","./1_3_Stimuli/T_ambi40.png","朋友","Word","朋友","Match","j","false","Practice",""
"","","","","","html-keyboard-response","17","287047","0.0-7.0-0.0-1.2","null","<span class='add_' style='color:yellow; font-size: 70px;'> 太慢! </span>","null","","","","","","","","","","","","","","","","","","","","","","","","","feedback",""
"","","","","","psychophysics","18","289753","0.0-7.0-0.0-0.3","null","","null","","","","","","","","","","","","","key","null","33.33068749999948","720","476","./1_3_Stimuli/S_ambi40.png","自我","Image","他人","Mismatch","f","false","Practice",""
"","","","","","html-keyboard-response","19","290055","0.0-7.0-0.0-1.3","null","<span class='add_' style='color:yellow; font-size: 70px;'> 太慢! </span>","null","","","","","","","","","","","","","","","","","","","","","","","","","feedback",""
"","","","","","psychophysics","20","292766","0.0-7.0-0.0-0.4","null","","null","","","","","","","","","","","","","key","null","33.3325499999999","720","476","./1_3_Stimuli/S_ambi40.png","朋友","Word","他人","Mismatch","f","false","Practice",""
"","","","","","html-keyboard-response","21","293068","0.0-7.0-0.0-1.4","null","<span class='add_' style='color:yellow; font-size: 70px;'> 太慢! </span>","null","","","","","","","","","","","","","","","","","","","","","","","","","feedback",""
"","","","","","psychophysics","22","295774","0.0-7.0-0.0-0.5","null","","null","","","","","","","","","","","","","key","null","33.33323750000054","720","476","./1_3_Stimuli/C_ambi40.png","他人","Image","自我","Mismatch","f","false","Practice",""
"","","","","","html-keyboard-response","23","296076","0.0-7.0-0.0-1.5","null","<span class='add_' style='color:yellow; font-size: 70px;'> 太慢! </span>","null","","","","","","","","","","","","","","","","","","","","","","","","","feedback",""
"","","","","","psychophysics","24","298046","0.0-7.0-0.0-0.6","816","","j","","","","","","","","","","","","","key","j","33.32949999999958","720","476","./1_3_Stimuli/T_ambi40.png","他人","Image","朋友","Mismatch","f","false","Practice",""
"","","","","","html-keyboard-response","25","298349","0.0-7.0-0.0-1.6","null","<span style='color:red; font-size: 70px;'>错误! </span>","null","","","","","","","","","","","","","","","","","","","","","","","","","feedback",""
"","","","","","psychophysics","26","300449","0.0-7.0-0.0-0.7","948","","f","","","","","","","","","","","","","key","f","33.33025806451652","720","476","./1_3_Stimuli/T_ambi40.png","他人","Word","朋友","Mismatch","f","true","Practice",""
"","","","","","html-keyboard-response","27","300753","0.0-7.0-0.0-1.7","null","<span style='color:GreenYellow; font-size: 70px;'>正确! </span>","null","","","","","","","","","","","","","","","","","","","","","","","","","feedback",""
"","","","","","psychophysics","28","303465","0.0-7.0-0.0-0.8","null","","null","","","","","","","","","","","","","key","null","33.331424999999584","720","476","./1_3_Stimuli/C_ambi40.png","他人","Word","自我","Mismatch","f","false","Practice",""
"","","","","","html-keyboard-response","29","303768","0.0-7.0-0.0-1.8","null","<span class='add_' style='color:yellow; font-size: 70px;'> 太慢! </span>","null","","","","","","","","","","","","","","","","","","","","","","","","","feedback",""
"","","","","","psychophysics","30","305789","0.0-7.0-0.0-0.9","868","","f","","","","","","","","","","","","","key","f","33.329813559321586","720","476","./1_3_Stimuli/S_ambi40.png","自我","Word","他人","Mismatch","f","true","Practice",""
"","","","","","html-keyboard-response","31","306091","0.0-7.0-0.0-1.9","null","<span style='color:GreenYellow; font-size: 70px;'>正确! </span>","null","","","","","","","","","","","","","","","","","","","","","","","","","feedback",""
"","","","","","psychophysics","32","308060","0.0-7.0-0.0-0.10","816","","j","","","","","","","","","","","","","key","j","33.3320689655174","720","476","./1_3_Stimuli/T_ambi40.png","朋友","Image","朋友","Match","j","true","Practice",""
"","","","","","html-keyboard-response","33","308363","0.0-7.0-0.0-1.10","null","<span style='color:GreenYellow; font-size: 70px;'>正确! </span>","null","","","","","","","","","","","","","","","","","","","","","","","","","feedback",""
"","","","","","psychophysics","34","310144","0.0-7.0-0.0-0.11","628","","j","","","","","","","","","","","","","key","j","33.334249999999884","720","476","./1_3_Stimuli/T_ambi40.png","朋友","Image","朋友","Match","j","true","Practice",""
"","","","","","html-keyboard-response","35","310447","0.0-7.0-0.0-1.11","null","<span style='color:GreenYellow; font-size: 70px;'>正确! </span>","null","","","","","","","","","","","","","","","","","","","","","","","","","feedback",""
"","","","","","psychophysics","36","312107","0.0-7.0-0.0-0.12","508","","f","","","","","","","","","","","","","key","f","33.33310416666669","720","476","./1_3_Stimuli/S_ambi40.png","他人","Image","他人","Match","j","false","Practice",""
"","","","","","html-keyboard-response","37","312408","0.0-7.0-0.0-1.12","null","<span style='color:red; font-size: 70px;'>错误! </span>","null","","","","","","","","","","","","","","","","","","","","","","","","","feedback",""
"","","","","","psychophysics","38","314399","0.0-7.0-0.0-0.13","838","","f","","","","","","","","","","","","","key","f","33.33215254237303","720","476","./1_3_Stimuli/S_ambi40.png","他人","Image","他人","Match","j","false","Practice",""
"","","","","","html-keyboard-response","39","314700","0.0-7.0-0.0-1.13","null","<span style='color:red; font-size: 70px;'>错误! </span>","null","","","","","","","","","","","","","","","","","","","","","","","","","feedback",""
"","","","","","psychophysics","40","316557","0.0-7.0-0.0-0.14","704","","j","","","","","","","","","","","","","key","j","33.33431481481508","720","476","./1_3_Stimuli/T_ambi40.png","朋友","Word","朋友","Match","j","true","Practice",""
"","","","","","html-keyboard-response","41","316859","0.0-7.0-0.0-1.14","null","<span style='color:GreenYellow; font-size: 70px;'>正确! </span>","null","","","","","","","","","","","","","","","","","","","","","","","","","feedback",""
"","","","","","psychophysics","42","318694","0.0-7.0-0.0-0.15","682","","f","","","","","","","","","","","","","key","f","33.33227777777723","720","476","./1_3_Stimuli/T_ambi40.png","自我","Word","朋友","Mismatch","f","true","Practice",""
"","","","","","html-keyboard-response","43","318997","0.0-7.0-0.0-1.15","null","<span style='color:GreenYellow; font-size: 70px;'>正确! </span>","null","","","","","","","","","","","","","","","","","","","","","","","","","feedback",""
"","","","","","psychophysics","44","320886","0.0-7.0-0.0-0.16","737","","j","","","","","","","","","","","","","key","j","33.33098181818231","720","476","./1_3_Stimuli/C_ambi40.png","朋友","Word","自我","Mismatch","f","false","Practice",""
"","","","","","html-keyboard-response","45","321189","0.0-7.0-0.0-1.16","null","<span style='color:red; font-size: 70px;'>错误! </span>","null","","","","","","","","","","","","","","","","","","","","","","","","","feedback",""
"","","","","","psychophysics","46","323895","0.0-7.0-0.0-0.17","null","","null","","","","","","","","","","","","","key","null","33.334375","720","476","./1_3_Stimuli/C_ambi40.png","自我","Image","自我","Match","j","false","Practice",""
"","","","","","html-keyboard-response","47","324197","0.0-7.0-0.0-1.17","null","<span class='add_' style='color:yellow; font-size: 70px;'> 太慢! </span>","null","","","","","","","","","","","","","","","","","","","","","","","","","feedback",""
"","","","","","psychophysics","48","326181","0.0-7.0-0.0-0.18","831","","j","","","","","","","","","","","","","key","j","33.33131034482684","720","476","./1_3_Stimuli/T_ambi40.png","自我","Image","朋友","Mismatch","f","false","Practice",""
"","","","","","html-keyboard-response","49","326484","0.0-7.0-0.0-1.18","null","<span style='color:red; font-size: 70px;'>错误! </span>","null","","","","","","","","","","","","","","","","","","","","","","","","","feedback",""
"","","","","","psychophysics","50","329190","0.0-7.0-0.0-0.19","null","","null","","","","","","","","","","","","","key","null","33.33240000000005","720","476","./1_3_Stimuli/S_ambi40.png","他人","Word","他人","Match","j","false","Practice",""
"","","","","","html-keyboard-response","51","329492","0.0-7.0-0.0-1.19","null","<span class='add_' style='color:yellow; font-size: 70px;'> 太慢! </span>","null","","","","","","","","","","","","","","","","","","","","","","","","","feedback",""
"","","","","","psychophysics","52","331400","0.0-7.0-0.0-0.20","755","","j","","","","","","","","","","","","","key","j","33.330482142856845","720","476","./1_3_Stimuli/S_ambi40.png","朋友","Image","他人","Mismatch","f","false","Practice",""
"","","","","","html-keyboard-response","53","331702","0.0-7.0-0.0-1.20","null","<span style='color:red; font-size: 70px;'>错误! </span>","null","","","","","","","","","","","","","","","","","","","","","","","","","feedback",""
"","","","","","psychophysics","54","333843","0.0-7.0-0.0-0.21","989","","j","","","","","","","","","","","","","key","j","33.32926984126901","720","476","./1_3_Stimuli/C_ambi40.png","自我","Word","自我","Match","j","true","Practice",""
"","","","","","html-keyboard-response","55","334145","0.0-7.0-0.0-1.21","null","<span style='color:GreenYellow; font-size: 70px;'>正确! </span>","null","","","","","","","","","","","","","","","","","","","","","","","","","feedback",""
"","","","","","psychophysics","56","335887","0.0-7.0-0.0-0.22","588","","j","","","","","","","","","","","","","key","j","33.3275294117641","720","476","./1_3_Stimuli/C_ambi40.png","自我","Word","自我","Match","j","true","Practice",""
"","","","","","html-keyboard-response","57","336188","0.0-7.0-0.0-1.22","null","<span style='color:GreenYellow; font-size: 70px;'>正确! </span>","null","","","","","","","","","","","","","","","","","","","","","","","","","feedback",""
"","","","","","psychophysics","58","337872","0.0-7.0-0.0-0.23","532","","f","","","","","","","","","","","","","key","f","33.332346938776176","720","476","./1_3_Stimuli/C_ambi40.png","朋友","Image","自我","Mismatch","f","true","Practice",""
"","","","","","html-keyboard-response","59","338174","0.0-7.0-0.0-1.23","null","<span style='color:GreenYellow; font-size: 70px;'>正确! </span>","null","","","","","","","","","","","","","","","","","","","","","","","","","feedback",""
"","","","","","html-keyboard-response","60","348590","0.0-7.0-1.0-0.0","10409","<style>.context{color:white; font-size: 35px; line-height:40px}</style>                        <div><p class='context'>您正确回答了38% 的试次。</p><p class='context'>您的平均反应时为751毫秒。</p><p> <div style = 'color: green'><按空格键至下页></div></p>"," ","","","","","","","","","","","","","","","","","","","","","","","","","",""
"","","","","","instructions","61","408148","0.0-7.0-1.0-1.0","59547","","","","","","","","","","","","","","[{""page_index"":0,""viewing_time"":4380},{""page_index"":1,""viewing_time"":51146},{""page_index"":2,""viewing_time"":4020}]","","","","","","","","","","","","","",""
"","","","","","psychophysics","62","409903","0.0-7.1-0.1-0.24","600","","f","","","","","","","","","","","","","key","f","33.33405769230852","720","476","./1_3_Stimuli/S_ambi40.png","朋友","Word","他人","Mismatch","f","true","Practice",""
"","","","","","html-keyboard-response","63","410205","0.0-7.1-0.1-1.24","null","<span style='color:GreenYellow; font-size: 70px;'>正确! </span>","null","","","","","","","","","","","","","","","","","","","","","","","","","feedback",""
"","","","","","psychophysics","64","412123","0.0-7.1-0.1-0.25","764","","j","","","","","","","","","","","","","key","j","33.332249999999476","720","476","./1_3_Stimuli/T_ambi40.png","朋友","Image","朋友","Match","j","true","Practice",""
"","","","","","html-keyboard-response","65","412425","0.0-7.1-0.1-1.25","null","<span style='color:GreenYellow; font-size: 70px;'>正确! </span>","null","","","","","","","","","","","","","","","","","","","","","","","","","feedback",""
"","","","","","psychophysics","66","414156","0.0-7.1-0.1-0.26","578","","f","","","","","","","","","","","","","key","f","33.32203921568625","720","476","./1_3_Stimuli/S_ambi40.png","自我","Word","他人","Mismatch","f","true","Practice",""
"","","","","","html-keyboard-response","67","414457","0.0-7.1-0.1-1.26","null","<span style='color:GreenYellow; font-size: 70px;'>正确! </span>","null","","","","","","","","","","","","","","","","","","","","","","","","","feedback",""
"","","","","","psychophysics","68","416140","0.0-7.1-0.1-0.27","530","","j","","","","","","","","","","","","","key","j","33.332918367347425","720","476","./1_3_Stimuli/C_ambi40.png","朋友","Image","自我","Mismatch","f","false","Practice",""
"","","","","","html-keyboard-response","69","416443","0.0-7.1-0.1-1.27","null","<span style='color:red; font-size: 70px;'>错误! </span>","null","","","","","","","","","","","","","","","","","","","","","","","","","feedback",""
"","","","","","psychophysics","70","418077","0.0-7.1-0.1-0.28","481","","j","","","","","","","","","","","","","key","j","33.332234042554234","720","476","./1_3_Stimuli/C_ambi40.png","自我","Image","自我","Match","j","true","Practice",""
"","","","","","html-keyboard-response","71","418380","0.0-7.1-0.1-1.28","null","<span style='color:GreenYellow; font-size: 70px;'>正确! </span>","null","","","","","","","","","","","","","","","","","","","","","","","","","feedback",""
"","","","","","psychophysics","72","420036","0.0-7.1-0.1-0.29","504","","j","","","","","","","","","","","","","key","j","33.33206249999906","720","476","./1_3_Stimuli/C_ambi40.png","自我","Word","自我","Match","j","true","Practice",""
"","","","","","html-keyboard-response","73","420339","0.0-7.1-0.1-1.29","null","<span style='color:GreenYellow; font-size: 70px;'>正确! </span>","null","","","","","","","","","","","","","","","","","","","","","","","","","feedback",""
"","","","","","psychophysics","74","421899","0.0-7.1-0.1-0.30","408","","j","","","","","","","","","","","","","key","j","33.33308695652143","720","476","./1_3_Stimuli/C_ambi40.png","自我","Image","自我","Match","j","true","Practice",""
"","","","","","html-keyboard-response","75","422201","0.0-7.1-0.1-1.30","null","<span style='color:GreenYellow; font-size: 70px;'>正确! </span>","null","","","","","","","","","","","","","","","","","","","","","","","","","feedback",""
"","","","","","psychophysics","76","423593","0.0-7.1-0.1-0.31","238","","j","","","","","","","","","","","","","key","j","33.32905000000028","720","476","./1_3_Stimuli/T_ambi40.png","自我","Word","朋友","Mismatch","f","false","Practice",""
"","","","","","html-keyboard-response","77","423894","0.0-7.1-0.1-1.31","null","<span style='color:red; font-size: 70px;'>错误! </span>","null","","","","","","","","","","","","","","","","","","","","","","","","","feedback",""
"","","","","","psychophysics","78","425573","0.0-7.1-0.1-0.32","525","","f","","","","","","","","","","","","","key","f","33.33159183673394","720","476","./1_3_Stimuli/S_ambi40.png","朋友","Image","他人","Mismatch","f","true","Practice",""
"","","","","","html-keyboard-response","79","425875","0.0-7.1-0.1-1.32","null","<span style='color:GreenYellow; font-size: 70px;'>正确! </span>","null","","","","","","","","","","","","","","","","","","","","","","","","","feedback",""
"","","","","","psychophysics","80","427589","0.0-7.1-0.1-0.33","560","","f","","","","","","","","","","","","","key","f","33.321819999999136","720","476","./1_3_Stimuli/T_ambi40.png","朋友","Word","朋友","Match","j","false","Practice",""
"","","","","","html-keyboard-response","81","427891","0.0-7.1-0.1-1.33","null","<span style='color:red; font-size: 70px;'>错误! </span>","null","","","","","","","","","","","","","","","","","","","","","","","","","feedback",""
"","","","","","psychophysics","82","429516","0.0-7.1-0.1-0.34","473","","j","","","","","","","","","","","","","key","j","33.331833333333634","720","476","./1_3_Stimuli/S_ambi40.png","他人","Image","他人","Match","j","true","Practice",""
"","","","","","html-keyboard-response","83","429818","0.0-7.1-0.1-1.34","null","<span style='color:GreenYellow; font-size: 70px;'>正确! </span>","null","","","","","","","","","","","","","","","","","","","","","","","","","feedback",""
"","","","","","psychophysics","84","431495","0.0-7.1-0.1-0.35","523","","j","","","","","","","","","","","","","key","j","33.33299999999961","720","476","./1_3_Stimuli/C_ambi40.png","自我","Word","自我","Match","j","true","Practice",""
"","","","","","html-keyboard-response","85","431796","0.0-7.1-0.1-1.35","null","<span style='color:GreenYellow; font-size: 70px;'>正确! </span>","null","","","","","","","","","","","","","","","","","","","","","","","","","feedback",""
"","","","","","psychophysics","86","433398","0.0-7.1-0.1-0.36","449","","f","","","","","","","","","","","","","key","f","33.330510638297554","720","476","./1_3_Stimuli/T_ambi40.png","朋友","Word","朋友","Match","j","false","Practice",""
"","","","","","html-keyboard-response","87","433700","0.0-7.1-0.1-1.36","null","<span style='color:red; font-size: 70px;'>错误! </span>","null","","","","","","","","","","","","","","","","","","","","","","","","","feedback",""
"","","","","","psychophysics","88","435467","0.0-7.1-0.1-0.37","614","","j","","","","","","","","","","","","","key","j","33.33451923076959","720","476","./1_3_Stimuli/S_ambi40.png","他人","Word","他人","Match","j","true","Practice",""
"","","","","","html-keyboard-response","89","435769","0.0-7.1-0.1-1.37","null","<span style='color:GreenYellow; font-size: 70px;'>正确! </span>","null","","","","","","","","","","","","","","","","","","","","","","","","","feedback",""
"","","","","","psychophysics","90","437452","0.0-7.1-0.1-0.38","530","","j","","","","","","","","","","","","","key","j","33.3339591836735","720","476","./1_3_Stimuli/S_ambi40.png","他人","Word","他人","Match","j","true","Practice",""
"","","","","","html-keyboard-response","91","437754","0.0-7.1-0.1-1.38","null","<span style='color:GreenYellow; font-size: 70px;'>正确! </span>","null","","","","","","","","","","","","","","","","","","","","","","","","","feedback",""
"","","","","","psychophysics","92","439445","0.0-7.1-0.1-0.39","538","","f","","","","","","","","","","","","","key","f","33.33027999999933","720","476","./1_3_Stimuli/S_ambi40.png","自我","Image","他人","Mismatch","f","true","Practice",""
"","","","","","html-keyboard-response","93","439747","0.0-7.1-0.1-1.39","null","<span style='color:GreenYellow; font-size: 70px;'>正确! </span>","null","","","","","","","","","","","","","","","","","","","","","","","","","feedback",""
"","","","","","psychophysics","94","441609","0.0-7.1-0.1-0.40","708","","j","","","","","","","","","","","","","key","j","33.332037037036905","720","476","./1_3_Stimuli/S_ambi40.png","他人","Image","他人","Match","j","true","Practice",""
"","","","","","html-keyboard-response","95","441912","0.0-7.1-0.1-1.40","null","<span style='color:GreenYellow; font-size: 70px;'>正确! </span>","null","","","","","","","","","","","","","","","","","","","","","","","","","feedback",""
"","","","","","psychophysics","96","443451","0.0-7.1-0.1-0.41","387","","j","","","","","","","","","","","","","key","j","33.33328888888936","720","476","./1_3_Stimuli/T_ambi40.png","朋友","Image","朋友","Match","j","true","Practice",""
"","","","","","html-keyboard-response","97","443753","0.0-7.1-0.1-1.41","null","<span style='color:GreenYellow; font-size: 70px;'>正确! </span>","null","","","","","","","","","","","","","","","","","","","","","","","","","feedback",""
"","","","","","psychophysics","98","445369","0.0-7.1-0.1-0.42","463","","f","","","","","","","","","","","","","key","f","33.33302127659579","720","476","./1_3_Stimuli/T_ambi40.png","他人","Image","朋友","Mismatch","f","true","Practice",""
"","","","","","html-keyboard-response","99","445671","0.0-7.1-0.1-1.42","null","<span style='color:GreenYellow; font-size: 70px;'>正确! </span>","null","","","","","","","","","","","","","","","","","","","","","","","","","feedback",""
"","","","","","psychophysics","100","447278","0.0-7.1-0.1-0.43","454","","j","","","","","","","","","","","","","key","j","33.33217021276644","720","476","./1_3_Stimuli/C_ambi40.png","朋友","Word","自我","Mismatch","f","false","Practice",""
"","","","","","html-keyboard-response","101","447579","0.0-7.1-0.1-1.43","null","<span style='color:red; font-size: 70px;'>错误! </span>","null","","","","","","","","","","","","","","","","","","","","","","","","","feedback",""
"","","","","","psychophysics","102","449203","0.0-7.1-0.1-0.44","469","","j","","","","","","","","","","","","","key","j","33.32512765957483","720","476","./1_3_Stimuli/T_ambi40.png","自我","Image","朋友","Mismatch","f","false","Practice",""
"","","","","","html-keyboard-response","103","449504","0.0-7.1-0.1-1.44","null","<span style='color:red; font-size: 70px;'>错误! </span>","null","","","","","","","","","","","","","","","","","","","","","","","","","feedback",""
"","","","","","psychophysics","104","451328","0.0-7.1-0.1-0.45","672","","f","","","","","","","","","","","","","key","f","33.33105555555516","720","476","./1_3_Stimuli/C_ambi40.png","他人","Word","自我","Mismatch","f","true","Practice",""
"","","","","","html-keyboard-response","105","451629","0.0-7.1-0.1-1.45","null","<span style='color:GreenYellow; font-size: 70px;'>正确! </span>","null","","","","","","","","","","","","","","","","","","","","","","","","","feedback",""
"","","","","","psychophysics","106","453509","0.0-7.1-0.1-0.46","727","","j","","","","","","","","","","","","","key","j","33.331690909090156","720","476","./1_3_Stimuli/T_ambi40.png","他人","Word","朋友","Mismatch","f","false","Practice",""
"","","","","","html-keyboard-response","107","453810","0.0-7.1-0.1-1.46","null","<span style='color:red; font-size: 70px;'>错误! </span>","null","","","","","","","","","","","","","","","","","","","","","","","","","feedback",""
"","","","","","psychophysics","108","455409","0.0-7.1-0.1-0.47","446","","j","","","","","","","","","","","","","key","j","33.32863043478321","720","476","./1_3_Stimuli/C_ambi40.png","他人","Image","自我","Mismatch","f","false","Practice",""
"","","","","","html-keyboard-response","109","455711","0.0-7.1-0.1-1.47","null","<span style='color:red; font-size: 70px;'>错误! </span>","null","","","","","","","","","","","","","","","","","","","","","","","","","feedback",""
"","","","","","html-keyboard-response","110","465848","0.0-7.1-1.1-0.1","10130","<style>.context{color:white; font-size: 35px; line-height:40px}</style>                        <div><p class='context'>您正确回答了67% 的试次。</p><p class='context'>您的平均反应时为548毫秒。</p><p> <div style = 'color: green'><按空格键至下页></div></p>"," ","","","","","","","","","","","","","","","","","","","","","","","","","",""
"","","","","","instructions","111","491055","0.0-7.1-1.1-1.1","25201","","","","","","","","","","","","","","[{""page_index"":0,""viewing_time"":2241},{""page_index"":1,""viewing_time"":9968},{""page_index"":2,""viewing_time"":12992}]","","","","","","","","","","","","","",""
"","","","","","psychophysics","112","492926","0.0-7.2-0.2-0.48","719","","f","","","","","","","","","","","","","key","f","33.33336363636402","720","476","./1_3_Stimuli/C_ambi40.png","自我","Image","自我","Match","j","false","Practice",""
"","","","","","html-keyboard-response","113","493229","0.0-7.2-0.2-1.48","null","<span style='color:red; font-size: 70px;'>错误! </span>","null","","","","","","","","","","","","","","","","","","","","","","","","","feedback",""
"","","","","","psychophysics","114","495000","0.0-7.2-0.2-0.49","619","","f","","","","","","","","","","","","","key","f","33.32846153846185","720","476","./1_3_Stimuli/T_ambi40.png","他人","Image","朋友","Mismatch","f","true","Practice",""
"","","","","","html-keyboard-response","115","495302","0.0-7.2-0.2-1.49","null","<span style='color:GreenYellow; font-size: 70px;'>正确! </span>","null","","","","","","","","","","","","","","","","","","","","","","","","","feedback",""
"","","","","","psychophysics","116","497118","0.0-7.2-0.2-0.50","663","","f","","","","","","","","","","","","","key","f","33.33243396226427","720","476","./1_3_Stimuli/S_ambi40.png","他人","Image","他人","Match","j","false","Practice",""
"","","","","","html-keyboard-response","117","497420","0.0-7.2-0.2-1.50","null","<span style='color:red; font-size: 70px;'>错误! </span>","null","","","","","","","","","","","","","","","","","","","","","","","","","feedback",""
"","","","","","psychophysics","118","499198","0.0-7.2-0.2-0.51","625","","j","","","","","","","","","","","","","key","j","33.33171153846175","720","476","./1_3_Stimuli/C_ambi40.png","他人","Word","自我","Mismatch","f","false","Practice",""
"","","","","","html-keyboard-response","119","499500","0.0-7.2-0.2-1.51","null","<span style='color:red; font-size: 70px;'>错误! </span>","null","","","","","","","","","","","","","","","","","","","","","","","","","feedback",""
"","","","","","psychophysics","120","501246","0.0-7.2-0.2-0.52","594","","f","","","","","","","","","","","","","key","f","33.3300588235291","720","476","./1_3_Stimuli/S_ambi40.png","自我","Word","他人","Mismatch","f","true","Practice",""
"","","","","","html-keyboard-response","121","501548","0.0-7.2-0.2-1.52","null","<span style='color:GreenYellow; font-size: 70px;'>正确! </span>","null","","","","","","","","","","","","","","","","","","","","","","","","","feedback",""
"","","","","","psychophysics","122","503154","0.0-7.2-0.2-0.53","454","","j","","","","","","","","","","","","","key","j","33.33110638297822","720","476","./1_3_Stimuli/T_ambi40.png","朋友","Image","朋友","Match","j","true","Practice",""
"","","","","","html-keyboard-response","123","503456","0.0-7.2-0.2-1.53","null","<span style='color:GreenYellow; font-size: 70px;'>正确! </span>","null","","","","","","","","","","","","","","","","","","","","","","","","","feedback",""
"","","","","","psychophysics","124","505070","0.0-7.2-0.2-0.54","462","","f","","","","","","","","","","","","","key","f","33.331000000000635","720","476","./1_3_Stimuli/S_ambi40.png","他人","Word","他人","Match","j","false","Practice",""
"","","","","","html-keyboard-response","125","505372","0.0-7.2-0.2-1.54","null","<span style='color:red; font-size: 70px;'>错误! </span>","null","","","","","","","","","","","","","","","","","","","","","","","","","feedback",""
"","","","","","psychophysics","126","507131","0.0-7.2-0.2-0.55","607","","j","","","","","","","","","","","","","key","j","33.32167307692334","720","476","./1_3_Stimuli/T_ambi40.png","自我","Word","朋友","Mismatch","f","false","Practice",""
"","","","","","html-keyboard-response","127","507432","0.0-7.2-0.2-1.55","null","<span style='color:red; font-size: 70px;'>错误! </span>","null","","","","","","","","","","","","","","","","","","","","","","","","","feedback",""
"","","","","","psychophysics","128","509161","0.0-7.2-0.2-0.56","577","","j","","","","","","","","","","","","","key","j","33.326411764705824","720","476","./1_3_Stimuli/S_ambi40.png","他人","Image","他人","Match","j","true","Practice",""
"","","","","","html-keyboard-response","129","509463","0.0-7.2-0.2-1.56","null","<span style='color:GreenYellow; font-size: 70px;'>正确! </span>","null","","","","","","","","","","","","","","","","","","","","","","","","","feedback",""
"","","","","","psychophysics","130","511152","0.0-7.2-0.2-0.57","537","","f","","","","","","","","","","","","","key","f","33.335979591836505","720","476","./1_3_Stimuli/C_ambi40.png","自我","Word","自我","Match","j","false","Practice",""
"","","","","","html-keyboard-response","131","511454","0.0-7.2-0.2-1.57","null","<span style='color:red; font-size: 70px;'>错误! </span>","null","","","","","","","","","","","","","","","","","","","","","","","","","feedback",""
"","","","","","psychophysics","132","513744","0.0-7.2-0.2-0.58","1138","","j","","","","","","","","","","","","","key","j","33.33369117647047","720","476","./1_3_Stimuli/C_ambi40.png","朋友","Image","自我","Mismatch","f","false","Practice",""
"","","","","","html-keyboard-response","133","514047","0.0-7.2-0.2-1.58","null","<span style='color:red; font-size: 70px;'>错误! </span>","null","","","","","","","","","","","","","","","","","","","","","","","","","feedback",""
"","","","","","psychophysics","134","515962","0.0-7.2-0.2-0.59","763","","f","","","","","","","","","","","","","key","f","33.33124999999979","720","476","./1_3_Stimuli/S_ambi40.png","自我","Image","他人","Mismatch","f","true","Practice",""
"","","","","","html-keyboard-response","135","516264","0.0-7.2-0.2-1.59","null","<span style='color:GreenYellow; font-size: 70px;'>正确! </span>","null","","","","","","","","","","","","","","","","","","","","","","","","","feedback",""
"","","","","","psychophysics","136","518204","0.0-7.2-0.2-0.60","788","","f","","","","","","","","","","","","","key","f","33.33221052631556","720","476","./1_3_Stimuli/T_ambi40.png","自我","Image","朋友","Mismatch","f","true","Practice",""
"","","","","","html-keyboard-response","137","518507","0.0-7.2-0.2-1.60","null","<span style='color:GreenYellow; font-size: 70px;'>正确! </span>","null","","","","","","","","","","","","","","","","","","","","","","","","","feedback",""
"","","","","","psychophysics","138","520490","0.0-7.2-0.2-0.61","830","","f","","","","","","","","","","","","","key","f","33.33258620689619","720","476","./1_3_Stimuli/S_ambi40.png","朋友","Image","他人","Mismatch","f","true","Practice",""
"","","","","","html-keyboard-response","139","520792","0.0-7.2-0.2-1.61","null","<span style='color:GreenYellow; font-size: 70px;'>正确! </span>","null","","","","","","","","","","","","","","","","","","","","","","","","","feedback",""
"","","","","","psychophysics","140","522632","0.0-7.2-0.2-0.62","688","","f","","","","","","","","","","","","","key","f","33.331314814815954","720","476","./1_3_Stimuli/S_ambi40.png","他人","Word","他人","Match","j","false","Practice",""
"","","","","","html-keyboard-response","141","522934","0.0-7.2-0.2-1.62","null","<span style='color:red; font-size: 70px;'>错误! </span>","null","","","","","","","","","","","","","","","","","","","","","","","","","feedback",""
"","","","","","psychophysics","142","524958","0.0-7.2-0.2-0.63","871","","j","","","","","","","","","","","","","key","j","33.332316666666884","720","476","./1_3_Stimuli/T_ambi40.png","朋友","Word","朋友","Match","j","true","Practice",""
"","","","","","html-keyboard-response","143","525261","0.0-7.2-0.2-1.63","null","<span style='color:GreenYellow; font-size: 70px;'>正确! </span>","null","","","","","","","","","","","","","","","","","","","","","","","","","feedback",""
"","","","","","psychophysics","144","527050","0.0-7.2-0.2-0.64","638","","j","","","","","","","","","","","","","key","j","33.32961538461565","720","476","./1_3_Stimuli/C_ambi40.png","自我","Word","自我","Match","j","true","Practice",""
"","","","","","html-keyboard-response","145","527352","0.0-7.2-0.2-1.64","null","<span style='color:GreenYellow; font-size: 70px;'>正确! </span>","null","","","","","","","","","","","","","","","","","","","","","","","","","feedback",""
"","","","","","psychophysics","146","529316","0.0-7.2-0.2-0.65","810","","j","","","","","","","","","","","","","key","j","33.33372413792952","720","476","./1_3_Stimuli/T_ambi40.png","朋友","Word","朋友","Match","j","true","Practice",""
"","","","","","html-keyboard-response","147","529618","0.0-7.2-0.2-1.65","null","<span style='color:GreenYellow; font-size: 70px;'>正确! </span>","null","","","","","","","","","","","","","","","","","","","","","","","","","feedback",""
"","","","","","psychophysics","148","531406","0.0-7.2-0.2-0.66","635","","f","","","","","","","","","","","","","key","f","33.33263461538501","720","476","./1_3_Stimuli/T_ambi40.png","他人","Word","朋友","Mismatch","f","true","Practice",""
"","","","","","html-keyboard-response","149","531707","0.0-7.2-0.2-1.66","null","<span style='color:GreenYellow; font-size: 70px;'>正确! </span>","null","","","","","","","","","","","","","","","","","","","","","","","","","feedback",""
"","","","","","psychophysics","150","533493","0.0-7.2-0.2-0.67","633","","j","","","","","","","","","","","","","key","j","33.33438461538306","720","476","./1_3_Stimuli/C_ambi40.png","自我","Image","自我","Match","j","true","Practice",""
"","","","","","html-keyboard-response","151","533795","0.0-7.2-0.2-1.67","null","<span style='color:GreenYellow; font-size: 70px;'>正确! </span>","null","","","","","","","","","","","","","","","","","","","","","","","","","feedback",""
"","","","","","psychophysics","152","535500","0.0-7.2-0.2-0.68","553","","f","","","","","","","","","","","","","key","f","33.33270000000019","720","476","./1_3_Stimuli/C_ambi40.png","他人","Image","自我","Mismatch","f","true","Practice",""
"","","","","","html-keyboard-response","153","535802","0.0-7.2-0.2-1.68","null","<span style='color:GreenYellow; font-size: 70px;'>正确! </span>","null","","","","","","","","","","","","","","","","","","","","","","","","","feedback",""
"","","","","","psychophysics","154","537577","0.0-7.2-0.2-0.69","622","","f","","","","","","","","","","","","","key","f","33.3327692307693","720","476","./1_3_Stimuli/S_ambi40.png","朋友","Word","他人","Mismatch","f","true","Practice",""
"","","","","","html-keyboard-response","155","537880","0.0-7.2-0.2-1.69","null","<span style='color:GreenYellow; font-size: 70px;'>正确! </span>","null","","","","","","","","","","","","","","","","","","","","","","","","","feedback",""
"","","","","","psychophysics","156","540221","0.0-7.2-0.2-0.70","1189","","j","","","","","","","","","","","","","key","j","33.33182608695579","720","476","./1_3_Stimuli/C_ambi40.png","朋友","Word","自我","Mismatch","f","false","Practice",""
"","","","","","html-keyboard-response","157","540523","0.0-7.2-0.2-1.70","null","<span style='color:red; font-size: 70px;'>错误! </span>","null","","","","","","","","","","","","","","","","","","","","","","","","","feedback",""
"","","","","","psychophysics","158","542691","0.0-7.2-0.2-0.71","1015","","j","","","","","","","","","","","","","key","j","33.3337500000016","720","476","./1_3_Stimuli/T_ambi40.png","朋友","Image","朋友","Match","j","true","Practice",""
"","","","","","html-keyboard-response","159","542994","0.0-7.2-0.2-1.71","null","<span style='color:GreenYellow; font-size: 70px;'>正确! </span>","null","","","","","","","","","","","","","","","","","","","","","","","","","feedback",""
"","","","","","html-keyboard-response","160","564142","0.0-7.2-1.2-0.2","21143","<style>.context{color:white; font-size: 35px; line-height:40px}</style>                        <div><p class='context'>您正确回答了63% 的试次。</p><p class='context'>您的平均反应时为693毫秒。</p><p> <div style = 'color: green'><按空格键至下页></div></p>"," ","","","","","","","","","","","","","","","","","","","","","","","","","",""
"","","","","","instructions","161","571562","0.0-7.2-1.2-1.2","7406","","","","","","","","","","","","","","[{""page_index"":0,""viewing_time"":3715},{""page_index"":1,""viewing_time"":1610},{""page_index"":2,""viewing_time"":2081}]","","","","","","","","","","","","","",""
"","","","","","psychophysics","162","573754","0.0-7.3-0.3-0.72","1038","","f","","","","","","","","","","","","","key","f","33.32929687500109","720","476","./1_3_Stimuli/T_ambi40.png","他人","Word","朋友","Mismatch","f","true","Practice",""
"","","","","","html-keyboard-response","163","574056","0.0-7.3-0.3-1.72","null","<span style='color:GreenYellow; font-size: 70px;'>正确! </span>","null","","","","","","","","","","","","","","","","","","","","","","","","","feedback",""
"","","","","","psychophysics","164","575791","0.0-7.3-0.3-0.73","581","","j","","","","","","","","","","","","","key","j","33.331196078430295","720","476","./1_3_Stimuli/C_ambi40.png","自我","Image","自我","Match","j","true","Practice",""
"","","","","","html-keyboard-response","165","576093","0.0-7.3-0.3-1.73","null","<span style='color:GreenYellow; font-size: 70px;'>正确! </span>","null","","","","","","","","","","","","","","","","","","","","","","","","","feedback",""
"","","","","","psychophysics","166","577907","0.0-7.3-0.3-0.74","661","","f","","","","","","","","","","","","","key","f","33.332849056604935","720","476","./1_3_Stimuli/T_ambi40.png","他人","Image","朋友","Mismatch","f","true","Practice",""
"","","","","","html-keyboard-response","167","578210","0.0-7.3-0.3-1.74","null","<span style='color:GreenYellow; font-size: 70px;'>正确! </span>","null","","","","","","","","","","","","","","","","","","","","","","","","","feedback",""
"","","","","","psychophysics","168","580096","0.0-7.3-0.3-0.75","734","","f","","","","","","","","","","","","","key","f","33.327690909089604","720","476","./1_3_Stimuli/S_ambi40.png","朋友","Word","他人","Mismatch","f","true","Practice",""
"","","","","","html-keyboard-response","169","580397","0.0-7.3-0.3-1.75","null","<span style='color:GreenYellow; font-size: 70px;'>正确! </span>","null","","","","","","","","","","","","","","","","","","","","","","","","","feedback",""
"","","","","","psychophysics","170","582252","0.0-7.3-0.3-0.76","702","","f","","","","","","","","","","","","","key","f","33.332129629630664","720","476","./1_3_Stimuli/S_ambi40.png","自我","Word","他人","Mismatch","f","true","Practice",""
"","","","","","html-keyboard-response","171","582553","0.0-7.3-0.3-1.76","null","<span style='color:GreenYellow; font-size: 70px;'>正确! </span>","null","","","","","","","","","","","","","","","","","","","","","","","","","feedback",""
"","","","","","psychophysics","172","584395","0.0-7.3-0.3-0.77","689","","f","","","","","","","","","","","","","key","f","33.338537037036275","720","476","./1_3_Stimuli/C_ambi40.png","自我","Word","自我","Match","j","false","Practice",""
"","","","","","html-keyboard-response","173","584697","0.0-7.3-0.3-1.77","null","<span style='color:red; font-size: 70px;'>错误! </span>","null","","","","","","","","","","","","","","","","","","","","","","","","","feedback",""
"","","","","","psychophysics","174","586495","0.0-7.3-0.3-0.78","646","","f","","","","","","","","","","","","","key","f","33.33345283018996","720","476","./1_3_Stimuli/T_ambi40.png","自我","Image","朋友","Mismatch","f","true","Practice",""
"","","","","","html-keyboard-response","175","586797","0.0-7.3-0.3-1.78","null","<span style='color:GreenYellow; font-size: 70px;'>正确! </span>","null","","","","","","","","","","","","","","","","","","","","","","","","","feedback",""
"","","","","","psychophysics","176","588671","0.0-7.3-0.3-0.79","722","","j","","","","","","","","","","","","","key","j","33.33232727272817","720","476","./1_3_Stimuli/T_ambi40.png","朋友","Word","朋友","Match","j","true","Practice",""
"","","","","","html-keyboard-response","177","588973","0.0-7.3-0.3-1.79","null","<span style='color:GreenYellow; font-size: 70px;'>正确! </span>","null","","","","","","","","","","","","","","","","","","","","","","","","","feedback",""
"","","","","","psychophysics","178","590894","0.0-7.3-0.3-0.80","768","","j","","","","","","","","","","","","","key","j","33.3331071428568","720","476","./1_3_Stimuli/C_ambi40.png","自我","Word","自我","Match","j","true","Practice",""
"","","","","","html-keyboard-response","179","591197","0.0-7.3-0.3-1.80","null","<span style='color:GreenYellow; font-size: 70px;'>正确! </span>","null","","","","","","","","","","","","","","","","","","","","","","","","","feedback",""
"","","","","","psychophysics","180","592977","0.0-7.3-0.3-0.81","628","","f","","","","","","","","","","","","","key","f","33.33217307692394","720","476","./1_3_Stimuli/S_ambi40.png","自我","Image","他人","Mismatch","f","true","Practice",""
"","","","","","html-keyboard-response","181","593279","0.0-7.3-0.3-1.81","null","<span style='color:GreenYellow; font-size: 70px;'>正确! </span>","null","","","","","","","","","","","","","","","","","","","","","","","","","feedback",""
"","","","","","psychophysics","182","595127","0.0-7.3-0.3-0.82","695","","f","","","","","","","","","","","","","key","f","33.33220370370395","720","476","./1_3_Stimuli/C_ambi40.png","朋友","Word","自我","Mismatch","f","true","Practice",""
"","","","","","html-keyboard-response","183","595429","0.0-7.3-0.3-1.82","null","<span style='color:GreenYellow; font-size: 70px;'>正确! </span>","null","","","","","","","","","","","","","","","","","","","","","","","","","feedback",""
"","","","","","psychophysics","184","597585","0.0-7.3-0.3-0.83","1003","","j","","","","","","","","","","","","","key","j","33.33503174603111","720","476","./1_3_Stimuli/S_ambi40.png","他人","Image","他人","Match","j","true","Practice",""
"","","","","","html-keyboard-response","185","597888","0.0-7.3-0.3-1.83","null","<span style='color:GreenYellow; font-size: 70px;'>正确! </span>","null","","","","","","","","","","","","","","","","","","","","","","","","","feedback",""
"","","","","","psychophysics","186","599627","0.0-7.3-0.3-0.84","586","","j","","","","","","","","","","","","","key","j","33.33139215686185","720","476","./1_3_Stimuli/C_ambi40.png","自我","Image","自我","Match","j","true","Practice",""
"","","","","","html-keyboard-response","187","599929","0.0-7.3-0.3-1.84","null","<span style='color:GreenYellow; font-size: 70px;'>正确! </span>","null","","","","","","","","","","","","","","","","","","","","","","","","","feedback",""
"","","","","","psychophysics","188","601758","0.0-7.3-0.3-0.85","675","","j","","","","","","","","","","","","","key","j","33.33270370370398","720","476","./1_3_Stimuli/S_ambi40.png","他人","Word","他人","Match","j","true","Practice",""
"","","","","","html-keyboard-response","189","602059","0.0-7.3-0.3-1.85","null","<span style='color:GreenYellow; font-size: 70px;'>正确! </span>","null","","","","","","","","","","","","","","","","","","","","","","","","","feedback",""
"","","","","","psychophysics","190","604118","0.0-7.3-0.3-0.86","905","","f","","","","","","","","","","","","","key","f","33.331016666667225","720","476","./1_3_Stimuli/C_ambi40.png","朋友","Image","自我","Mismatch","f","true","Practice",""
"","","","","","html-keyboard-response","191","604419","0.0-7.3-0.3-1.86","null","<span style='color:GreenYellow; font-size: 70px;'>正确! </span>","null","","","","","","","","","","","","","","","","","","","","","","","","","feedback",""
"","","","","","psychophysics","192","606300","0.0-7.3-0.3-0.87","728","","f","","","","","","","","","","","","","key","f","33.33243636363609","720","476","./1_3_Stimuli/C_ambi40.png","他人","Word","自我","Mismatch","f","true","Practice",""
"","","","","","html-keyboard-response","193","606602","0.0-7.3-0.3-1.87","null","<span style='color:GreenYellow; font-size: 70px;'>正确! </span>","null","","","","","","","","","","","","","","","","","","","","","","","","","feedback",""
"","","","","","psychophysics","194","608486","0.0-7.3-0.3-0.88","731","","j","","","","","","","","","","","","","key","j","33.3338545454539","720","476","./1_3_Stimuli/S_ambi40.png","他人","Word","他人","Match","j","true","Practice",""
"","","","","","html-keyboard-response","195","608789","0.0-7.3-0.3-1.88","null","<span style='color:GreenYellow; font-size: 70px;'>正确! </span>","null","","","","","","","","","","","","","","","","","","","","","","","","","feedback",""
"","","","","","psychophysics","196","610977","0.0-7.3-0.3-0.89","1035","","j","","","","","","","","","","","","","key","j","33.330843749999985","720","476","./1_3_Stimuli/T_ambi40.png","朋友","Word","朋友","Match","j","true","Practice",""
"","","","","","html-keyboard-response","197","611278","0.0-7.3-0.3-1.89","null","<span style='color:GreenYellow; font-size: 70px;'>正确! </span>","null","","","","","","","","","","","","","","","","","","","","","","","","","feedback",""
"","","","","","psychophysics","198","613383","0.0-7.3-0.3-0.90","951","","f","","","","","","","","","","","","","key","f","33.33275806451509","720","476","./1_3_Stimuli/S_ambi40.png","朋友","Image","他人","Mismatch","f","true","Practice",""
"","","","","","html-keyboard-response","199","613684","0.0-7.3-0.3-1.90","null","<span style='color:GreenYellow; font-size: 70px;'>正确! </span>","null","","","","","","","","","","","","","","","","","","","","","","","","","feedback",""
"","","","","","psychophysics","200","615778","0.0-7.3-0.3-0.91","941","","f","","","","","","","","","","","","","key","f","33.33391935483838","720","476","./1_3_Stimuli/T_ambi40.png","朋友","Image","朋友","Match","j","false","Practice",""
"","","","","","html-keyboard-response","201","616080","0.0-7.3-0.3-1.91","null","<span style='color:red; font-size: 70px;'>错误! </span>","null","","","","","","","","","","","","","","","","","","","","","","","","","feedback",""
"","","","","","psychophysics","202","617922","0.0-7.3-0.3-0.92","690","","j","","","","","","","","","","","","","key","j","33.32987037036973","720","476","./1_3_Stimuli/T_ambi40.png","朋友","Image","朋友","Match","j","true","Practice",""
"","","","","","html-keyboard-response","203","618225","0.0-7.3-0.3-1.92","null","<span style='color:GreenYellow; font-size: 70px;'>正确! </span>","null","","","","","","","","","","","","","","","","","","","","","","","","","feedback",""
"","","","","","psychophysics","204","620013","0.0-7.3-0.3-0.93","636","","j","","","","","","","","","","","","","key","j","33.33255769230891","720","476","./1_3_Stimuli/S_ambi40.png","他人","Image","他人","Match","j","true","Practice",""
"","","","","","html-keyboard-response","205","620315","0.0-7.3-0.3-1.93","null","<span style='color:GreenYellow; font-size: 70px;'>正确! </span>","null","","","","","","","","","","","","","","","","","","","","","","","","","feedback",""
"","","","","","psychophysics","206","622496","0.0-7.3-0.3-0.94","1030","","f","","","","","","","","","","","","","key","f","33.331640625001455","720","476","./1_3_Stimuli/C_ambi40.png","他人","Image","自我","Mismatch","f","true","Practice",""
"","","","","","html-keyboard-response","207","622798","0.0-7.3-0.3-1.94","null","<span style='color:GreenYellow; font-size: 70px;'>正确! </span>","null","","","","","","","","","","","","","","","","","","","","","","","","","feedback",""
"","","","","","psychophysics","208","624793","0.0-7.3-0.3-0.95","841","","f","","","","","","","","","","","","","key","f","33.3320847457626","720","476","./1_3_Stimuli/T_ambi40.png","自我","Word","朋友","Mismatch","f","true","Practice",""
"","","","","","html-keyboard-response","209","625095","0.0-7.3-0.3-1.95","null","<span style='color:GreenYellow; font-size: 70px;'>正确! </span>","null","","","","","","","","","","","","","","","","","","","","","","","","","feedback",""
"","","","","","html-keyboard-response","210","773846","0.0-8.0","148744","<style>.context{color:white; font-size: 35px; line-height:40px}</style>                          <div><p class='context'>您正确回答了92% 的试次。</p><p class='context'>您的平均反应时为772毫秒。</p><p class='context'>恭喜您完成练习。现在请休息3~5分钟。</p><p class='context'>之后，按任意键进入正式实验。需要注意的是，正式实验将不再提供反应是否正确的反馈。</p><p class='footer' style='font-size: 35px; line-height:40px;'>请在进入正式实验实验之前将您的<span style='color: lightgreen;'>食指</span>放在电脑键盘的相应键位上进行按键。</p>"," ","","","","","","","","","","","","","","","","","","","","","","","","","",""
"","","","","","psychophysics","211","775520","0.0-9.0-0.0-0.0","508","","j","","","","","","","","","","","","","key","j","33.332734693877626","720","476","./1_3_Stimuli/C_ambi40.png","自我","Word","自我","Match","j","true","Formal",""
"","","","","","psychophysics","212","777474","0.0-9.0-0.0-0.1","801","","f","","","","","","","","","","","","","key","f","33.33074137930967","720","476","./1_3_Stimuli/T_ambi40.png","朋友","Image","朋友","Match","j","false","Formal",""
"","","","","","psychophysics","213","779315","0.0-9.0-0.0-0.2","688","","j","","","","","","","","","","","","","key","j","33.332425925925946","720","476","./1_3_Stimuli/S_ambi40.png","他人","Image","他人","Match","j","true","Formal",""
"","","","","","psychophysics","214","781136","0.0-9.0-0.0-0.3","668","","f","","","","","","","","","","","","","key","f","33.33214814814791","720","476","./1_3_Stimuli/S_ambi40.png","自我","Word","他人","Mismatch","f","true","Formal",""
"","","","","","psychophysics","215","783245","0.0-9.0-0.0-0.4","956","","f","","","","","","","","","","","","","key","f","33.33193548387217","720","476","./1_3_Stimuli/T_ambi40.png","自我","Image","朋友","Mismatch","f","true","Formal",""
"","","","","","psychophysics","216","785105","0.0-9.0-0.0-0.5","707","","j","","","","","","","","","","","","","key","j","33.33207272727212","720","476","./1_3_Stimuli/S_ambi40.png","他人","Word","他人","Match","j","true","Formal",""
"","","","","","psychophysics","217","787043","0.0-9.0-0.0-0.6","785","","f","","","","","","","","","","","","","key","f","33.33417543859768","720","476","./1_3_Stimuli/T_ambi40.png","自我","Word","朋友","Mismatch","f","true","Formal",""
"","","","","","psychophysics","218","788947","0.0-9.0-0.0-0.7","751","","j","","","","","","","","","","","","","key","j","33.3297857142856","720","476","./1_3_Stimuli/T_ambi40.png","朋友","Image","朋友","Match","j","true","Formal",""
"","","","","","psychophysics","219","790766","0.0-9.0-0.0-0.8","667","","j","","","","","","","","","","","","","key","j","33.33298113207631","720","476","./1_3_Stimuli/C_ambi40.png","自我","Word","自我","Match","j","true","Formal",""
"","","","","","psychophysics","220","792862","0.0-9.0-0.0-0.9","943","","f","","","","","","","","","","","","","key","f","33.330950819673475","720","476","./1_3_Stimuli/S_ambi40.png","自我","Image","他人","Mismatch","f","true","Formal",""
"","","","","","psychophysics","221","794605","0.0-9.0-0.0-0.10","590","","j","","","","","","","","","","","","","key","j","33.33154901960755","720","476","./1_3_Stimuli/S_ambi40.png","他人","Image","他人","Match","j","true","Formal",""
"","","","","","psychophysics","222","796397","0.0-9.0-0.0-0.11","638","","j","","","","","","","","","","","","","key","j","33.33753846153895","720","476","./1_3_Stimuli/S_ambi40.png","他人","Word","他人","Match","j","true","Formal",""
"","","","","","psychophysics","223","798196","0.0-9.0-0.0-0.12","647","","f","","","","","","","","","","","","","key","f","33.33371153846159","720","476","./1_3_Stimuli/C_ambi40.png","他人","Word","自我","Mismatch","f","true","Formal",""
"","","","","","psychophysics","224","800116","0.0-9.0-0.0-0.13","767","","j","","","","","","","","","","","","","key","j","33.332736842105525","720","476","./1_3_Stimuli/T_ambi40.png","朋友","Word","朋友","Match","j","true","Formal",""
"","","","","","psychophysics","225","802074","0.0-9.0-0.0-0.14","805","","f","","","","","","","","","","","","","key","f","33.33256896551907","720","476","./1_3_Stimuli/C_ambi40.png","朋友","Image","自我","Mismatch","f","true","Formal",""
"","","","","","psychophysics","226","804408","0.0-9.0-0.0-0.15","1180","","f","","","","","","","","","","","","","key","f","33.33159420289862","720","476","./1_3_Stimuli/S_ambi40.png","朋友","Word","他人","Mismatch","f","true","Formal",""
"","","","","","psychophysics","227","806619","0.0-9.0-0.0-0.16","1059","","f","","","","","","","","","","","","","key","f","33.33192307692236","720","476","./1_3_Stimuli/T_ambi40.png","他人","Image","朋友","Mismatch","f","true","Formal",""
"","","","","","psychophysics","228","808571","0.0-9.0-0.0-0.17","799","","j","","","","","","","","","","","","","key","j","33.33356896551639","720","476","./1_3_Stimuli/T_ambi40.png","朋友","Word","朋友","Match","j","true","Formal",""
"","","","","","psychophysics","229","810546","0.0-9.0-0.0-0.18","822","","f","","","","","","","","","","","","","key","f","33.33160344827599","720","476","./1_3_Stimuli/S_ambi40.png","朋友","Image","他人","Mismatch","f","true","Formal",""
"","","","","","psychophysics","230","812694","0.0-9.0-0.0-0.19","995","","f","","","","","","","","","","","","","key","f","33.33309523809502","720","476","./1_3_Stimuli/T_ambi40.png","他人","Word","朋友","Mismatch","f","true","Formal",""
"","","","","","psychophysics","231","814529","0.0-9.0-0.0-0.20","683","","j","","","","","","","","","","","","","key","j","33.332886792453586","720","476","./1_3_Stimuli/C_ambi40.png","自我","Image","自我","Match","j","true","Formal",""
"","","","","","psychophysics","232","816349","0.0-9.0-0.0-0.21","667","","f","","","","","","","","","","","","","key","f","33.33341509433912","720","476","./1_3_Stimuli/C_ambi40.png","他人","Image","自我","Mismatch","f","true","Formal",""
"","","","","","psychophysics","233","818129","0.0-9.0-0.0-0.22","627","","j","","","","","","","","","","","","","key","j","33.330365384615455","720","476","./1_3_Stimuli/C_ambi40.png","自我","Image","自我","Match","j","true","Formal",""
"","","","","","psychophysics","234","819976","0.0-9.0-0.0-0.23","694","","f","","","","","","","","","","","","","key","f","33.33240000000012","720","476","./1_3_Stimuli/C_ambi40.png","朋友","Word","自我","Mismatch","f","true","Formal",""
"","","","","","psychophysics","235","821821","0.0-9.0-0.0-0.24","690","","f","","","","","","","","","","","","","key","f","33.335277777777435","720","476","./1_3_Stimuli/T_ambi40.png","自我","Word","朋友","Mismatch","f","true","Formal",""
"","","","","","psychophysics","236","823854","0.0-9.0-0.0-0.25","880","","f","","","","","","","","","","","","","key","f","33.33093333333382","720","476","./1_3_Stimuli/T_ambi40.png","他人","Word","朋友","Mismatch","f","true","Formal",""
"","","","","","psychophysics","237","825547","0.0-9.0-0.0-0.26","540","","j","","","","","","","","","","","","","key","j","33.33275510204186","720","476","./1_3_Stimuli/C_ambi40.png","自我","Word","自我","Match","j","true","Formal",""
"","","","","","psychophysics","238","827551","0.0-9.0-0.0-0.27","852","","j","","","","","","","","","","","","","key","j","33.33135593220418","720","476","./1_3_Stimuli/S_ambi40.png","他人","Image","他人","Match","j","true","Formal",""
"","","","","","psychophysics","239","829252","0.0-9.0-0.0-0.28","549","","f","","","","","","","","","","","","","key","f","33.33198000000091","720","476","./1_3_Stimuli/C_ambi40.png","他人","Word","自我","Mismatch","f","true","Formal",""
"","","","","","psychophysics","240","831108","0.0-9.0-0.0-0.29","702","","f","","","","","","","","","","","","","key","f","33.33187272727108","720","476","./1_3_Stimuli/S_ambi40.png","自我","Word","他人","Mismatch","f","true","Formal",""
"","","","","","psychophysics","241","832844","0.0-9.0-0.0-0.30","583","","j","","","","","","","","","","","","","key","j","33.33470588235193","720","476","./1_3_Stimuli/S_ambi40.png","他人","Word","他人","Match","j","true","Formal",""
"","","","","","psychophysics","242","834752","0.0-9.0-0.0-0.31","754","","j","","","","","","","","","","","","","key","j","33.33266071428703","720","476","./1_3_Stimuli/S_ambi40.png","他人","Word","他人","Match","j","true","Formal",""
"","","","","","psychophysics","243","836611","0.0-9.0-0.0-0.32","706","","f","","","","","","","","","","","","","key","f","33.33303636363708","720","476","./1_3_Stimuli/C_ambi40.png","他人","Image","自我","Mismatch","f","true","Formal",""
"","","","","","psychophysics","244","838346","0.0-9.0-0.0-0.33","581","","j","","","","","","","","","","","","","key","j","33.335117647059114","720","476","./1_3_Stimuli/C_ambi40.png","自我","Word","自我","Match","j","true","Formal",""
"","","","","","psychophysics","245","840292","0.0-9.0-0.0-0.34","794","","f","","","","","","","","","","","","","key","f","33.33240350877065","720","476","./1_3_Stimuli/S_ambi40.png","朋友","Image","他人","Mismatch","f","true","Formal",""
"","","","","","psychophysics","246","842219","0.0-9.0-0.0-0.35","774","","j","","","","","","","","","","","","","key","j","33.33250877192947","720","476","./1_3_Stimuli/T_ambi40.png","朋友","Image","朋友","Match","j","true","Formal",""
"","","","","","psychophysics","247","844120","0.0-9.0-0.0-0.36","749","","f","","","","","","","","","","","","","key","f","33.33221428571518","720","476","./1_3_Stimuli/T_ambi40.png","自我","Image","朋友","Mismatch","f","true","Formal",""
"","","","","","psychophysics","248","846006","0.0-9.0-0.0-0.37","732","","f","","","","","","","","","","","","","key","f","33.32971428571285","720","476","./1_3_Stimuli/C_ambi40.png","朋友","Word","自我","Mismatch","f","true","Formal",""
"","","","","","psychophysics","249","847697","0.0-9.0-0.0-0.38","539","","j","","","","","","","","","","","","","key","j","33.332081632653","720","476","./1_3_Stimuli/C_ambi40.png","自我","Image","自我","Match","j","true","Formal",""
"","","","","","psychophysics","250","849418","0.0-9.0-0.0-0.39","569","","f","","","","","","","","","","","","","key","f","33.332780000001655","720","476","./1_3_Stimuli/S_ambi40.png","朋友","Word","他人","Mismatch","f","true","Formal",""
"","","","","","psychophysics","251","852131","0.0-9.0-0.0-0.40","null","","null","","","","","","","","","","","","","key","null","33.33262499999982","720","476","./1_3_Stimuli/C_ambi40.png","朋友","Image","自我","Mismatch","f","false","Formal",""
"","","","","","psychophysics","252","854003","0.0-9.0-0.0-0.41","718","","j","","","","","","","","","","","","","key","j","33.334181818181904","720","476","./1_3_Stimuli/T_ambi40.png","朋友","Word","朋友","Match","j","true","Formal",""
"","","","","","psychophysics","253","856248","0.0-9.0-0.0-0.42","1092","","f","","","","","","","","","","","","","key","f","33.33298484848417","720","476","./1_3_Stimuli/S_ambi40.png","自我","Image","他人","Mismatch","f","true","Formal",""
"","","","","","psychophysics","254","858029","0.0-9.0-0.0-0.43","627","","j","","","","","","","","","","","","","key","j","33.33148076923009","720","476","./1_3_Stimuli/T_ambi40.png","朋友","Word","朋友","Match","j","true","Formal",""
"","","","","","psychophysics","255","859951","0.0-9.0-0.0-0.44","768","","j","","","","","","","","","","","","","key","j","33.333696428569965","720","476","./1_3_Stimuli/T_ambi40.png","朋友","Image","朋友","Match","j","true","Formal",""
"","","","","","psychophysics","256","861809","0.0-9.0-0.0-0.45","703","","j","","","","","","","","","","","","","key","j","33.32958181818143","720","476","./1_3_Stimuli/S_ambi40.png","他人","Image","他人","Match","j","true","Formal",""
"","","","","","psychophysics","257","863464","0.0-9.0-0.0-0.46","504","","j","","","","","","","","","","","","","key","j","33.33214583333271","720","476","./1_3_Stimuli/C_ambi40.png","自我","Image","自我","Match","j","true","Formal",""
"","","","","","psychophysics","258","865263","0.0-9.0-0.0-0.47","645","","f","","","","","","","","","","","","","key","f","33.332365384614185","720","476","./1_3_Stimuli/T_ambi40.png","他人","Image","朋友","Mismatch","f","true","Formal",""
"","","","","","psychophysics","259","867026","0.0-9.0-0.0-0.48","606","","j","","","","","","","","","","","","","key","j","33.33388235294215","720","476","./1_3_Stimuli/S_ambi40.png","他人","Word","他人","Match","j","true","Formal",""
"","","","","","psychophysics","260","868897","0.0-9.0-0.0-0.49","718","","f","","","","","","","","","","","","","key","f","33.3326727272731","720","476","./1_3_Stimuli/T_ambi40.png","他人","Image","朋友","Mismatch","f","true","Formal",""
"","","","","","psychophysics","261","870769","0.0-9.0-0.0-0.50","719","","f","","","","","","","","","","","","","key","f","33.33114545454525","720","476","./1_3_Stimuli/C_ambi40.png","朋友","Word","自我","Mismatch","f","true","Formal",""
"","","","","","psychophysics","262","872642","0.0-9.0-0.0-0.51","720","","j","","","","","","","","","","","","","key","j","33.33207272727424","720","476","./1_3_Stimuli/C_ambi40.png","自我","Image","自我","Match","j","true","Formal",""
"","","","","","psychophysics","263","874385","0.0-9.0-0.0-0.52","592","","f","","","","","","","","","","","","","key","f","33.3340784313737","720","476","./1_3_Stimuli/S_ambi40.png","朋友","Word","他人","Mismatch","f","true","Formal",""
"","","","","","psychophysics","264","876286","0.0-9.0-0.0-0.53","748","","f","","","","","","","","","","","","","key","f","33.33239285714184","720","476","./1_3_Stimuli/S_ambi40.png","自我","Word","他人","Mismatch","f","true","Formal",""
"","","","","","psychophysics","265","878239","0.0-9.0-0.0-0.54","799","","j","","","","","","","","","","","","","key","j","33.33040350877165","720","476","./1_3_Stimuli/C_ambi40.png","自我","Word","自我","Match","j","true","Formal",""
"","","","","","psychophysics","266","879924","0.0-9.0-0.0-0.55","532","","f","","","","","","","","","","","","","key","f","33.332163265307564","720","476","./1_3_Stimuli/C_ambi40.png","他人","Word","自我","Mismatch","f","true","Formal",""
"","","","","","psychophysics","267","881651","0.0-9.0-0.0-0.56","574","","j","","","","","","","","","","","","","key","j","33.33283999999985","720","476","./1_3_Stimuli/S_ambi40.png","他人","Image","他人","Match","j","true","Formal",""
"","","","","","psychophysics","268","883722","0.0-9.0-0.0-0.57","919","","f","","","","","","","","","","","","","key","f","33.33167213114688","720","476","./1_3_Stimuli/T_ambi40.png","自我","Image","朋友","Mismatch","f","true","Formal",""
"","","","","","psychophysics","269","886437","0.0-9.0-0.0-0.58","null","","null","","","","","","","","","","","","","key","null","33.33348750000005","720","476","./1_3_Stimuli/T_ambi40.png","朋友","Image","朋友","Match","j","false","Formal",""
"","","","","","psychophysics","270","888905","0.0-9.0-0.0-0.59","1315","","j","","","","","","","","","","","","","key","j","33.33206849314961","720","476","./1_3_Stimuli/S_ambi40.png","他人","Image","他人","Match","j","true","Formal",""
"","","","","","psychophysics","271","890930","0.0-9.0-0.0-0.60","874","","f","","","","","","","","","","","","","key","f","33.33416949152568","720","476","./1_3_Stimuli/T_ambi40.png","他人","Word","朋友","Mismatch","f","true","Formal",""
"","","","","","psychophysics","272","892876","0.0-9.0-0.0-0.61","793","","f","","","","","","","","","","","","","key","f","33.331561403508346","720","476","./1_3_Stimuli/C_ambi40.png","朋友","Image","自我","Mismatch","f","true","Formal",""
"","","","","","psychophysics","273","894641","0.0-9.0-0.0-0.62","614","","f","","","","","","","","","","","","","key","f","33.33411538461447","720","476","./1_3_Stimuli/C_ambi40.png","他人","Image","自我","Mismatch","f","true","Formal",""
"","","","","","psychophysics","274","896537","0.0-9.0-0.0-0.63","743","","j","","","","","","","","","","","","","key","j","33.33432142857055","720","476","./1_3_Stimuli/T_ambi40.png","朋友","Image","朋友","Match","j","true","Formal",""
"","","","","","psychophysics","275","898294","0.0-9.0-0.0-0.64","603","","j","","","","","","","","","","","","","key","j","33.33141176470592","720","476","./1_3_Stimuli/C_ambi40.png","自我","Image","自我","Match","j","true","Formal",""
"","","","","","psychophysics","276","900032","0.0-9.0-0.0-0.65","585","","j","","","","","","","","","","","","","key","j","33.3306274509797","720","476","./1_3_Stimuli/S_ambi40.png","他人","Word","他人","Match","j","true","Formal",""
"","","","","","psychophysics","277","901828","0.0-9.0-0.0-0.66","644","","f","","","","","","","","","","","","","key","f","33.33313461538637","720","476","./1_3_Stimuli/S_ambi40.png","朋友","Image","他人","Mismatch","f","true","Formal",""
"","","","","","psychophysics","278","903513","0.0-9.0-0.0-0.67","532","","j","","","","","","","","","","","","","key","j","33.33440000000177","720","476","./1_3_Stimuli/S_ambi40.png","自我","Image","他人","Mismatch","f","false","Formal",""
"","","","","","psychophysics","279","905355","0.0-9.0-0.0-0.68","691","","f","","","","","","","","","","","","","key","f","33.332074074074626","720","476","./1_3_Stimuli/T_ambi40.png","自我","Word","朋友","Mismatch","f","true","Formal",""
"","","","","","psychophysics","280","907039","0.0-9.0-0.0-0.69","530","","j","","","","","","","","","","","","","key","j","33.33440000000177","720","476","./1_3_Stimuli/C_ambi40.png","自我","Word","自我","Match","j","true","Formal",""
"","","","","","psychophysics","281","909063","0.0-9.0-0.0-0.70","871","","j","","","","","","","","","","","","","key","j","33.33259322033935","720","476","./1_3_Stimuli/T_ambi40.png","朋友","Word","朋友","Match","j","true","Formal",""
"","","","","","psychophysics","282","910935","0.0-9.0-0.0-0.71","717","","j","","","","","","","","","","","","","key","j","33.33336363636296","720","476","./1_3_Stimuli/T_ambi40.png","朋友","Word","朋友","Match","j","true","Formal",""
"","","","","","psychophysics","283","912802","0.0-9.0-0.0-0.72","712","","j","","","","","","","","","","","","","key","j","33.33243636363609","720","476","./1_3_Stimuli/C_ambi40.png","自我","Word","自我","Match","j","true","Formal",""
"","","","","","psychophysics","284","914583","0.0-9.0-0.0-0.73","628","","f","","","","","","","","","","","","","key","f","33.331596153846476","720","476","./1_3_Stimuli/C_ambi40.png","朋友","Image","自我","Mismatch","f","true","Formal",""
"","","","","","psychophysics","285","916319","0.0-9.0-0.0-0.74","583","","j","","","","","","","","","","","","","key","j","33.3353725490206","720","476","./1_3_Stimuli/C_ambi40.png","自我","Word","自我","Match","j","true","Formal",""
"","","","","","psychophysics","286","918202","0.0-9.0-0.0-0.75","731","","j","","","","","","","","","","","","","key","j","33.33201785714274","720","476","./1_3_Stimuli/C_ambi40.png","自我","Image","自我","Match","j","true","Formal",""
"","","","","","psychophysics","287","920008","0.0-9.0-0.0-0.76","653","","j","","","","","","","","","","","","","key","j","33.33137735848992","720","476","./1_3_Stimuli/S_ambi40.png","他人","Image","他人","Match","j","true","Formal",""
"","","","","","psychophysics","288","921862","0.0-9.0-0.0-0.77","701","","f","","","","","","","","","","","","","key","f","33.33146296296251","720","476","./1_3_Stimuli/S_ambi40.png","朋友","Image","他人","Mismatch","f","true","Formal",""
"","","","","","psychophysics","289","923770","0.0-9.0-0.0-0.78","756","","j","","","","","","","","","","","","","key","j","33.33371428571575","720","476","./1_3_Stimuli/T_ambi40.png","朋友","Image","朋友","Match","j","true","Formal",""
"","","","","","psychophysics","290","925530","0.0-9.0-0.0-0.79","607","","j","","","","","","","","","","","","","key","j","33.33378431372637","720","476","./1_3_Stimuli/S_ambi40.png","他人","Word","他人","Match","j","true","Formal",""
"","","","","","psychophysics","291","927406","0.0-9.0-0.0-0.80","723","","f","","","","","","","","","","","","","key","f","33.33274545454505","720","476","./1_3_Stimuli/C_ambi40.png","他人","Image","自我","Mismatch","f","true","Formal",""
"","","","","","psychophysics","292","929468","0.0-9.0-0.0-0.81","907","","j","","","","","","","","","","","","","key","j","33.33286885245985","720","476","./1_3_Stimuli/T_ambi40.png","朋友","Word","朋友","Match","j","true","Formal",""
"","","","","","psychophysics","293","931394","0.0-9.0-0.0-0.82","773","","f","","","","","","","","","","","","","key","f","33.3277500000009","720","476","./1_3_Stimuli/C_ambi40.png","他人","Word","自我","Mismatch","f","true","Formal",""
"","","","","","psychophysics","294","933309","0.0-9.0-0.0-0.83","763","","f","","","","","","","","","","","","","key","f","33.33253571428525","720","476","./1_3_Stimuli/S_ambi40.png","朋友","Word","他人","Mismatch","f","true","Formal",""
"","","","","","psychophysics","295","935089","0.0-9.0-0.0-0.84","627","","f","","","","","","","","","","","","","key","f","33.33344230769077","720","476","./1_3_Stimuli/T_ambi40.png","自我","Word","朋友","Mismatch","f","true","Formal",""
"","","","","","psychophysics","296","936926","0.0-9.0-0.0-0.85","684","","f","","","","","","","","","","","","","key","f","33.33494444444336","720","476","./1_3_Stimuli/C_ambi40.png","朋友","Word","自我","Mismatch","f","true","Formal",""
"","","","","","psychophysics","297","938818","0.0-9.0-0.0-0.86","738","","f","","","","","","","","","","","","","key","f","33.332290909092194","720","476","./1_3_Stimuli/T_ambi40.png","朋友","Image","朋友","Match","j","false","Formal",""
"","","","","","psychophysics","298","940837","0.0-9.0-0.0-0.87","866","","f","","","","","","","","","","","","","key","f","33.33723333333425","720","476","./1_3_Stimuli/T_ambi40.png","自我","Image","朋友","Mismatch","f","true","Formal",""
"","","","","","psychophysics","299","942741","0.0-9.0-0.0-0.88","753","","f","","","","","","","","","","","","","key","f","33.33280357142836","720","476","./1_3_Stimuli/S_ambi40.png","自我","Image","他人","Mismatch","f","true","Formal",""
"","","","","","psychophysics","300","944370","0.0-9.0-0.0-0.89","477","","j","","","","","","","","","","","","","key","j","33.33183333333485","720","476","./1_3_Stimuli/C_ambi40.png","自我","Image","自我","Match","j","true","Formal",""
"","","","","","psychophysics","301","946338","0.0-9.0-0.0-0.90","814","","f","","","","","","","","","","","","","key","f","33.33367241379315","720","476","./1_3_Stimuli/T_ambi40.png","他人","Word","朋友","Mismatch","f","true","Formal",""
"","","","","","psychophysics","302","948233","0.0-9.0-0.0-0.91","742","","f","","","","","","","","","","","","","key","f","33.33341071428523","720","476","./1_3_Stimuli/T_ambi40.png","他人","Image","朋友","Mismatch","f","true","Formal",""
"","","","","","psychophysics","303","949915","0.0-9.0-0.0-0.92","529","","j","","","","","","","","","","","","","key","j","33.33383673469403","720","476","./1_3_Stimuli/S_ambi40.png","他人","Word","他人","Match","j","true","Formal",""
"","","","","","psychophysics","304","951854","0.0-9.0-0.0-0.93","786","","j","","","","","","","","","","","","","key","j","33.33266666666564","720","476","./1_3_Stimuli/T_ambi40.png","朋友","Word","朋友","Match","j","true","Formal",""
"","","","","","psychophysics","305","953589","0.0-9.0-0.0-0.94","580","","f","","","","","","","","","","","","","key","f","33.33108000000007","720","476","./1_3_Stimuli/S_ambi40.png","自我","Word","他人","Mismatch","f","true","Formal",""
"","","","","","psychophysics","306","955360","0.0-9.0-0.0-0.95","615","","j","","","","","","","","","","","","","key","j","33.333884615386175","720","476","./1_3_Stimuli/S_ambi40.png","他人","Image","他人","Match","j","true","Formal",""
"","","","","","psychophysics","307","957417","0.0-9.0-0.0-0.96","903","","j","","","","","","","","","","","","","key","j","33.33145000000174","720","476","./1_3_Stimuli/C_ambi40.png","朋友","Word","自我","Mismatch","f","false","Formal",""
"","","","","","psychophysics","308","959354","0.0-9.0-0.0-0.97","783","","f","","","","","","","","","","","","","key","f","33.332842105262294","720","476","./1_3_Stimuli/C_ambi40.png","朋友","Image","自我","Mismatch","f","true","Formal",""
"","","","","","psychophysics","309","961391","0.0-9.0-0.0-0.98","885","","f","","","","","","","","","","","","","key","f","33.33339999999929","720","476","./1_3_Stimuli/S_ambi40.png","自我","Image","他人","Mismatch","f","true","Formal",""
"","","","","","psychophysics","310","963199","0.0-9.0-0.0-0.99","654","","f","","","","","","","","","","","","","key","f","33.331611111109076","720","476","./1_3_Stimuli/T_ambi40.png","自我","Image","朋友","Mismatch","f","true","Formal",""
"","","","","","psychophysics","311","965110","0.0-9.0-0.0-0.100","759","","j","","","","","","","","","","","","","key","j","33.32908928571435","720","476","./1_3_Stimuli/S_ambi40.png","他人","Word","他人","Match","j","true","Formal",""
"","","","","","psychophysics","312","966954","0.0-9.0-0.0-0.101","691","","j","","","","","","","","","","","","","key","j","33.331722222223306","720","476","./1_3_Stimuli/C_ambi40.png","自我","Image","自我","Match","j","true","Formal",""
"","","","","","psychophysics","313","968829","0.0-9.0-0.0-0.102","724","","f","","","","","","","","","","","","","key","f","33.33301851851866","720","476","./1_3_Stimuli/C_ambi40.png","他人","Word","自我","Mismatch","f","true","Formal",""
"","","","","","psychophysics","314","970687","0.0-9.0-0.0-0.103","705","","f","","","","","","","","","","","","","key","f","33.335740740740825","720","476","./1_3_Stimuli/C_ambi40.png","他人","Image","自我","Mismatch","f","true","Formal",""
"","","","","","psychophysics","315","972524","0.0-9.0-0.0-0.104","684","","j","","","","","","","","","","","","","key","j","33.33228301886856","720","476","./1_3_Stimuli/T_ambi40.png","朋友","Word","朋友","Match","j","true","Formal",""
"","","","","","psychophysics","316","974518","0.0-9.0-0.0-0.105","841","","f","","","","","","","","","","","","","key","f","33.33367796610228","720","476","./1_3_Stimuli/T_ambi40.png","他人","Image","朋友","Mismatch","f","true","Formal",""
"","","","","","psychophysics","317","976362","0.0-9.0-0.0-0.106","692","","j","","","","","","","","","","","","","key","j","33.33105660377308","720","476","./1_3_Stimuli/T_ambi40.png","朋友","Image","朋友","Match","j","true","Formal",""
"","","","","","psychophysics","318","978131","0.0-9.0-0.0-0.107","616","","j","","","","","","","","","","","","","key","j","33.332450980391336","720","476","./1_3_Stimuli/C_ambi40.png","自我","Image","自我","Match","j","true","Formal",""
"","","","","","psychophysics","319","979799","0.0-9.0-0.0-0.108","515","","j","","","","","","","","","","","","","key","j","33.33259183673511","720","476","./1_3_Stimuli/S_ambi40.png","他人","Image","他人","Match","j","true","Formal",""
"","","","","","psychophysics","320","981485","0.0-9.0-0.0-0.109","533","","j","","","","","","","","","","","","","key","j","33.33089795918204","720","476","./1_3_Stimuli/C_ambi40.png","自我","Word","自我","Match","j","true","Formal",""
"","","","","","psychophysics","321","983227","0.0-9.0-0.0-0.110","589","","f","","","","","","","","","","","","","key","f","33.33274509804095","720","476","./1_3_Stimuli/S_ambi40.png","朋友","Image","他人","Mismatch","f","true","Formal",""
"","","","","","psychophysics","322","985150","0.0-9.0-0.0-0.111","770","","j","","","","","","","","","","","","","key","j","33.33262499999962","720","476","./1_3_Stimuli/T_ambi40.png","朋友","Word","朋友","Match","j","true","Formal",""
"","","","","","psychophysics","323","986954","0.0-9.0-0.0-0.112","651","","j","","","","","","","","","","","","","key","j","33.3322452830199","720","476","./1_3_Stimuli/S_ambi40.png","他人","Word","他人","Match","j","true","Formal",""
"","","","","","psychophysics","324","988581","0.0-9.0-0.0-0.113","474","","f","","","","","","","","","","","","","key","f","33.333291666667115","720","476","./1_3_Stimuli/T_ambi40.png","自我","Word","朋友","Mismatch","f","true","Formal",""
"","","","","","psychophysics","325","990349","0.0-9.0-0.0-0.114","617","","f","","","","","","","","","","","","","key","f","33.333673076923546","720","476","./1_3_Stimuli/T_ambi40.png","朋友","Image","朋友","Match","j","false","Formal",""
"","","","","","psychophysics","326","992200","0.0-9.0-0.0-0.115","698","","f","","","","","","","","","","","","","key","f","33.33047272727232","720","476","./1_3_Stimuli/S_ambi40.png","自我","Word","他人","Mismatch","f","true","Formal",""
"","","","","","psychophysics","327","993821","0.0-9.0-0.0-0.116","469","","j","","","","","","","","","","","","","key","j","33.33065957446741","720","476","./1_3_Stimuli/S_ambi40.png","他人","Image","他人","Match","j","true","Formal",""
"","","","","","psychophysics","328","995566","0.0-9.0-0.0-0.117","591","","f","","","","","","","","","","","","","key","f","33.333365384614666","720","476","./1_3_Stimuli/S_ambi40.png","朋友","Word","他人","Mismatch","f","true","Formal",""
"","","","","","psychophysics","329","997907","0.0-9.0-0.0-0.118","1189","","f","","","","","","","","","","","","","key","f","33.334260869565405","720","476","./1_3_Stimuli/T_ambi40.png","他人","Word","朋友","Mismatch","f","true","Formal",""
"","","","","","psychophysics","330","999568","0.0-9.0-0.0-0.119","508","","j","","","","","","","","","","","","","key","j","33.33534693877612","720","476","./1_3_Stimuli/C_ambi40.png","自我","Word","自我","Match","j","true","Formal",""
"","","","","","html-keyboard-response","331","1016888","0.0-9.0-1.0","17315","<style>.context{color:white; font-size: 35px; line-height:40px}</style>                        <div><p class='context'>您正确回答了94% 的试次。</p><p class='context'>您的平均反应时为714毫秒。</p><p> <div style = 'color: green'><按任意键进入休息></div></p>"," ","","","","","","","","","","","","","","","","","","","","","","","","","",""
"","","","","","html-button-response","332","1101811","0.0-9.0-2.0","84902","
                  <p>您当前还剩余5组实验</p>
                  <p>现在是休息时间，当您结束休息后，您可以点击 结束休息 按钮 继续</p>
                  <p>建议休息时间还剩余<span id=""iii"">60</span>秒</p>","0","","","","","","","","","","","","","","","","","","","","","","","","","",""
"","","","","","psychophysics","333","1104523","0.0-9.0-0.1-0.120","null","","null","","","","","","","","","","","","","key","null","33.33121249999967","720","476","./1_3_Stimuli/S_ambi40.png","自我","Word","他人","Mismatch","f","false","Formal",""
"","","","","","psychophysics","334","1106320","0.0-9.0-0.1-0.121","645","","f","","","","","","","","","","","","","key","f","33.332660377359474","720","476","./1_3_Stimuli/C_ambi40.png","他人","Word","自我","Mismatch","f","true","Formal",""
"","","","","","psychophysics","335","1108116","0.0-9.0-0.1-0.122","643","","f","","","","","","","","","","","","","key","f","33.33273584905678","720","476","./1_3_Stimuli/T_ambi40.png","朋友","Word","朋友","Match","j","false","Formal",""
"","","","","","psychophysics","336","1110029","0.0-9.0-0.1-0.123","759","","f","","","","","","","","","","","","","key","f","33.331999999999034","720","476","./1_3_Stimuli/S_ambi40.png","朋友","Image","他人","Mismatch","f","true","Formal",""
"","","","","","psychophysics","337","1111900","0.0-9.0-0.1-0.124","719","","f","","","","","","","","","","","","","key","f","33.332054545455186","720","476","./1_3_Stimuli/T_ambi40.png","自我","Image","朋友","Mismatch","f","true","Formal",""
"","","","","","psychophysics","338","1113991","0.0-9.0-0.1-0.125","938","","j","","","","","","","","","","","","","key","j","33.33559677419027","720","476","./1_3_Stimuli/T_ambi40.png","朋友","Image","朋友","Match","j","true","Formal",""
"","","","","","psychophysics","339","1115763","0.0-9.0-0.1-0.126","618","","f","","","","","","","","","","","","","key","f","33.33236538461642","720","476","./1_3_Stimuli/C_ambi40.png","朋友","Word","自我","Mismatch","f","true","Formal",""
"","","","","","psychophysics","340","1117363","0.0-9.0-0.1-0.127","446","","j","","","","","","","","","","","","","key","j","33.33191489361405","720","476","./1_3_Stimuli/C_ambi40.png","自我","Image","自我","Match","j","true","Formal",""
"","","","","","psychophysics","341","1118973","0.0-9.0-0.1-0.128","458","","j","","","","","","","","","","","","","key","j","33.33138297872242","720","476","./1_3_Stimuli/C_ambi40.png","自我","Image","自我","Match","j","true","Formal",""
"","","","","","psychophysics","342","1120735","0.0-9.0-0.1-0.129","609","","j","","","","","","","","","","","","","key","j","33.32750000000054","720","476","./1_3_Stimuli/S_ambi40.png","他人","Word","他人","Match","j","true","Formal",""
"","","","","","psychophysics","343","1122358","0.0-9.0-0.1-0.130","469","","j","","","","","","","","","","","","","key","j","33.32414893617239","720","476","./1_3_Stimuli/S_ambi40.png","他人","Image","他人","Match","j","true","Formal",""
"","","","","","psychophysics","344","1123997","0.0-9.0-0.1-0.131","486","","j","","","","","","","","","","","","","key","j","33.33218750000136","720","476","./1_3_Stimuli/S_ambi40.png","他人","Image","他人","Match","j","true","Formal",""
"","","","","","psychophysics","345","1125815","0.0-9.0-0.1-0.132","665","","f","","","","","","","","","","","","","key","f","33.331481481479756","720","476","./1_3_Stimuli/S_ambi40.png","朋友","Word","他人","Mismatch","f","true","Formal",""
"","","","","","psychophysics","346","1127463","0.0-9.0-0.1-0.133","495","","j","","","","","","","","","","","","","key","j","33.334791666668025","720","476","./1_3_Stimuli/C_ambi40.png","自我","Word","自我","Match","j","true","Formal",""
"","","","","","psychophysics","347","1129053","0.0-9.0-0.1-0.134","437","","f","","","","","","","","","","","","","key","f","33.32948936170284","720","476","./1_3_Stimuli/C_ambi40.png","他人","Image","自我","Mismatch","f","true","Formal",""
"","","","","","psychophysics","348","1130659","0.0-9.0-0.1-0.135","455","","j","","","","","","","","","","","","","key","j","33.33076595744376","720","476","./1_3_Stimuli/C_ambi40.png","自我","Word","自我","Match","j","true","Formal",""
"","","","","","psychophysics","349","1132390","0.0-9.0-0.1-0.136","579","","f","","","","","","","","","","","","","key","f","33.33200000000058","720","476","./1_3_Stimuli/T_ambi40.png","他人","Word","朋友","Mismatch","f","true","Formal",""
"","","","","","psychophysics","350","1134039","0.0-9.0-0.1-0.137","497","","j","","","","","","","","","","","","","key","j","33.33254166666787","720","476","./1_3_Stimuli/T_ambi40.png","朋友","Word","朋友","Match","j","true","Formal",""
"","","","","","psychophysics","351","1135757","0.0-9.0-0.1-0.138","566","","f","","","","","","","","","","","","","key","f","33.331740000001155","720","476","./1_3_Stimuli/T_ambi40.png","自我","Word","朋友","Mismatch","f","true","Formal",""
"","","","","","psychophysics","352","1137426","0.0-9.0-0.1-0.139","517","","j","","","","","","","","","","","","","key","j","33.328653061225516","720","476","./1_3_Stimuli/S_ambi40.png","他人","Word","他人","Match","j","true","Formal",""
"","","","","","psychophysics","353","1139205","0.0-9.0-0.1-0.140","627","","f","","","","","","","","","","","","","key","f","33.331999999999354","720","476","./1_3_Stimuli/S_ambi40.png","自我","Image","他人","Mismatch","f","true","Formal",""
"","","","","","psychophysics","354","1141270","0.0-9.0-0.1-0.141","913","","f","","","","","","","","","","","","","key","f","33.33326229508432","720","476","./1_3_Stimuli/T_ambi40.png","他人","Image","朋友","Mismatch","f","true","Formal",""
"","","","","","psychophysics","355","1142866","0.0-9.0-0.1-0.142","443","","j","","","","","","","","","","","","","key","j","33.33082608695891","720","476","./1_3_Stimuli/C_ambi40.png","朋友","Image","自我","Mismatch","f","false","Formal",""
"","","","","","psychophysics","356","1144730","0.0-9.0-0.1-0.143","713","","f","","","","","","","","","","","","","key","f","33.338727272725244","720","476","./1_3_Stimuli/T_ambi40.png","朋友","Image","朋友","Match","j","false","Formal",""
"","","","","","psychophysics","357","1146479","0.0-9.0-0.1-0.144","594","","j","","","","","","","","","","","","","key","j","33.332921568628436","720","476","./1_3_Stimuli/T_ambi40.png","朋友","Word","朋友","Match","j","true","Formal",""
"","","","","","psychophysics","358","1148415","0.0-9.0-0.1-0.145","781","","f","","","","","","","","","","","","","key","f","33.32638596490908","720","476","./1_3_Stimuli/C_ambi40.png","他人","Word","自我","Mismatch","f","true","Formal",""
"","","","","","psychophysics","359","1150514","0.0-9.0-0.1-0.146","946","","f","","","","","","","","","","","","","key","f","33.33632258064444","720","476","./1_3_Stimuli/T_ambi40.png","自我","Image","朋友","Mismatch","f","true","Formal",""
"","","","","","psychophysics","360","1152322","0.0-9.0-0.1-0.147","656","","j","","","","","","","","","","","","","key","j","33.33139622641534","720","476","./1_3_Stimuli/T_ambi40.png","朋友","Image","朋友","Match","j","true","Formal",""
"","","","","","psychophysics","361","1154092","0.0-9.0-0.1-0.148","617","","f","","","","","","","","","","","","","key","f","33.32223076923177","720","476","./1_3_Stimuli/T_ambi40.png","自我","Word","朋友","Mismatch","f","true","Formal",""
"","","","","","psychophysics","362","1155803","0.0-9.0-0.1-0.149","558","","f","","","","","","","","","","","","","key","f","33.334180000000636","720","476","./1_3_Stimuli/S_ambi40.png","朋友","Image","他人","Mismatch","f","true","Formal",""
"","","","","","psychophysics","363","1157581","0.0-9.0-0.1-0.150","626","","f","","","","","","","","","","","","","key","f","33.33169230769048","720","476","./1_3_Stimuli/C_ambi40.png","朋友","Image","自我","Mismatch","f","true","Formal",""
"","","","","","psychophysics","364","1159603","0.0-9.0-0.1-0.151","867","","f","","","","","","","","","","","","","key","f","33.3338983050879","720","476","./1_3_Stimuli/S_ambi40.png","自我","Image","他人","Mismatch","f","true","Formal",""
"","","","","","psychophysics","365","1161447","0.0-9.0-0.1-0.152","692","","f","","","","","","","","","","","","","key","f","33.33277777777726","720","476","./1_3_Stimuli/S_ambi40.png","自我","Word","他人","Mismatch","f","true","Formal",""
"","","","","","psychophysics","366","1163068","0.0-9.0-0.1-0.153","465","","j","","","","","","","","","","","","","key","j","33.332255319152225","720","476","./1_3_Stimuli/C_ambi40.png","自我","Word","自我","Match","j","true","Formal",""
"","","","","","psychophysics","367","1164740","0.0-9.0-0.1-0.154","519","","f","","","","","","","","","","","","","key","f","33.32989583333256","720","476","./1_3_Stimuli/S_ambi40.png","他人","Word","他人","Match","j","false","Formal",""
"","","","","","psychophysics","368","1166540","0.0-9.0-0.1-0.155","647","","j","","","","","","","","","","","","","key","j","33.33264150943185","720","476","./1_3_Stimuli/T_ambi40.png","朋友","Word","朋友","Match","j","true","Formal",""
"","","","","","psychophysics","369","1168419","0.0-9.0-0.1-0.156","727","","j","","","","","","","","","","","","","key","j","33.33109090909023","720","476","./1_3_Stimuli/S_ambi40.png","他人","Image","他人","Match","j","true","Formal",""
"","","","","","psychophysics","370","1170137","0.0-9.0-0.1-0.157","566","","f","","","","","","","","","","","","","key","f","33.33497999999672","720","476","./1_3_Stimuli/T_ambi40.png","他人","Image","朋友","Mismatch","f","true","Formal",""
"","","","","","psychophysics","371","1171735","0.0-9.0-0.1-0.158","444","","j","","","","","","","","","","","","","key","j","33.325934782604","720","476","./1_3_Stimuli/C_ambi40.png","自我","Image","自我","Match","j","true","Formal",""
"","","","","","psychophysics","372","1173304","0.0-9.0-0.1-0.159","415","","j","","","","","","","","","","","","","key","j","33.33341304347446","720","476","./1_3_Stimuli/S_ambi40.png","他人","Word","他人","Match","j","true","Formal",""
"","","","","","psychophysics","373","1175070","0.0-9.0-0.1-0.160","613","","f","","","","","","","","","","","","","key","f","33.33235294117556","720","476","./1_3_Stimuli/S_ambi40.png","朋友","Word","他人","Mismatch","f","true","Formal",""
"","","","","","psychophysics","374","1176891","0.0-9.0-0.1-0.161","669","","f","","","","","","","","","","","","","key","f","33.332722222225534","720","476","./1_3_Stimuli/C_ambi40.png","他人","Image","自我","Mismatch","f","true","Formal",""
"","","","","","psychophysics","375","1178525","0.0-9.0-0.1-0.162","482","","j","","","","","","","","","","","","","key","j","33.333791666669036","720","476","./1_3_Stimuli/C_ambi40.png","自我","Image","自我","Match","j","true","Formal",""
"","","","","","psychophysics","376","1180259","0.0-9.0-0.1-0.163","581","","f","","","","","","","","","","","","","key","f","33.333235294115276","720","476","./1_3_Stimuli/T_ambi40.png","朋友","Image","朋友","Match","j","false","Formal",""
"","","","","","psychophysics","377","1181968","0.0-9.0-0.1-0.164","557","","f","","","","","","","","","","","","","key","f","33.33189999999944","720","476","./1_3_Stimuli/C_ambi40.png","朋友","Word","自我","Mismatch","f","true","Formal",""
"","","","","","psychophysics","378","1183742","0.0-9.0-0.1-0.165","620","","f","","","","","","","","","","","","","key","f","33.333230769230376","720","476","./1_3_Stimuli/T_ambi40.png","他人","Word","朋友","Mismatch","f","true","Formal",""
"","","","","","psychophysics","379","1185266","0.0-9.0-0.1-0.166","371","","j","","","","","","","","","","","","","key","j","33.33200000000017","720","476","./1_3_Stimuli/S_ambi40.png","他人","Image","他人","Match","j","true","Formal",""
"","","","","","psychophysics","380","1186931","0.0-9.0-0.1-0.167","511","","j","","","","","","","","","","","","","key","j","33.33167346938969","720","476","./1_3_Stimuli/C_ambi40.png","自我","Word","自我","Match","j","true","Formal",""
"","","","","","psychophysics","381","1188639","0.0-9.0-0.1-0.168","550","","f","","","","","","","","","","","","","key","f","33.32716326530529","720","476","./1_3_Stimuli/T_ambi40.png","朋友","Image","朋友","Match","j","false","Formal",""
"","","","","","psychophysics","382","1190750","0.0-9.0-0.1-0.169","959","","f","","","","","","","","","","","","","key","f","33.332428571428096","720","476","./1_3_Stimuli/S_ambi40.png","自我","Image","他人","Mismatch","f","true","Formal",""
"","","","","","psychophysics","383","1192357","0.0-9.0-0.1-0.170","455","","j","","","","","","","","","","","","","key","j","33.33161702127434","720","476","./1_3_Stimuli/C_ambi40.png","自我","Image","自我","Match","j","true","Formal",""
"","","","","","psychophysics","384","1194130","0.0-9.0-0.1-0.171","619","","j","","","","","","","","","","","","","key","j","33.33621153846168","720","476","./1_3_Stimuli/S_ambi40.png","他人","Image","他人","Match","j","true","Formal",""
"","","","","","psychophysics","385","1195699","0.0-9.0-0.1-0.172","416","","j","","","","","","","","","","","","","key","j","33.33202173912635","720","476","./1_3_Stimuli/S_ambi40.png","他人","Image","他人","Match","j","true","Formal",""
"","","","","","psychophysics","386","1197496","0.0-9.0-0.1-0.173","644","","f","","","","","","","","","","","","","key","f","33.33330188679316","720","476","./1_3_Stimuli/C_ambi40.png","他人","Image","自我","Mismatch","f","true","Formal",""
"","","","","","psychophysics","387","1199566","0.0-9.0-0.1-0.174","917","","f","","","","","","","","","","","","","key","f","33.33200000000156","720","476","./1_3_Stimuli/T_ambi40.png","他人","Image","朋友","Mismatch","f","true","Formal",""
"","","","","","psychophysics","388","1201177","0.0-9.0-0.1-0.175","456","","j","","","","","","","","","","","","","key","j","33.33204255318962","720","476","./1_3_Stimuli/C_ambi40.png","自我","Word","自我","Match","j","true","Formal",""
"","","","","","psychophysics","389","1203245","0.0-9.0-0.1-0.176","916","","f","","","","","","","","","","","","","key","f","33.331885245899656","720","476","./1_3_Stimuli/T_ambi40.png","自我","Image","朋友","Mismatch","f","true","Formal",""
"","","","","","psychophysics","390","1205051","0.0-9.0-0.1-0.177","653","","f","","","","","","","","","","","","","key","f","33.333113207543306","720","476","./1_3_Stimuli/S_ambi40.png","朋友","Word","他人","Mismatch","f","true","Formal",""
"","","","","","psychophysics","391","1206646","0.0-9.0-0.1-0.178","443","","j","","","","","","","","","","","","","key","j","33.33197872340184","720","476","./1_3_Stimuli/S_ambi40.png","他人","Word","他人","Match","j","true","Formal",""
"","","","","","psychophysics","392","1208762","0.0-9.0-0.1-0.179","962","","f","","","","","","","","","","","","","key","f","33.33275806451697","720","476","./1_3_Stimuli/C_ambi40.png","朋友","Image","自我","Mismatch","f","true","Formal",""
"","","","","","psychophysics","393","1210453","0.0-9.0-0.1-0.180","537","","f","","","","","","","","","","","","","key","f","33.33532000000123","720","476","./1_3_Stimuli/S_ambi40.png","朋友","Image","他人","Mismatch","f","true","Formal",""
"","","","","","psychophysics","394","1212110","0.0-9.0-0.1-0.181","504","","j","","","","","","","","","","","","","key","j","33.33291666666628","720","476","./1_3_Stimuli/T_ambi40.png","朋友","Image","朋友","Match","j","true","Formal",""
"","","","","","psychophysics","395","1213805","0.0-9.0-0.1-0.182","541","","f","","","","","","","","","","","","","key","f","33.32883673469175","720","476","./1_3_Stimuli/T_ambi40.png","自我","Word","朋友","Mismatch","f","true","Formal",""
"","","","","","psychophysics","396","1215619","0.0-9.0-0.1-0.183","661","","f","","","","","","","","","","","","","key","f","33.33341509434131","720","476","./1_3_Stimuli/C_ambi40.png","朋友","Word","自我","Mismatch","f","true","Formal",""
"","","","","","psychophysics","397","1217504","0.0-9.0-0.1-0.184","733","","j","","","","","","","","","","","","","key","j","33.33250909090804","720","476","./1_3_Stimuli/T_ambi40.png","朋友","Word","朋友","Match","j","true","Formal",""
"","","","","","psychophysics","398","1219206","0.0-9.0-0.1-0.185","548","","f","","","","","","","","","","","","","key","f","33.33441999999806","720","476","./1_3_Stimuli/T_ambi40.png","他人","Word","朋友","Mismatch","f","true","Formal",""
"","","","","","psychophysics","399","1220851","0.0-9.0-0.1-0.186","493","","j","","","","","","","","","","","","","key","j","33.33175000000241","720","476","./1_3_Stimuli/C_ambi40.png","自我","Image","自我","Match","j","true","Formal",""
"","","","","","psychophysics","400","1222614","0.0-9.0-0.1-0.187","609","","j","","","","","","","","","","","","","key","j","33.333519230771344","720","476","./1_3_Stimuli/C_ambi40.png","自我","Word","自我","Match","j","true","Formal",""
"","","","","","psychophysics","401","1224491","0.0-9.0-0.1-0.188","726","","j","","","","","","","","","","","","","key","j","33.33181818181818","720","476","./1_3_Stimuli/S_ambi40.png","他人","Word","他人","Match","j","true","Formal",""
"","","","","","psychophysics","402","1226474","0.0-9.0-0.1-0.189","831","","j","","","","","","","","","","","","","key","j","33.3329137931056","720","476","./1_3_Stimuli/T_ambi40.png","朋友","Word","朋友","Match","j","true","Formal",""
"","","","","","psychophysics","403","1228128","0.0-9.0-0.1-0.190","502","","f","","","","","","","","","","","","","key","f","33.33162500000132","720","476","./1_3_Stimuli/C_ambi40.png","他人","Word","自我","Mismatch","f","true","Formal",""
"","","","","","psychophysics","404","1229707","0.0-9.0-0.1-0.191","426","","j","","","","","","","","","","","","","key","j","33.33184782608473","720","476","./1_3_Stimuli/S_ambi40.png","自我","Word","他人","Mismatch","f","false","Formal",""
"","","","","","psychophysics","405","1232244","0.0-9.0-0.1-0.192","1381","","j","","","","","","","","","","","","","key","j","33.33283783783948","720","476","./1_3_Stimuli/T_ambi40.png","朋友","Word","朋友","Match","j","true","Formal",""
"","","","","","psychophysics","406","1234030","0.0-9.0-0.1-0.193","632","","f","","","","","","","","","","","","","key","f","33.33263461538501","720","476","./1_3_Stimuli/S_ambi40.png","自我","Image","他人","Mismatch","f","true","Formal",""
"","","","","","psychophysics","407","1235780","0.0-9.0-0.1-0.194","597","","f","","","","","","","","","","","","","key","f","33.33243137254727","720","476","./1_3_Stimuli/T_ambi40.png","他人","Word","朋友","Mismatch","f","true","Formal",""
"","","","","","psychophysics","408","1237627","0.0-9.0-0.1-0.195","694","","j","","","","","","","","","","","","","key","j","33.33216666666515","720","476","./1_3_Stimuli/S_ambi40.png","他人","Image","他人","Match","j","true","Formal",""
"","","","","","psychophysics","409","1239307","0.0-9.0-0.1-0.196","529","","j","","","","","","","","","","","","","key","j","33.33144897959024","720","476","./1_3_Stimuli/S_ambi40.png","他人","Word","他人","Match","j","true","Formal",""
"","","","","","psychophysics","410","1241101","0.0-9.0-0.1-0.197","640","","f","","","","","","","","","","","","","key","f","33.334250000001006","720","476","./1_3_Stimuli/C_ambi40.png","朋友","Word","自我","Mismatch","f","true","Formal",""
"","","","","","psychophysics","411","1243119","0.0-9.0-0.1-0.198","865","","f","","","","","","","","","","","","","key","f","33.33220338983209","720","476","./1_3_Stimuli/S_ambi40.png","朋友","Image","他人","Mismatch","f","true","Formal",""
"","","","","","psychophysics","412","1244880","0.0-9.0-0.1-0.199","607","","j","","","","","","","","","","","","","key","j","33.333596153847445","720","476","./1_3_Stimuli/T_ambi40.png","朋友","Word","朋友","Match","j","true","Formal",""
"","","","","","psychophysics","413","1246538","0.0-9.0-0.1-0.200","506","","j","","","","","","","","","","","","","key","j","33.33087499999965","720","476","./1_3_Stimuli/C_ambi40.png","自我","Word","自我","Match","j","true","Formal",""
"","","","","","psychophysics","414","1248290","0.0-9.0-0.1-0.201","600","","f","","","","","","","","","","","","","key","f","33.33274999999692","720","476","./1_3_Stimuli/C_ambi40.png","他人","Word","自我","Mismatch","f","true","Formal",""
"","","","","","psychophysics","415","1249871","0.0-9.0-0.1-0.202","429","","j","","","","","","","","","","","","","key","j","33.333217391303904","720","476","./1_3_Stimuli/C_ambi40.png","朋友","Image","自我","Mismatch","f","false","Formal",""
