"success","timeout","failed_images","failed_audio","failed_video","trial_type","trial_index","time_elapsed","internal_node_id","rt","stimulus","response","value","item_width_mm","item_height_mm","item_width_px","px2mm","view_dist_mm","item_width_deg","px2deg","scale_factor","win_width_deg","win_height_deg","view_history","response_type","key_press","avg_frame_time","center_x","center_y","image","word","target","valence","matchness","correct_response","correct","exp_condition","question_order"
"true","false","[]","[]","[]","preload","0","509","0.0-0.0","","","","","","","","","","","","","","","","","","","","","","","","","","","","",""
"","","","","","html-keyboard-response","1","9419","0.0-1.0","8910","
     <p>您好，欢迎参加本次实验。</p>
     <p>为充分保障您的权利，请确保您已经知晓并同意《参与实验同意书》以及《数据公开知情同意书》。</p>
     <p>如果您未见过上述内容，请咨询实验员。</p>
     <p>如果您选择继续实验，则表示您已经清楚两份知情同意书的内容并同意。</p>
     <p> <div style = ""color: green""><按任意键至下页></div> </p>
     "," ","","","","","","","","","","","","","","","","","","","","","","","","","",""
"","","","","","html-keyboard-response","2","10508","0.0-2.0-0.0","1088","
      <p>本实验首先需要您填写一些基本个人信息。</p>
      <p> <div style = ""color: green""><按任意键至下页></div></p>
      "," ","","","","","","","","","","","","","","","","","","","","","","","","","",""
"","","","","","call-function","3","10508","0.0-2.0-1.0","","","","","","","","","","","","","","","","","","","","","","","","","","","","",""
"","","","","","survey-html-form","4","18942","0.0-2.0-2.0","8433","","{""Q0"":""1036""}","","","","","","","","","","","","","","","","","","","","","","","","","",""
"","","","","","html-button-response","5","20118","0.0-2.0-3.0","1175","<p style = 'color : white'>您的性别</p>","1","","","","","","","","","","","","","","","","","","","","","","","","","",""
"","","","","","survey-html-form","6","23734","0.0-2.0-4.0","3615","","{""Q0"":""2003""}","","","","","","","","","","","","","","","","","","","","","","","","","",""
"","","","","","survey-html-form","7","25998","0.0-2.0-5.0","2264","","{""Q0"":""5""}","","","","","","","","","","","","","","","","","","","","","","","","","",""
"","","","","","virtual-chinrest","8","124126","0.0-3.0","98127","","","","85.6","53.98","422.611933975328","4.9380057525994205","579.21","8.452238679506559","50","0.8849726425894875","29.76","14.16","","","","","","","","","","","","","","",""
"true","","","","","fullscreen","9","128248","0.0-4.0","","","","","","","","","","","","","","","","","","","","","","","","","","","","",""
"","","","","","instructions","10","160606","0.0-5.0","32356","","","","","","","","","","","","","","[{""page_index"":0,""viewing_time"":5532},{""page_index"":1,""viewing_time"":15728},{""page_index"":2,""viewing_time"":9376},{""page_index"":3,""viewing_time"":1720}]","","","","","","","","","","","","","",""
"","","","","","html-keyboard-response","11","164264","0.0-6.0","null","<count-down title=""""></count-down>","null","","","","","","","","","","","","","","","","","","","","","","","","","",""
"","","","","","psychophysics","12","166970","0.0-7.0-0.0-0.0","null","","null","","","","","","","","","","","","","key","null","16.664814814814886","768","428","./1_3_Stimuli/T_ambi40.png","朋友","Word","朋友","Match","f","false","Practice",""
"","","","","","html-keyboard-response","13","167273","0.0-7.0-0.0-1.0","null","<span class='add_' style='color:yellow; font-size: 70px;'> 太慢! </span>","null","","","","","","","","","","","","","","","","","","","","","","","","","feedback",""
"","","","","","psychophysics","14","169976","0.0-7.0-0.0-0.1","null","","null","","","","","","","","","","","","","key","null","16.665217391304385","768","428","./1_3_Stimuli/T_ambi40.png","他人","Image","朋友","Mismatch","j","false","Practice",""
"","","","","","html-keyboard-response","15","170286","0.0-7.0-0.0-1.1","null","<span class='add_' style='color:yellow; font-size: 70px;'> 太慢! </span>","null","","","","","","","","","","","","","","","","","","","","","","","","","feedback",""
"","","","","","psychophysics","16","171595","0.0-7.0-0.0-0.2","158","","f","","","","","","","","","","","","","key","f","16.666233766233994","768","428","./1_3_Stimuli/S_ambi40.png","自我","Word","自我","Match","f","true","Practice",""
"","","","","","html-keyboard-response","17","171903","0.0-7.0-0.0-1.2","null","<span style='color:yellow; font-size: 70px;'>过快! </span>","null","","","","","","","","","","","","","","","","","","","","","","","","","feedback",""
"","","","","","psychophysics","18","173655","0.0-7.0-0.0-0.3","600","","j","","","","","","","","","","","","","key","j","16.667307692307638","768","428","./1_3_Stimuli/C_ambi40.png","朋友","Image","他人","Mismatch","j","true","Practice",""
"","","","","","html-keyboard-response","19","173957","0.0-7.0-0.0-1.3","null","<span style='color:GreenYellow; font-size: 70px;'>正确! </span>","null","","","","","","","","","","","","","","","","","","","","","","","","","feedback",""
"","","","","","psychophysics","20","175548","0.0-7.0-0.0-0.4","429","","j","","","","","","","","","","","","","key","j","16.667021276595868","768","428","./1_3_Stimuli/S_ambi40.png","他人","Image","自我","Mismatch","j","true","Practice",""
"","","","","","html-keyboard-response","21","175853","0.0-7.0-0.0-1.4","null","<span style='color:GreenYellow; font-size: 70px;'>正确! </span>","null","","","","","","","","","","","","","","","","","","","","","","","","","feedback",""
"","","","","","psychophysics","22","177196","0.0-7.0-0.0-0.5","193","","j","","","","","","","","","","","","","key","j","16.66962025316485","768","428","./1_3_Stimuli/C_ambi40.png","他人","Word","他人","Match","f","false","Practice",""
"","","","","","html-keyboard-response","23","177498","0.0-7.0-0.0-1.5","null","<span style='color:yellow; font-size: 70px;'>过快! </span>","null","","","","","","","","","","","","","","","","","","","","","","","","","feedback",""
"","","","","","psychophysics","24","178892","0.0-7.0-0.0-0.6","242","","f","","","","","","","","","","","","","key","f","16.665853658536655","768","428","./1_3_Stimuli/C_ambi40.png","自我","Word","他人","Mismatch","j","false","Practice",""
"","","","","","html-keyboard-response","25","179194","0.0-7.0-0.0-1.6","null","<span style='color:red; font-size: 70px;'>错误! </span>","null","","","","","","","","","","","","","","","","","","","","","","","","","feedback",""
"","","","","","psychophysics","26","180829","0.0-7.0-0.0-0.7","482","","j","","","","","","","","","","","","","key","j","16.666666666666668","768","428","./1_3_Stimuli/T_ambi40.png","朋友","Word","朋友","Match","f","false","Practice",""
"","","","","","html-keyboard-response","27","181145","0.0-7.0-0.0-1.7","null","<span style='color:red; font-size: 70px;'>错误! </span>","null","","","","","","","","","","","","","","","","","","","","","","","","","feedback",""
"","","","","","psychophysics","28","182531","0.0-7.0-0.0-0.8","233","","f","","","","","","","","","","","","","key","f","16.66341463414627","768","428","./1_3_Stimuli/T_ambi40.png","朋友","Image","朋友","Match","f","true","Practice",""
"","","","","","html-keyboard-response","29","182844","0.0-7.0-0.0-1.8","null","<span style='color:GreenYellow; font-size: 70px;'>正确! </span>","null","","","","","","","","","","","","","","","","","","","","","","","","","feedback",""
"","","","","","psychophysics","30","184392","0.0-7.0-0.0-0.9","396","","j","","","","","","","","","","","","","key","j","16.665217391304157","768","428","./1_3_Stimuli/C_ambi40.png","朋友","Word","他人","Mismatch","j","true","Practice",""
"","","","","","html-keyboard-response","31","184695","0.0-7.0-0.0-1.9","null","<span style='color:GreenYellow; font-size: 70px;'>正确! </span>","null","","","","","","","","","","","","","","","","","","","","","","","","","feedback",""
"","","","","","psychophysics","32","186208","0.0-7.0-0.0-0.10","357","","f","","","","","","","","","","","","","key","f","16.66629213483133","768","428","./1_3_Stimuli/S_ambi40.png","自我","Word","自我","Match","f","true","Practice",""
"","","","","","html-keyboard-response","33","186523","0.0-7.0-0.0-1.10","null","<span style='color:GreenYellow; font-size: 70px;'>正确! </span>","null","","","","","","","","","","","","","","","","","","","","","","","","","feedback",""
"","","","","","psychophysics","34","187961","0.0-7.0-0.0-0.11","281","","j","","","","","","","","","","","","","key","j","16.662352941176675","768","428","./1_3_Stimuli/S_ambi40.png","他人","Word","自我","Mismatch","j","true","Practice",""
"","","","","","html-keyboard-response","35","188273","0.0-7.0-0.0-1.11","null","<span style='color:GreenYellow; font-size: 70px;'>正确! </span>","null","","","","","","","","","","","","","","","","","","","","","","","","","feedback",""
"","","","","","psychophysics","36","189655","0.0-7.0-0.0-0.12","228","","f","","","","","","","","","","","","","key","f","16.665853658536655","768","428","./1_3_Stimuli/T_ambi40.png","朋友","Image","朋友","Match","f","true","Practice",""
"","","","","","html-keyboard-response","37","189960","0.0-7.0-0.0-1.12","null","<span style='color:GreenYellow; font-size: 70px;'>正确! </span>","null","","","","","","","","","","","","","","","","","","","","","","","","","feedback",""
"","","","","","psychophysics","38","191248","0.0-7.0-0.0-0.13","136","","j","","","","","","","","","","","","","key","j","16.66578947368429","768","428","./1_3_Stimuli/T_ambi40.png","自我","Image","朋友","Mismatch","j","true","Practice",""
"","","","","","html-keyboard-response","39","191554","0.0-7.0-0.0-1.13","null","<span style='color:yellow; font-size: 70px;'>过快! </span>","null","","","","","","","","","","","","","","","","","","","","","","","","","feedback",""
"","","","","","psychophysics","40","192985","0.0-7.0-0.0-0.14","277","","f","","","","","","","","","","","","","key","f","16.667058823529548","768","428","./1_3_Stimuli/S_ambi40.png","朋友","Word","自我","Mismatch","j","false","Practice",""
"","","","","","html-keyboard-response","41","193300","0.0-7.0-0.0-1.14","null","<span style='color:red; font-size: 70px;'>错误! </span>","null","","","","","","","","","","","","","","","","","","","","","","","","","feedback",""
"","","","","","psychophysics","42","194774","0.0-7.0-0.0-0.15","321","","f","","","","","","","","","","","","","key","f","16.65977011494246","768","428","./1_3_Stimuli/S_ambi40.png","朋友","Image","自我","Mismatch","j","false","Practice",""
"","","","","","html-keyboard-response","43","195091","0.0-7.0-0.0-1.15","null","<span style='color:red; font-size: 70px;'>错误! </span>","null","","","","","","","","","","","","","","","","","","","","","","","","","feedback",""
"","","","","","psychophysics","44","196379","0.0-7.0-0.0-0.16","127","","j","","","","","","","","","","","","","key","j","16.664473684210527","768","428","./1_3_Stimuli/C_ambi40.png","他人","Word","他人","Match","f","false","Practice",""
"","","","","","html-keyboard-response","45","196686","0.0-7.0-0.0-1.16","null","<span style='color:yellow; font-size: 70px;'>过快! </span>","null","","","","","","","","","","","","","","","","","","","","","","","","","feedback",""
"","","","","","psychophysics","46","199394","0.0-7.0-0.0-0.17","null","","null","","","","","","","","","","","","","key","null","16.66583850931666","768","428","./1_3_Stimuli/C_ambi40.png","自我","Image","他人","Mismatch","j","false","Practice",""
"","","","","","html-keyboard-response","47","199700","0.0-7.0-0.0-1.17","null","<span class='add_' style='color:yellow; font-size: 70px;'> 太慢! </span>","null","","","","","","","","","","","","","","","","","","","","","","","","","feedback",""
"","","","","","psychophysics","48","201178","0.0-7.0-0.0-0.18","327","","j","","","","","","","","","","","","","key","j","16.656321839080526","768","428","./1_3_Stimuli/T_ambi40.png","他人","Word","朋友","Mismatch","j","true","Practice",""
"","","","","","html-keyboard-response","49","201481","0.0-7.0-0.0-1.18","null","<span style='color:GreenYellow; font-size: 70px;'>正确! </span>","null","","","","","","","","","","","","","","","","","","","","","","","","","feedback",""
"","","","","","psychophysics","50","202978","0.0-7.0-0.0-0.19","344","","f","","","","","","","","","","","","","key","f","16.662921348314608","768","428","./1_3_Stimuli/C_ambi40.png","他人","Image","他人","Match","f","true","Practice",""
"","","","","","html-keyboard-response","51","203286","0.0-7.0-0.0-1.19","null","<span style='color:GreenYellow; font-size: 70px;'>正确! </span>","null","","","","","","","","","","","","","","","","","","","","","","","","","feedback",""
"","","","","","psychophysics","52","204876","0.0-7.0-0.0-0.20","427","","j","","","","","","","","","","","","","key","j","16.665957446808573","768","428","./1_3_Stimuli/S_ambi40.png","自我","Image","自我","Match","f","false","Practice",""
"","","","","","html-keyboard-response","53","205177","0.0-7.0-0.0-1.20","null","<span style='color:red; font-size: 70px;'>错误! </span>","null","","","","","","","","","","","","","","","","","","","","","","","","","feedback",""
"","","","","","psychophysics","54","206574","0.0-7.0-0.0-0.21","239","","f","","","","","","","","","","","","","key","f","16.665853658536655","768","428","./1_3_Stimuli/S_ambi40.png","自我","Image","自我","Match","f","true","Practice",""
"","","","","","html-keyboard-response","55","206883","0.0-7.0-0.0-1.21","null","<span style='color:GreenYellow; font-size: 70px;'>正确! </span>","null","","","","","","","","","","","","","","","","","","","","","","","","","feedback",""
"","","","","","psychophysics","56","208715","0.0-7.0-0.0-0.22","680","","j","","","","","","","","","","","","","key","j","16.65370370370349","768","428","./1_3_Stimuli/T_ambi40.png","自我","Word","朋友","Mismatch","j","true","Practice",""
"","","","","","html-keyboard-response","57","209029","0.0-7.0-0.0-1.22","null","<span style='color:GreenYellow; font-size: 70px;'>正确! </span>","null","","","","","","","","","","","","","","","","","","","","","","","","","feedback",""
"","","","","","psychophysics","58","210704","0.0-7.0-0.0-0.23","519","","f","","","","","","","","","","","","","key","f","16.665","768","428","./1_3_Stimuli/C_ambi40.png","他人","Image","他人","Match","f","true","Practice",""
"","","","","","html-keyboard-response","59","211005","0.0-7.0-0.0-1.23","null","<span style='color:GreenYellow; font-size: 70px;'>正确! </span>","null","","","","","","","","","","","","","","","","","","","","","","","","","feedback",""
"","","","","","html-keyboard-response","60","214806","0.0-7.0-1.0-0.0","3800","<style>.context{color:white; font-size: 35px; line-height:40px}</style>                        <div><p class='context'>您正确回答了58% 的试次。</p><p class='context'>您的平均反应时为352毫秒。</p><p> <div style = 'color: green'><按空格键至下页></div></p>"," ","","","","","","","","","","","","","","","","","","","","","","","","","",""
"","","","","","instructions","61","229103","0.0-7.0-1.0-1.0","14295","","","","","","","","","","","","","","[{""page_index"":0,""viewing_time"":5261},{""page_index"":1,""viewing_time"":8112},{""page_index"":2,""viewing_time"":920}]","","","","","","","","","","","","","",""
"","","","","","psychophysics","62","231433","0.0-7.1-0.1-0.24","1168","","f","","","","","","","","","","","","","key","f","16.665942028985466","768","428","./1_3_Stimuli/S_ambi40.png","朋友","Word","自我","Mismatch","j","false","Practice",""
"","","","","","html-keyboard-response","63","231746","0.0-7.1-0.1-1.24","null","<span style='color:red; font-size: 70px;'>错误! </span>","null","","","","","","","","","","","","","","","","","","","","","","","","","feedback",""
"","","","","","psychophysics","64","234451","0.0-7.1-0.1-0.25","null","","null","","","","","","","","","","","","","key","null","16.66583850931666","768","428","./1_3_Stimuli/C_ambi40.png","自我","Image","他人","Mismatch","j","false","Practice",""
"","","","","","html-keyboard-response","65","234768","0.0-7.1-0.1-1.25","null","<span class='add_' style='color:yellow; font-size: 70px;'> 太慢! </span>","null","","","","","","","","","","","","","","","","","","","","","","","","","feedback",""
"","","","","","psychophysics","66","236266","0.0-7.1-0.1-0.26","348","","f","","","","","","","","","","","","","key","f","16.664772727272727","768","428","./1_3_Stimuli/S_ambi40.png","他人","Image","自我","Mismatch","j","false","Practice",""
"","","","","","html-keyboard-response","67","236572","0.0-7.1-0.1-1.26","null","<span style='color:red; font-size: 70px;'>错误! </span>","null","","","","","","","","","","","","","","","","","","","","","","","","","feedback",""
"","","","","","psychophysics","68","238069","0.0-7.1-0.1-0.27","340","","j","","","","","","","","","","","","","key","j","16.662921348314608","768","428","./1_3_Stimuli/S_ambi40.png","自我","Word","自我","Match","f","false","Practice",""
"","","","","","html-keyboard-response","69","238382","0.0-7.1-0.1-1.27","null","<span style='color:red; font-size: 70px;'>错误! </span>","null","","","","","","","","","","","","","","","","","","","","","","","","","feedback",""
"","","","","","psychophysics","70","240782","0.0-7.1-0.1-0.28","1248","","f","","","","","","","","","","","","","key","f","16.666433566433486","768","428","./1_3_Stimuli/C_ambi40.png","他人","Word","他人","Match","f","true","Practice",""
"","","","","","html-keyboard-response","71","241084","0.0-7.1-0.1-1.28","null","<span style='color:GreenYellow; font-size: 70px;'>正确! </span>","null","","","","","","","","","","","","","","","","","","","","","","","","","feedback",""
"","","","","","psychophysics","72","242557","0.0-7.1-0.1-0.29","321","","f","","","","","","","","","","","","","key","f","16.665517241379245","768","428","./1_3_Stimuli/S_ambi40.png","他人","Word","自我","Mismatch","j","false","Practice",""
"","","","","","html-keyboard-response","73","242869","0.0-7.1-0.1-1.29","null","<span style='color:red; font-size: 70px;'>错误! </span>","null","","","","","","","","","","","","","","","","","","","","","","","","","feedback",""
"","","","","","psychophysics","74","244511","0.0-7.1-0.1-0.30","477","","f","","","","","","","","","","","","","key","f","16.664948453608247","768","428","./1_3_Stimuli/C_ambi40.png","他人","Word","他人","Match","f","true","Practice",""
"","","","","","html-keyboard-response","75","244819","0.0-7.1-0.1-1.30","null","<span style='color:GreenYellow; font-size: 70px;'>正确! </span>","null","","","","","","","","","","","","","","","","","","","","","","","","","feedback",""
"","","","","","psychophysics","76","246712","0.0-7.1-0.1-0.31","739","","j","","","","","","","","","","","","","key","j","16.665178571428573","768","428","./1_3_Stimuli/C_ambi40.png","自我","Word","他人","Mismatch","j","true","Practice",""
"","","","","","html-keyboard-response","77","247019","0.0-7.1-0.1-1.31","null","<span style='color:GreenYellow; font-size: 70px;'>正确! </span>","null","","","","","","","","","","","","","","","","","","","","","","","","","feedback",""
"","","","","","psychophysics","78","248761","0.0-7.1-0.1-0.32","588","","j","","","","","","","","","","","","","key","j","16.66504854368932","768","428","./1_3_Stimuli/S_ambi40.png","自我","Image","自我","Match","f","false","Practice",""
"","","","","","html-keyboard-response","79","249062","0.0-7.1-0.1-1.32","null","<span style='color:red; font-size: 70px;'>错误! </span>","null","","","","","","","","","","","","","","","","","","","","","","","","","feedback",""
"","","","","","psychophysics","80","251768","0.0-7.1-0.1-0.33","null","","null","","","","","","","","","","","","","key","null","16.663975155279466","768","428","./1_3_Stimuli/S_ambi40.png","自我","Word","自我","Match","f","false","Practice",""
"","","","","","html-keyboard-response","81","252071","0.0-7.1-0.1-1.33","null","<span class='add_' style='color:yellow; font-size: 70px;'> 太慢! </span>","null","","","","","","","","","","","","","","","","","","","","","","","","","feedback",""
"","","","","","psychophysics","82","254091","0.0-7.1-0.1-0.34","864","","j","","","","","","","","","","","","","key","j","16.665833333333286","768","428","./1_3_Stimuli/T_ambi40.png","朋友","Image","朋友","Match","f","false","Practice",""
"","","","","","html-keyboard-response","83","254395","0.0-7.1-0.1-1.34","null","<span style='color:red; font-size: 70px;'>错误! </span>","null","","","","","","","","","","","","","","","","","","","","","","","","","feedback",""
"","","","","","psychophysics","84","255954","0.0-7.1-0.1-0.35","402","","f","","","","","","","","","","","","","key","f","16.66344086021518","768","428","./1_3_Stimuli/S_ambi40.png","自我","Image","自我","Match","f","true","Practice",""
"","","","","","html-keyboard-response","85","256267","0.0-7.1-0.1-1.35","null","<span style='color:GreenYellow; font-size: 70px;'>正确! </span>","null","","","","","","","","","","","","","","","","","","","","","","","","","feedback",""
"","","","","","psychophysics","86","258554","0.0-7.1-0.1-0.36","1136","","f","","","","","","","","","","","","","key","f","16.665441176470587","768","428","./1_3_Stimuli/T_ambi40.png","他人","Image","朋友","Mismatch","j","false","Practice",""
"","","","","","html-keyboard-response","87","258857","0.0-7.1-0.1-1.36","null","<span style='color:red; font-size: 70px;'>错误! </span>","null","","","","","","","","","","","","","","","","","","","","","","","","","feedback",""
"","","","","","psychophysics","88","260731","0.0-7.1-0.1-0.37","721","","j","","","","","","","","","","","","","key","j","16.66576576576545","768","428","./1_3_Stimuli/C_ambi40.png","朋友","Image","他人","Mismatch","j","true","Practice",""
"","","","","","html-keyboard-response","89","261044","0.0-7.1-0.1-1.37","null","<span style='color:GreenYellow; font-size: 70px;'>正确! </span>","null","","","","","","","","","","","","","","","","","","","","","","","","","feedback",""
"","","","","","psychophysics","90","262548","0.0-7.1-0.1-0.38","353","","j","","","","","","","","","","","","","key","j","16.662921348314608","768","428","./1_3_Stimuli/C_ambi40.png","朋友","Word","他人","Mismatch","j","true","Practice",""
"","","","","","html-keyboard-response","91","262864","0.0-7.1-0.1-1.38","null","<span style='color:GreenYellow; font-size: 70px;'>正确! </span>","null","","","","","","","","","","","","","","","","","","","","","","","","","feedback",""
"","","","","","psychophysics","92","264200","0.0-7.1-0.1-0.39","185","","j","","","","","","","","","","","","","key","j","16.666249999999856","768","428","./1_3_Stimuli/C_ambi40.png","他人","Image","他人","Match","f","false","Practice",""
"","","","","","html-keyboard-response","93","264514","0.0-7.1-0.1-1.39","null","<span style='color:yellow; font-size: 70px;'>过快! </span>","null","","","","","","","","","","","","","","","","","","","","","","","","","feedback",""
"","","","","","psychophysics","94","266782","0.0-7.1-0.1-0.40","1115","","j","","","","","","","","","","","","","key","j","16.667407407407666","768","428","./1_3_Stimuli/T_ambi40.png","朋友","Word","朋友","Match","f","false","Practice",""
"","","","","","html-keyboard-response","95","267097","0.0-7.1-0.1-1.40","null","<span style='color:red; font-size: 70px;'>错误! </span>","null","","","","","","","","","","","","","","","","","","","","","","","","","feedback",""
"","","","","","psychophysics","96","269800","0.0-7.1-0.1-0.41","null","","null","","","","","","","","","","","","","key","null","16.66645962732948","768","428","./1_3_Stimuli/T_ambi40.png","朋友","Word","朋友","Match","f","false","Practice",""
"","","","","","html-keyboard-response","97","270104","0.0-7.1-0.1-1.41","null","<span class='add_' style='color:yellow; font-size: 70px;'> 太慢! </span>","null","","","","","","","","","","","","","","","","","","","","","","","","","feedback",""
"","","","","","psychophysics","98","272066","0.0-7.1-0.1-0.42","806","","j","","","","","","","","","","","","","key","j","16.664655172413593","768","428","./1_3_Stimuli/T_ambi40.png","自我","Image","朋友","Mismatch","j","true","Practice",""
"","","","","","html-keyboard-response","99","272377","0.0-7.1-0.1-1.42","null","<span style='color:GreenYellow; font-size: 70px;'>正确! </span>","null","","","","","","","","","","","","","","","","","","","","","","","","","feedback",""
"","","","","","psychophysics","100","274432","0.0-7.1-0.1-0.43","901","","f","","","","","","","","","","","","","key","f","16.66475409836094","768","428","./1_3_Stimuli/T_ambi40.png","他人","Word","朋友","Mismatch","j","false","Practice",""
"","","","","","html-keyboard-response","101","274747","0.0-7.1-0.1-1.43","null","<span style='color:red; font-size: 70px;'>错误! </span>","null","","","","","","","","","","","","","","","","","","","","","","","","","feedback",""
"","","","","","psychophysics","102","276015","0.0-7.1-0.1-0.44","115","","j","","","","","","","","","","","","","key","j","16.666666666666668","768","428","./1_3_Stimuli/T_ambi40.png","朋友","Image","朋友","Match","f","false","Practice",""
"","","","","","html-keyboard-response","103","276321","0.0-7.1-0.1-1.44","null","<span style='color:yellow; font-size: 70px;'>过快! </span>","null","","","","","","","","","","","","","","","","","","","","","","","","","feedback",""
"","","","","","psychophysics","104","277645","0.0-7.1-0.1-0.45","172","","f","","","","","","","","","","","","","key","f","16.666666666666668","768","428","./1_3_Stimuli/T_ambi40.png","自我","Word","朋友","Mismatch","j","false","Practice",""
"","","","","","html-keyboard-response","105","277956","0.0-7.1-0.1-1.45","null","<span style='color:yellow; font-size: 70px;'>过快! </span>","null","","","","","","","","","","","","","","","","","","","","","","","","","feedback",""
"","","","","","psychophysics","106","280283","0.0-7.1-0.1-0.46","1166","","j","","","","","","","","","","","","","key","j","16.665942028985675","768","428","./1_3_Stimuli/S_ambi40.png","朋友","Image","自我","Mismatch","j","true","Practice",""
"","","","","","html-keyboard-response","107","280586","0.0-7.1-0.1-1.46","null","<span style='color:GreenYellow; font-size: 70px;'>正确! </span>","null","","","","","","","","","","","","","","","","","","","","","","","","","feedback",""
"","","","","","psychophysics","108","282779","0.0-7.1-0.1-0.47","1037","","f","","","","","","","","","","","","","key","f","16.663846153846066","768","428","./1_3_Stimuli/C_ambi40.png","他人","Image","他人","Match","f","true","Practice",""
"","","","","","html-keyboard-response","109","283089","0.0-7.1-0.1-1.47","null","<span style='color:GreenYellow; font-size: 70px;'>正确! </span>","null","","","","","","","","","","","","","","","","","","","","","","","","","feedback",""
"","","","","","html-keyboard-response","110","285633","0.0-7.1-1.1-0.1","2543","<style>.context{color:white; font-size: 35px; line-height:40px}</style>                        <div><p class='context'>您正确回答了38% 的试次。</p><p class='context'>您的平均反应时为772毫秒。</p><p> <div style = 'color: green'><按空格键至下页></div></p>"," ","","","","","","","","","","","","","","","","","","","","","","","","","",""
"","","","","","instructions","111","293846","0.0-7.1-1.1-1.1","8211","","","","","","","","","","","","","","[{""page_index"":0,""viewing_time"":940},{""page_index"":1,""viewing_time"":5559},{""page_index"":2,""viewing_time"":1712}]","","","","","","","","","","","","","",""
"","","","","","psychophysics","112","296012","0.0-7.2-0.2-0.48","1013","","j","","","","","","","","","","","","","key","j","16.66562500000009","768","428","./1_3_Stimuli/S_ambi40.png","自我","Word","自我","Match","f","false","Practice",""
"","","","","","html-keyboard-response","113","296314","0.0-7.2-0.2-1.48","null","<span style='color:red; font-size: 70px;'>错误! </span>","null","","","","","","","","","","","","","","","","","","","","","","","","","feedback",""
"","","","","","psychophysics","114","298381","0.0-7.2-0.2-0.49","916","","f","","","","","","","","","","","","","key","f","16.665853658536776","768","428","./1_3_Stimuli/C_ambi40.png","他人","Word","他人","Match","f","true","Practice",""
"","","","","","html-keyboard-response","115","298683","0.0-7.2-0.2-1.49","null","<span style='color:GreenYellow; font-size: 70px;'>正确! </span>","null","","","","","","","","","","","","","","","","","","","","","","","","","feedback",""
"","","","","","psychophysics","116","301074","0.0-7.2-0.2-0.50","1240","","f","","","","","","","","","","","","","key","f","16.66549295774648","768","428","./1_3_Stimuli/T_ambi40.png","朋友","Word","朋友","Match","f","true","Practice",""
"","","","","","html-keyboard-response","117","301382","0.0-7.2-0.2-1.50","null","<span style='color:GreenYellow; font-size: 70px;'>正确! </span>","null","","","","","","","","","","","","","","","","","","","","","","","","","feedback",""
"","","","","","psychophysics","118","303312","0.0-7.2-0.2-0.51","779","","j","","","","","","","","","","","","","key","j","16.664912280701653","768","428","./1_3_Stimuli/C_ambi40.png","朋友","Word","他人","Mismatch","j","true","Practice",""
"","","","","","html-keyboard-response","119","303615","0.0-7.2-0.2-1.51","null","<span style='color:GreenYellow; font-size: 70px;'>正确! </span>","null","","","","","","","","","","","","","","","","","","","","","","","","","feedback",""
"","","","","","psychophysics","120","305615","0.0-7.2-0.2-0.52","849","","j","","","","","","","","","","","","","key","j","16.666101694915056","768","428","./1_3_Stimuli/T_ambi40.png","自我","Image","朋友","Mismatch","j","true","Practice",""
"","","","","","html-keyboard-response","121","305928","0.0-7.2-0.2-1.52","null","<span style='color:GreenYellow; font-size: 70px;'>正确! </span>","null","","","","","","","","","","","","","","","","","","","","","","","","","feedback",""
"","","","","","psychophysics","122","308634","0.0-7.2-0.2-0.53","null","","null","","","","","","","","","","","","","key","null","16.6672839506175","768","428","./1_3_Stimuli/T_ambi40.png","朋友","Image","朋友","Match","f","false","Practice",""
"","","","","","html-keyboard-response","123","308950","0.0-7.2-0.2-1.53","null","<span class='add_' style='color:yellow; font-size: 70px;'> 太慢! </span>","null","","","","","","","","","","","","","","","","","","","","","","","","","feedback",""
"","","","","","psychophysics","124","310851","0.0-7.2-0.2-0.54","751","","j","","","","","","","","","","","","","key","j","16.66548672566382","768","428","./1_3_Stimuli/T_ambi40.png","他人","Word","朋友","Mismatch","j","true","Practice",""
"","","","","","html-keyboard-response","125","311166","0.0-7.2-0.2-1.54","null","<span style='color:GreenYellow; font-size: 70px;'>正确! </span>","null","","","","","","","","","","","","","","","","","","","","","","","","","feedback",""
"","","","","","psychophysics","126","312836","0.0-7.2-0.2-0.55","519","","f","","","","","","","","","","","","","key","f","16.666666666666668","768","428","./1_3_Stimuli/C_ambi40.png","他人","Image","他人","Match","f","true","Practice",""
"","","","","","html-keyboard-response","127","313150","0.0-7.2-0.2-1.55","null","<span style='color:GreenYellow; font-size: 70px;'>正确! </span>","null","","","","","","","","","","","","","","","","","","","","","","","","","feedback",""
"","","","","","psychophysics","128","315311","0.0-7.2-0.2-0.56","1005","","f","","","","","","","","","","","","","key","f","16.6640625","768","428","./1_3_Stimuli/C_ambi40.png","自我","Image","他人","Mismatch","j","false","Practice",""
"","","","","","html-keyboard-response","129","315612","0.0-7.2-0.2-1.56","null","<span style='color:red; font-size: 70px;'>错误! </span>","null","","","","","","","","","","","","","","","","","","","","","","","","","feedback",""
"","","","","","psychophysics","130","317732","0.0-7.2-0.2-0.57","968","","j","","","","","","","","","","","","","key","j","16.6658730158732","768","428","./1_3_Stimuli/T_ambi40.png","他人","Image","朋友","Mismatch","j","true","Practice",""
"","","","","","html-keyboard-response","131","318036","0.0-7.2-0.2-1.57","null","<span style='color:GreenYellow; font-size: 70px;'>正确! </span>","null","","","","","","","","","","","","","","","","","","","","","","","","","feedback",""
"","","","","","psychophysics","132","320264","0.0-7.2-0.2-0.58","1065","","j","","","","","","","","","","","","","key","j","16.665909090908826","768","428","./1_3_Stimuli/C_ambi40.png","自我","Word","他人","Mismatch","j","true","Practice",""
"","","","","","html-keyboard-response","133","320569","0.0-7.2-0.2-1.58","null","<span style='color:GreenYellow; font-size: 70px;'>正确! </span>","null","","","","","","","","","","","","","","","","","","","","","","","","","feedback",""
"","","","","","psychophysics","134","322723","0.0-7.2-0.2-0.59","998","","f","","","","","","","","","","","","","key","f","16.664843749999818","768","428","./1_3_Stimuli/C_ambi40.png","他人","Word","他人","Match","f","true","Practice",""
"","","","","","html-keyboard-response","135","323030","0.0-7.2-0.2-1.59","null","<span style='color:GreenYellow; font-size: 70px;'>正确! </span>","null","","","","","","","","","","","","","","","","","","","","","","","","","feedback",""
"","","","","","psychophysics","136","324714","0.0-7.2-0.2-0.60","532","","f","","","","","","","","","","","","","key","f","16.661616161616163","768","428","./1_3_Stimuli/C_ambi40.png","他人","Image","他人","Match","f","true","Practice",""
"","","","","","html-keyboard-response","137","325024","0.0-7.2-0.2-1.60","null","<span style='color:GreenYellow; font-size: 70px;'>正确! </span>","null","","","","","","","","","","","","","","","","","","","","","","","","","feedback",""
"","","","","","psychophysics","138","326863","0.0-7.2-0.2-0.61","680","","j","","","","","","","","","","","","","key","j","16.665137614678898","768","428","./1_3_Stimuli/T_ambi40.png","自我","Word","朋友","Mismatch","j","true","Practice",""
"","","","","","html-keyboard-response","139","327170","0.0-7.2-0.2-1.61","null","<span style='color:GreenYellow; font-size: 70px;'>正确! </span>","null","","","","","","","","","","","","","","","","","","","","","","","","","feedback",""
"","","","","","psychophysics","140","329377","0.0-7.2-0.2-0.62","1050","","j","","","","","","","","","","","","","key","j","16.665648854961923","768","428","./1_3_Stimuli/C_ambi40.png","朋友","Image","他人","Mismatch","j","true","Practice",""
"","","","","","html-keyboard-response","141","329686","0.0-7.2-0.2-1.62","null","<span style='color:GreenYellow; font-size: 70px;'>正确! </span>","null","","","","","","","","","","","","","","","","","","","","","","","","","feedback",""
"","","","","","psychophysics","142","331791","0.0-7.2-0.2-0.63","951","","j","","","","","","","","","","","","","key","j","16.666399999999907","768","428","./1_3_Stimuli/T_ambi40.png","朋友","Image","朋友","Match","f","false","Practice",""
"","","","","","html-keyboard-response","143","332095","0.0-7.2-0.2-1.63","null","<span style='color:red; font-size: 70px;'>错误! </span>","null","","","","","","","","","","","","","","","","","","","","","","","","","feedback",""
"","","","","","psychophysics","144","334005","0.0-7.2-0.2-0.64","756","","j","","","","","","","","","","","","","key","j","16.664912280701653","768","428","./1_3_Stimuli/S_ambi40.png","自我","Image","自我","Match","f","false","Practice",""
"","","","","","html-keyboard-response","145","334308","0.0-7.2-0.2-1.64","null","<span style='color:red; font-size: 70px;'>错误! </span>","null","","","","","","","","","","","","","","","","","","","","","","","","","feedback",""
"","","","","","psychophysics","146","336324","0.0-7.2-0.2-0.65","858","","j","","","","","","","","","","","","","key","j","16.664166666666762","768","428","./1_3_Stimuli/S_ambi40.png","他人","Word","自我","Mismatch","j","true","Practice",""
"","","","","","html-keyboard-response","147","336630","0.0-7.2-0.2-1.65","null","<span style='color:GreenYellow; font-size: 70px;'>正确! </span>","null","","","","","","","","","","","","","","","","","","","","","","","","","feedback",""
"","","","","","psychophysics","148","338923","0.0-7.2-0.2-0.66","1141","","j","","","","","","","","","","","","","key","j","16.65735294117664","768","428","./1_3_Stimuli/S_ambi40.png","朋友","Image","自我","Mismatch","j","true","Practice",""
"","","","","","html-keyboard-response","149","339239","0.0-7.2-0.2-1.66","null","<span style='color:GreenYellow; font-size: 70px;'>正确! </span>","null","","","","","","","","","","","","","","","","","","","","","","","","","feedback",""
"","","","","","psychophysics","150","341209","0.0-7.2-0.2-0.67","818","","f","","","","","","","","","","","","","key","f","16.667521367521168","768","428","./1_3_Stimuli/T_ambi40.png","朋友","Word","朋友","Match","f","true","Practice",""
"","","","","","html-keyboard-response","151","341514","0.0-7.2-0.2-1.67","null","<span style='color:GreenYellow; font-size: 70px;'>正确! </span>","null","","","","","","","","","","","","","","","","","","","","","","","","","feedback",""
"","","","","","psychophysics","152","343577","0.0-7.2-0.2-0.68","912","","j","","","","","","","","","","","","","key","j","16.667213114753814","768","428","./1_3_Stimuli/S_ambi40.png","朋友","Word","自我","Mismatch","j","true","Practice",""
"","","","","","html-keyboard-response","153","343887","0.0-7.2-0.2-1.68","null","<span style='color:GreenYellow; font-size: 70px;'>正确! </span>","null","","","","","","","","","","","","","","","","","","","","","","","","","feedback",""
"","","","","","psychophysics","154","346180","0.0-7.2-0.2-0.69","1132","","f","","","","","","","","","","","","","key","f","16.66691176470597","768","428","./1_3_Stimuli/S_ambi40.png","自我","Word","自我","Match","f","true","Practice",""
"","","","","","html-keyboard-response","155","346486","0.0-7.2-0.2-1.69","null","<span style='color:GreenYellow; font-size: 70px;'>正确! </span>","null","","","","","","","","","","","","","","","","","","","","","","","","","feedback",""
"","","","","","psychophysics","156","348540","0.0-7.2-0.2-0.70","902","","f","","","","","","","","","","","","","key","f","16.6655737704919","768","428","./1_3_Stimuli/S_ambi40.png","自我","Image","自我","Match","f","true","Practice",""
"","","","","","html-keyboard-response","157","348853","0.0-7.2-0.2-1.70","null","<span style='color:GreenYellow; font-size: 70px;'>正确! </span>","null","","","","","","","","","","","","","","","","","","","","","","","","","feedback",""
"","","","","","psychophysics","158","351173","0.0-7.2-0.2-0.71","1167","","j","","","","","","","","","","","","","key","j","16.665942028985253","768","428","./1_3_Stimuli/S_ambi40.png","他人","Image","自我","Mismatch","j","true","Practice",""
"","","","","","html-keyboard-response","159","351483","0.0-7.2-0.2-1.71","null","<span style='color:GreenYellow; font-size: 70px;'>正确! </span>","null","","","","","","","","","","","","","","","","","","","","","","","","","feedback",""
"","","","","","html-keyboard-response","160","353500","0.0-7.2-1.2-0.2","2015","<style>.context{color:white; font-size: 35px; line-height:40px}</style>                        <div><p class='context'>您正确回答了79% 的试次。</p><p class='context'>您的平均反应时为909毫秒。</p><p> <div style = 'color: green'><按空格键至下页></div></p>"," ","","","","","","","","","","","","","","","","","","","","","","","","","",""
"","","","","","instructions","161","360903","0.0-7.2-1.2-1.2","7402","","","","","","","","","","","","","","[{""page_index"":0,""viewing_time"":1304},{""page_index"":1,""viewing_time"":3352},{""page_index"":2,""viewing_time"":2745}]","","","","","","","","","","","","","",""
"","","","","","psychophysics","162","362738","0.0-7.3-0.3-0.72","674","","j","","","","","","","","","","","","","key","j","16.665137614678898","768","428","./1_3_Stimuli/S_ambi40.png","他人","Word","自我","Mismatch","j","true","Practice",""
"","","","","","html-keyboard-response","163","363045","0.0-7.3-0.3-1.72","null","<span style='color:GreenYellow; font-size: 70px;'>正确! </span>","null","","","","","","","","","","","","","","","","","","","","","","","","","feedback",""
"","","","","","psychophysics","164","365683","0.0-7.3-0.3-0.73","1486","","j","","","","","","","","","","","","","key","j","16.66392405063306","768","428","./1_3_Stimuli/S_ambi40.png","他人","Image","自我","Mismatch","j","true","Practice",""
"","","","","","html-keyboard-response","165","365996","0.0-7.3-0.3-1.73","null","<span style='color:GreenYellow; font-size: 70px;'>正确! </span>","null","","","","","","","","","","","","","","","","","","","","","","","","","feedback",""
"","","","","","psychophysics","166","367860","0.0-7.3-0.3-0.74","713","","j","","","","","","","","","","","","","key","j","16.666666666666668","768","428","./1_3_Stimuli/C_ambi40.png","他人","Image","他人","Match","f","false","Practice",""
"","","","","","html-keyboard-response","167","368175","0.0-7.3-0.3-1.74","null","<span style='color:red; font-size: 70px;'>错误! </span>","null","","","","","","","","","","","","","","","","","","","","","","","","","feedback",""
"","","","","","psychophysics","168","370721","0.0-7.3-0.3-0.75","1394","","f","","","","","","","","","","","","","key","f","16.667763157894736","768","428","./1_3_Stimuli/T_ambi40.png","朋友","Image","朋友","Match","f","true","Practice",""
"","","","","","html-keyboard-response","169","371036","0.0-7.3-0.3-1.75","null","<span style='color:GreenYellow; font-size: 70px;'>正确! </span>","null","","","","","","","","","","","","","","","","","","","","","","","","","feedback",""
"","","","","","psychophysics","170","373641","0.0-7.3-0.3-0.76","1453","","j","","","","","","","","","","","","","key","j","16.66516129032243","768","428","./1_3_Stimuli/C_ambi40.png","朋友","Word","他人","Mismatch","j","true","Practice",""
"","","","","","html-keyboard-response","171","373948","0.0-7.3-0.3-1.76","null","<span style='color:GreenYellow; font-size: 70px;'>正确! </span>","null","","","","","","","","","","","","","","","","","","","","","","","","","feedback",""
"","","","","","psychophysics","172","376651","0.0-7.3-0.3-0.77","1548","","f","","","","","","","","","","","","","key","f","16.66645962732912","768","428","./1_3_Stimuli/C_ambi40.png","他人","Image","他人","Match","f","true","Practice",""
"","","","","","html-keyboard-response","173","376956","0.0-7.3-0.3-1.77","null","<span class='add_' style='color:yellow; font-size: 70px;'> 太慢! </span>","null","","","","","","","","","","","","","","","","","","","","","","","","","feedback",""
"","","","","","psychophysics","174","379603","0.0-7.3-0.3-0.78","1495","","j","","","","","","","","","","","","","key","j","16.665189873417575","768","428","./1_3_Stimuli/S_ambi40.png","朋友","Word","自我","Mismatch","j","true","Practice",""
"","","","","","html-keyboard-response","175","379916","0.0-7.3-0.3-1.78","null","<span style='color:GreenYellow; font-size: 70px;'>正确! </span>","null","","","","","","","","","","","","","","","","","","","","","","","","","feedback",""
"","","","","","psychophysics","176","382057","0.0-7.3-0.3-0.79","988","","f","","","","","","","","","","","","","key","f","16.666141732283283","768","428","./1_3_Stimuli/C_ambi40.png","他人","Word","他人","Match","f","true","Practice",""
"","","","","","html-keyboard-response","177","382364","0.0-7.3-0.3-1.79","null","<span style='color:GreenYellow; font-size: 70px;'>正确! </span>","null","","","","","","","","","","","","","","","","","","","","","","","","","feedback",""
"","","","","","psychophysics","178","384395","0.0-7.3-0.3-0.80","881","","j","","","","","","","","","","","","","key","j","16.665833333333527","768","428","./1_3_Stimuli/T_ambi40.png","朋友","Word","朋友","Match","f","false","Practice",""
"","","","","","html-keyboard-response","179","384701","0.0-7.3-0.3-1.80","null","<span style='color:red; font-size: 70px;'>错误! </span>","null","","","","","","","","","","","","","","","","","","","","","","","","","feedback",""
"","","","","","psychophysics","180","387034","0.0-7.3-0.3-0.81","1179","","j","","","","","","","","","","","","","key","j","16.6647482014386","768","428","./1_3_Stimuli/C_ambi40.png","自我","Word","他人","Mismatch","j","true","Practice",""
"","","","","","html-keyboard-response","181","387344","0.0-7.3-0.3-1.81","null","<span style='color:GreenYellow; font-size: 70px;'>正确! </span>","null","","","","","","","","","","","","","","","","","","","","","","","","","feedback",""
"","","","","","psychophysics","182","389870","0.0-7.3-0.3-0.82","1374","","j","","","","","","","","","","","","","key","j","16.665562913907284","768","428","./1_3_Stimuli/T_ambi40.png","他人","Image","朋友","Mismatch","j","true","Practice",""
"","","","","","html-keyboard-response","183","390179","0.0-7.3-0.3-1.82","null","<span style='color:GreenYellow; font-size: 70px;'>正确! </span>","null","","","","","","","","","","","","","","","","","","","","","","","","","feedback",""
"","","","","","psychophysics","184","392322","0.0-7.3-0.3-0.83","991","","f","","","","","","","","","","","","","key","f","16.66692913385836","768","428","./1_3_Stimuli/S_ambi40.png","自我","Word","自我","Match","f","true","Practice",""
"","","","","","html-keyboard-response","185","392636","0.0-7.3-0.3-1.83","null","<span style='color:GreenYellow; font-size: 70px;'>正确! </span>","null","","","","","","","","","","","","","","","","","","","","","","","","","feedback",""
"","","","","","psychophysics","186","394739","0.0-7.3-0.3-0.84","950","","j","","","","","","","","","","","","","key","j","16.665600000000094","768","428","./1_3_Stimuli/T_ambi40.png","自我","Image","朋友","Mismatch","j","true","Practice",""
"","","","","","html-keyboard-response","187","395054","0.0-7.3-0.3-1.84","null","<span style='color:GreenYellow; font-size: 70px;'>正确! </span>","null","","","","","","","","","","","","","","","","","","","","","","","","","feedback",""
"","","","","","psychophysics","188","397764","0.0-7.3-0.3-0.85","null","","null","","","","","","","","","","","","","key","null","16.666049382716192","768","428","./1_3_Stimuli/C_ambi40.png","朋友","Image","他人","Mismatch","j","false","Practice",""
"","","","","","html-keyboard-response","189","398079","0.0-7.3-0.3-1.85","null","<span class='add_' style='color:yellow; font-size: 70px;'> 太慢! </span>","null","","","","","","","","","","","","","","","","","","","","","","","","","feedback",""
"","","","","","psychophysics","190","400174","0.0-7.3-0.3-0.86","945","","f","","","","","","","","","","","","","key","f","16.66532258064516","768","428","./1_3_Stimuli/C_ambi40.png","他人","Word","他人","Match","f","true","Practice",""
"","","","","","html-keyboard-response","191","400489","0.0-7.3-0.3-1.86","null","<span style='color:GreenYellow; font-size: 70px;'>正确! </span>","null","","","","","","","","","","","","","","","","","","","","","","","","","feedback",""
"","","","","","psychophysics","192","402727","0.0-7.3-0.3-0.87","1081","","f","","","","","","","","","","","","","key","f","16.66616541353366","768","428","./1_3_Stimuli/T_ambi40.png","朋友","Word","朋友","Match","f","true","Practice",""
"","","","","","html-keyboard-response","193","403038","0.0-7.3-0.3-1.87","null","<span style='color:GreenYellow; font-size: 70px;'>正确! </span>","null","","","","","","","","","","","","","","","","","","","","","","","","","feedback",""
"","","","","","psychophysics","194","405220","0.0-7.3-0.3-0.88","1028","","f","","","","","","","","","","","","","key","f","16.665384615384614","768","428","./1_3_Stimuli/S_ambi40.png","自我","Word","自我","Match","f","true","Practice",""
"","","","","","html-keyboard-response","195","405527","0.0-7.3-0.3-1.88","null","<span style='color:GreenYellow; font-size: 70px;'>正确! </span>","null","","","","","","","","","","","","","","","","","","","","","","","","","feedback",""
"","","","","","psychophysics","196","407352","0.0-7.3-0.3-0.89","674","","f","","","","","","","","","","","","","key","f","16.666972477064327","768","428","./1_3_Stimuli/S_ambi40.png","自我","Image","自我","Match","f","true","Practice",""
"","","","","","html-keyboard-response","197","407657","0.0-7.3-0.3-1.89","null","<span style='color:GreenYellow; font-size: 70px;'>正确! </span>","null","","","","","","","","","","","","","","","","","","","","","","","","","feedback",""
"","","","","","psychophysics","198","409603","0.0-7.3-0.3-0.90","790","","j","","","","","","","","","","","","","key","j","16.664655172413593","768","428","./1_3_Stimuli/S_ambi40.png","朋友","Image","自我","Mismatch","j","true","Practice",""
"","","","","","html-keyboard-response","199","409917","0.0-7.3-0.3-1.90","null","<span style='color:GreenYellow; font-size: 70px;'>正确! </span>","null","","","","","","","","","","","","","","","","","","","","","","","","","feedback",""
"","","","","","psychophysics","200","412103","0.0-7.3-0.3-0.91","1033","","f","","","","","","","","","","","","","key","f","16.666153846153666","768","428","./1_3_Stimuli/S_ambi40.png","自我","Image","自我","Match","f","true","Practice",""
"","","","","","html-keyboard-response","201","412408","0.0-7.3-0.3-1.91","null","<span style='color:GreenYellow; font-size: 70px;'>正确! </span>","null","","","","","","","","","","","","","","","","","","","","","","","","","feedback",""
"","","","","","psychophysics","202","415115","0.0-7.3-0.3-0.92","null","","null","","","","","","","","","","","","","key","null","16.664814814814886","768","428","./1_3_Stimuli/T_ambi40.png","他人","Word","朋友","Mismatch","j","false","Practice",""
"","","","","","html-keyboard-response","203","415429","0.0-7.3-0.3-1.92","null","<span class='add_' style='color:yellow; font-size: 70px;'> 太慢! </span>","null","","","","","","","","","","","","","","","","","","","","","","","","","feedback",""
"","","","","","psychophysics","204","417519","0.0-7.3-0.3-0.93","940","","f","","","","","","","","","","","","","key","f","16.666129032258347","768","428","./1_3_Stimuli/C_ambi40.png","自我","Image","他人","Mismatch","j","false","Practice",""
"","","","","","html-keyboard-response","205","417823","0.0-7.3-0.3-1.93","null","<span style='color:red; font-size: 70px;'>错误! </span>","null","","","","","","","","","","","","","","","","","","","","","","","","","feedback",""
"","","","","","psychophysics","206","419963","0.0-7.3-0.3-0.94","985","","f","","","","","","","","","","","","","key","f","16.666141732283283","768","428","./1_3_Stimuli/T_ambi40.png","自我","Word","朋友","Mismatch","j","false","Practice",""
"","","","","","html-keyboard-response","207","420271","0.0-7.3-0.3-1.94","null","<span style='color:red; font-size: 70px;'>错误! </span>","null","","","","","","","","","","","","","","","","","","","","","","","","","feedback",""
"","","","","","psychophysics","208","422599","0.0-7.3-0.3-0.95","1174","","f","","","","","","","","","","","","","key","f","16.666187050359543","768","428","./1_3_Stimuli/T_ambi40.png","朋友","Image","朋友","Match","f","true","Practice",""
"","","","","","html-keyboard-response","209","422902","0.0-7.3-0.3-1.95","null","<span style='color:GreenYellow; font-size: 70px;'>正确! </span>","null","","","","","","","","","","","","","","","","","","","","","","","","","feedback",""
"","","","","","html-keyboard-response","210","424532","0.0-7.3-1.3-0.3","1629","<style>.context{color:white; font-size: 35px; line-height:40px}</style>                        <div><p class='context'>您正确回答了75% 的试次。</p><p class='context'>您的平均反应时为1125毫秒。</p><p> <div style = 'color: green'><按空格键至下页></div></p>"," ","","","","","","","","","","","","","","","","","","","","","","","","","",""
"","","","","","instructions","211","431085","0.0-7.3-1.3-1.3","6551","","","","","","","","","","","","","","[{""page_index"":0,""viewing_time"":1463},{""page_index"":1,""viewing_time"":3888},{""page_index"":2,""viewing_time"":1200}]","","","","","","","","","","","","","",""
"","","","","","psychophysics","212","433022","0.0-7.4-0.4-0.96","777","","f","","","","","","","","","","","","","key","f","16.66521739130435","768","428","./1_3_Stimuli/C_ambi40.png","自我","Word","他人","Mismatch","j","false","Practice",""
"","","","","","html-keyboard-response","213","433324","0.0-7.4-0.4-1.96","null","<span style='color:red; font-size: 70px;'>错误! </span>","null","","","","","","","","","","","","","","","","","","","","","","","","","feedback",""
"","","","","","psychophysics","214","435543","0.0-7.4-0.4-0.97","1068","","j","","","","","","","","","","","","","key","j","16.665151515151425","768","428","./1_3_Stimuli/T_ambi40.png","自我","Word","朋友","Mismatch","j","true","Practice",""
"","","","","","html-keyboard-response","215","435856","0.0-7.4-0.4-1.97","null","<span style='color:GreenYellow; font-size: 70px;'>正确! </span>","null","","","","","","","","","","","","","","","","","","","","","","","","","feedback",""
"","","","","","psychophysics","216","438277","0.0-7.4-0.4-0.98","1266","","j","","","","","","","","","","","","","key","j","16.664583333333415","768","428","./1_3_Stimuli/T_ambi40.png","他人","Word","朋友","Mismatch","j","true","Practice",""
"","","","","","html-keyboard-response","217","438581","0.0-7.4-0.4-1.98","null","<span style='color:GreenYellow; font-size: 70px;'>正确! </span>","null","","","","","","","","","","","","","","","","","","","","","","","","","feedback",""
"","","","","","psychophysics","218","440432","0.0-7.4-0.4-0.99","700","","f","","","","","","","","","","","","","key","f","16.66454545454577","768","428","./1_3_Stimuli/C_ambi40.png","他人","Word","他人","Match","f","true","Practice",""
"","","","","","html-keyboard-response","219","440748","0.0-7.4-0.4-1.99","null","<span style='color:GreenYellow; font-size: 70px;'>正确! </span>","null","","","","","","","","","","","","","","","","","","","","","","","","","feedback",""
"","","","","","psychophysics","220","443031","0.0-7.4-0.4-0.100","1129","","f","","","","","","","","","","","","","key","f","16.66470588235311","768","428","./1_3_Stimuli/T_ambi40.png","朋友","Image","朋友","Match","f","true","Practice",""
"","","","","","html-keyboard-response","221","443349","0.0-7.4-0.4-1.100","null","<span style='color:GreenYellow; font-size: 70px;'>正确! </span>","null","","","","","","","","","","","","","","","","","","","","","","","","","feedback",""
"","","","","","psychophysics","222","446062","0.0-7.4-0.4-0.101","null","","null","","","","","","","","","","","","","key","null","16.66543209876572","768","428","./1_3_Stimuli/C_ambi40.png","他人","Image","他人","Match","f","false","Practice",""
"","","","","","html-keyboard-response","223","446372","0.0-7.4-0.4-1.101","null","<span class='add_' style='color:yellow; font-size: 70px;'> 太慢! </span>","null","","","","","","","","","","","","","","","","","","","","","","","","","feedback",""
"","","","","","psychophysics","224","448975","0.0-7.4-0.4-0.102","1448","","j","","","","","","","","","","","","","key","j","16.66774193548387","768","428","./1_3_Stimuli/C_ambi40.png","朋友","Image","他人","Mismatch","j","true","Practice",""
"","","","","","html-keyboard-response","225","449277","0.0-7.4-0.4-1.102","null","<span style='color:GreenYellow; font-size: 70px;'>正确! </span>","null","","","","","","","","","","","","","","","","","","","","","","","","","feedback",""
"","","","","","psychophysics","226","451419","0.0-7.4-0.4-0.103","991","","j","","","","","","","","","","","","","key","j","16.66692913385836","768","428","./1_3_Stimuli/S_ambi40.png","他人","Word","自我","Mismatch","j","true","Practice",""
"","","","","","html-keyboard-response","227","451720","0.0-7.4-0.4-1.103","null","<span style='color:GreenYellow; font-size: 70px;'>正确! </span>","null","","","","","","","","","","","","","","","","","","","","","","","","","feedback",""
"","","","","","psychophysics","228","453935","0.0-7.4-0.4-0.104","1062","","f","","","","","","","","","","","","","key","f","16.667424242424506","768","428","./1_3_Stimuli/T_ambi40.png","朋友","Word","朋友","Match","f","true","Practice",""
"","","","","","html-keyboard-response","229","454240","0.0-7.4-0.4-1.104","null","<span style='color:GreenYellow; font-size: 70px;'>正确! </span>","null","","","","","","","","","","","","","","","","","","","","","","","","","feedback",""
"","","","","","psychophysics","230","456044","0.0-7.4-0.4-0.105","651","","j","","","","","","","","","","","","","key","j","16.666355140186806","768","428","./1_3_Stimuli/S_ambi40.png","朋友","Word","自我","Mismatch","j","true","Practice",""
"","","","","","html-keyboard-response","231","456358","0.0-7.4-0.4-1.105","null","<span style='color:GreenYellow; font-size: 70px;'>正确! </span>","null","","","","","","","","","","","","","","","","","","","","","","","","","feedback",""
"","","","","","psychophysics","232","458724","0.0-7.4-0.4-0.106","1212","","f","","","","","","","","","","","","","key","f","16.666666666666668","768","428","./1_3_Stimuli/T_ambi40.png","他人","Image","朋友","Mismatch","j","false","Practice",""
"","","","","","html-keyboard-response","233","459036","0.0-7.4-0.4-1.106","null","<span style='color:red; font-size: 70px;'>错误! </span>","null","","","","","","","","","","","","","","","","","","","","","","","","","feedback",""
"","","","","","psychophysics","234","460802","0.0-7.4-0.4-0.107","608","","f","","","","","","","","","","","","","key","f","16.666666666666668","768","428","./1_3_Stimuli/C_ambi40.png","自我","Image","他人","Mismatch","j","false","Practice",""
"","","","","","html-keyboard-response","235","461119","0.0-7.4-0.4-1.107","null","<span style='color:red; font-size: 70px;'>错误! </span>","null","","","","","","","","","","","","","","","","","","","","","","","","","feedback",""
"","","","","","psychophysics","236","463524","0.0-7.4-0.4-0.108","1247","","f","","","","","","","","","","","","","key","f","16.66083916083916","768","428","./1_3_Stimuli/S_ambi40.png","自我","Word","自我","Match","f","true","Practice",""
"","","","","","html-keyboard-response","237","463834","0.0-7.4-0.4-1.108","null","<span style='color:GreenYellow; font-size: 70px;'>正确! </span>","null","","","","","","","","","","","","","","","","","","","","","","","","","feedback",""
"","","","","","psychophysics","238","465868","0.0-7.4-0.4-0.109","874","","f","","","","","","","","","","","","","key","f","16.664462809917065","768","428","./1_3_Stimuli/C_ambi40.png","他人","Image","他人","Match","f","true","Practice",""
"","","","","","html-keyboard-response","239","466170","0.0-7.4-0.4-1.109","null","<span style='color:GreenYellow; font-size: 70px;'>正确! </span>","null","","","","","","","","","","","","","","","","","","","","","","","","","feedback",""
"","","","","","psychophysics","240","468867","0.0-7.4-0.4-0.110","1544","","j","","","","","","","","","","","","","key","j","16.665838509316842","768","428","./1_3_Stimuli/S_ambi40.png","朋友","Image","自我","Mismatch","j","true","Practice",""
"","","","","","html-keyboard-response","241","469176","0.0-7.4-0.4-1.110","null","<span class='add_' style='color:yellow; font-size: 70px;'> 太慢! </span>","null","","","","","","","","","","","","","","","","","","","","","","","","","feedback",""
"","","","","","psychophysics","242","471742","0.0-7.4-0.4-0.111","1415","","j","","","","","","","","","","","","","key","j","16.666447368420975","768","428","./1_3_Stimuli/T_ambi40.png","朋友","Word","朋友","Match","f","false","Practice",""
"","","","","","html-keyboard-response","243","472046","0.0-7.4-0.4-1.111","null","<span style='color:red; font-size: 70px;'>错误! </span>","null","","","","","","","","","","","","","","","","","","","","","","","","","feedback",""
"","","","","","psychophysics","244","473955","0.0-7.4-0.4-0.112","753","","f","","","","","","","","","","","","","key","f","16.667256637168347","768","428","./1_3_Stimuli/S_ambi40.png","自我","Image","自我","Match","f","true","Practice",""
"","","","","","html-keyboard-response","245","474264","0.0-7.4-0.4-1.112","null","<span style='color:GreenYellow; font-size: 70px;'>正确! </span>","null","","","","","","","","","","","","","","","","","","","","","","","","","feedback",""
"","","","","","psychophysics","246","476657","0.0-7.4-0.4-0.113","1238","","f","","","","","","","","","","","","","key","f","16.66549295774648","768","428","./1_3_Stimuli/S_ambi40.png","自我","Word","自我","Match","f","true","Practice",""
"","","","","","html-keyboard-response","247","476963","0.0-7.4-0.4-1.113","null","<span style='color:GreenYellow; font-size: 70px;'>正确! </span>","null","","","","","","","","","","","","","","","","","","","","","","","","","feedback",""
"","","","","","psychophysics","248","479238","0.0-7.4-0.4-0.114","1120","","j","","","","","","","","","","","","","key","j","16.6651851851851","768","428","./1_3_Stimuli/C_ambi40.png","朋友","Word","他人","Mismatch","j","true","Practice",""
"","","","","","html-keyboard-response","249","479551","0.0-7.4-0.4-1.114","null","<span style='color:GreenYellow; font-size: 70px;'>正确! </span>","null","","","","","","","","","","","","","","","","","","","","","","","","","feedback",""
"","","","","","psychophysics","250","482261","0.0-7.4-0.4-0.115","null","","null","","","","","","","","","","","","","key","null","16.666666666666668","768","428","./1_3_Stimuli/T_ambi40.png","自我","Image","朋友","Mismatch","j","false","Practice",""
"","","","","","html-keyboard-response","251","482563","0.0-7.4-0.4-1.115","null","<span class='add_' style='color:yellow; font-size: 70px;'> 太慢! </span>","null","","","","","","","","","","","","","","","","","","","","","","","","","feedback",""
"","","","","","psychophysics","252","484989","0.0-7.4-0.4-0.116","1261","","j","","","","","","","","","","","","","key","j","16.6652777777781","768","428","./1_3_Stimuli/T_ambi40.png","朋友","Image","朋友","Match","f","false","Practice",""
"","","","","","html-keyboard-response","253","485305","0.0-7.4-0.4-1.116","null","<span style='color:red; font-size: 70px;'>错误! </span>","null","","","","","","","","","","","","","","","","","","","","","","","","","feedback",""
"","","","","","psychophysics","254","487176","0.0-7.4-0.4-0.117","713","","f","","","","","","","","","","","","","key","f","16.66576576576545","768","428","./1_3_Stimuli/S_ambi40.png","自我","Image","自我","Match","f","true","Practice",""
"","","","","","html-keyboard-response","255","487483","0.0-7.4-0.4-1.117","null","<span style='color:GreenYellow; font-size: 70px;'>正确! </span>","null","","","","","","","","","","","","","","","","","","","","","","","","","feedback",""
"","","","","","psychophysics","256","489185","0.0-7.4-0.4-0.118","540","","f","","","","","","","","","","","","","key","f","16.66534653465358","768","428","./1_3_Stimuli/S_ambi40.png","他人","Image","自我","Mismatch","j","false","Practice",""
"","","","","","html-keyboard-response","257","489497","0.0-7.4-0.4-1.118","null","<span style='color:red; font-size: 70px;'>错误! </span>","null","","","","","","","","","","","","","","","","","","","","","","","","","feedback",""
"","","","","","psychophysics","258","490869","0.0-7.4-0.4-0.119","220","","j","","","","","","","","","","","","","key","j","16.664197530864055","768","428","./1_3_Stimuli/C_ambi40.png","他人","Word","他人","Match","f","false","Practice",""
"","","","","","html-keyboard-response","259","491172","0.0-7.4-0.4-1.119","null","<span style='color:red; font-size: 70px;'>错误! </span>","null","","","","","","","","","","","","","","","","","","","","","","","","","feedback",""
"","","","","","html-keyboard-response","260","496754","0.0-7.4-1.4-0.4","5581","<style>.context{color:white; font-size: 35px; line-height:40px}</style>                        <div><p class='context'>您正确回答了63% 的试次。</p><p class='context'>您的平均反应时为1054毫秒。</p><p> <div style = 'color: green'><按空格键至下页></div></p>"," ","","","","","","","","","","","","","","","","","","","","","","","","","",""
"","","","","","instructions","261","513614","0.0-7.4-1.4-1.4","16858","","","","","","","","","","","","","","[{""page_index"":0,""viewing_time"":1058},{""page_index"":1,""viewing_time"":11336},{""page_index"":2,""viewing_time"":4464}]","","","","","","","","","","","","","",""
"","","","","","psychophysics","262","515291","0.0-7.5-0.5-0.120","515","","j","","","","","","","","","","","","","key","j","16.666666666666668","768","428","./1_3_Stimuli/C_ambi40.png","他人","Word","他人","Match","f","false","Practice",""
"","","","","","html-keyboard-response","263","515605","0.0-7.5-0.5-1.120","null","<span style='color:red; font-size: 70px;'>错误! </span>","null","","","","","","","","","","","","","","","","","","","","","","","","","feedback",""
"","","","","","psychophysics","264","517531","0.0-7.5-0.5-0.121","772","","f","","","","","","","","","","","","","key","f","16.666086956522044","768","428","./1_3_Stimuli/C_ambi40.png","他人","Image","他人","Match","f","true","Practice",""
"","","","","","html-keyboard-response","265","517837","0.0-7.5-0.5-1.121","null","<span style='color:GreenYellow; font-size: 70px;'>正确! </span>","null","","","","","","","","","","","","","","","","","","","","","","","","","feedback",""
"","","","","","psychophysics","266","519685","0.0-7.5-0.5-0.122","692","","f","","","","","","","","","","","","","key","f","16.66545454545412","768","428","./1_3_Stimuli/S_ambi40.png","自我","Image","自我","Match","f","true","Practice",""
"","","","","","html-keyboard-response","267","519994","0.0-7.5-0.5-1.122","null","<span style='color:GreenYellow; font-size: 70px;'>正确! </span>","null","","","","","","","","","","","","","","","","","","","","","","","","","feedback",""
"","","","","","psychophysics","268","521705","0.0-7.5-0.5-0.123","560","","j","","","","","","","","","","","","","key","j","16.666336633663253","768","428","./1_3_Stimuli/T_ambi40.png","朋友","Word","朋友","Match","f","false","Practice",""
"","","","","","html-keyboard-response","269","522017","0.0-7.5-0.5-1.123","null","<span style='color:red; font-size: 70px;'>错误! </span>","null","","","","","","","","","","","","","","","","","","","","","","","","","feedback",""
"","","","","","psychophysics","270","524098","0.0-7.5-0.5-0.124","922","","j","","","","","","","","","","","","","key","j","16.666129032257878","768","428","./1_3_Stimuli/S_ambi40.png","他人","Image","自我","Mismatch","j","true","Practice",""
"","","","","","html-keyboard-response","271","524405","0.0-7.5-0.5-1.124","null","<span style='color:GreenYellow; font-size: 70px;'>正确! </span>","null","","","","","","","","","","","","","","","","","","","","","","","","","feedback",""
"","","","","","psychophysics","272","526315","0.0-7.5-0.5-0.125","755","","f","","","","","","","","","","","","","key","f","16.666666666666668","768","428","./1_3_Stimuli/T_ambi40.png","朋友","Image","朋友","Match","f","true","Practice",""
"","","","","","html-keyboard-response","273","526621","0.0-7.5-0.5-1.125","null","<span style='color:GreenYellow; font-size: 70px;'>正确! </span>","null","","","","","","","","","","","","","","","","","","","","","","","","","feedback",""
"","","","","","psychophysics","274","528582","0.0-7.5-0.5-0.126","806","","j","","","","","","","","","","","","","key","j","16.666666666666668","768","428","./1_3_Stimuli/C_ambi40.png","朋友","Image","他人","Mismatch","j","true","Practice",""
"","","","","","html-keyboard-response","275","528891","0.0-7.5-0.5-1.126","null","<span style='color:GreenYellow; font-size: 70px;'>正确! </span>","null","","","","","","","","","","","","","","","","","","","","","","","","","feedback",""
"","","","","","psychophysics","276","530520","0.0-7.5-0.5-0.127","478","","f","","","","","","","","","","","","","key","f","16.653124999999516","768","428","./1_3_Stimuli/S_ambi40.png","朋友","Image","自我","Mismatch","j","false","Practice",""
"","","","","","html-keyboard-response","277","530823","0.0-7.5-0.5-1.127","null","<span style='color:red; font-size: 70px;'>错误! </span>","null","","","","","","","","","","","","","","","","","","","","","","","","","feedback",""
"","","","","","psychophysics","278","532588","0.0-7.5-0.5-0.128","613","","f","","","","","","","","","","","","","key","f","16.666666666666668","768","428","./1_3_Stimuli/C_ambi40.png","朋友","Word","他人","Mismatch","j","false","Practice",""
"","","","","","html-keyboard-response","279","532898","0.0-7.5-0.5-1.128","null","<span style='color:red; font-size: 70px;'>错误! </span>","null","","","","","","","","","","","","","","","","","","","","","","","","","feedback",""
"","","","","","psychophysics","280","534556","0.0-7.5-0.5-0.129","501","","f","","","","","","","","","","","","","key","f","16.665306122448506","768","428","./1_3_Stimuli/S_ambi40.png","自我","Image","自我","Match","f","true","Practice",""
"","","","","","html-keyboard-response","281","534865","0.0-7.5-0.5-1.129","null","<span style='color:GreenYellow; font-size: 70px;'>正确! </span>","null","","","","","","","","","","","","","","","","","","","","","","","","","feedback",""
"","","","","","psychophysics","282","536666","0.0-7.5-0.5-0.130","645","","f","","","","","","","","","","","","","key","f","16.66448598130928","768","428","./1_3_Stimuli/T_ambi40.png","朋友","Image","朋友","Match","f","true","Practice",""
"","","","","","html-keyboard-response","283","536968","0.0-7.5-0.5-1.130","null","<span style='color:GreenYellow; font-size: 70px;'>正确! </span>","null","","","","","","","","","","","","","","","","","","","","","","","","","feedback",""
"","","","","","psychophysics","284","538788","0.0-7.5-0.5-0.131","668","","f","","","","","","","","","","","","","key","f","16.664814814815244","768","428","./1_3_Stimuli/S_ambi40.png","自我","Word","自我","Match","f","true","Practice",""
"","","","","","html-keyboard-response","285","539103","0.0-7.5-0.5-1.131","null","<span style='color:GreenYellow; font-size: 70px;'>正确! </span>","null","","","","","","","","","","","","","","","","","","","","","","","","","feedback",""
"","","","","","psychophysics","286","540882","0.0-7.5-0.5-0.132","628","","j","","","","","","","","","","","","","key","j","16.66509433962264","768","428","./1_3_Stimuli/T_ambi40.png","自我","Image","朋友","Mismatch","j","true","Practice",""
"","","","","","html-keyboard-response","287","541190","0.0-7.5-0.5-1.132","null","<span style='color:GreenYellow; font-size: 70px;'>正确! </span>","null","","","","","","","","","","","","","","","","","","","","","","","","","feedback",""
"","","","","","psychophysics","288","543373","0.0-7.5-0.5-0.133","1030","","j","","","","","","","","","","","","","key","j","16.666923076922718","768","428","./1_3_Stimuli/T_ambi40.png","他人","Word","朋友","Mismatch","j","true","Practice",""
"","","","","","html-keyboard-response","289","543678","0.0-7.5-0.5-1.133","null","<span style='color:GreenYellow; font-size: 70px;'>正确! </span>","null","","","","","","","","","","","","","","","","","","","","","","","","","feedback",""
"","","","","","psychophysics","290","545507","0.0-7.5-0.5-0.134","673","","j","","","","","","","","","","","","","key","j","16.663888888889534","768","428","./1_3_Stimuli/S_ambi40.png","朋友","Word","自我","Mismatch","j","true","Practice",""
"","","","","","html-keyboard-response","291","545821","0.0-7.5-0.5-1.134","null","<span style='color:GreenYellow; font-size: 70px;'>正确! </span>","null","","","","","","","","","","","","","","","","","","","","","","","","","feedback",""
"","","","","","psychophysics","292","547699","0.0-7.5-0.5-0.135","726","","f","","","","","","","","","","","","","key","f","16.66607142857226","768","428","./1_3_Stimuli/C_ambi40.png","他人","Word","他人","Match","f","true","Practice",""
"","","","","","html-keyboard-response","293","548004","0.0-7.5-0.5-1.135","null","<span style='color:GreenYellow; font-size: 70px;'>正确! </span>","null","","","","","","","","","","","","","","","","","","","","","","","","","feedback",""
"","","","","","psychophysics","294","549798","0.0-7.5-0.5-0.136","641","","j","","","","","","","","","","","","","key","j","16.664485981308193","768","428","./1_3_Stimuli/C_ambi40.png","自我","Image","他人","Mismatch","j","true","Practice",""
"","","","","","html-keyboard-response","295","550111","0.0-7.5-0.5-1.136","null","<span style='color:GreenYellow; font-size: 70px;'>正确! </span>","null","","","","","","","","","","","","","","","","","","","","","","","","","feedback",""
"","","","","","psychophysics","296","551949","0.0-7.5-0.5-0.137","682","","j","","","","","","","","","","","","","key","j","16.664220183485384","768","428","./1_3_Stimuli/S_ambi40.png","他人","Word","自我","Mismatch","j","true","Practice",""
"","","","","","html-keyboard-response","297","552264","0.0-7.5-0.5-1.137","null","<span style='color:GreenYellow; font-size: 70px;'>正确! </span>","null","","","","","","","","","","","","","","","","","","","","","","","","","feedback",""
"","","","","","psychophysics","298","554282","0.0-7.5-0.5-0.138","861","","f","","","","","","","","","","","","","key","f","16.665000000000386","768","428","./1_3_Stimuli/T_ambi40.png","朋友","Word","朋友","Match","f","true","Practice",""
"","","","","","html-keyboard-response","299","554592","0.0-7.5-0.5-1.138","null","<span style='color:GreenYellow; font-size: 70px;'>正确! </span>","null","","","","","","","","","","","","","","","","","","","","","","","","","feedback",""
"","","","","","psychophysics","300","556209","0.0-7.5-0.5-0.139","466","","j","","","","","","","","","","","","","key","j","16.667708333334303","768","428","./1_3_Stimuli/T_ambi40.png","自我","Word","朋友","Mismatch","j","true","Practice",""
"","","","","","html-keyboard-response","301","556512","0.0-7.5-0.5-1.139","null","<span style='color:GreenYellow; font-size: 70px;'>正确! </span>","null","","","","","","","","","","","","","","","","","","","","","","","","","feedback",""
"","","","","","psychophysics","302","558284","0.0-7.5-0.5-0.140","618","","j","","","","","","","","","","","","","key","j","16.66380952381019","768","428","./1_3_Stimuli/S_ambi40.png","自我","Word","自我","Match","f","false","Practice",""
"","","","","","html-keyboard-response","303","558586","0.0-7.5-0.5-1.140","null","<span style='color:red; font-size: 70px;'>错误! </span>","null","","","","","","","","","","","","","","","","","","","","","","","","","feedback",""
"","","","","","psychophysics","304","560281","0.0-7.5-0.5-0.141","540","","j","","","","","","","","","","","","","key","j","16.667326732673498","768","428","./1_3_Stimuli/C_ambi40.png","自我","Word","他人","Mismatch","j","true","Practice",""
"","","","","","html-keyboard-response","305","560592","0.0-7.5-0.5-1.141","null","<span style='color:GreenYellow; font-size: 70px;'>正确! </span>","null","","","","","","","","","","","","","","","","","","","","","","","","","feedback",""
"","","","","","psychophysics","306","562358","0.0-7.5-0.5-0.142","615","","f","","","","","","","","","","","","","key","f","16.6663461538466","768","428","./1_3_Stimuli/C_ambi40.png","他人","Image","他人","Match","f","true","Practice",""
"","","","","","html-keyboard-response","307","562662","0.0-7.5-0.5-1.142","null","<span style='color:GreenYellow; font-size: 70px;'>正确! </span>","null","","","","","","","","","","","","","","","","","","","","","","","","","feedback",""
"","","","","","psychophysics","308","564369","0.0-7.5-0.5-0.143","551","","j","","","","","","","","","","","","","key","j","16.665346534653004","768","428","./1_3_Stimuli/T_ambi40.png","他人","Image","朋友","Mismatch","j","true","Practice",""
"","","","","","html-keyboard-response","309","564682","0.0-7.5-0.5-1.143","null","<span style='color:GreenYellow; font-size: 70px;'>正确! </span>","null","","","","","","","","","","","","","","","","","","","","","","","","","feedback",""
"","","","","","html-keyboard-response","310","568455","0.0-7.5-1.5-0.5","3773","<style>.context{color:white; font-size: 35px; line-height:40px}</style>                        <div><p class='context'>您正确回答了79% 的试次。</p><p class='context'>您的平均反应时为693毫秒。</p><p> <div style = 'color: green'><按空格键至下页></div></p>"," ","","","","","","","","","","","","","","","","","","","","","","","","","",""
"","","","","","instructions","311","573485","0.0-7.5-1.5-1.5","5028","","","","","","","","","","","","","","[{""page_index"":0,""viewing_time"":2620},{""page_index"":1,""viewing_time"":1704},{""page_index"":2,""viewing_time"":703}]","","","","","","","","","","","","","",""
"","","","","","psychophysics","312","575374","0.0-7.6-0.6-0.144","732","","f","","","","","","","","","","","","","key","f","16.66785714285756","768","428","./1_3_Stimuli/C_ambi40.png","他人","Image","他人","Match","f","true","Practice",""
"","","","","","html-keyboard-response","313","575680","0.0-7.6-0.6-1.144","null","<span style='color:GreenYellow; font-size: 70px;'>正确! </span>","null","","","","","","","","","","","","","","","","","","","","","","","","","feedback",""
"","","","","","psychophysics","314","577400","0.0-7.6-0.6-0.145","568","","j","","","","","","","","","","","","","key","j","16.6647058823534","768","428","./1_3_Stimuli/C_ambi40.png","朋友","Word","他人","Mismatch","j","true","Practice",""
"","","","","","html-keyboard-response","315","577705","0.0-7.6-0.6-1.145","null","<span style='color:GreenYellow; font-size: 70px;'>正确! </span>","null","","","","","","","","","","","","","","","","","","","","","","","","","feedback",""
"","","","","","psychophysics","316","579574","0.0-7.6-0.6-0.146","716","","f","","","","","","","","","","","","","key","f","16.666666666666668","768","428","./1_3_Stimuli/S_ambi40.png","自我","Word","自我","Match","f","true","Practice",""
"","","","","","html-keyboard-response","317","579885","0.0-7.6-0.6-1.146","null","<span style='color:GreenYellow; font-size: 70px;'>正确! </span>","null","","","","","","","","","","","","","","","","","","","","","","","","","feedback",""
"","","","","","psychophysics","318","581473","0.0-7.6-0.6-0.147","432","","j","","","","","","","","","","","","","key","j","16.668085106383476","768","428","./1_3_Stimuli/S_ambi40.png","他人","Image","自我","Mismatch","j","true","Practice",""
"","","","","","html-keyboard-response","319","581776","0.0-7.6-0.6-1.147","null","<span style='color:GreenYellow; font-size: 70px;'>正确! </span>","null","","","","","","","","","","","","","","","","","","","","","","","","","feedback",""
"","","","","","psychophysics","320","583465","0.0-7.6-0.6-0.148","535","","f","","","","","","","","","","","","","key","f","16.665","768","428","./1_3_Stimuli/S_ambi40.png","自我","Image","自我","Match","f","true","Practice",""
"","","","","","html-keyboard-response","321","583769","0.0-7.6-0.6-1.148","null","<span style='color:GreenYellow; font-size: 70px;'>正确! </span>","null","","","","","","","","","","","","","","","","","","","","","","","","","feedback",""
"","","","","","psychophysics","322","585520","0.0-7.6-0.6-0.149","601","","f","","","","","","","","","","","","","key","f","16.66346153846154","768","428","./1_3_Stimuli/T_ambi40.png","朋友","Image","朋友","Match","f","true","Practice",""
"","","","","","html-keyboard-response","323","585824","0.0-7.6-0.6-1.149","null","<span style='color:GreenYellow; font-size: 70px;'>正确! </span>","null","","","","","","","","","","","","","","","","","","","","","","","","","feedback",""
"","","","","","psychophysics","324","587474","0.0-7.6-0.6-0.150","499","","j","","","","","","","","","","","","","key","j","16.66632653061153","768","428","./1_3_Stimuli/T_ambi40.png","自我","Image","朋友","Mismatch","j","true","Practice",""
"","","","","","html-keyboard-response","325","587784","0.0-7.6-0.6-1.150","null","<span style='color:GreenYellow; font-size: 70px;'>正确! </span>","null","","","","","","","","","","","","","","","","","","","","","","","","","feedback",""
"","","","","","psychophysics","326","589865","0.0-7.6-0.6-0.151","926","","f","","","","","","","","","","","","","key","f","16.664516129032446","768","428","./1_3_Stimuli/T_ambi40.png","朋友","Word","朋友","Match","f","true","Practice",""
"","","","","","html-keyboard-response","327","590170","0.0-7.6-0.6-1.151","null","<span style='color:GreenYellow; font-size: 70px;'>正确! </span>","null","","","","","","","","","","","","","","","","","","","","","","","","","feedback",""
"","","","","","psychophysics","328","591787","0.0-7.6-0.6-0.152","463","","f","","","","","","","","","","","","","key","f","16.665625000000244","768","428","./1_3_Stimuli/C_ambi40.png","他人","Word","他人","Match","f","true","Practice",""
"","","","","","html-keyboard-response","329","592089","0.0-7.6-0.6-1.152","null","<span style='color:GreenYellow; font-size: 70px;'>正确! </span>","null","","","","","","","","","","","","","","","","","","","","","","","","","feedback",""
"","","","","","psychophysics","330","593815","0.0-7.6-0.6-0.153","575","","j","","","","","","","","","","","","","key","j","16.657843137254673","768","428","./1_3_Stimuli/S_ambi40.png","朋友","Word","自我","Mismatch","j","true","Practice",""
"","","","","","html-keyboard-response","331","594116","0.0-7.6-0.6-1.153","null","<span style='color:GreenYellow; font-size: 70px;'>正确! </span>","null","","","","","","","","","","","","","","","","","","","","","","","","","feedback",""
"","","","","","psychophysics","332","595787","0.0-7.6-0.6-0.154","519","","f","","","","","","","","","","","","","key","f","16.666666666666668","768","428","./1_3_Stimuli/C_ambi40.png","他人","Image","他人","Match","f","true","Practice",""
"","","","","","html-keyboard-response","333","596092","0.0-7.6-0.6-1.154","null","<span style='color:GreenYellow; font-size: 70px;'>正确! </span>","null","","","","","","","","","","","","","","","","","","","","","","","","","feedback",""
"","","","","","psychophysics","334","597838","0.0-7.6-0.6-0.155","593","","j","","","","","","","","","","","","","key","j","16.666990291262813","768","428","./1_3_Stimuli/S_ambi40.png","朋友","Image","自我","Mismatch","j","true","Practice",""
"","","","","","html-keyboard-response","335","598148","0.0-7.6-0.6-1.155","null","<span style='color:GreenYellow; font-size: 70px;'>正确! </span>","null","","","","","","","","","","","","","","","","","","","","","","","","","feedback",""
"","","","","","psychophysics","336","599932","0.0-7.6-0.6-0.156","630","","j","","","","","","","","","","","","","key","j","16.66509433962264","768","428","./1_3_Stimuli/C_ambi40.png","自我","Image","他人","Mismatch","j","true","Practice",""
"","","","","","html-keyboard-response","337","600233","0.0-7.6-0.6-1.156","null","<span style='color:GreenYellow; font-size: 70px;'>正确! </span>","null","","","","","","","","","","","","","","","","","","","","","","","","","feedback",""
"","","","","","psychophysics","338","601935","0.0-7.6-0.6-0.157","545","","f","","","","","","","","","","","","","key","f","16.666336633662674","768","428","./1_3_Stimuli/T_ambi40.png","朋友","Image","朋友","Match","f","true","Practice",""
"","","","","","html-keyboard-response","339","602250","0.0-7.6-0.6-1.157","null","<span style='color:GreenYellow; font-size: 70px;'>正确! </span>","null","","","","","","","","","","","","","","","","","","","","","","","","","feedback",""
"","","","","","psychophysics","340","603905","0.0-7.6-0.6-0.158","500","","j","","","","","","","","","","","","","key","j","16.66632653061153","768","428","./1_3_Stimuli/C_ambi40.png","朋友","Image","他人","Mismatch","j","true","Practice",""
"","","","","","html-keyboard-response","341","604217","0.0-7.6-0.6-1.158","null","<span style='color:GreenYellow; font-size: 70px;'>正确! </span>","null","","","","","","","","","","","","","","","","","","","","","","","","","feedback",""
"","","","","","psychophysics","342","605916","0.0-7.6-0.6-0.159","546","","j","","","","","","","","","","","","","key","j","16.66237623762399","768","428","./1_3_Stimuli/T_ambi40.png","他人","Word","朋友","Mismatch","j","true","Practice",""
"","","","","","html-keyboard-response","343","606226","0.0-7.6-0.6-1.159","null","<span style='color:GreenYellow; font-size: 70px;'>正确! </span>","null","","","","","","","","","","","","","","","","","","","","","","","","","feedback",""
"","","","","","psychophysics","344","608214","0.0-7.6-0.6-0.160","824","","f","","","","","","","","","","","","","key","f","16.666101694915056","768","428","./1_3_Stimuli/C_ambi40.png","他人","Word","他人","Match","f","true","Practice",""
"","","","","","html-keyboard-response","345","608523","0.0-7.6-0.6-1.160","null","<span style='color:GreenYellow; font-size: 70px;'>正确! </span>","null","","","","","","","","","","","","","","","","","","","","","","","","","feedback",""
"","","","","","psychophysics","346","610271","0.0-7.6-0.6-0.161","598","","j","","","","","","","","","","","","","key","j","16.666019417475503","768","428","./1_3_Stimuli/T_ambi40.png","他人","Image","朋友","Mismatch","j","true","Practice",""
"","","","","","html-keyboard-response","347","610585","0.0-7.6-0.6-1.161","null","<span style='color:GreenYellow; font-size: 70px;'>正确! </span>","null","","","","","","","","","","","","","","","","","","","","","","","","","feedback",""
"","","","","","psychophysics","348","612332","0.0-7.6-0.6-0.162","591","","f","","","","","","","","","","","","","key","f","16.667307692307915","768","428","./1_3_Stimuli/T_ambi40.png","朋友","Word","朋友","Match","f","true","Practice",""
"","","","","","html-keyboard-response","349","612645","0.0-7.6-0.6-1.162","null","<span style='color:GreenYellow; font-size: 70px;'>正确! </span>","null","","","","","","","","","","","","","","","","","","","","","","","","","feedback",""
"","","","","","psychophysics","350","614372","0.0-7.6-0.6-0.163","571","","j","","","","","","","","","","","","","key","j","16.665686274510033","768","428","./1_3_Stimuli/C_ambi40.png","自我","Word","他人","Mismatch","j","true","Practice",""
"","","","","","html-keyboard-response","351","614674","0.0-7.6-0.6-1.163","null","<span style='color:GreenYellow; font-size: 70px;'>正确! </span>","null","","","","","","","","","","","","","","","","","","","","","","","","","feedback",""
"","","","","","psychophysics","352","616471","0.0-7.6-0.6-0.164","645","","f","","","","","","","","","","","","","key","f","16.66509433962264","768","428","./1_3_Stimuli/S_ambi40.png","自我","Image","自我","Match","f","true","Practice",""
"","","","","","html-keyboard-response","353","616781","0.0-7.6-0.6-1.164","null","<span style='color:GreenYellow; font-size: 70px;'>正确! </span>","null","","","","","","","","","","","","","","","","","","","","","","","","","feedback",""
"","","","","","psychophysics","354","618468","0.0-7.6-0.6-0.165","535","","j","","","","","","","","","","","","","key","j","16.665","768","428","./1_3_Stimuli/T_ambi40.png","自我","Word","朋友","Mismatch","j","true","Practice",""
"","","","","","html-keyboard-response","355","618775","0.0-7.6-0.6-1.165","null","<span style='color:GreenYellow; font-size: 70px;'>正确! </span>","null","","","","","","","","","","","","","","","","","","","","","","","","","feedback",""
"","","","","","psychophysics","356","620694","0.0-7.6-0.6-0.166","765","","j","","","","","","","","","","","","","key","j","16.66403508771991","768","428","./1_3_Stimuli/S_ambi40.png","他人","Word","自我","Mismatch","j","true","Practice",""
"","","","","","html-keyboard-response","357","621002","0.0-7.6-0.6-1.166","null","<span style='color:GreenYellow; font-size: 70px;'>正确! </span>","null","","","","","","","","","","","","","","","","","","","","","","","","","feedback",""
"","","","","","psychophysics","358","622680","0.0-7.6-0.6-0.167","522","","f","","","","","","","","","","","","","key","f","16.664000000000232","768","428","./1_3_Stimuli/S_ambi40.png","自我","Word","自我","Match","f","true","Practice",""
"","","","","","html-keyboard-response","359","622982","0.0-7.6-0.6-1.167","null","<span style='color:GreenYellow; font-size: 70px;'>正确! </span>","null","","","","","","","","","","","","","","","","","","","","","","","","","feedback",""
"","","","","","html-keyboard-response","360","629706","0.0-8.0","6723","<style>.context{color:white; font-size: 35px; line-height:40px}</style>                          <div><p class='context'>您正确回答了100% 的试次。</p><p class='context'>您的平均反应时为601毫秒。</p><p class='context'>恭喜您完成练习。现在请休息3~5分钟。</p><p class='context'>之后，按任意键进入正式实验。需要注意的是，正式实验将不再提供反应是否正确的反馈。</p><p class='footer' style='font-size: 35px; line-height:40px;'>请在进入正式实验实验之前将您的<span style='color: lightgreen;'>食指</span>放在电脑键盘的相应键位上进行按键。</p>"," ","","","","","","","","","","","","","","","","","","","","","","","","","",""
"","","","","","psychophysics","361","632181","0.0-9.0-0.0-0.0","1319","","f","","","","","","","","","","","","","key","f","16.665986394557983","768","428","./1_3_Stimuli/C_ambi40.png","他人","Word","他人","Match","f","true","Formal",""
"","","","","","psychophysics","362","634151","0.0-9.0-0.0-0.1","812","","f","","","","","","","","","","","","","key","f","16.667521367521168","768","428","./1_3_Stimuli/C_ambi40.png","他人","Image","他人","Match","f","true","Formal",""
"","","","","","psychophysics","363","635981","0.0-9.0-0.0-0.2","675","","j","","","","","","","","","","","","","key","j","16.666055045871346","768","428","./1_3_Stimuli/T_ambi40.png","他人","Word","朋友","Mismatch","j","true","Formal",""
"","","","","","psychophysics","364","638083","0.0-9.0-0.0-0.3","949","","j","","","","","","","","","","","","","key","j","16.666935483870592","768","428","./1_3_Stimuli/S_ambi40.png","他人","Image","自我","Mismatch","j","true","Formal",""
"","","","","","psychophysics","365","640198","0.0-9.0-0.0-0.4","959","","f","","","","","","","","","","","","","key","f","16.666666666666668","768","428","./1_3_Stimuli/S_ambi40.png","自我","Image","自我","Match","f","true","Formal",""
"","","","","","psychophysics","366","642396","0.0-9.0-0.0-0.5","1040","","f","","","","","","","","","","","","","key","f","16.665648854961475","768","428","./1_3_Stimuli/T_ambi40.png","朋友","Word","朋友","Match","f","true","Formal",""
"","","","","","psychophysics","367","644388","0.0-9.0-0.0-0.6","832","","f","","","","","","","","","","","","","key","f","16.666101694915056","768","428","./1_3_Stimuli/C_ambi40.png","他人","Image","他人","Match","f","true","Formal",""
"","","","","","psychophysics","368","646388","0.0-9.0-0.0-0.7","848","","f","","","","","","","","","","","","","key","f","16.666101694915056","768","428","./1_3_Stimuli/C_ambi40.png","朋友","Word","他人","Mismatch","j","false","Formal",""
"","","","","","psychophysics","369","648477","0.0-9.0-0.0-0.8","937","","j","","","","","","","","","","","","","key","j","16.664516129032446","768","428","./1_3_Stimuli/S_ambi40.png","他人","Word","自我","Mismatch","j","true","Formal",""
"","","","","","psychophysics","370","650386","0.0-9.0-0.0-0.9","746","","f","","","","","","","","","","","","","key","f","16.665486725664334","768","428","./1_3_Stimuli/C_ambi40.png","自我","Word","他人","Mismatch","j","false","Formal",""
"","","","","","psychophysics","371","652880","0.0-9.0-0.0-0.10","1341","","f","","","","","","","","","","","","","key","f","16.66711409395989","768","428","./1_3_Stimuli/T_ambi40.png","他人","Image","朋友","Mismatch","j","false","Formal",""
"","","","","","psychophysics","372","655199","0.0-9.0-0.0-0.11","1159","","f","","","","","","","","","","","","","key","f","16.665942028985675","768","428","./1_3_Stimuli/T_ambi40.png","朋友","Image","朋友","Match","f","true","Formal",""
"","","","","","psychophysics","373","657905","0.0-9.0-0.0-0.12","null","","null","","","","","","","","","","","","","key","null","16.665217391304203","768","428","./1_3_Stimuli/T_ambi40.png","自我","Word","朋友","Mismatch","j","false","Formal",""
"","","","","","psychophysics","374","660413","0.0-9.0-0.0-0.13","1358","","f","","","","","","","","","","","","","key","f","16.666442953020447","768","428","./1_3_Stimuli/S_ambi40.png","朋友","Image","自我","Mismatch","j","false","Formal",""
"","","","","","psychophysics","375","662793","0.0-9.0-0.0-0.14","1221","","j","","","","","","","","","","","","","key","j","16.66549295774648","768","428","./1_3_Stimuli/T_ambi40.png","朋友","Word","朋友","Match","f","false","Formal",""
"","","","","","psychophysics","376","664565","0.0-9.0-0.0-0.15","609","","f","","","","","","","","","","","","","key","f","16.665714285714508","768","428","./1_3_Stimuli/C_ambi40.png","他人","Word","他人","Match","f","true","Formal",""
"","","","","","psychophysics","377","667013","0.0-9.0-0.0-0.16","1297","","j","","","","","","","","","","","","","key","j","16.665753424657215","768","428","./1_3_Stimuli/T_ambi40.png","自我","Image","朋友","Mismatch","j","true","Formal",""
"","","","","","psychophysics","378","669651","0.0-9.0-0.0-0.17","1479","","f","","","","","","","","","","","","","key","f","16.667515923566434","768","428","./1_3_Stimuli/S_ambi40.png","朋友","Word","自我","Mismatch","j","false","Formal",""
"","","","","","psychophysics","379","671796","0.0-9.0-0.0-0.18","991","","f","","","","","","","","","","","","","key","f","16.666406250000364","768","428","./1_3_Stimuli/S_ambi40.png","自我","Word","自我","Match","f","true","Formal",""
"","","","","","psychophysics","380","674248","0.0-9.0-0.0-0.19","1292","","j","","","","","","","","","","","","","key","j","16.665753424658014","768","428","./1_3_Stimuli/C_ambi40.png","朋友","Image","他人","Mismatch","j","true","Formal",""
"","","","","","psychophysics","381","676955","0.0-9.0-0.0-0.20","null","","null","","","","","","","","","","","","","key","null","16.666049382716192","768","428","./1_3_Stimuli/C_ambi40.png","自我","Image","他人","Mismatch","j","false","Formal",""
"","","","","","psychophysics","382","678843","0.0-9.0-0.0-0.21","736","","f","","","","","","","","","","","","","key","f","16.66607142857122","768","428","./1_3_Stimuli/S_ambi40.png","自我","Image","自我","Match","f","true","Formal",""
"","","","","","psychophysics","383","680416","0.0-9.0-0.0-0.22","417","","f","","","","","","","","","","","","","key","f","16.665591397849713","768","428","./1_3_Stimuli/S_ambi40.png","自我","Word","自我","Match","f","true","Formal",""
"","","","","","psychophysics","384","682861","0.0-9.0-0.0-0.23","1290","","f","","","","","","","","","","","","","key","f","16.666438356164704","768","428","./1_3_Stimuli/T_ambi40.png","朋友","Image","朋友","Match","f","true","Formal",""
"","","","","","psychophysics","385","684962","0.0-9.0-0.0-0.24","940","","j","","","","","","","","","","","","","key","j","16.667200000000186","768","428","./1_3_Stimuli/C_ambi40.png","朋友","Image","他人","Mismatch","j","true","Formal",""
"","","","","","psychophysics","386","686728","0.0-9.0-0.0-0.25","614","","f","","","","","","","","","","","","","key","f","16.666666666666668","768","428","./1_3_Stimuli/S_ambi40.png","自我","Word","自我","Match","f","true","Formal",""
"","","","","","psychophysics","387","688947","0.0-9.0-0.0-0.26","1060","","j","","","","","","","","","","","","","key","j","16.666666666666668","768","428","./1_3_Stimuli/S_ambi40.png","他人","Word","自我","Mismatch","j","true","Formal",""
"","","","","","psychophysics","388","691428","0.0-9.0-0.0-0.27","1325","","f","","","","","","","","","","","","","key","f","16.66621621621606","768","428","./1_3_Stimuli/C_ambi40.png","他人","Word","他人","Match","f","true","Formal",""
"","","","","","psychophysics","389","693403","0.0-9.0-0.0-0.28","815","","f","","","","","","","","","","","","","key","f","16.666666666666668","768","428","./1_3_Stimuli/C_ambi40.png","自我","Image","他人","Mismatch","j","false","Formal",""
"","","","","","psychophysics","390","695883","0.0-9.0-0.0-0.29","1329","","j","","","","","","","","","","","","","key","j","16.666666666666668","768","428","./1_3_Stimuli/T_ambi40.png","自我","Image","朋友","Mismatch","j","true","Formal",""
"","","","","","psychophysics","391","698363","0.0-9.0-0.0-0.30","1326","","j","","","","","","","","","","","","","key","j","16.667567567567882","768","428","./1_3_Stimuli/S_ambi40.png","朋友","Word","自我","Mismatch","j","true","Formal",""
"","","","","","psychophysics","392","700763","0.0-9.0-0.0-0.31","1247","","f","","","","","","","","","","","","","key","f","16.66713286713303","768","428","./1_3_Stimuli/T_ambi40.png","朋友","Image","朋友","Match","f","true","Formal",""
"","","","","","psychophysics","393","702494","0.0-9.0-0.0-0.32","573","","f","","","","","","","","","","","","","key","f","16.666990291261683","768","428","./1_3_Stimuli/T_ambi40.png","朋友","Word","朋友","Match","f","true","Formal",""
"","","","","","psychophysics","394","704746","0.0-9.0-0.0-0.33","1092","","f","","","","","","","","","","","","","key","f","16.666417910448107","768","428","./1_3_Stimuli/C_ambi40.png","他人","Image","他人","Match","f","true","Formal",""
"","","","","","psychophysics","395","706610","0.0-9.0-0.0-0.34","706","","j","","","","","","","","","","","","","key","j","16.665765765765975","768","428","./1_3_Stimuli/T_ambi40.png","他人","Word","朋友","Mismatch","j","true","Formal",""
"","","","","","psychophysics","396","708514","0.0-9.0-0.0-0.35","744","","j","","","","","","","","","","","","","key","j","16.66637168141531","768","428","./1_3_Stimuli/S_ambi40.png","他人","Image","自我","Mismatch","j","true","Formal",""
"","","","","","psychophysics","397","710462","0.0-9.0-0.0-0.36","792","","f","","","","","","","","","","","","","key","f","16.664655172413593","768","428","./1_3_Stimuli/T_ambi40.png","朋友","Word","朋友","Match","f","true","Formal",""
"","","","","","psychophysics","398","712376","0.0-9.0-0.0-0.37","755","","f","","","","","","","","","","","","","key","f","16.66842105263219","768","428","./1_3_Stimuli/S_ambi40.png","自我","Word","自我","Match","f","true","Formal",""
"","","","","","psychophysics","399","714364","0.0-9.0-0.0-0.38","825","","j","","","","","","","","","","","","","key","j","16.666949152542966","768","428","./1_3_Stimuli/T_ambi40.png","他人","Image","朋友","Mismatch","j","true","Formal",""
"","","","","","psychophysics","400","716817","0.0-9.0-0.0-0.39","1296","","f","","","","","","","","","","","","","key","f","16.666438356164704","768","428","./1_3_Stimuli/C_ambi40.png","朋友","Word","他人","Mismatch","j","false","Formal",""
"","","","","","psychophysics","401","718484","0.0-9.0-0.0-0.40","514","","f","","","","","","","","","","","","","key","f","16.6656565656568","768","428","./1_3_Stimuli/C_ambi40.png","他人","Word","他人","Match","f","true","Formal",""
"","","","","","psychophysics","402","720916","0.0-9.0-0.0-0.41","1279","","j","","","","","","","","","","","","","key","j","16.66551724137931","768","428","./1_3_Stimuli/C_ambi40.png","自我","Word","他人","Mismatch","j","true","Formal",""
"","","","","","psychophysics","403","722973","0.0-9.0-0.0-0.42","903","","f","","","","","","","","","","","","","key","f","17.22436974789877","768","428","./1_3_Stimuli/C_ambi40.png","他人","Image","他人","Match","f","true","Formal",""
"","","","","","psychophysics","404","725571","0.0-9.0-0.0-0.43","1432","","f","","","","","","","","","","","","","key","f","16.666883116882815","768","428","./1_3_Stimuli/T_ambi40.png","朋友","Image","朋友","Match","f","true","Formal",""
"","","","","","psychophysics","405","727569","0.0-9.0-0.0-0.44","845","","j","","","","","","","","","","","","","key","j","16.665254237288135","768","428","./1_3_Stimuli/T_ambi40.png","自我","Word","朋友","Mismatch","j","true","Formal",""
"","","","","","psychophysics","406","729345","0.0-9.0-0.0-0.45","625","","f","","","","","","","","","","","","","key","f","16.667924528302326","768","428","./1_3_Stimuli/S_ambi40.png","自我","Image","自我","Match","f","true","Formal",""
"","","","","","psychophysics","407","731404","0.0-9.0-0.0-0.46","907","","j","","","","","","","","","","","","","key","j","16.66639344262333","768","428","./1_3_Stimuli/S_ambi40.png","朋友","Image","自我","Mismatch","j","true","Formal",""
"","","","","","psychophysics","408","733341","0.0-9.0-0.0-0.47","778","","f","","","","","","","","","","","","","key","f","16.66608695652255","768","428","./1_3_Stimuli/S_ambi40.png","自我","Image","自我","Match","f","true","Formal",""
"","","","","","psychophysics","409","735268","0.0-9.0-0.0-0.48","764","","j","","","","","","","","","","","","","key","j","16.665789473684416","768","428","./1_3_Stimuli/C_ambi40.png","自我","Word","他人","Mismatch","j","true","Formal",""
"","","","","","psychophysics","410","737565","0.0-9.0-0.0-0.49","1144","","f","","","","","","","","","","","","","key","f","16.665693430656596","768","428","./1_3_Stimuli/T_ambi40.png","朋友","Word","朋友","Match","f","true","Formal",""
"","","","","","psychophysics","411","739382","0.0-9.0-0.0-0.50","663","","f","","","","","","","","","","","","","key","f","16.665740740740958","768","428","./1_3_Stimuli/T_ambi40.png","朋友","Word","朋友","Match","f","true","Formal",""
"","","","","","psychophysics","412","741316","0.0-9.0-0.0-0.51","780","","j","","","","","","","","","","","","","key","j","16.666086956521536","768","428","./1_3_Stimuli/T_ambi40.png","他人","Image","朋友","Mismatch","j","true","Formal",""
"","","","","","psychophysics","413","743128","0.0-9.0-0.0-0.52","658","","f","","","","","","","","","","","","","key","f","16.664814814814168","768","428","./1_3_Stimuli/C_ambi40.png","他人","Word","他人","Match","f","true","Formal",""
