"success","timeout","failed_images","failed_audio","failed_video","trial_type","trial_index","time_elapsed","internal_node_id","rt","stimulus","response","value","item_width_mm","item_height_mm","item_width_px","px2mm","view_dist_mm","item_width_deg","px2deg","scale_factor","win_width_deg","win_height_deg","view_history","response_type","key_press","avg_frame_time","center_x","center_y","image","word","target","valence","matchness","correct_response","correct","exp_condition","question_order"
"true","false","[]","[]","[]","preload","0","535","0.0-0.0","","","","","","","","","","","","","","","","","","","","","","","","","","","","",""
"","","","","","html-keyboard-response","1","12939","0.0-1.0","12403","
     <p>您好，欢迎参加本次实验。</p>
     <p>为充分保障您的权利，请确保您已经知晓并同意《参与实验同意书》以及《数据公开知情同意书》。</p>
     <p>如果您未见过上述内容，请咨询实验员。</p>
     <p>如果您选择继续实验，则表示您已经清楚两份知情同意书的内容并同意。</p>
     <p> <div style = ""color: green""><按任意键至下页></div> </p>
     ","n","","","","","","","","","","","","","","","","","","","","","","","","","",""
"","","","","","html-keyboard-response","2","14107","0.0-2.0-0.0","1167","
      <p>本实验首先需要您填写一些基本个人信息。</p>
      <p> <div style = ""color: green""><按任意键至下页></div></p>
      ","n","","","","","","","","","","","","","","","","","","","","","","","","","",""
"","","","","","call-function","3","14109","0.0-2.0-1.0","","","","","","","","","","","","","","","","","","","","","","","","","","","","",""
"","","","","","survey-html-form","4","27649","0.0-2.0-2.0","13538","","{""Q0"":""1029""}","","","","","","","","","","","","","","","","","","","","","","","","","",""
"","","","","","html-button-response","5","28592","0.0-2.0-3.0","941","<p style = 'color : white'>您的性别</p>","1","","","","","","","","","","","","","","","","","","","","","","","","","",""
"","","","","","survey-html-form","6","49984","0.0-2.0-4.0","21391","","{""Q0"":""2001""}","","","","","","","","","","","","","","","","","","","","","","","","","",""
"","","","","","survey-html-form","7","57768","0.0-2.0-5.0","7783","","{""Q0"":""5""}","","","","","","","","","","","","","","","","","","","","","","","","","",""
"","","","","","virtual-chinrest","8","340543","0.0-3.0","282771","","","","85.6","53.98","448.23972655865657","5.241710463582105","545.97","8.964794531173132","50","0.8165273587192975","25.6","11.08","","","","","","","","","","","","","","",""
"true","","","","","fullscreen","9","346838","0.0-4.0","","","","","","","","","","","","","","","","","","","","","","","","","","","","",""
"","","","","","instructions","10","449560","0.0-5.0","102720","","","","","","","","","","","","","","[{""page_index"":0,""viewing_time"":12141},{""page_index"":1,""viewing_time"":44055},{""page_index"":2,""viewing_time"":42186},{""page_index"":3,""viewing_time"":4338}]","","","","","","","","","","","","","",""
"","","","","","html-keyboard-response","11","453213","0.0-6.0","null","<count-down title=""""></count-down>","null","","","","","","","","","","","","","","","","","","","","","","","","","",""
"","","","","","psychophysics","12","455923","0.0-7.0-0.0-0.0","null","","null","","","","","","","","","","","","","key","null","16.690434782608897","640","356","./1_3_Stimuli/C_ambi40.png","自我","Word","朋友","Mismatch","f","false","Practice",""
"","","","","","html-keyboard-response","13","456227","0.0-7.0-0.0-1.0","null","<span class='add_' style='color:yellow; font-size: 70px;'> 太慢! </span>","null","","","","","","","","","","","","","","","","","","","","","","","","","feedback",""
"","","","","","psychophysics","14","458930","0.0-7.0-0.0-0.1","null","","null","","","","","","","","","","","","","key","null","16.65333540372656","640","356","./1_3_Stimuli/S_ambi40.png","朋友","Image","他人","Mismatch","f","false","Practice",""
"","","","","","html-keyboard-response","15","459231","0.0-7.0-0.0-1.1","null","<span class='add_' style='color:yellow; font-size: 70px;'> 太慢! </span>","null","","","","","","","","","","","","","","","","","","","","","","","","","feedback",""
"","","","","","psychophysics","16","461934","0.0-7.0-0.0-0.2","null","","null","","","","","","","","","","","","","key","null","16.653819875776122","640","356","./1_3_Stimuli/S_ambi40.png","他人","Image","他人","Match","j","false","Practice",""
"","","","","","html-keyboard-response","17","462236","0.0-7.0-0.0-1.2","null","<span class='add_' style='color:yellow; font-size: 70px;'> 太慢! </span>","null","","","","","","","","","","","","","","","","","","","","","","","","","feedback",""
"","","","","","psychophysics","18","464939","0.0-7.0-0.0-0.3","null","","null","","","","","","","","","","","","","key","null","16.652801242236176","640","356","./1_3_Stimuli/C_ambi40.png","朋友","Image","朋友","Match","j","false","Practice",""
"","","","","","html-keyboard-response","19","465240","0.0-7.0-0.0-1.3","null","<span class='add_' style='color:yellow; font-size: 70px;'> 太慢! </span>","null","","","","","","","","","","","","","","","","","","","","","","","","","feedback",""
"","","","","","psychophysics","20","467941","0.0-7.0-0.0-0.4","null","","null","","","","","","","","","","","","","key","null","16.868433962264184","640","356","./1_3_Stimuli/T_ambi40.png","他人","Image","自我","Mismatch","f","false","Practice",""
"","","","","","html-keyboard-response","21","468244","0.0-7.0-0.0-1.4","null","<span class='add_' style='color:yellow; font-size: 70px;'> 太慢! </span>","null","","","","","","","","","","","","","","","","","","","","","","","","","feedback",""
"","","","","","psychophysics","22","470009","0.0-7.0-0.0-0.5","612","","j","","","","","","","","","","","","","key","j","16.675884615384767","640","356","./1_3_Stimuli/T_ambi40.png","自我","Word","自我","Match","j","true","Practice",""
"","","","","","html-keyboard-response","23","470311","0.0-7.0-0.0-1.5","null","<span style='color:GreenYellow; font-size: 70px;'>正确! </span>","null","","","","","","","","","","","","","","","","","","","","","","","","","feedback",""
"","","","","","psychophysics","24","473015","0.0-7.0-0.0-0.6","null","","null","","","","","","","","","","","","","key","null","16.700888198758086","640","356","./1_3_Stimuli/T_ambi40.png","自我","Image","自我","Match","j","false","Practice",""
"","","","","","html-keyboard-response","25","473317","0.0-7.0-0.0-1.6","null","<span class='add_' style='color:yellow; font-size: 70px;'> 太慢! </span>","null","","","","","","","","","","","","","","","","","","","","","","","","","feedback",""
"","","","","","psychophysics","26","474967","0.0-7.0-0.0-0.7","498","","j","","","","","","","","","","","","","key","j","16.649234693877553","640","356","./1_3_Stimuli/S_ambi40.png","自我","Word","他人","Mismatch","f","false","Practice",""
"","","","","","html-keyboard-response","27","475269","0.0-7.0-0.0-1.7","null","<span style='color:red; font-size: 70px;'>错误! </span>","null","","","","","","","","","","","","","","","","","","","","","","","","","feedback",""
"","","","","","psychophysics","28","477972","0.0-7.0-0.0-0.8","null","","null","","","","","","","","","","","","","key","null","16.6511180124221","640","356","./1_3_Stimuli/C_ambi40.png","朋友","Word","朋友","Match","j","false","Practice",""
"","","","","","html-keyboard-response","29","478274","0.0-7.0-0.0-1.8","null","<span class='add_' style='color:yellow; font-size: 70px;'> 太慢! </span>","null","","","","","","","","","","","","","","","","","","","","","","","","","feedback",""
"","","","","","psychophysics","30","479991","0.0-7.0-0.0-0.9","566","","j","","","","","","","","","","","","","key","j","16.64179411764695","640","356","./1_3_Stimuli/T_ambi40.png","自我","Word","自我","Match","j","true","Practice",""
"","","","","","html-keyboard-response","31","480293","0.0-7.0-0.0-1.9","null","<span style='color:GreenYellow; font-size: 70px;'>正确! </span>","null","","","","","","","","","","","","","","","","","","","","","","","","","feedback",""
"","","","","","psychophysics","32","481959","0.0-7.0-0.0-0.10","514","","f","","","","","","","","","","","","","key","f","16.64837373737387","640","356","./1_3_Stimuli/C_ambi40.png","他人","Image","朋友","Mismatch","f","true","Practice",""
"","","","","","html-keyboard-response","33","482261","0.0-7.0-0.0-1.10","null","<span style='color:GreenYellow; font-size: 70px;'>正确! </span>","null","","","","","","","","","","","","","","","","","","","","","","","","","feedback",""
"","","","","","psychophysics","34","484963","0.0-7.0-0.0-0.11","null","","null","","","","","","","","","","","","","key","null","16.65255625000027","640","356","./1_3_Stimuli/C_ambi40.png","自我","Image","朋友","Mismatch","f","false","Practice",""
"","","","","","html-keyboard-response","35","485265","0.0-7.0-0.0-1.11","null","<span class='add_' style='color:yellow; font-size: 70px;'> 太慢! </span>","null","","","","","","","","","","","","","","","","","","","","","","","","","feedback",""
"","","","","","psychophysics","36","487200","0.0-7.0-0.0-0.12","782","","f","","","","","","","","","","","","","key","f","16.65004347826091","640","356","./1_3_Stimuli/T_ambi40.png","朋友","Image","自我","Mismatch","f","true","Practice",""
"","","","","","html-keyboard-response","37","487503","0.0-7.0-0.0-1.12","null","<span style='color:GreenYellow; font-size: 70px;'>正确! </span>","null","","","","","","","","","","","","","","","","","","","","","","","","","feedback",""
"","","","","","psychophysics","38","489724","0.0-7.0-0.0-0.13","1068","","f","","","","","","","","","","","","","key","f","16.653310606060337","640","356","./1_3_Stimuli/S_ambi40.png","自我","Image","他人","Mismatch","f","true","Practice",""
"","","","","","html-keyboard-response","39","490026","0.0-7.0-0.0-1.13","null","<span style='color:GreenYellow; font-size: 70px;'>正确! </span>","null","","","","","","","","","","","","","","","","","","","","","","","","","feedback",""
"","","","","","psychophysics","40","492305","0.0-7.0-0.0-0.14","1125","","f","","","","","","","","","","","","","key","f","16.65151851851864","640","356","./1_3_Stimuli/C_ambi40.png","朋友","Image","朋友","Match","j","false","Practice",""
"","","","","","html-keyboard-response","41","492606","0.0-7.0-0.0-1.14","null","<span style='color:red; font-size: 70px;'>错误! </span>","null","","","","","","","","","","","","","","","","","","","","","","","","","feedback",""
"","","","","","psychophysics","42","495308","0.0-7.0-0.0-0.15","null","","null","","","","","","","","","","","","","key","null","16.655037267080807","640","356","./1_3_Stimuli/S_ambi40.png","他人","Word","他人","Match","j","false","Practice",""
"","","","","","html-keyboard-response","43","495610","0.0-7.0-0.0-1.15","null","<span class='add_' style='color:yellow; font-size: 70px;'> 太慢! </span>","null","","","","","","","","","","","","","","","","","","","","","","","","","feedback",""
"","","","","","psychophysics","44","498289","0.0-7.0-0.0-0.16","1527","","f","","","","","","","","","","","","","key","f","16.652768749999815","640","356","./1_3_Stimuli/T_ambi40.png","朋友","Word","自我","Mismatch","f","true","Practice",""
"","","","","","html-keyboard-response","45","498591","0.0-7.0-0.0-1.16","null","<span class='add_' style='color:yellow; font-size: 70px;'> 太慢! </span>","null","","","","","","","","","","","","","","","","","","","","","","","","","feedback",""
"","","","","","psychophysics","46","500209","0.0-7.0-0.0-0.17","467","","j","","","","","","","","","","","","","key","j","16.653447916666966","640","356","./1_3_Stimuli/T_ambi40.png","自我","Image","自我","Match","j","true","Practice",""
"","","","","","html-keyboard-response","47","500511","0.0-7.0-0.0-1.17","null","<span style='color:GreenYellow; font-size: 70px;'>正确! </span>","null","","","","","","","","","","","","","","","","","","","","","","","","","feedback",""
"","","","","","psychophysics","48","503213","0.0-7.0-0.0-0.18","null","","null","","","","","","","","","","","","","key","null","16.760018750000018","640","356","./1_3_Stimuli/S_ambi40.png","他人","Word","他人","Match","j","false","Practice",""
"","","","","","html-keyboard-response","49","503515","0.0-7.0-0.0-1.18","null","<span class='add_' style='color:yellow; font-size: 70px;'> 太慢! </span>","null","","","","","","","","","","","","","","","","","","","","","","","","","feedback",""
"","","","","","psychophysics","50","505413","0.0-7.0-0.0-0.19","746","","f","","","","","","","","","","","","","key","f","16.637580357143243","640","356","./1_3_Stimuli/C_ambi40.png","朋友","Word","朋友","Match","j","false","Practice",""
"","","","","","html-keyboard-response","51","505715","0.0-7.0-0.0-1.19","null","<span style='color:red; font-size: 70px;'>错误! </span>","null","","","","","","","","","","","","","","","","","","","","","","","","","feedback",""
"","","","","","psychophysics","52","507623","0.0-7.0-0.0-0.20","756","","f","","","","","","","","","","","","","key","f","16.650787610619894","640","356","./1_3_Stimuli/S_ambi40.png","朋友","Word","他人","Mismatch","f","true","Practice",""
"","","","","","html-keyboard-response","53","507925","0.0-7.0-0.0-1.20","null","<span style='color:GreenYellow; font-size: 70px;'>正确! </span>","null","","","","","","","","","","","","","","","","","","","","","","","","","feedback",""
"","","","","","psychophysics","54","510263","0.0-7.0-0.0-0.21","1187","","j","","","","","","","","","","","","","key","j","16.648683453237524","640","356","./1_3_Stimuli/T_ambi40.png","他人","Word","自我","Mismatch","f","false","Practice",""
"","","","","","html-keyboard-response","55","510566","0.0-7.0-0.0-1.21","null","<span style='color:red; font-size: 70px;'>错误! </span>","null","","","","","","","","","","","","","","","","","","","","","","","","","feedback",""
"","","","","","psychophysics","56","512905","0.0-7.0-0.0-0.22","1188","","f","","","","","","","","","","","","","key","f","16.651302158273086","640","356","./1_3_Stimuli/C_ambi40.png","他人","Word","朋友","Mismatch","f","true","Practice",""
"","","","","","html-keyboard-response","57","513206","0.0-7.0-0.0-1.22","null","<span style='color:GreenYellow; font-size: 70px;'>正确! </span>","null","","","","","","","","","","","","","","","","","","","","","","","","","feedback",""
"","","","","","psychophysics","58","515908","0.0-7.0-0.0-0.23","null","","null","","","","","","","","","","","","","key","null","16.652391304347667","640","356","./1_3_Stimuli/S_ambi40.png","他人","Image","他人","Match","j","false","Practice",""
"","","","","","html-keyboard-response","59","516210","0.0-7.0-0.0-1.23","null","<span class='add_' style='color:yellow; font-size: 70px;'> 太慢! </span>","null","","","","","","","","","","","","","","","","","","","","","","","","","feedback",""
"","","","","","html-keyboard-response","60","532443","0.0-7.0-1.0-0.0","16231","<style>.context{color:white; font-size: 35px; line-height:40px}</style>                        <div><p class='context'>您正确回答了38% 的试次。</p><p class='context'>您的平均反应时为831毫秒。</p><p> <div style = 'color: green'><按空格键至下页></div></p>"," ","","","","","","","","","","","","","","","","","","","","","","","","","",""
"","","","","","instructions","61","564937","0.0-7.0-1.0-1.0","32490","","","","","","","","","","","","","","[{""page_index"":0,""viewing_time"":5472},{""page_index"":1,""viewing_time"":15652},{""page_index"":2,""viewing_time"":2881},{""page_index"":1,""viewing_time"":6792},{""page_index"":2,""viewing_time"":1691}]","","","","","","","","","","","","","",""
"","","","","","psychophysics","62","567642","0.0-7.1-0.1-0.24","null","","null","","","","","","","","","","","","","key","null","16.75499375000072","640","356","./1_3_Stimuli/C_ambi40.png","朋友","Word","朋友","Match","j","false","Practice",""
"","","","","","html-keyboard-response","63","567943","0.0-7.1-0.1-1.24","null","<span class='add_' style='color:yellow; font-size: 70px;'> 太慢! </span>","null","","","","","","","","","","","","","","","","","","","","","","","","","feedback",""
"","","","","","psychophysics","64","570454","0.0-7.1-0.1-0.25","1358","","f","","","","","","","","","","","","","key","f","16.767743243243565","640","356","./1_3_Stimuli/S_ambi40.png","自我","Word","他人","Mismatch","f","true","Practice",""
"","","","","","html-keyboard-response","65","570755","0.0-7.1-0.1-1.25","null","<span style='color:GreenYellow; font-size: 70px;'>正确! </span>","null","","","","","","","","","","","","","","","","","","","","","","","","","feedback",""
"","","","","","psychophysics","66","572704","0.0-7.1-0.1-0.26","798","","f","","","","","","","","","","","","","key","f","17.099812500000034","640","356","./1_3_Stimuli/S_ambi40.png","自我","Image","他人","Mismatch","f","true","Practice",""
"","","","","","html-keyboard-response","67","573005","0.0-7.1-0.1-1.26","null","<span style='color:GreenYellow; font-size: 70px;'>正确! </span>","null","","","","","","","","","","","","","","","","","","","","","","","","","feedback",""
"","","","","","psychophysics","68","575154","0.0-7.1-0.1-0.27","997","","f","","","","","","","","","","","","","key","f","16.587562499999876","640","356","./1_3_Stimuli/C_ambi40.png","朋友","Image","朋友","Match","j","false","Practice",""
"","","","","","html-keyboard-response","69","575455","0.0-7.1-0.1-1.27","null","<span style='color:red; font-size: 70px;'>错误! </span>","null","","","","","","","","","","","","","","","","","","","","","","","","","feedback",""
"","","","","","psychophysics","70","577552","0.0-7.1-0.1-0.28","946","","f","","","","","","","","","","","","","key","f","16.65445967741975","640","356","./1_3_Stimuli/S_ambi40.png","朋友","Image","他人","Mismatch","f","true","Practice",""
"","","","","","html-keyboard-response","71","577854","0.0-7.1-0.1-1.28","null","<span style='color:GreenYellow; font-size: 70px;'>正确! </span>","null","","","","","","","","","","","","","","","","","","","","","","","","","feedback",""
"","","","","","psychophysics","72","580094","0.0-7.1-0.1-0.29","1089","","f","","","","","","","","","","","","","key","f","16.632669172931596","640","356","./1_3_Stimuli/C_ambi40.png","他人","Image","朋友","Mismatch","f","true","Practice",""
"","","","","","html-keyboard-response","73","580396","0.0-7.1-0.1-1.29","null","<span style='color:GreenYellow; font-size: 70px;'>正确! </span>","null","","","","","","","","","","","","","","","","","","","","","","","","","feedback",""
"","","","","","psychophysics","74","582157","0.0-7.1-0.1-0.30","609","","j","","","","","","","","","","","","","key","j","16.647276190476536","640","356","./1_3_Stimuli/T_ambi40.png","自我","Image","自我","Match","j","true","Practice",""
"","","","","","html-keyboard-response","75","582458","0.0-7.1-0.1-1.30","null","<span style='color:GreenYellow; font-size: 70px;'>正确! </span>","null","","","","","","","","","","","","","","","","","","","","","","","","","feedback",""
"","","","","","psychophysics","76","584482","0.0-7.1-0.1-0.31","872","","f","","","","","","","","","","","","","key","f","16.652289256198554","640","356","./1_3_Stimuli/C_ambi40.png","朋友","Word","朋友","Match","j","false","Practice",""
"","","","","","html-keyboard-response","77","584783","0.0-7.1-0.1-1.31","null","<span style='color:red; font-size: 70px;'>错误! </span>","null","","","","","","","","","","","","","","","","","","","","","","","","","feedback",""
"","","","","","psychophysics","78","586990","0.0-7.1-0.1-0.32","1055","","f","","","","","","","","","","","","","key","f","16.653129770991903","640","356","./1_3_Stimuli/C_ambi40.png","自我","Word","朋友","Mismatch","f","true","Practice",""
"","","","","","html-keyboard-response","79","587293","0.0-7.1-0.1-1.32","null","<span style='color:GreenYellow; font-size: 70px;'>正确! </span>","null","","","","","","","","","","","","","","","","","","","","","","","","","feedback",""
"","","","","","psychophysics","80","589724","0.0-7.1-0.1-0.33","1280","","j","","","","","","","","","","","","","key","j","16.65288888888851","640","356","./1_3_Stimuli/S_ambi40.png","他人","Word","他人","Match","j","true","Practice",""
"","","","","","html-keyboard-response","81","590024","0.0-7.1-0.1-1.33","null","<span style='color:GreenYellow; font-size: 70px;'>正确! </span>","null","","","","","","","","","","","","","","","","","","","","","","","","","feedback",""
"","","","","","psychophysics","82","592015","0.0-7.1-0.1-0.34","840","","f","","","","","","","","","","","","","key","f","16.65565254237361","640","356","./1_3_Stimuli/S_ambi40.png","朋友","Word","他人","Mismatch","f","true","Practice",""
"","","","","","html-keyboard-response","83","592318","0.0-7.1-0.1-1.34","null","<span style='color:GreenYellow; font-size: 70px;'>正确! </span>","null","","","","","","","","","","","","","","","","","","","","","","","","","feedback",""
"","","","","","psychophysics","84","593900","0.0-7.1-0.1-0.35","431","","j","","","","","","","","","","","","","key","j","16.652010638297764","640","356","./1_3_Stimuli/T_ambi40.png","自我","Word","自我","Match","j","true","Practice",""
"","","","","","html-keyboard-response","85","594202","0.0-7.1-0.1-1.35","null","<span style='color:GreenYellow; font-size: 70px;'>正确! </span>","null","","","","","","","","","","","","","","","","","","","","","","","","","feedback",""
"","","","","","psychophysics","86","595794","0.0-7.1-0.1-0.36","441","","j","","","","","","","","","","","","","key","j","16.654074468085184","640","356","./1_3_Stimuli/T_ambi40.png","自我","Word","自我","Match","j","true","Practice",""
"","","","","","html-keyboard-response","87","596095","0.0-7.1-0.1-1.36","null","<span style='color:GreenYellow; font-size: 70px;'>正确! </span>","null","","","","","","","","","","","","","","","","","","","","","","","","","feedback",""
"","","","","","psychophysics","88","597745","0.0-7.1-0.1-0.37","498","","f","","","","","","","","","","","","","key","f","16.826319587629374","640","356","./1_3_Stimuli/S_ambi40.png","他人","Word","他人","Match","j","false","Practice",""
"","","","","","html-keyboard-response","89","598046","0.0-7.1-0.1-1.37","null","<span style='color:red; font-size: 70px;'>错误! </span>","null","","","","","","","","","","","","","","","","","","","","","","","","","feedback",""
"","","","","","psychophysics","90","600015","0.0-7.1-0.1-0.38","818","","f","","","","","","","","","","","","","key","f","16.944095652173882","640","356","./1_3_Stimuli/C_ambi40.png","朋友","Image","朋友","Match","j","false","Practice",""
"","","","","","html-keyboard-response","91","600317","0.0-7.1-0.1-1.38","null","<span style='color:red; font-size: 70px;'>错误! </span>","null","","","","","","","","","","","","","","","","","","","","","","","","","feedback",""
"","","","","","psychophysics","92","601923","0.0-7.1-0.1-0.39","452","","j","","","","","","","","","","","","","key","j","20.548272727272025","640","356","./1_3_Stimuli/T_ambi40.png","自我","Image","自我","Match","j","true","Practice",""
"","","","","","html-keyboard-response","93","602224","0.0-7.1-0.1-1.39","null","<span style='color:GreenYellow; font-size: 70px;'>正确! </span>","null","","","","","","","","","","","","","","","","","","","","","","","","","feedback",""
"","","","","","psychophysics","94","604102","0.0-7.1-0.1-0.40","725","","f","","","","","","","","","","","","","key","f","18.651410000000613","640","356","./1_3_Stimuli/C_ambi40.png","他人","Word","朋友","Mismatch","f","true","Practice",""
"","","","","","html-keyboard-response","95","604404","0.0-7.1-0.1-1.40","null","<span style='color:GreenYellow; font-size: 70px;'>正确! </span>","null","","","","","","","","","","","","","","","","","","","","","","","","","feedback",""
"","","","","","psychophysics","96","606090","0.0-7.1-0.1-0.41","533","","f","","","","","","","","","","","","","key","f","16.980091836734683","640","356","./1_3_Stimuli/S_ambi40.png","他人","Image","他人","Match","j","false","Practice",""
"","","","","","html-keyboard-response","97","606392","0.0-7.1-0.1-1.41","null","<span style='color:red; font-size: 70px;'>错误! </span>","null","","","","","","","","","","","","","","","","","","","","","","","","","feedback",""
"","","","","","psychophysics","98","608278","0.0-7.1-0.1-0.42","734","","j","","","","","","","","","","","","","key","j","16.803648648649318","640","356","./1_3_Stimuli/T_ambi40.png","他人","Word","自我","Mismatch","f","false","Practice",""
"","","","","","html-keyboard-response","99","608580","0.0-7.1-0.1-1.42","null","<span style='color:red; font-size: 70px;'>错误! </span>","null","","","","","","","","","","","","","","","","","","","","","","","","","feedback",""
"","","","","","psychophysics","100","610486","0.0-7.1-0.1-0.43","755","","f","","","","","","","","","","","","","key","f","16.79428571428642","640","356","./1_3_Stimuli/T_ambi40.png","朋友","Image","自我","Mismatch","f","true","Practice",""
"","","","","","html-keyboard-response","101","610787","0.0-7.1-0.1-1.43","null","<span style='color:GreenYellow; font-size: 70px;'>正确! </span>","null","","","","","","","","","","","","","","","","","","","","","","","","","feedback",""
"","","","","","psychophysics","102","612695","0.0-7.1-0.1-0.44","755","","f","","","","","","","","","","","","","key","f","16.645508771929727","640","356","./1_3_Stimuli/T_ambi40.png","他人","Image","自我","Mismatch","f","true","Practice",""
"","","","","","html-keyboard-response","103","612997","0.0-7.1-0.1-1.44","null","<span style='color:GreenYellow; font-size: 70px;'>正确! </span>","null","","","","","","","","","","","","","","","","","","","","","","","","","feedback",""
"","","","","","psychophysics","104","615026","0.0-7.1-0.1-0.45","877","","j","","","","","","","","","","","","","key","j","16.789300000000125","640","356","./1_3_Stimuli/C_ambi40.png","自我","Image","朋友","Mismatch","f","false","Practice",""
"","","","","","html-keyboard-response","105","615328","0.0-7.1-0.1-1.45","null","<span style='color:red; font-size: 70px;'>错误! </span>","null","","","","","","","","","","","","","","","","","","","","","","","","","feedback",""
"","","","","","psychophysics","106","617193","0.0-7.1-0.1-0.46","713","","j","","","","","","","","","","","","","key","j","17.27539252336398","640","356","./1_3_Stimuli/T_ambi40.png","朋友","Word","自我","Mismatch","f","false","Practice",""
"","","","","","html-keyboard-response","107","617494","0.0-7.1-0.1-1.46","null","<span style='color:red; font-size: 70px;'>错误! </span>","null","","","","","","","","","","","","","","","","","","","","","","","","","feedback",""
"","","","","","psychophysics","108","619230","0.0-7.1-0.1-0.47","583","","f","","","","","","","","","","","","","key","f","17.323602040816212","640","356","./1_3_Stimuli/S_ambi40.png","他人","Image","他人","Match","j","false","Practice",""
"","","","","","html-keyboard-response","109","619532","0.0-7.1-0.1-1.47","null","<span style='color:red; font-size: 70px;'>错误! </span>","null","","","","","","","","","","","","","","","","","","","","","","","","","feedback",""
"","","","","","html-keyboard-response","110","684145","0.0-7.1-1.1-0.1","64611","<style>.context{color:white; font-size: 35px; line-height:40px}</style>                        <div><p class='context'>您正确回答了58% 的试次。</p><p class='context'>您的平均反应时为824毫秒。</p><p> <div style = 'color: green'><按空格键至下页></div></p>"," ","","","","","","","","","","","","","","","","","","","","","","","","","",""
"","","","","","instructions","111","702920","0.0-7.1-1.1-1.1","18769","","","","","","","","","","","","","","[{""page_index"":0,""viewing_time"":4455},{""page_index"":1,""viewing_time"":7743},{""page_index"":2,""viewing_time"":6571}]","","","","","","","","","","","","","",""
"","","","","","psychophysics","112","705611","0.0-7.2-0.2-0.48","1537","","j","","","","","","","","","","","","","key","j","16.652462500000546","640","356","./1_3_Stimuli/C_ambi40.png","朋友","Word","朋友","Match","j","true","Practice",""
"","","","","","html-keyboard-response","113","705912","0.0-7.2-0.2-1.48","null","<span class='add_' style='color:yellow; font-size: 70px;'> 太慢! </span>","null","","","","","","","","","","","","","","","","","","","","","","","","","feedback",""
"","","","","","psychophysics","114","708614","0.0-7.2-0.2-0.49","null","","null","","","","","","","","","","","","","key","null","16.75682499999966","640","356","./1_3_Stimuli/T_ambi40.png","自我","Word","自我","Match","j","false","Practice",""
"","","","","","html-keyboard-response","115","708916","0.0-7.2-0.2-1.49","null","<span class='add_' style='color:yellow; font-size: 70px;'> 太慢! </span>","null","","","","","","","","","","","","","","","","","","","","","","","","","feedback",""
"","","","","","psychophysics","116","710474","0.0-7.2-0.2-0.50","406","","j","","","","","","","","","","","","","key","j","16.839098901098982","640","356","./1_3_Stimuli/T_ambi40.png","自我","Image","自我","Match","j","true","Practice",""
"","","","","","html-keyboard-response","117","710776","0.0-7.2-0.2-1.50","null","<span style='color:GreenYellow; font-size: 70px;'>正确! </span>","null","","","","","","","","","","","","","","","","","","","","","","","","","feedback",""
"","","","","","psychophysics","118","713290","0.0-7.2-0.2-0.51","1363","","f","","","","","","","","","","","","","key","f","16.641664429530252","640","356","./1_3_Stimuli/C_ambi40.png","自我","Word","朋友","Mismatch","f","true","Practice",""
"","","","","","html-keyboard-response","119","713592","0.0-7.2-0.2-1.51","null","<span style='color:GreenYellow; font-size: 70px;'>正确! </span>","null","","","","","","","","","","","","","","","","","","","","","","","","","feedback",""
"","","","","","psychophysics","120","715897","0.0-7.2-0.2-0.52","1154","","j","","","","","","","","","","","","","key","j","16.650167883211495","640","356","./1_3_Stimuli/C_ambi40.png","他人","Image","朋友","Mismatch","f","false","Practice",""
"","","","","","html-keyboard-response","121","716198","0.0-7.2-0.2-1.52","null","<span style='color:red; font-size: 70px;'>错误! </span>","null","","","","","","","","","","","","","","","","","","","","","","","","","feedback",""
"","","","","","psychophysics","122","718114","0.0-7.2-0.2-0.53","764","","f","","","","","","","","","","","","","key","f","16.651710526316158","640","356","./1_3_Stimuli/T_ambi40.png","他人","Image","自我","Mismatch","f","true","Practice",""
"","","","","","html-keyboard-response","123","718416","0.0-7.2-0.2-1.53","null","<span style='color:GreenYellow; font-size: 70px;'>正确! </span>","null","","","","","","","","","","","","","","","","","","","","","","","","","feedback",""
"","","","","","psychophysics","124","720213","0.0-7.2-0.2-0.54","646","","j","","","","","","","","","","","","","key","j","16.65121698113299","640","356","./1_3_Stimuli/T_ambi40.png","自我","Word","自我","Match","j","true","Practice",""
"","","","","","html-keyboard-response","125","720515","0.0-7.2-0.2-1.54","null","<span style='color:GreenYellow; font-size: 70px;'>正确! </span>","null","","","","","","","","","","","","","","","","","","","","","","","","","feedback",""
"","","","","","psychophysics","126","722432","0.0-7.2-0.2-0.55","765","","f","","","","","","","","","","","","","key","f","16.80126785714362","640","356","./1_3_Stimuli/T_ambi40.png","朋友","Word","自我","Mismatch","f","true","Practice",""
"","","","","","html-keyboard-response","127","722733","0.0-7.2-0.2-1.55","null","<span style='color:GreenYellow; font-size: 70px;'>正确! </span>","null","","","","","","","","","","","","","","","","","","","","","","","","","feedback",""
"","","","","","psychophysics","128","724696","0.0-7.2-0.2-0.56","811","","f","","","","","","","","","","","","","key","f","16.652956896551867","640","356","./1_3_Stimuli/S_ambi40.png","朋友","Word","他人","Mismatch","f","true","Practice",""
"","","","","","html-keyboard-response","129","724997","0.0-7.2-0.2-1.56","null","<span style='color:GreenYellow; font-size: 70px;'>正确! </span>","null","","","","","","","","","","","","","","","","","","","","","","","","","feedback",""
"","","","","","psychophysics","130","726872","0.0-7.2-0.2-0.57","722","","f","","","","","","","","","","","","","key","f","16.652702702702282","640","356","./1_3_Stimuli/C_ambi40.png","朋友","Image","朋友","Match","j","false","Practice",""
"","","","","","html-keyboard-response","131","727173","0.0-7.2-0.2-1.57","null","<span style='color:red; font-size: 70px;'>错误! </span>","null","","","","","","","","","","","","","","","","","","","","","","","","","feedback",""
"","","","","","psychophysics","132","729310","0.0-7.2-0.2-0.58","985","","f","","","","","","","","","","","","","key","f","16.652734374999454","640","356","./1_3_Stimuli/S_ambi40.png","他人","Image","他人","Match","j","false","Practice",""
"","","","","","html-keyboard-response","133","729612","0.0-7.2-0.2-1.58","null","<span style='color:red; font-size: 70px;'>错误! </span>","null","","","","","","","","","","","","","","","","","","","","","","","","","feedback",""
"","","","","","psychophysics","134","731563","0.0-7.2-0.2-0.59","799","","f","","","","","","","","","","","","","key","f","16.65292241379362","640","356","./1_3_Stimuli/C_ambi40.png","他人","Word","朋友","Mismatch","f","true","Practice",""
"","","","","","html-keyboard-response","135","731865","0.0-7.2-0.2-1.59","null","<span style='color:GreenYellow; font-size: 70px;'>正确! </span>","null","","","","","","","","","","","","","","","","","","","","","","","","","feedback",""
"","","","","","psychophysics","136","734372","0.0-7.2-0.2-0.60","1354","","f","","","","","","","","","","","","","key","f","16.653187919462773","640","356","./1_3_Stimuli/C_ambi40.png","朋友","Word","朋友","Match","j","false","Practice",""
"","","","","","html-keyboard-response","137","734674","0.0-7.2-0.2-1.60","null","<span style='color:red; font-size: 70px;'>错误! </span>","null","","","","","","","","","","","","","","","","","","","","","","","","","feedback",""
"","","","","","psychophysics","138","736833","0.0-7.2-0.2-0.61","1007","","f","","","","","","","","","","","","","key","f","16.6533906249997","640","356","./1_3_Stimuli/S_ambi40.png","他人","Word","他人","Match","j","false","Practice",""
"","","","","","html-keyboard-response","139","737136","0.0-7.2-0.2-1.61","null","<span style='color:red; font-size: 70px;'>错误! </span>","null","","","","","","","","","","","","","","","","","","","","","","","","","feedback",""
"","","","","","psychophysics","140","738709","0.0-7.2-0.2-0.62","423","","j","","","","","","","","","","","","","key","j","16.653204301075498","640","356","./1_3_Stimuli/T_ambi40.png","自我","Image","自我","Match","j","true","Practice",""
"","","","","","html-keyboard-response","141","739012","0.0-7.2-0.2-1.62","null","<span style='color:GreenYellow; font-size: 70px;'>正确! </span>","null","","","","","","","","","","","","","","","","","","","","","","","","","feedback",""
"","","","","","psychophysics","142","741277","0.0-7.2-0.2-0.63","1113","","f","","","","","","","","","","","","","key","f","16.65277037037088","640","356","./1_3_Stimuli/T_ambi40.png","他人","Word","自我","Mismatch","f","true","Practice",""
"","","","","","html-keyboard-response","143","741578","0.0-7.2-0.2-1.63","null","<span style='color:GreenYellow; font-size: 70px;'>正确! </span>","null","","","","","","","","","","","","","","","","","","","","","","","","","feedback",""
"","","","","","psychophysics","144","743889","0.0-7.2-0.2-0.64","1158","","j","","","","","","","","","","","","","key","j","16.652224637681883","640","356","./1_3_Stimuli/C_ambi40.png","朋友","Image","朋友","Match","j","true","Practice",""
"","","","","","html-keyboard-response","145","744191","0.0-7.2-0.2-1.64","null","<span style='color:GreenYellow; font-size: 70px;'>正确! </span>","null","","","","","","","","","","","","","","","","","","","","","","","","","feedback",""
"","","","","","psychophysics","146","746140","0.0-7.2-0.2-0.65","798","","f","","","","","","","","","","","","","key","f","16.81313043478269","640","356","./1_3_Stimuli/S_ambi40.png","自我","Word","他人","Mismatch","f","true","Practice",""
"","","","","","html-keyboard-response","147","746441","0.0-7.2-0.2-1.65","null","<span style='color:GreenYellow; font-size: 70px;'>正确! </span>","null","","","","","","","","","","","","","","","","","","","","","","","","","feedback",""
"","","","","","psychophysics","148","748877","0.0-7.2-0.2-0.66","1283","","f","","","","","","","","","","","","","key","f","16.602655172413858","640","356","./1_3_Stimuli/T_ambi40.png","朋友","Image","自我","Mismatch","f","true","Practice",""
"","","","","","html-keyboard-response","149","749178","0.0-7.2-0.2-1.66","null","<span style='color:GreenYellow; font-size: 70px;'>正确! </span>","null","","","","","","","","","","","","","","","","","","","","","","","","","feedback",""
"","","","","","psychophysics","150","751622","0.0-7.2-0.2-0.67","1292","","j","","","","","","","","","","","","","key","j","16.657041379309998","640","356","./1_3_Stimuli/C_ambi40.png","自我","Image","朋友","Mismatch","f","false","Practice",""
"","","","","","html-keyboard-response","151","751922","0.0-7.2-0.2-1.67","null","<span style='color:red; font-size: 70px;'>错误! </span>","null","","","","","","","","","","","","","","","","","","","","","","","","","feedback",""
"","","","","","psychophysics","152","753910","0.0-7.2-0.2-0.68","836","","f","","","","","","","","","","","","","key","f","16.619999999999255","640","356","./1_3_Stimuli/S_ambi40.png","自我","Image","他人","Mismatch","f","true","Practice",""
"","","","","","html-keyboard-response","153","754212","0.0-7.2-0.2-1.68","null","<span style='color:GreenYellow; font-size: 70px;'>正确! </span>","null","","","","","","","","","","","","","","","","","","","","","","","","","feedback",""
"","","","","","psychophysics","154","756470","0.0-7.2-0.2-0.69","1105","","f","","","","","","","","","","","","","key","f","16.63638805970115","640","356","./1_3_Stimuli/S_ambi40.png","朋友","Image","他人","Mismatch","f","true","Practice",""
"","","","","","html-keyboard-response","155","756772","0.0-7.2-0.2-1.69","null","<span style='color:GreenYellow; font-size: 70px;'>正确! </span>","null","","","","","","","","","","","","","","","","","","","","","","","","","feedback",""
"","","","","","psychophysics","156","759475","0.0-7.2-0.2-0.70","null","","null","","","","","","","","","","","","","key","null","16.646447204968815","640","356","./1_3_Stimuli/S_ambi40.png","他人","Image","他人","Match","j","false","Practice",""
"","","","","","html-keyboard-response","157","759776","0.0-7.2-0.2-1.70","null","<span class='add_' style='color:yellow; font-size: 70px;'> 太慢! </span>","null","","","","","","","","","","","","","","","","","","","","","","","","","feedback",""
"","","","","","psychophysics","158","761809","0.0-7.2-0.2-0.71","881","","f","","","","","","","","","","","","","key","f","16.65252066115668","640","356","./1_3_Stimuli/S_ambi40.png","他人","Word","他人","Match","j","false","Practice",""
"","","","","","html-keyboard-response","159","762110","0.0-7.2-0.2-1.71","null","<span style='color:red; font-size: 70px;'>错误! </span>","null","","","","","","","","","","","","","","","","","","","","","","","","","feedback",""
"","","","","","html-keyboard-response","160","767796","0.0-7.2-1.2-0.2","5684","<style>.context{color:white; font-size: 35px; line-height:40px}</style>                        <div><p class='context'>您正确回答了63% 的试次。</p><p class='context'>您的平均反应时为920毫秒。</p><p> <div style = 'color: green'><按空格键至下页></div></p>"," ","","","","","","","","","","","","","","","","","","","","","","","","","",""
"","","","","","instructions","161","804460","0.0-7.2-1.2-1.2","36659","","","","","","","","","","","","","","[{""page_index"":0,""viewing_time"":12581},{""page_index"":1,""viewing_time"":22635},{""page_index"":2,""viewing_time"":1443}]","","","","","","","","","","","","","",""
"","","","","","psychophysics","162","807163","0.0-7.3-0.3-0.72","null","","null","","","","","","","","","","","","","key","null","16.654575000000477","640","356","./1_3_Stimuli/T_ambi40.png","朋友","Image","自我","Mismatch","f","false","Practice",""
"","","","","","html-keyboard-response","163","807464","0.0-7.3-0.3-1.72","null","<span class='add_' style='color:yellow; font-size: 70px;'> 太慢! </span>","null","","","","","","","","","","","","","","","","","","","","","","","","","feedback",""
"","","","","","psychophysics","164","809230","0.0-7.3-0.3-0.73","613","","j","","","","","","","","","","","","","key","j","16.652314285714446","640","356","./1_3_Stimuli/T_ambi40.png","自我","Image","自我","Match","j","true","Practice",""
"","","","","","html-keyboard-response","165","809532","0.0-7.3-0.3-1.73","null","<span style='color:GreenYellow; font-size: 70px;'>正确! </span>","null","","","","","","","","","","","","","","","","","","","","","","","","","feedback",""
"","","","","","psychophysics","166","811419","0.0-7.3-0.3-0.74","736","","f","","","","","","","","","","","","","key","f","16.654383928572184","640","356","./1_3_Stimuli/S_ambi40.png","他人","Word","他人","Match","j","false","Practice",""
"","","","","","html-keyboard-response","167","811722","0.0-7.3-0.3-1.74","null","<span style='color:red; font-size: 70px;'>错误! </span>","null","","","","","","","","","","","","","","","","","","","","","","","","","feedback",""
"","","","","","psychophysics","168","813824","0.0-7.3-0.3-0.75","950","","f","","","","","","","","","","","","","key","f","16.682483870967012","640","356","./1_3_Stimuli/T_ambi40.png","朋友","Word","自我","Mismatch","f","true","Practice",""
"","","","","","html-keyboard-response","169","814127","0.0-7.3-0.3-1.75","null","<span style='color:GreenYellow; font-size: 70px;'>正确! </span>","null","","","","","","","","","","","","","","","","","","","","","","","","","feedback",""
"","","","","","psychophysics","170","816372","0.0-7.3-0.3-0.76","1095","","f","","","","","","","","","","","","","key","f","16.617804511277797","640","356","./1_3_Stimuli/S_ambi40.png","自我","Image","他人","Mismatch","f","true","Practice",""
"","","","","","html-keyboard-response","171","816674","0.0-7.3-0.3-1.76","null","<span style='color:GreenYellow; font-size: 70px;'>正确! </span>","null","","","","","","","","","","","","","","","","","","","","","","","","","feedback",""
"","","","","","psychophysics","172","819254","0.0-7.3-0.3-0.77","1429","","j","","","","","","","","","","","","","key","j","16.611277419354977","640","356","./1_3_Stimuli/S_ambi40.png","他人","Image","他人","Match","j","true","Practice",""
"","","","","","html-keyboard-response","173","819556","0.0-7.3-0.3-1.77","null","<span style='color:GreenYellow; font-size: 70px;'>正确! </span>","null","","","","","","","","","","","","","","","","","","","","","","","","","feedback",""
"","","","","","psychophysics","174","822056","0.0-7.3-0.3-0.78","1349","","f","","","","","","","","","","","","","key","f","16.62926845637622","640","356","./1_3_Stimuli/S_ambi40.png","朋友","Image","他人","Mismatch","f","true","Practice",""
"","","","","","html-keyboard-response","175","822357","0.0-7.3-0.3-1.78","null","<span style='color:GreenYellow; font-size: 70px;'>正确! </span>","null","","","","","","","","","","","","","","","","","","","","","","","","","feedback",""
"","","","","","psychophysics","176","825060","0.0-7.3-0.3-0.79","null","","null","","","","","","","","","","","","","key","null","16.64086956521771","640","356","./1_3_Stimuli/S_ambi40.png","他人","Image","他人","Match","j","false","Practice",""
"","","","","","html-keyboard-response","177","825362","0.0-7.3-0.3-1.79","null","<span class='add_' style='color:yellow; font-size: 70px;'> 太慢! </span>","null","","","","","","","","","","","","","","","","","","","","","","","","","feedback",""
"","","","","","psychophysics","178","827229","0.0-7.3-0.3-0.80","715","","j","","","","","","","","","","","","","key","j","16.65254545454571","640","356","./1_3_Stimuli/C_ambi40.png","自我","Image","朋友","Mismatch","f","false","Practice",""
"","","","","","html-keyboard-response","179","827529","0.0-7.3-0.3-1.80","null","<span style='color:red; font-size: 70px;'>错误! </span>","null","","","","","","","","","","","","","","","","","","","","","","","","","feedback",""
"","","","","","psychophysics","180","829197","0.0-7.3-0.3-0.81","516","","j","","","","","","","","","","","","","key","j","16.652929292929436","640","356","./1_3_Stimuli/T_ambi40.png","自我","Word","自我","Match","j","true","Practice",""
"","","","","","html-keyboard-response","181","829500","0.0-7.3-0.3-1.81","null","<span style='color:GreenYellow; font-size: 70px;'>正确! </span>","null","","","","","","","","","","","","","","","","","","","","","","","","","feedback",""
"","","","","","psychophysics","182","832202","0.0-7.3-0.3-0.82","null","","null","","","","","","","","","","","","","key","null","16.646527950310652","640","356","./1_3_Stimuli/T_ambi40.png","自我","Word","自我","Match","j","false","Practice",""
"","","","","","html-keyboard-response","183","832503","0.0-7.3-0.3-1.82","null","<span class='add_' style='color:yellow; font-size: 70px;'> 太慢! </span>","null","","","","","","","","","","","","","","","","","","","","","","","","","feedback",""
"","","","","","psychophysics","184","834786","0.0-7.3-0.3-0.83","1131","","j","","","","","","","","","","","","","key","j","16.65394852941202","640","356","./1_3_Stimuli/C_ambi40.png","朋友","Image","朋友","Match","j","true","Practice",""
"","","","","","html-keyboard-response","185","835087","0.0-7.3-0.3-1.83","null","<span style='color:GreenYellow; font-size: 70px;'>正确! </span>","null","","","","","","","","","","","","","","","","","","","","","","","","","feedback",""
"","","","","","psychophysics","186","837740","0.0-7.3-0.3-0.84","1501","","j","","","","","","","","","","","","","key","j","16.652335443038087","640","356","./1_3_Stimuli/S_ambi40.png","他人","Word","他人","Match","j","true","Practice",""
"","","","","","html-keyboard-response","187","838042","0.0-7.3-0.3-1.84","null","<span class='add_' style='color:yellow; font-size: 70px;'> 太慢! </span>","null","","","","","","","","","","","","","","","","","","","","","","","","","feedback",""
"","","","","","psychophysics","188","840117","0.0-7.3-0.3-0.85","922","","f","","","","","","","","","","","","","key","f","16.653130081301455","640","356","./1_3_Stimuli/C_ambi40.png","他人","Image","朋友","Mismatch","f","true","Practice",""
"","","","","","html-keyboard-response","189","840419","0.0-7.3-0.3-1.85","null","<span style='color:GreenYellow; font-size: 70px;'>正确! </span>","null","","","","","","","","","","","","","","","","","","","","","","","","","feedback",""
"","","","","","psychophysics","190","842899","0.0-7.3-0.3-0.86","1329","","f","","","","","","","","","","","","","key","f","16.65345578231266","640","356","./1_3_Stimuli/S_ambi40.png","朋友","Word","他人","Mismatch","f","true","Practice",""
"","","","","","html-keyboard-response","191","843200","0.0-7.3-0.3-1.86","null","<span style='color:GreenYellow; font-size: 70px;'>正确! </span>","null","","","","","","","","","","","","","","","","","","","","","","","","","feedback",""
"","","","","","psychophysics","192","845902","0.0-7.3-0.3-0.87","null","","null","","","","","","","","","","","","","key","null","16.65288198757801","640","356","./1_3_Stimuli/C_ambi40.png","朋友","Word","朋友","Match","j","false","Practice",""
"","","","","","html-keyboard-response","193","846203","0.0-7.3-0.3-1.87","null","<span class='add_' style='color:yellow; font-size: 70px;'> 太慢! </span>","null","","","","","","","","","","","","","","","","","","","","","","","","","feedback",""
"","","","","","psychophysics","194","848216","0.0-7.3-0.3-0.88","861","","j","","","","","","","","","","","","","key","j","16.653825000000264","640","356","./1_3_Stimuli/C_ambi40.png","朋友","Word","朋友","Match","j","true","Practice",""
"","","","","","html-keyboard-response","195","848518","0.0-7.3-0.3-1.88","null","<span style='color:GreenYellow; font-size: 70px;'>正确! </span>","null","","","","","","","","","","","","","","","","","","","","","","","","","feedback",""
"","","","","","psychophysics","196","850254","0.0-7.3-0.3-0.89","584","","j","","","","","","","","","","","","","key","j","16.990475247525332","640","356","./1_3_Stimuli/C_ambi40.png","朋友","Image","朋友","Match","j","true","Practice",""
"","","","","","html-keyboard-response","197","850555","0.0-7.3-0.3-1.89","null","<span style='color:GreenYellow; font-size: 70px;'>正确! </span>","null","","","","","","","","","","","","","","","","","","","","","","","","","feedback",""
"","","","","","psychophysics","198","852929","0.0-7.3-0.3-0.90","1223","","f","","","","","","","","","","","","","key","f","16.690304964538896","640","356","./1_3_Stimuli/C_ambi40.png","他人","Word","朋友","Mismatch","f","true","Practice",""
"","","","","","html-keyboard-response","199","853231","0.0-7.3-0.3-1.90","null","<span style='color:GreenYellow; font-size: 70px;'>正确! </span>","null","","","","","","","","","","","","","","","","","","","","","","","","","feedback",""
"","","","","","psychophysics","200","855731","0.0-7.3-0.3-0.91","1348","","f","","","","","","","","","","","","","key","f","16.655832214765375","640","356","./1_3_Stimuli/T_ambi40.png","他人","Image","自我","Mismatch","f","true","Practice",""
"","","","","","html-keyboard-response","201","856033","0.0-7.3-0.3-1.91","null","<span style='color:GreenYellow; font-size: 70px;'>正确! </span>","null","","","","","","","","","","","","","","","","","","","","","","","","","feedback",""
"","","","","","psychophysics","202","858576","0.0-7.3-0.3-0.92","1391","","f","","","","","","","","","","","","","key","f","16.648763157894503","640","356","./1_3_Stimuli/S_ambi40.png","自我","Word","他人","Mismatch","f","true","Practice",""
"","","","","","html-keyboard-response","203","858877","0.0-7.3-0.3-1.92","null","<span style='color:GreenYellow; font-size: 70px;'>正确! </span>","null","","","","","","","","","","","","","","","","","","","","","","","","","feedback",""
"","","","","","psychophysics","204","861051","0.0-7.3-0.3-0.93","1021","","f","","","","","","","","","","","","","key","f","16.653620155039064","640","356","./1_3_Stimuli/T_ambi40.png","他人","Word","自我","Mismatch","f","true","Practice",""
"","","","","","html-keyboard-response","205","861353","0.0-7.3-0.3-1.93","null","<span style='color:GreenYellow; font-size: 70px;'>正确! </span>","null","","","","","","","","","","","","","","","","","","","","","","","","","feedback",""
"","","","","","psychophysics","206","863193","0.0-7.3-0.3-0.94","688","","f","","","","","","","","","","","","","key","f","16.646422018348282","640","356","./1_3_Stimuli/C_ambi40.png","自我","Word","朋友","Mismatch","f","true","Practice",""
"","","","","","html-keyboard-response","207","863494","0.0-7.3-0.3-1.94","null","<span style='color:GreenYellow; font-size: 70px;'>正确! </span>","null","","","","","","","","","","","","","","","","","","","","","","","","","feedback",""
"","","","","","psychophysics","208","865722","0.0-7.3-0.3-0.95","1076","","j","","","","","","","","","","","","","key","j","16.652842105263005","640","356","./1_3_Stimuli/T_ambi40.png","自我","Image","自我","Match","j","true","Practice",""
"","","","","","html-keyboard-response","209","866024","0.0-7.3-0.3-1.95","null","<span style='color:GreenYellow; font-size: 70px;'>正确! </span>","null","","","","","","","","","","","","","","","","","","","","","","","","","feedback",""
"","","","","","html-keyboard-response","210","878708","0.0-7.3-1.3-0.3","12681","<style>.context{color:white; font-size: 35px; line-height:40px}</style>                        <div><p class='context'>您正确回答了75% 的试次。</p><p class='context'>您的平均反应时为1057毫秒。</p><p> <div style = 'color: green'><按空格键至下页></div></p>"," ","","","","","","","","","","","","","","","","","","","","","","","","","",""
"","","","","","instructions","211","891136","0.0-7.3-1.3-1.3","12423","","","","","","","","","","","","","","[{""page_index"":0,""viewing_time"":5019},{""page_index"":1,""viewing_time"":4172},{""page_index"":2,""viewing_time"":3232}]","","","","","","","","","","","","","",""
"","","","","","psychophysics","212","892946","0.0-7.4-0.4-0.96","657","","f","","","","","","","","","","","","","key","f","16.6452222222223","640","356","./1_3_Stimuli/S_ambi40.png","自我","Word","他人","Mismatch","f","true","Practice",""
"","","","","","html-keyboard-response","213","893248","0.0-7.4-0.4-1.96","null","<span style='color:GreenYellow; font-size: 70px;'>正确! </span>","null","","","","","","","","","","","","","","","","","","","","","","","","","feedback",""
"","","","","","psychophysics","214","895266","0.0-7.4-0.4-0.97","866","","f","","","","","","","","","","","","","key","f","16.653833333333022","640","356","./1_3_Stimuli/T_ambi40.png","他人","Word","自我","Mismatch","f","true","Practice",""
"","","","","","html-keyboard-response","215","895567","0.0-7.4-0.4-1.97","null","<span style='color:GreenYellow; font-size: 70px;'>正确! </span>","null","","","","","","","","","","","","","","","","","","","","","","","","","feedback",""
"","","","","","psychophysics","216","897556","0.0-7.4-0.4-0.98","837","","f","","","","","","","","","","","","","key","f","16.6430420168067","640","356","./1_3_Stimuli/T_ambi40.png","朋友","Word","自我","Mismatch","f","true","Practice",""
"","","","","","html-keyboard-response","217","897858","0.0-7.4-0.4-1.98","null","<span style='color:GreenYellow; font-size: 70px;'>正确! </span>","null","","","","","","","","","","","","","","","","","","","","","","","","","feedback",""
"","","","","","psychophysics","218","899684","0.0-7.4-0.4-0.99","674","","f","","","","","","","","","","","","","key","f","16.653018518519175","640","356","./1_3_Stimuli/C_ambi40.png","自我","Word","朋友","Mismatch","f","true","Practice",""
"","","","","","html-keyboard-response","219","899985","0.0-7.4-0.4-1.99","null","<span style='color:GreenYellow; font-size: 70px;'>正确! </span>","null","","","","","","","","","","","","","","","","","","","","","","","","","feedback",""
"","","","","","psychophysics","220","902024","0.0-7.4-0.4-0.100","887","","j","","","","","","","","","","","","","key","j","16.647884297520424","640","356","./1_3_Stimuli/S_ambi40.png","他人","Word","他人","Match","j","true","Practice",""
"","","","","","html-keyboard-response","221","902326","0.0-7.4-0.4-1.100","null","<span style='color:GreenYellow; font-size: 70px;'>正确! </span>","null","","","","","","","","","","","","","","","","","","","","","","","","","feedback",""
"","","","","","psychophysics","222","904258","0.0-7.4-0.4-0.101","780","","j","","","","","","","","","","","","","key","j","16.650391304347178","640","356","./1_3_Stimuli/C_ambi40.png","朋友","Word","朋友","Match","j","true","Practice",""
"","","","","","html-keyboard-response","223","904560","0.0-7.4-0.4-1.101","null","<span style='color:GreenYellow; font-size: 70px;'>正确! </span>","null","","","","","","","","","","","","","","","","","","","","","","","","","feedback",""
"","","","","","psychophysics","224","906812","0.0-7.4-0.4-0.102","1101","","f","","","","","","","","","","","","","key","f","16.651731343283977","640","356","./1_3_Stimuli/C_ambi40.png","他人","Word","朋友","Mismatch","f","true","Practice",""
"","","","","","html-keyboard-response","225","907113","0.0-7.4-0.4-1.102","null","<span style='color:GreenYellow; font-size: 70px;'>正确! </span>","null","","","","","","","","","","","","","","","","","","","","","","","","","feedback",""
"","","","","","psychophysics","226","908891","0.0-7.4-0.4-0.103","627","","j","","","","","","","","","","","","","key","j","16.652171428571457","640","356","./1_3_Stimuli/T_ambi40.png","自我","Image","自我","Match","j","true","Practice",""
"","","","","","html-keyboard-response","227","909193","0.0-7.4-0.4-1.103","null","<span style='color:GreenYellow; font-size: 70px;'>正确! </span>","null","","","","","","","","","","","","","","","","","","","","","","","","","feedback",""
"","","","","","psychophysics","228","911499","0.0-7.4-0.4-0.104","1154","","j","","","","","","","","","","","","","key","j","16.653357664233646","640","356","./1_3_Stimuli/C_ambi40.png","朋友","Image","朋友","Match","j","true","Practice",""
"","","","","","html-keyboard-response","229","911800","0.0-7.4-0.4-1.104","null","<span style='color:GreenYellow; font-size: 70px;'>正确! </span>","null","","","","","","","","","","","","","","","","","","","","","","","","","feedback",""
"","","","","","psychophysics","230","913931","0.0-7.4-0.4-0.105","979","","f","","","","","","","","","","","","","key","f","16.653732283464375","640","356","./1_3_Stimuli/S_ambi40.png","自我","Image","他人","Mismatch","f","true","Practice",""
"","","","","","html-keyboard-response","231","914233","0.0-7.4-0.4-1.105","null","<span style='color:GreenYellow; font-size: 70px;'>正确! </span>","null","","","","","","","","","","","","","","","","","","","","","","","","","feedback",""
"","","","","","psychophysics","232","916883","0.0-7.4-0.4-0.106","1499","","f","","","","","","","","","","","","","key","f","16.65288607594911","640","356","./1_3_Stimuli/T_ambi40.png","朋友","Image","自我","Mismatch","f","true","Practice",""
"","","","","","html-keyboard-response","233","917185","0.0-7.4-0.4-1.106","null","<span style='color:GreenYellow; font-size: 70px;'>正确! </span>","null","","","","","","","","","","","","","","","","","","","","","","","","","feedback",""
"","","","","","psychophysics","234","919136","0.0-7.4-0.4-0.107","799","","f","","","","","","","","","","","","","key","f","17.102672566371286","640","356","./1_3_Stimuli/C_ambi40.png","自我","Image","朋友","Mismatch","f","true","Practice",""
"","","","","","html-keyboard-response","235","919437","0.0-7.4-0.4-1.107","null","<span style='color:GreenYellow; font-size: 70px;'>正确! </span>","null","","","","","","","","","","","","","","","","","","","","","","","","","feedback",""
"","","","","","psychophysics","236","921282","0.0-7.4-0.4-0.108","693","","j","","","","","","","","","","","","","key","j","16.698275229357474","640","356","./1_3_Stimuli/T_ambi40.png","自我","Word","自我","Match","j","true","Practice",""
"","","","","","html-keyboard-response","237","921583","0.0-7.4-0.4-1.108","null","<span style='color:GreenYellow; font-size: 70px;'>正确! </span>","null","","","","","","","","","","","","","","","","","","","","","","","","","feedback",""
"","","","","","psychophysics","238","923191","0.0-7.4-0.4-0.109","457","","j","","","","","","","","","","","","","key","j","16.73847368421082","640","356","./1_3_Stimuli/T_ambi40.png","自我","Word","自我","Match","j","true","Practice",""
"","","","","","html-keyboard-response","239","923493","0.0-7.4-0.4-1.109","null","<span style='color:GreenYellow; font-size: 70px;'>正确! </span>","null","","","","","","","","","","","","","","","","","","","","","","","","","feedback",""
"","","","","","psychophysics","240","925276","0.0-7.4-0.4-0.110","630","","f","","","","","","","","","","","","","key","f","16.64673584905664","640","356","./1_3_Stimuli/T_ambi40.png","他人","Image","自我","Mismatch","f","true","Practice",""
"","","","","","html-keyboard-response","241","925577","0.0-7.4-0.4-1.110","null","<span style='color:GreenYellow; font-size: 70px;'>正确! </span>","null","","","","","","","","","","","","","","","","","","","","","","","","","feedback",""
"","","","","","psychophysics","242","928175","0.0-7.4-0.4-0.111","1445","","f","","","","","","","","","","","","","key","f","16.631032258064877","640","356","./1_3_Stimuli/C_ambi40.png","他人","Image","朋友","Mismatch","f","true","Practice",""
"","","","","","html-keyboard-response","243","928477","0.0-7.4-0.4-1.111","null","<span style='color:GreenYellow; font-size: 70px;'>正确! </span>","null","","","","","","","","","","","","","","","","","","","","","","","","","feedback",""
"","","","","","psychophysics","244","931178","0.0-7.4-0.4-0.112","null","","null","","","","","","","","","","","","","key","null","16.65284472049694","640","356","./1_3_Stimuli/S_ambi40.png","他人","Word","他人","Match","j","false","Practice",""
"","","","","","html-keyboard-response","245","931480","0.0-7.4-0.4-1.112","null","<span class='add_' style='color:yellow; font-size: 70px;'> 太慢! </span>","null","","","","","","","","","","","","","","","","","","","","","","","","","feedback",""
"","","","","","psychophysics","246","933440","0.0-7.4-0.4-0.113","809","","j","","","","","","","","","","","","","key","j","16.644517241380026","640","356","./1_3_Stimuli/C_ambi40.png","朋友","Word","朋友","Match","j","true","Practice",""
"","","","","","html-keyboard-response","247","933741","0.0-7.4-0.4-1.113","null","<span style='color:GreenYellow; font-size: 70px;'>正确! </span>","null","","","","","","","","","","","","","","","","","","","","","","","","","feedback",""
"","","","","","psychophysics","248","935505","0.0-7.4-0.4-0.114","612","","j","","","","","","","","","","","","","key","j","16.653769230768937","640","356","./1_3_Stimuli/C_ambi40.png","朋友","Image","朋友","Match","j","true","Practice",""
"","","","","","html-keyboard-response","249","935806","0.0-7.4-0.4-1.114","null","<span style='color:GreenYellow; font-size: 70px;'>正确! </span>","null","","","","","","","","","","","","","","","","","","","","","","","","","feedback",""
"","","","","","psychophysics","250","938508","0.0-7.4-0.4-0.115","null","","null","","","","","","","","","","","","","key","null","16.652763975155107","640","356","./1_3_Stimuli/S_ambi40.png","他人","Image","他人","Match","j","false","Practice",""
"","","","","","html-keyboard-response","251","938810","0.0-7.4-0.4-1.115","null","<span class='add_' style='color:yellow; font-size: 70px;'> 太慢! </span>","null","","","","","","","","","","","","","","","","","","","","","","","","","feedback",""
"","","","","","psychophysics","252","940515","0.0-7.4-0.4-0.116","553","","j","","","","","","","","","","","","","key","j","16.653079207919742","640","356","./1_3_Stimuli/T_ambi40.png","自我","Image","自我","Match","j","true","Practice",""
"","","","","","html-keyboard-response","253","940817","0.0-7.4-0.4-1.116","null","<span style='color:GreenYellow; font-size: 70px;'>正确! </span>","null","","","","","","","","","","","","","","","","","","","","","","","","","feedback",""
"","","","","","psychophysics","254","943519","0.0-7.4-0.4-0.117","null","","null","","","","","","","","","","","","","key","null","16.651950310559233","640","356","./1_3_Stimuli/S_ambi40.png","他人","Image","他人","Match","j","false","Practice",""
"","","","","","html-keyboard-response","255","943822","0.0-7.4-0.4-1.117","null","<span class='add_' style='color:yellow; font-size: 70px;'> 太慢! </span>","null","","","","","","","","","","","","","","","","","","","","","","","","","feedback",""
"","","","","","psychophysics","256","945724","0.0-7.4-0.4-0.118","751","","f","","","","","","","","","","","","","key","f","16.652097345133047","640","356","./1_3_Stimuli/S_ambi40.png","朋友","Word","他人","Mismatch","f","true","Practice",""
"","","","","","html-keyboard-response","257","946026","0.0-7.4-0.4-1.118","null","<span style='color:GreenYellow; font-size: 70px;'>正确! </span>","null","","","","","","","","","","","","","","","","","","","","","","","","","feedback",""
"","","","","","psychophysics","258","948134","0.0-7.4-0.4-0.119","956","","f","","","","","","","","","","","","","key","f","16.652539682539462","640","356","./1_3_Stimuli/S_ambi40.png","朋友","Image","他人","Mismatch","f","true","Practice",""
"","","","","","html-keyboard-response","259","948436","0.0-7.4-0.4-1.119","null","<span style='color:GreenYellow; font-size: 70px;'>正确! </span>","null","","","","","","","","","","","","","","","","","","","","","","","","","feedback",""
"","","","","","html-keyboard-response","260","966648","0.0-8.0","18208","<style>.context{color:white; font-size: 35px; line-height:40px}</style>                          <div><p class='context'>您正确回答了88% 的试次。</p><p class='context'>您的平均反应时为846毫秒。</p><p class='context'>恭喜您完成练习。现在请休息3~5分钟。</p><p class='context'>之后，按任意键进入正式实验。需要注意的是，正式实验将不再提供反应是否正确的反馈。</p><p class='footer' style='font-size: 35px; line-height:40px;'>请在进入正式实验实验之前将您的<span style='color: lightgreen;'>食指</span>放在电脑键盘的相应键位上进行按键。</p>"," ","","","","","","","","","","","","","","","","","","","","","","","","","",""
"","","","","","psychophysics","261","969356","0.0-9.0-0.0-0.0","null","","null","","","","","","","","","","","","","key","null","16.65159006211155","640","356","./1_3_Stimuli/S_ambi40.png","他人","Image","他人","Match","j","false","Formal",""
"","","","","","psychophysics","262","972058","0.0-9.0-0.0-0.1","null","","null","","","","","","","","","","","","","key","null","16.652757763974687","640","356","./1_3_Stimuli/C_ambi40.png","他人","Word","朋友","Mismatch","f","false","Formal",""
"","","","","","psychophysics","263","974759","0.0-9.0-0.0-0.2","null","","null","","","","","","","","","","","","","key","null","16.6526172839509","640","356","./1_3_Stimuli/C_ambi40.png","自我","Image","朋友","Mismatch","f","false","Formal",""
"","","","","","psychophysics","264","977463","0.0-9.0-0.0-0.3","null","","null","","","","","","","","","","","","","key","null","16.653440993788987","640","356","./1_3_Stimuli/T_ambi40.png","自我","Image","自我","Match","j","false","Formal",""
"","","","","","psychophysics","265","980167","0.0-9.0-0.0-0.4","null","","null","","","","","","","","","","","","","key","null","16.653211180124323","640","356","./1_3_Stimuli/S_ambi40.png","朋友","Word","他人","Mismatch","f","false","Formal",""
"","","","","","psychophysics","266","981885","0.0-9.0-0.0-0.5","565","","j","","","","","","","","","","","","","key","j","16.65447524752546","640","356","./1_3_Stimuli/T_ambi40.png","自我","Image","自我","Match","j","true","Formal",""
"","","","","","psychophysics","267","983609","0.0-9.0-0.0-0.6","573","","j","","","","","","","","","","","","","key","j","16.65338235294136","640","356","./1_3_Stimuli/T_ambi40.png","自我","Word","自我","Match","j","true","Formal",""
"","","","","","psychophysics","268","985720","0.0-9.0-0.0-0.7","959","","f","","","","","","","","","","","","","key","f","16.786055999999867","640","356","./1_3_Stimuli/T_ambi40.png","朋友","Image","自我","Mismatch","f","true","Formal",""
"","","","","","psychophysics","269","988161","0.0-9.0-0.0-0.8","1289","","f","","","","","","","","","","","","","key","f","16.67065517241376","640","356","./1_3_Stimuli/S_ambi40.png","他人","Image","他人","Match","j","false","Formal",""
"","","","","","psychophysics","270","990070","0.0-9.0-0.0-0.9","757","","j","","","","","","","","","","","","","key","j","16.748398230088654","640","356","./1_3_Stimuli/C_ambi40.png","他人","Image","朋友","Mismatch","f","false","Formal",""
"","","","","","psychophysics","271","992388","0.0-9.0-0.0-0.10","1166","","f","","","","","","","","","","","","","key","f","16.682094202899084","640","356","./1_3_Stimuli/T_ambi40.png","朋友","Word","自我","Mismatch","f","true","Formal",""
"","","","","","psychophysics","272","995090","0.0-9.0-0.0-0.11","null","","null","","","","","","","","","","","","","key","null","16.64501242235994","640","356","./1_3_Stimuli/S_ambi40.png","他人","Word","他人","Match","j","false","Formal",""
"","","","","","psychophysics","273","997783","0.0-9.0-0.0-0.12","1542","","f","","","","","","","","","","","","","key","f","16.65056521739154","640","356","./1_3_Stimuli/S_ambi40.png","他人","Word","他人","Match","j","false","Formal",""
"","","","","","psychophysics","274","999552","0.0-9.0-0.0-0.13","618","","f","","","","","","","","","","","","","key","f","16.65336190476193","640","356","./1_3_Stimuli/T_ambi40.png","他人","Image","自我","Mismatch","f","true","Formal",""
"","","","","","psychophysics","275","1001451","0.0-9.0-0.0-0.14","748","","j","","","","","","","","","","","","","key","j","16.6536725663716","640","356","./1_3_Stimuli/T_ambi40.png","他人","Word","自我","Mismatch","f","false","Formal",""
"","","","","","psychophysics","276","1003228","0.0-9.0-0.0-0.15","625","","j","","","","","","","","","","","","","key","j","16.652561904762738","640","356","./1_3_Stimuli/T_ambi40.png","自我","Word","自我","Match","j","true","Formal",""
"","","","","","psychophysics","277","1005293","0.0-9.0-0.0-0.16","914","","j","","","","","","","","","","","","","key","j","16.653357723577333","640","356","./1_3_Stimuli/C_ambi40.png","朋友","Word","朋友","Match","j","true","Formal",""
"","","","","","psychophysics","278","1007995","0.0-9.0-0.0-0.17","null","","null","","","","","","","","","","","","","key","null","16.652770186335527","640","356","./1_3_Stimuli/S_ambi40.png","自我","Image","他人","Mismatch","f","false","Formal",""
"","","","","","psychophysics","279","1009862","0.0-9.0-0.0-0.18","716","","f","","","","","","","","","","","","","key","f","16.652900000000162","640","356","./1_3_Stimuli/S_ambi40.png","自我","Word","他人","Mismatch","f","true","Formal",""
"","","","","","psychophysics","280","1012564","0.0-9.0-0.0-0.19","null","","null","","","","","","","","","","","","","key","null","16.65296273291912","640","356","./1_3_Stimuli/S_ambi40.png","朋友","Image","他人","Mismatch","f","false","Formal",""
"","","","","","psychophysics","281","1014375","0.0-9.0-0.0-0.20","659","","j","","","","","","","","","","","","","key","j","16.653259259259492","640","356","./1_3_Stimuli/C_ambi40.png","朋友","Word","朋友","Match","j","true","Formal",""
"","","","","","psychophysics","282","1016306","0.0-9.0-0.0-0.21","779","","f","","","","","","","","","","","","","key","f","16.652543859648222","640","356","./1_3_Stimuli/C_ambi40.png","自我","Word","朋友","Mismatch","f","true","Formal",""
"","","","","","psychophysics","283","1018428","0.0-9.0-0.0-0.22","970","","j","","","","","","","","","","","","","key","j","16.65291269841264","640","356","./1_3_Stimuli/C_ambi40.png","朋友","Image","朋友","Match","j","true","Formal",""
"","","","","","psychophysics","284","1020566","0.0-9.0-0.0-0.23","986","","j","","","","","","","","","","","","","key","j","16.652582677165558","640","356","./1_3_Stimuli/C_ambi40.png","朋友","Image","朋友","Match","j","true","Formal",""
"","","","","","psychophysics","285","1022485","0.0-9.0-0.0-0.24","767","","j","","","","","","","","","","","","","key","j","16.66280701754435","640","356","./1_3_Stimuli/C_ambi40.png","朋友","Image","朋友","Match","j","true","Formal",""
"","","","","","psychophysics","286","1024882","0.0-9.0-0.0-0.25","1246","","j","","","","","","","","","","","","","key","j","16.73152112676008","640","356","./1_3_Stimuli/S_ambi40.png","他人","Image","他人","Match","j","true","Formal",""
"","","","","","psychophysics","287","1026812","0.0-9.0-0.0-0.26","778","","j","","","","","","","","","","","","","key","j","16.679061403509287","640","356","./1_3_Stimuli/C_ambi40.png","朋友","Word","朋友","Match","j","true","Formal",""
"","","","","","psychophysics","288","1029273","0.0-9.0-0.0-0.27","1308","","j","","","","","","","","","","","","","key","j","16.654401360543723","640","356","./1_3_Stimuli/T_ambi40.png","自我","Image","自我","Match","j","true","Formal",""
"","","","","","psychophysics","289","1030962","0.0-9.0-0.0-0.28","538","","j","","","","","","","","","","","","","key","j","16.640425742575022","640","356","./1_3_Stimuli/T_ambi40.png","自我","Image","自我","Match","j","true","Formal",""
"","","","","","psychophysics","290","1032587","0.0-9.0-0.0-0.29","474","","j","","","","","","","","","","","","","key","j","16.650479166666628","640","356","./1_3_Stimuli/T_ambi40.png","自我","Word","自我","Match","j","true","Formal",""
"","","","","","psychophysics","291","1034551","0.0-9.0-0.0-0.30","813","","j","","","","","","","","","","","","","key","j","16.654247863248038","640","356","./1_3_Stimuli/C_ambi40.png","自我","Image","朋友","Mismatch","f","false","Formal",""
"","","","","","psychophysics","292","1036400","0.0-9.0-0.0-0.31","698","","j","","","","","","","","","","","","","key","j","16.65340909090909","640","356","./1_3_Stimuli/C_ambi40.png","他人","Word","朋友","Mismatch","f","false","Formal",""
"","","","","","psychophysics","293","1038543","0.0-9.0-0.0-0.32","991","","f","","","","","","","","","","","","","key","f","16.652085937499578","640","356","./1_3_Stimuli/S_ambi40.png","朋友","Word","他人","Mismatch","f","true","Formal",""
"","","","","","psychophysics","294","1040268","0.0-9.0-0.0-0.33","573","","j","","","","","","","","","","","","","key","j","16.652950980391253","640","356","./1_3_Stimuli/S_ambi40.png","自我","Image","他人","Mismatch","f","false","Formal",""
"","","","","","psychophysics","295","1042971","0.0-9.0-0.0-0.34","null","","null","","","","","","","","","","","","","key","null","16.652845679012696","640","356","./1_3_Stimuli/S_ambi40.png","朋友","Image","他人","Mismatch","f","false","Formal",""
"","","","","","psychophysics","296","1045674","0.0-9.0-0.0-0.35","null","","null","","","","","","","","","","","","","key","null","16.652670807453156","640","356","./1_3_Stimuli/T_ambi40.png","朋友","Image","自我","Mismatch","f","false","Formal",""
"","","","","","psychophysics","297","1047765","0.0-9.0-0.0-0.36","938","","f","","","","","","","","","","","","","key","f","16.653392000000924","640","356","./1_3_Stimuli/C_ambi40.png","朋友","Image","朋友","Match","j","false","Formal",""
"","","","","","psychophysics","298","1049763","0.0-9.0-0.0-0.37","846","","j","","","","","","","","","","","","","key","j","16.65298319327598","640","356","./1_3_Stimuli/C_ambi40.png","他人","Image","朋友","Mismatch","f","false","Formal",""
"","","","","","psychophysics","299","1052040","0.0-9.0-0.0-0.38","1127","","f","","","","","","","","","","","","","key","f","16.653007407407102","640","356","./1_3_Stimuli/S_ambi40.png","他人","Image","他人","Match","j","false","Formal",""
"","","","","","psychophysics","300","1054305","0.0-9.0-0.0-0.39","1113","","f","","","","","","","","","","","","","key","f","16.652761194029644","640","356","./1_3_Stimuli/S_ambi40.png","他人","Word","他人","Match","j","false","Formal",""
"","","","","","psychophysics","301","1056014","0.0-9.0-0.0-0.40","557","","j","","","","","","","","","","","","","key","j","16.652960784313287","640","356","./1_3_Stimuli/T_ambi40.png","自我","Word","自我","Match","j","true","Formal",""
"","","","","","psychophysics","302","1057832","0.0-9.0-0.0-0.41","665","","f","","","","","","","","","","","","","key","f","16.71517592592432","640","356","./1_3_Stimuli/T_ambi40.png","他人","Image","自我","Mismatch","f","true","Formal",""
"","","","","","psychophysics","303","1060536","0.0-9.0-0.0-0.42","null","","null","","","","","","","","","","","","","key","null","16.713826086956384","640","356","./1_3_Stimuli/C_ambi40.png","自我","Word","朋友","Mismatch","f","false","Formal",""
"","","","","","psychophysics","304","1062515","0.0-9.0-0.0-0.43","828","","f","","","","","","","","","","","","","key","f","16.654256410255996","640","356","./1_3_Stimuli/S_ambi40.png","他人","Word","他人","Match","j","false","Formal",""
"","","","","","psychophysics","305","1064304","0.0-9.0-0.0-0.44","637","","f","","","","","","","","","","","","","key","f","16.650420560747403","640","356","./1_3_Stimuli/S_ambi40.png","自我","Word","他人","Mismatch","f","true","Formal",""
"","","","","","psychophysics","306","1066591","0.0-9.0-0.0-0.45","1135","","f","","","","","","","","","","","","","key","f","16.65297058823532","640","356","./1_3_Stimuli/T_ambi40.png","朋友","Word","自我","Mismatch","f","true","Formal",""
"","","","","","psychophysics","307","1068610","0.0-9.0-0.0-0.46","867","","f","","","","","","","","","","","","","key","f","16.652291666667832","640","356","./1_3_Stimuli/T_ambi40.png","他人","Word","自我","Mismatch","f","true","Formal",""
"","","","","","psychophysics","308","1070447","0.0-9.0-0.0-0.47","685","","j","","","","","","","","","","","","","key","j","16.650736363636415","640","356","./1_3_Stimuli/C_ambi40.png","朋友","Word","朋友","Match","j","true","Formal",""
"","","","","","psychophysics","309","1073151","0.0-9.0-0.0-0.48","null","","null","","","","","","","","","","","","","key","null","16.653559006211168","640","356","./1_3_Stimuli/S_ambi40.png","朋友","Image","他人","Mismatch","f","false","Formal",""
"","","","","","psychophysics","310","1075005","0.0-9.0-0.0-0.49","702","","f","","","","","","","","","","","","","key","f","16.652881818182173","640","356","./1_3_Stimuli/S_ambi40.png","自我","Word","他人","Mismatch","f","true","Formal",""
"","","","","","psychophysics","311","1076671","0.0-9.0-0.0-0.50","515","","f","","","","","","","","","","","","","key","f","16.652585858587326","640","356","./1_3_Stimuli/S_ambi40.png","他人","Word","他人","Match","j","false","Formal",""
"","","","","","psychophysics","312","1078888","0.0-9.0-0.0-0.51","1066","","f","","","","","","","","","","","","","key","f","16.652575757574983","640","356","./1_3_Stimuli/T_ambi40.png","朋友","Image","自我","Mismatch","f","true","Formal",""
"","","","","","psychophysics","313","1080643","0.0-9.0-0.0-0.52","602","","j","","","","","","","","","","","","","key","j","16.652615384615135","640","356","./1_3_Stimuli/C_ambi40.png","朋友","Word","朋友","Match","j","true","Formal",""
"","","","","","psychophysics","314","1082500","0.0-9.0-0.0-0.53","705","","j","","","","","","","","","","","","","key","j","16.652890909092754","640","356","./1_3_Stimuli/T_ambi40.png","朋友","Word","自我","Mismatch","f","false","Formal",""
"","","","","","psychophysics","315","1085203","0.0-9.0-0.0-0.54","null","","null","","","","","","","","","","","","","key","null","16.652895061728934","640","356","./1_3_Stimuli/S_ambi40.png","他人","Image","他人","Match","j","false","Formal",""
"","","","","","psychophysics","316","1087390","0.0-9.0-0.0-0.55","1036","","j","","","","","","","","","","","","","key","j","16.65262307692319","640","356","./1_3_Stimuli/C_ambi40.png","朋友","Image","朋友","Match","j","true","Formal",""
"","","","","","psychophysics","317","1089355","0.0-9.0-0.0-0.56","812","","f","","","","","","","","","","","","","key","f","16.65277777777778","640","356","./1_3_Stimuli/C_ambi40.png","自我","Image","朋友","Mismatch","f","true","Formal",""
"","","","","","psychophysics","318","1091699","0.0-9.0-0.0-0.57","1191","","j","","","","","","","","","","","","","key","j","16.659364285714194","640","356","./1_3_Stimuli/S_ambi40.png","朋友","Word","他人","Mismatch","f","false","Formal",""
"","","","","","psychophysics","319","1094403","0.0-9.0-0.0-0.58","null","","null","","","","","","","","","","","","","key","null","16.74136875000113","640","356","./1_3_Stimuli/C_ambi40.png","他人","Word","朋友","Mismatch","f","false","Formal",""
"","","","","","psychophysics","320","1097105","0.0-9.0-0.0-0.59","null","","null","","","","","","","","","","","","","key","null","16.659993788820362","640","356","./1_3_Stimuli/C_ambi40.png","朋友","Word","朋友","Match","j","false","Formal",""
"","","","","","psychophysics","321","1099172","0.0-9.0-0.0-0.60","916","","f","","","","","","","","","","","","","key","f","16.654967741935604","640","356","./1_3_Stimuli/C_ambi40.png","他人","Image","朋友","Mismatch","f","true","Formal",""
"","","","","","psychophysics","322","1100876","0.0-9.0-0.0-0.61","553","","j","","","","","","","","","","","","","key","j","16.64910891089164","640","356","./1_3_Stimuli/T_ambi40.png","自我","Word","自我","Match","j","true","Formal",""
"","","","","","psychophysics","323","1103036","0.0-9.0-0.0-0.62","1007","","j","","","","","","","","","","","","","key","j","16.652728682170917","640","356","./1_3_Stimuli/T_ambi40.png","自我","Image","自我","Match","j","true","Formal",""
"","","","","","psychophysics","324","1104959","0.0-9.0-0.0-0.63","771","","j","","","","","","","","","","","","","key","j","16.651701754385915","640","356","./1_3_Stimuli/C_ambi40.png","朋友","Image","朋友","Match","j","true","Formal",""
"","","","","","psychophysics","325","1107074","0.0-9.0-0.0-0.64","963","","j","","","","","","","","","","","","","key","j","16.65342857142807","640","356","./1_3_Stimuli/T_ambi40.png","自我","Image","自我","Match","j","true","Formal",""
"","","","","","psychophysics","326","1109510","0.0-9.0-0.0-0.65","1286","","f","","","","","","","","","","","","","key","f","16.652868965517023","640","356","./1_3_Stimuli/C_ambi40.png","自我","Word","朋友","Mismatch","f","true","Formal",""
"","","","","","psychophysics","327","1111501","0.0-9.0-0.0-0.66","839","","f","","","","","","","","","","","","","key","f","16.65326050420276","640","356","./1_3_Stimuli/S_ambi40.png","自我","Image","他人","Mismatch","f","true","Formal",""
"","","","","","psychophysics","328","1113743","0.0-9.0-0.0-0.67","1089","","j","","","","","","","","","","","","","key","j","16.65205970149202","640","356","./1_3_Stimuli/S_ambi40.png","他人","Word","他人","Match","j","true","Formal",""
"","","","","","psychophysics","329","1116446","0.0-9.0-0.0-0.68","null","","null","","","","","","","","","","","","","key","null","16.653236024843828","640","356","./1_3_Stimuli/T_ambi40.png","他人","Image","自我","Mismatch","f","false","Formal",""
"","","","","","psychophysics","330","1119150","0.0-9.0-0.0-0.69","null","","null","","","","","","","","","","","","","key","null","16.653130434781765","640","356","./1_3_Stimuli/T_ambi40.png","他人","Word","自我","Mismatch","f","false","Formal",""
"","","","","","psychophysics","331","1121852","0.0-9.0-0.0-0.70","null","","null","","","","","","","","","","","","","key","null","16.652913043477938","640","356","./1_3_Stimuli/S_ambi40.png","他人","Image","他人","Match","j","false","Formal",""
"","","","","","psychophysics","332","1123576","0.0-9.0-0.0-0.71","572","","j","","","","","","","","","","","","","key","j","16.652588235294246","640","356","./1_3_Stimuli/T_ambi40.png","自我","Word","自我","Match","j","true","Formal",""
"","","","","","psychophysics","333","1125381","0.0-9.0-0.0-0.72","651","","j","","","","","","","","","","","","","key","j","16.652635514020275","640","356","./1_3_Stimuli/T_ambi40.png","他人","Word","自我","Mismatch","f","false","Formal",""
"","","","","","psychophysics","334","1127257","0.0-9.0-0.0-0.73","724","","f","","","","","","","","","","","","","key","f","16.71769369369465","640","356","./1_3_Stimuli/C_ambi40.png","自我","Image","朋友","Mismatch","f","true","Formal",""
"","","","","","psychophysics","335","1129366","0.0-9.0-0.0-0.74","958","","f","","","","","","","","","","","","","key","f","16.74872000000067","640","356","./1_3_Stimuli/C_ambi40.png","自我","Word","朋友","Mismatch","f","true","Formal",""
"","","","","","psychophysics","336","1132069","0.0-9.0-0.0-0.75","null","","null","","","","","","","","","","","","","key","null","16.655602484471483","640","356","./1_3_Stimuli/T_ambi40.png","自我","Word","自我","Match","j","false","Formal",""
"","","","","","psychophysics","337","1134374","0.0-9.0-0.0-0.76","1153","","j","","","","","","","","","","","","","key","j","16.652649635036074","640","356","./1_3_Stimuli/S_ambi40.png","朋友","Image","他人","Mismatch","f","false","Formal",""
"","","","","","psychophysics","338","1136416","0.0-9.0-0.0-0.77","891","","j","","","","","","","","","","","","","key","j","16.64460655737699","640","356","./1_3_Stimuli/T_ambi40.png","自我","Image","自我","Match","j","true","Formal",""
"","","","","","psychophysics","339","1138316","0.0-9.0-0.0-0.78","747","","j","","","","","","","","","","","","","key","j","16.65180530973537","640","356","./1_3_Stimuli/T_ambi40.png","朋友","Word","自我","Mismatch","f","false","Formal",""
"","","","","","psychophysics","340","1141020","0.0-9.0-0.0-0.79","null","","null","","","","","","","","","","","","","key","null","16.652242236024474","640","356","./1_3_Stimuli/C_ambi40.png","他人","Image","朋友","Mismatch","f","false","Formal",""
"","","","","","psychophysics","341","1143102","0.0-9.0-0.0-0.80","931","","f","","","","","","","","","","","","","key","f","16.652317073169673","640","356","./1_3_Stimuli/S_ambi40.png","自我","Image","他人","Mismatch","f","true","Formal",""
"","","","","","psychophysics","342","1145133","0.0-9.0-0.0-0.81","879","","f","","","","","","","","","","","","","key","f","16.65256666666828","640","356","./1_3_Stimuli/C_ambi40.png","朋友","Word","朋友","Match","j","false","Formal",""
"","","","","","psychophysics","343","1147335","0.0-9.0-0.0-0.82","1050","","j","","","","","","","","","","","","","key","j","16.65303816793856","640","356","./1_3_Stimuli/T_ambi40.png","自我","Image","自我","Match","j","true","Formal",""
"","","","","","psychophysics","344","1149643","0.0-9.0-0.0-0.83","1156","","f","","","","","","","","","","","","","key","f","16.653043795620043","640","356","./1_3_Stimuli/S_ambi40.png","他人","Word","他人","Match","j","false","Formal",""
"","","","","","psychophysics","345","1151978","0.0-9.0-0.0-0.84","1183","","j","","","","","","","","","","","","","key","j","16.654050359711814","640","356","./1_3_Stimuli/C_ambi40.png","朋友","Image","朋友","Match","j","true","Formal",""
"","","","","","psychophysics","346","1153735","0.0-9.0-0.0-0.85","606","","j","","","","","","","","","","","","","key","j","16.651857142855548","640","356","./1_3_Stimuli/T_ambi40.png","朋友","Image","自我","Mismatch","f","false","Formal",""
"","","","","","psychophysics","347","1155844","0.0-9.0-0.0-0.86","957","","j","","","","","","","","","","","","","key","j","16.653079365078906","640","356","./1_3_Stimuli/S_ambi40.png","他人","Word","他人","Match","j","true","Formal",""
"","","","","","psychophysics","348","1158002","0.0-9.0-0.0-0.87","1005","","f","","","","","","","","","","","","","key","f","16.652382812500946","640","356","./1_3_Stimuli/S_ambi40.png","朋友","Word","他人","Mismatch","f","true","Formal",""
"","","","","","psychophysics","349","1160705","0.0-9.0-0.0-0.88","null","","null","","","","","","","","","","","","","key","null","16.652900621117098","640","356","./1_3_Stimuli/T_ambi40.png","他人","Image","自我","Mismatch","f","false","Formal",""
"","","","","","psychophysics","350","1162868","0.0-9.0-0.0-0.89","1012","","f","","","","","","","","","","","","","key","f","16.739125000000058","640","356","./1_3_Stimuli/C_ambi40.png","他人","Word","朋友","Mismatch","f","true","Formal",""
"","","","","","psychophysics","351","1165571","0.0-9.0-0.0-0.90","null","","null","","","","","","","","","","","","","key","null","16.699173913043722","640","356","./1_3_Stimuli/S_ambi40.png","他人","Image","他人","Match","j","false","Formal",""
"","","","","","psychophysics","352","1167437","0.0-9.0-0.0-0.91","714","","j","","","","","","","","","","","","","key","j","16.650738738739427","640","356","./1_3_Stimuli/C_ambi40.png","朋友","Image","朋友","Match","j","true","Formal",""
"","","","","","psychophysics","353","1169314","0.0-9.0-0.0-0.92","722","","f","","","","","","","","","","","","","key","f","16.64394594594702","640","356","./1_3_Stimuli/S_ambi40.png","自我","Word","他人","Mismatch","f","true","Formal",""
"","","","","","psychophysics","354","1172016","0.0-9.0-0.0-0.93","null","","null","","","","","","","","","","","","","key","null","16.65208695652195","640","356","./1_3_Stimuli/S_ambi40.png","他人","Image","他人","Match","j","false","Formal",""
"","","","","","psychophysics","355","1173838","0.0-9.0-0.0-0.94","671","","j","","","","","","","","","","","","","key","j","16.652537037038538","640","356","./1_3_Stimuli/T_ambi40.png","自我","Word","自我","Match","j","true","Formal",""
"","","","","","psychophysics","356","1175990","0.0-9.0-0.0-0.95","1000","","j","","","","","","","","","","","","","key","j","16.651640624999345","640","356","./1_3_Stimuli/C_ambi40.png","朋友","Word","朋友","Match","j","true","Formal",""
"","","","","","psychophysics","357","1178509","0.0-9.0-0.0-0.96","1367","","f","","","","","","","","","","","","","key","f","16.653300000000744","640","356","./1_3_Stimuli/S_ambi40.png","他人","Image","他人","Match","j","false","Formal",""
"","","","","","psychophysics","358","1180831","0.0-9.0-0.0-0.97","1170","","j","","","","","","","","","","","","","key","j","16.652594202898268","640","356","./1_3_Stimuli/C_ambi40.png","朋友","Image","朋友","Match","j","true","Formal",""
"","","","","","psychophysics","359","1182885","0.0-9.0-0.0-0.98","903","","f","","","","","","","","","","","","","key","f","16.653008196722396","640","356","./1_3_Stimuli/C_ambi40.png","自我","Word","朋友","Mismatch","f","true","Formal",""
"","","","","","psychophysics","360","1184690","0.0-9.0-0.0-0.99","653","","j","","","","","","","","","","","","","key","j","16.651560747663048","640","356","./1_3_Stimuli/T_ambi40.png","自我","Image","自我","Match","j","true","Formal",""
"","","","","","psychophysics","361","1186460","0.0-9.0-0.0-0.100","617","","j","","","","","","","","","","","","","key","j","16.65169523809593","640","356","./1_3_Stimuli/T_ambi40.png","自我","Word","自我","Match","j","true","Formal",""
"","","","","","psychophysics","362","1188803","0.0-9.0-0.0-0.101","1191","","j","","","","","","","","","","","","","key","j","16.653492857143284","640","356","./1_3_Stimuli/C_ambi40.png","朋友","Word","朋友","Match","j","true","Formal",""
"","","","","","psychophysics","363","1191104","0.0-9.0-0.0-0.102","1148","","j","","","","","","","","","","","","","key","j","16.653423357663172","640","356","./1_3_Stimuli/S_ambi40.png","他人","Image","他人","Match","j","true","Formal",""
"","","","","","psychophysics","364","1193321","0.0-9.0-0.0-0.103","1063","","j","","","","","","","","","","","","","key","j","16.653083333334617","640","356","./1_3_Stimuli/S_ambi40.png","他人","Word","他人","Match","j","true","Formal",""
"","","","","","psychophysics","365","1195551","0.0-9.0-0.0-0.104","1079","","f","","","","","","","","","","","","","key","f","16.659503759397893","640","356","./1_3_Stimuli/T_ambi40.png","他人","Word","自我","Mismatch","f","true","Formal",""
"","","","","","psychophysics","366","1197948","0.0-9.0-0.0-0.105","1246","","j","","","","","","","","","","","","","key","j","16.734056338028406","640","356","./1_3_Stimuli/S_ambi40.png","自我","Image","他人","Mismatch","f","false","Formal",""
"","","","","","psychophysics","367","1199641","0.0-9.0-0.0-0.106","541","","j","","","","","","","","","","","","","key","j","16.66107920792166","640","356","./1_3_Stimuli/T_ambi40.png","自我","Word","自我","Match","j","true","Formal",""
"","","","","","psychophysics","368","1202344","0.0-9.0-0.0-0.107","null","","null","","","","","","","","","","","","","key","null","16.650111801241184","640","356","./1_3_Stimuli/S_ambi40.png","朋友","Image","他人","Mismatch","f","false","Formal",""
"","","","","","psychophysics","369","1205047","0.0-9.0-0.0-0.108","null","","null","","","","","","","","","","","","","key","null","16.75659375000105","640","356","./1_3_Stimuli/C_ambi40.png","他人","Word","朋友","Mismatch","f","false","Formal",""
"","","","","","psychophysics","370","1207751","0.0-9.0-0.0-0.109","null","","null","","","","","","","","","","","","","key","null","16.859974999999395","640","356","./1_3_Stimuli/T_ambi40.png","朋友","Word","自我","Mismatch","f","false","Formal",""
"","","","","","psychophysics","371","1210114","0.0-9.0-0.0-0.110","1211","","f","","","","","","","","","","","","","key","f","16.772035714285447","640","356","./1_3_Stimuli/T_ambi40.png","朋友","Image","自我","Mismatch","f","true","Formal",""
"","","","","","psychophysics","372","1212817","0.0-9.0-0.0-0.111","null","","null","","","","","","","","","","","","","key","null","16.862899371069922","640","356","./1_3_Stimuli/C_ambi40.png","自我","Image","朋友","Mismatch","f","false","Formal",""
"","","","","","psychophysics","373","1214687","0.0-9.0-0.0-0.112","718","","f","","","","","","","","","","","","","key","f","17.773711538459445","640","356","./1_3_Stimuli/S_ambi40.png","自我","Word","他人","Mismatch","f","true","Formal",""
"","","","","","psychophysics","374","1217389","0.0-9.0-0.0-0.113","null","","null","","","","","","","","","","","","","key","null","17.29740645161289","640","356","./1_3_Stimuli/S_ambi40.png","朋友","Word","他人","Mismatch","f","false","Formal",""
"","","","","","psychophysics","375","1220091","0.0-9.0-0.0-0.114","null","","null","","","","","","","","","","","","","key","null","16.65328395061833","640","356","./1_3_Stimuli/T_ambi40.png","自我","Image","自我","Match","j","false","Formal",""
"","","","","","psychophysics","376","1221933","0.0-9.0-0.0-0.115","690","","j","","","","","","","","","","","","","key","j","16.653385321101293","640","356","./1_3_Stimuli/C_ambi40.png","朋友","Word","朋友","Match","j","true","Formal",""
"","","","","","psychophysics","377","1223885","0.0-9.0-0.0-0.116","801","","f","","","","","","","","","","","","","key","f","16.652534482759776","640","356","./1_3_Stimuli/T_ambi40.png","他人","Image","自我","Mismatch","f","true","Formal",""
"","","","","","psychophysics","378","1226012","0.0-9.0-0.0-0.117","976","","j","","","","","","","","","","","","","key","j","16.652571428570866","640","356","./1_3_Stimuli/S_ambi40.png","他人","Word","他人","Match","j","true","Formal",""
"","","","","","psychophysics","379","1228012","0.0-9.0-0.0-0.118","847","","j","","","","","","","","","","","","","key","j","18.02781651376046","640","356","./1_3_Stimuli/C_ambi40.png","朋友","Image","朋友","Match","j","true","Formal",""
"","","","","","psychophysics","380","1230715","0.0-9.0-0.0-0.119","null","","null","","","","","","","","","","","","","key","null","18.391171232876943","640","356","./1_3_Stimuli/C_ambi40.png","他人","Image","朋友","Mismatch","f","false","Formal",""
"","","","","","html-keyboard-response","381","1230729","0.0-9.0-1.0","9","<style>.context{color:white; font-size: 35px; line-height:40px}</style>                        <div><p class='context'>您正确回答了56% 的试次。</p><p class='context'>您的平均反应时为863毫秒。</p><p> <div style = 'color: green'><按任意键进入休息></div></p>","f","","","","","","","","","","","","","","","","","","","","","","","","","",""
"","","","","","html-button-response","382","1380198","0.0-9.0-2.0","149448","
                  <p>您当前还剩余5组实验</p>
                  <p>现在是休息时间，当您结束休息后，您可以点击 结束休息 按钮 继续</p>
                  <p>建议休息时间还剩余<span id=""iii"">60</span>秒</p>","0","","","","","","","","","","","","","","","","","","","","","","","","","",""
"","","","","","psychophysics","383","1382902","0.0-9.0-0.1-0.120","null","","null","","","","","","","","","","","","","key","null","16.607490683230427","640","356","./1_3_Stimuli/S_ambi40.png","他人","Image","他人","Match","j","false","Formal",""
"","","","","","psychophysics","384","1384943","0.0-9.0-0.1-0.121","889","","f","","","","","","","","","","","","","key","f","16.652016528926342","640","356","./1_3_Stimuli/S_ambi40.png","朋友","Image","他人","Mismatch","f","true","Formal",""
"","","","","","psychophysics","385","1386972","0.0-9.0-0.1-0.122","873","","j","","","","","","","","","","","","","key","j","16.653801652891485","640","356","./1_3_Stimuli/S_ambi40.png","他人","Word","他人","Match","j","true","Formal",""
"","","","","","psychophysics","386","1388592","0.0-9.0-0.1-0.123","467","","j","","","","","","","","","","","","","key","j","16.65321875000033","640","356","./1_3_Stimuli/T_ambi40.png","自我","Image","自我","Match","j","true","Formal",""
"","","","","","psychophysics","387","1390373","0.0-9.0-0.1-0.124","628","","j","","","","","","","","","","","","","key","j","16.653018867924263","640","356","./1_3_Stimuli/T_ambi40.png","自我","Image","自我","Match","j","true","Formal",""
"","","","","","psychophysics","388","1392442","0.0-9.0-0.1-0.125","917","","f","","","","","","","","","","","","","key","f","16.653170731706105","640","356","./1_3_Stimuli/T_ambi40.png","朋友","Word","自我","Mismatch","f","true","Formal",""
"","","","","","psychophysics","389","1394342","0.0-9.0-0.1-0.126","747","","f","","","","","","","","","","","","","key","f","16.65342477875951","640","356","./1_3_Stimuli/T_ambi40.png","他人","Word","自我","Mismatch","f","true","Formal",""
"","","","","","psychophysics","390","1396033","0.0-9.0-0.1-0.127","540","","j","","","","","","","","","","","","","key","j","16.6525643564378","640","356","./1_3_Stimuli/C_ambi40.png","朋友","Word","朋友","Match","j","true","Formal",""
"","","","","","psychophysics","391","1397735","0.0-9.0-0.1-0.128","549","","j","","","","","","","","","","","","","key","j","16.653089108909157","640","356","./1_3_Stimuli/T_ambi40.png","自我","Word","自我","Match","j","true","Formal",""
"","","","","","psychophysics","392","1400405","0.0-9.0-0.1-0.129","1518","","j","","","","","","","","","","","","","key","j","16.652773584906924","640","356","./1_3_Stimuli/S_ambi40.png","他人","Word","他人","Match","j","true","Formal",""
"","","","","","psychophysics","393","1402686","0.0-9.0-0.1-0.130","1130","","f","","","","","","","","","","","","","key","f","16.653118518517456","640","356","./1_3_Stimuli/S_ambi40.png","自我","Word","他人","Mismatch","f","true","Formal",""
"","","","","","psychophysics","394","1404613","0.0-9.0-0.1-0.131","776","","j","","","","","","","","","","","","","key","j","16.68187826086929","640","356","./1_3_Stimuli/C_ambi40.png","朋友","Word","朋友","Match","j","true","Formal",""
"","","","","","psychophysics","395","1406879","0.0-9.0-0.1-0.132","1115","","f","","","","","","","","","","","","","key","f","16.728776119402678","640","356","./1_3_Stimuli/C_ambi40.png","他人","Word","朋友","Mismatch","f","true","Formal",""
"","","","","","psychophysics","396","1409355","0.0-9.0-0.1-0.133","1324","","j","","","","","","","","","","","","","key","j","16.763551020407164","640","356","./1_3_Stimuli/S_ambi40.png","他人","Image","他人","Match","j","true","Formal",""
"","","","","","psychophysics","397","1411389","0.0-9.0-0.1-0.134","882","","f","","","","","","","","","","","","","key","f","16.65567768595089","640","356","./1_3_Stimuli/C_ambi40.png","自我","Word","朋友","Mismatch","f","true","Formal",""
"","","","","","psychophysics","398","1414092","0.0-9.0-0.1-0.135","null","","null","","","","","","","","","","","","","key","null","16.648335403726605","640","356","./1_3_Stimuli/S_ambi40.png","自我","Image","他人","Mismatch","f","false","Formal",""
"","","","","","psychophysics","399","1416437","0.0-9.0-0.1-0.136","1193","","f","","","","","","","","","","","","","key","f","16.651357142856742","640","356","./1_3_Stimuli/C_ambi40.png","自我","Image","朋友","Mismatch","f","true","Formal",""
"","","","","","psychophysics","400","1418940","0.0-9.0-0.1-0.137","1350","","j","","","","","","","","","","","","","key","j","16.65263758389273","640","356","./1_3_Stimuli/T_ambi40.png","他人","Image","自我","Mismatch","f","false","Formal",""
"","","","","","psychophysics","401","1421044","0.0-9.0-0.1-0.138","953","","j","","","","","","","","","","","","","key","j","16.652007936509253","640","356","./1_3_Stimuli/C_ambi40.png","他人","Image","朋友","Mismatch","f","false","Formal",""
"","","","","","psychophysics","402","1422673","0.0-9.0-0.1-0.139","477","","j","","","","","","","","","","","","","key","j","16.653257731957957","640","356","./1_3_Stimuli/T_ambi40.png","自我","Word","自我","Match","j","true","Formal",""
"","","","","","psychophysics","403","1425377","0.0-9.0-0.1-0.140","null","","null","","","","","","","","","","","","","key","null","17.07710828025422","640","356","./1_3_Stimuli/C_ambi40.png","朋友","Image","朋友","Match","j","false","Formal",""
"","","","","","psychophysics","404","1428076","0.0-9.0-0.1-0.141","1545","","j","","","","","","","","","","","","","key","j","17.63858552631542","640","356","./1_3_Stimuli/S_ambi40.png","朋友","Word","他人","Mismatch","f","false","Formal",""
"","","","","","psychophysics","405","1430010","0.0-9.0-0.1-0.142","781","","j","","","","","","","","","","","","","key","j","18.775529411762918","640","356","./1_3_Stimuli/C_ambi40.png","朋友","Image","朋友","Match","j","true","Formal",""
"","","","","","psychophysics","406","1431950","0.0-9.0-0.1-0.143","787","","f","","","","","","","","","","","","","key","f","17.56147272727156","640","356","./1_3_Stimuli/T_ambi40.png","朋友","Image","自我","Mismatch","f","true","Formal",""
"","","","","","psychophysics","407","1433927","0.0-9.0-0.1-0.144","824","","j","","","","","","","","","","","","","key","j","16.796396551723994","640","356","./1_3_Stimuli/C_ambi40.png","他人","Image","朋友","Mismatch","f","false","Formal",""
"","","","","","psychophysics","408","1435887","0.0-9.0-0.1-0.145","807","","f","","","","","","","","","","","","","key","f","16.94505263157924","640","356","./1_3_Stimuli/S_ambi40.png","他人","Word","他人","Match","j","false","Formal",""
"","","","","","psychophysics","409","1437985","0.0-9.0-0.1-0.146","947","","j","","","","","","","","","","","","","key","j","16.78727419354818","640","356","./1_3_Stimuli/C_ambi40.png","朋友","Image","朋友","Match","j","true","Formal",""
"","","","","","psychophysics","410","1439917","0.0-9.0-0.1-0.147","780","","f","","","","","","","","","","","","","key","f","16.888473684211228","640","356","./1_3_Stimuli/C_ambi40.png","自我","Word","朋友","Mismatch","f","true","Formal",""
"","","","","","psychophysics","411","1442138","0.0-9.0-0.1-0.148","1070","","j","","","","","","","","","","","","","key","j","16.7069618320608","640","356","./1_3_Stimuli/C_ambi40.png","朋友","Word","朋友","Match","j","true","Formal",""
