"Subject","Group","Condition","Block","Trial","Shape","Label","Matching","Label_Origin_Identity","Label_English_Identity","Label_Standardized_Identity","Shape_Origin_Identity","Shape_English_Identity","Shape_Standardized_Identity","Response","RT_ms","RT_sec","ACC"
18080,2,"line",1,1,"ve.tif","self","Nonmatching","Self","Self","Self","friend","Friend","Close","48",925,0.925,1
18080,2,"line",1,2,"he.tif","friend","Nonmatching","Friend","Friend","Friend","self","Self","Self","48",785,0.785,1
18080,2,"happy",1,3,"he.tif","friend","Nonmatching","Friend","Friend","Friend","self","Self","Self","47",467,0.467,0
18080,2,"sad",1,4,"ve.tif","self","Nonmatching","Self","Self","Self","friend","Friend","Close","48",776,0.776,1
18080,2,"neutral",1,5,"he.tif","friend","Nonmatching","Friend","Friend","Friend","self","Self","Self","48",826,0.826,1
18080,2,"sad",1,6,"ve.tif","self","Nonmatching","Self","Self","Self","friend","Friend","Close","48",624,0.624,1
18080,2,"sad",1,7,"he.tif","self","Matching","Self","Self","Self","self","Self","Self","47",613,0.613,1
18080,2,"line",1,8,"ve.tif","self","Nonmatching","Self","Self","Self","friend","Friend","Close","48",686,0.686,1
18080,2,"sad",1,9,"ve.tif","self","Nonmatching","Self","Self","Self","friend","Friend","Close","48",915,0.915,1
18080,2,"happy",1,10,"ve.tif","friend","Matching","Friend","Friend","Friend","friend","Friend","Close","47",722,0.722,1
18080,2,"sad",1,11,"ve.tif","friend","Matching","Friend","Friend","Friend","friend","Friend","Close","48",596,0.596,0
18080,2,"line",1,12,"he.tif","self","Matching","Self","Self","Self","self","Self","Self","47",991,0.991,1
18080,2,"neutral",1,13,"ve.tif","self","Nonmatching","Self","Self","Self","friend","Friend","Close","48",1025,1.025,1
18080,2,"happy",1,14,"ve.tif","self","Nonmatching","Self","Self","Self","friend","Friend","Close","48",1121,1.121,1
18080,2,"line",1,15,"ve.tif","self","Nonmatching","Self","Self","Self","friend","Friend","Close","48",940,0.94,1
18080,2,"neutral",1,16,"he.tif","friend","Nonmatching","Friend","Friend","Friend","self","Self","Self","48",739,0.739,1
18080,2,"happy",1,17,"ve.tif","self","Nonmatching","Self","Self","Self","friend","Friend","Close","48",579,0.579,1
18080,2,"happy",1,18,"he.tif","friend","Nonmatching","Friend","Friend","Friend","self","Self","Self","48",747,0.747,1
18080,2,"neutral",1,19,"ve.tif","friend","Matching","Friend","Friend","Friend","friend","Friend","Close","47",767,0.767,1
18080,2,"happy",1,20,"he.tif","self","Matching","Self","Self","Self","self","Self","Self","47",690,0.69,1
18080,2,"line",1,21,"he.tif","self","Matching","Self","Self","Self","self","Self","Self","47",566,0.566,1
18080,2,"happy",1,22,"ve.tif","friend","Matching","Friend","Friend","Friend","friend","Friend","Close","47",728,0.728,1
18080,2,"happy",1,23,"ve.tif","friend","Matching","Friend","Friend","Friend","friend","Friend","Close","0",1500,1.5,0
18080,2,"line",1,24,"he.tif","friend","Nonmatching","Friend","Friend","Friend","self","Self","Self","48",660,0.66,1
18080,2,"sad",1,25,"he.tif","friend","Nonmatching","Friend","Friend","Friend","self","Self","Self","48",606,0.606,1
18080,2,"happy",1,26,"he.tif","self","Matching","Self","Self","Self","self","Self","Self","48",829,0.829,0
18080,2,"happy",1,27,"ve.tif","self","Nonmatching","Self","Self","Self","friend","Friend","Close","48",666,0.666,1
18080,2,"neutral",1,28,"he.tif","self","Matching","Self","Self","Self","self","Self","Self","47",1119,1.119,1
18080,2,"line",1,29,"he.tif","self","Matching","Self","Self","Self","self","Self","Self","47",587,0.587,1
18080,2,"happy",1,30,"he.tif","self","Matching","Self","Self","Self","self","Self","Self","47",639,0.639,1
18080,2,"sad",1,31,"he.tif","self","Matching","Self","Self","Self","self","Self","Self","47",535,0.535,1
18080,2,"sad",1,32,"he.tif","friend","Nonmatching","Friend","Friend","Friend","self","Self","Self","48",995,0.995,1
18080,2,"happy",1,33,"he.tif","friend","Nonmatching","Friend","Friend","Friend","self","Self","Self","48",662,0.662,1
18080,2,"neutral",1,34,"ve.tif","self","Nonmatching","Self","Self","Self","friend","Friend","Close","47",570,0.57,0
18080,2,"happy",1,35,"he.tif","friend","Nonmatching","Friend","Friend","Friend","self","Self","Self","47",588,0.588,0
18080,2,"happy",1,36,"ve.tif","friend","Matching","Friend","Friend","Friend","friend","Friend","Close","47",867,0.867,1
18080,2,"sad",1,37,"he.tif","self","Matching","Self","Self","Self","self","Self","Self","47",967,0.967,1
18080,2,"line",1,38,"ve.tif","friend","Matching","Friend","Friend","Friend","friend","Friend","Close","47",611,0.611,1
18080,2,"neutral",1,39,"he.tif","self","Matching","Self","Self","Self","self","Self","Self","47",645,0.645,1
18080,2,"sad",1,40,"ve.tif","self","Nonmatching","Self","Self","Self","friend","Friend","Close","48",698,0.698,1
18080,2,"sad",1,41,"he.tif","self","Matching","Self","Self","Self","self","Self","Self","48",996,0.996,0
18080,2,"neutral",1,42,"ve.tif","friend","Matching","Friend","Friend","Friend","friend","Friend","Close","47",648,0.648,1
18080,2,"sad",1,43,"he.tif","friend","Nonmatching","Friend","Friend","Friend","self","Self","Self","48",1133,1.133,1
18080,2,"sad",1,44,"he.tif","self","Matching","Self","Self","Self","self","Self","Self","48",944,0.944,0
18080,2,"neutral",1,45,"ve.tif","self","Nonmatching","Self","Self","Self","friend","Friend","Close","48",909,0.909,1
18080,2,"sad",1,46,"ve.tif","friend","Matching","Friend","Friend","Friend","friend","Friend","Close","47",1353,1.353,1
18080,2,"sad",1,47,"ve.tif","friend","Matching","Friend","Friend","Friend","friend","Friend","Close","47",715,0.715,1
18080,2,"happy",1,48,"ve.tif","friend","Matching","Friend","Friend","Friend","friend","Friend","Close","47",430,0.43,1
18080,2,"neutral",1,49,"ve.tif","friend","Matching","Friend","Friend","Friend","friend","Friend","Close","47",591,0.591,1
18080,2,"neutral",1,50,"he.tif","friend","Nonmatching","Friend","Friend","Friend","self","Self","Self","48",670,0.67,1
18080,2,"sad",1,51,"he.tif","friend","Nonmatching","Friend","Friend","Friend","self","Self","Self","48",616,0.616,1
18080,2,"line",1,52,"ve.tif","self","Nonmatching","Self","Self","Self","friend","Friend","Close","48",1102,1.102,1
18080,2,"line",1,53,"he.tif","friend","Nonmatching","Friend","Friend","Friend","self","Self","Self","48",1060,1.06,1
18080,2,"line",1,54,"ve.tif","self","Nonmatching","Self","Self","Self","friend","Friend","Close","48",926,0.926,1
18080,2,"neutral",1,55,"ve.tif","friend","Matching","Friend","Friend","Friend","friend","Friend","Close","47",620,0.62,1
18080,2,"line",1,56,"he.tif","friend","Nonmatching","Friend","Friend","Friend","self","Self","Self","48",702,0.702,1
18080,2,"line",1,57,"he.tif","friend","Nonmatching","Friend","Friend","Friend","self","Self","Self","48",528,0.528,1
18080,2,"happy",1,58,"ve.tif","self","Nonmatching","Self","Self","Self","friend","Friend","Close","48",773,0.773,1
18080,2,"neutral",1,59,"he.tif","friend","Nonmatching","Friend","Friend","Friend","self","Self","Self","48",853,0.853,1
18080,2,"happy",1,60,"he.tif","self","Matching","Self","Self","Self","self","Self","Self","48",725,0.725,0
18080,2,"sad",1,61,"ve.tif","self","Nonmatching","Self","Self","Self","friend","Friend","Close","48",630,0.63,1
18080,2,"line",1,62,"he.tif","self","Matching","Self","Self","Self","self","Self","Self","47",582,0.582,1
18080,2,"neutral",1,63,"he.tif","self","Matching","Self","Self","Self","self","Self","Self","47",543,0.543,1
18080,2,"neutral",1,64,"ve.tif","self","Nonmatching","Self","Self","Self","friend","Friend","Close","48",562,0.562,1
18080,2,"line",1,65,"he.tif","self","Matching","Self","Self","Self","self","Self","Self","47",919,0.919,1
18080,2,"neutral",1,66,"he.tif","friend","Nonmatching","Friend","Friend","Friend","self","Self","Self","48",554,0.554,1
18080,2,"neutral",1,67,"he.tif","self","Matching","Self","Self","Self","self","Self","Self","48",1011,1.011,0
18080,2,"happy",1,68,"he.tif","self","Matching","Self","Self","Self","self","Self","Self","47",620,0.62,1
18080,2,"neutral",1,69,"ve.tif","friend","Matching","Friend","Friend","Friend","friend","Friend","Close","48",615,0.615,0
18080,2,"happy",1,70,"he.tif","friend","Nonmatching","Friend","Friend","Friend","self","Self","Self","48",674,0.674,1
18080,2,"line",1,71,"ve.tif","friend","Matching","Friend","Friend","Friend","friend","Friend","Close","47",810,0.81,1
18080,2,"happy",1,72,"ve.tif","self","Nonmatching","Self","Self","Self","friend","Friend","Close","48",683,0.683,1
18080,2,"sad",1,73,"ve.tif","friend","Matching","Friend","Friend","Friend","friend","Friend","Close","47",848,0.848,1
18080,2,"neutral",1,74,"he.tif","self","Matching","Self","Self","Self","self","Self","Self","47",520,0.52,1
18080,2,"line",1,75,"ve.tif","friend","Matching","Friend","Friend","Friend","friend","Friend","Close","47",527,0.527,1
18080,2,"neutral",1,76,"ve.tif","self","Nonmatching","Self","Self","Self","friend","Friend","Close","48",806,0.806,1
18080,2,"line",1,77,"ve.tif","friend","Matching","Friend","Friend","Friend","friend","Friend","Close","47",1099,1.099,1
18080,2,"line",1,78,"ve.tif","friend","Matching","Friend","Friend","Friend","friend","Friend","Close","47",588,0.588,1
18080,2,"sad",1,79,"ve.tif","friend","Matching","Friend","Friend","Friend","friend","Friend","Close","47",625,0.625,1
18080,2,"sad",1,80,"he.tif","friend","Nonmatching","Friend","Friend","Friend","self","Self","Self","47",819,0.819,0
18080,2,"sad",2,1,"ve.tif","friend","Matching","Friend","Friend","Friend","friend","Friend","Close","47",742,0.742,1
18080,2,"line",2,2,"ve.tif","self","Nonmatching","Self","Self","Self","friend","Friend","Close","48",715,0.715,1
18080,2,"sad",2,3,"ve.tif","friend","Matching","Friend","Friend","Friend","friend","Friend","Close","47",650,0.65,1
18080,2,"sad",2,4,"ve.tif","friend","Matching","Friend","Friend","Friend","friend","Friend","Close","47",767,0.767,1
18080,2,"happy",2,5,"ve.tif","self","Nonmatching","Self","Self","Self","friend","Friend","Close","48",795,0.795,1
18080,2,"happy",2,6,"he.tif","friend","Nonmatching","Friend","Friend","Friend","self","Self","Self","48",1078,1.078,1
18080,2,"neutral",2,7,"he.tif","self","Matching","Self","Self","Self","self","Self","Self","47",681,0.681,1
18080,2,"neutral",2,8,"he.tif","friend","Nonmatching","Friend","Friend","Friend","self","Self","Self","48",859,0.859,1
18080,2,"neutral",2,9,"he.tif","friend","Nonmatching","Friend","Friend","Friend","self","Self","Self","48",659,0.659,1
18080,2,"neutral",2,10,"ve.tif","self","Nonmatching","Self","Self","Self","friend","Friend","Close","48",736,0.736,1
18080,2,"neutral",2,11,"he.tif","self","Matching","Self","Self","Self","self","Self","Self","47",605,0.605,1
18080,2,"sad",2,12,"he.tif","friend","Nonmatching","Friend","Friend","Friend","self","Self","Self","48",614,0.614,1
18080,2,"neutral",2,13,"he.tif","self","Matching","Self","Self","Self","self","Self","Self","47",891,0.891,1
18080,2,"happy",2,14,"he.tif","self","Matching","Self","Self","Self","self","Self","Self","47",727,0.727,1
18080,2,"neutral",2,15,"ve.tif","friend","Matching","Friend","Friend","Friend","friend","Friend","Close","47",595,0.595,1
18080,2,"happy",2,16,"ve.tif","self","Nonmatching","Self","Self","Self","friend","Friend","Close","48",671,0.671,1
18080,2,"sad",2,17,"he.tif","friend","Nonmatching","Friend","Friend","Friend","self","Self","Self","48",681,0.681,1
18080,2,"happy",2,18,"he.tif","friend","Nonmatching","Friend","Friend","Friend","self","Self","Self","47",682,0.682,0
18080,2,"happy",2,19,"he.tif","self","Matching","Self","Self","Self","self","Self","Self","47",709,0.709,1
18080,2,"sad",2,20,"he.tif","self","Matching","Self","Self","Self","self","Self","Self","47",795,0.795,1
18080,2,"sad",2,21,"he.tif","self","Matching","Self","Self","Self","self","Self","Self","47",788,0.788,1
18080,2,"neutral",2,22,"ve.tif","friend","Matching","Friend","Friend","Friend","friend","Friend","Close","47",568,0.568,1
18080,2,"sad",2,23,"he.tif","friend","Nonmatching","Friend","Friend","Friend","self","Self","Self","48",639,0.639,1
18080,2,"line",2,24,"ve.tif","friend","Matching","Friend","Friend","Friend","friend","Friend","Close","47",535,0.535,1
18080,2,"line",2,25,"ve.tif","friend","Matching","Friend","Friend","Friend","friend","Friend","Close","48",696,0.696,0
18080,2,"line",2,26,"he.tif","friend","Nonmatching","Friend","Friend","Friend","self","Self","Self","48",658,0.658,1
18080,2,"sad",2,27,"he.tif","friend","Nonmatching","Friend","Friend","Friend","self","Self","Self","48",1277,1.277,1
18080,2,"neutral",2,28,"ve.tif","friend","Matching","Friend","Friend","Friend","friend","Friend","Close","47",556,0.556,1
18080,2,"happy",2,29,"he.tif","self","Matching","Self","Self","Self","self","Self","Self","47",571,0.571,1
18080,2,"happy",2,30,"he.tif","self","Matching","Self","Self","Self","self","Self","Self","47",496,0.496,1
18080,2,"line",2,31,"he.tif","friend","Nonmatching","Friend","Friend","Friend","self","Self","Self","48",1018,1.018,1
18080,2,"sad",2,32,"ve.tif","self","Nonmatching","Self","Self","Self","friend","Friend","Close","48",619,0.619,1
18080,2,"neutral",2,33,"he.tif","self","Matching","Self","Self","Self","self","Self","Self","47",873,0.873,1
18080,2,"happy",2,34,"he.tif","friend","Nonmatching","Friend","Friend","Friend","self","Self","Self","48",881,0.881,1
18080,2,"neutral",2,35,"he.tif","friend","Nonmatching","Friend","Friend","Friend","self","Self","Self","48",683,0.683,1
18080,2,"line",2,36,"he.tif","self","Matching","Self","Self","Self","self","Self","Self","47",957,0.957,1
18080,2,"neutral",2,37,"he.tif","self","Matching","Self","Self","Self","self","Self","Self","47",488,0.488,1
18080,2,"line",2,38,"he.tif","self","Matching","Self","Self","Self","self","Self","Self","47",350,0.35,1
18080,2,"neutral",2,39,"ve.tif","self","Nonmatching","Self","Self","Self","friend","Friend","Close","48",494,0.494,1
18080,2,"happy",2,40,"ve.tif","friend","Matching","Friend","Friend","Friend","friend","Friend","Close","47",416,0.416,1
18080,2,"line",2,41,"he.tif","friend","Nonmatching","Friend","Friend","Friend","self","Self","Self","48",790,0.79,1
18080,2,"line",2,42,"he.tif","self","Matching","Self","Self","Self","self","Self","Self","47",1021,1.021,1
18080,2,"happy",2,43,"ve.tif","self","Nonmatching","Self","Self","Self","friend","Friend","Close","48",877,0.877,1
18080,2,"sad",2,44,"ve.tif","self","Nonmatching","Self","Self","Self","friend","Friend","Close","48",1035,1.035,1
18080,2,"happy",2,45,"ve.tif","self","Nonmatching","Self","Self","Self","friend","Friend","Close","48",609,0.609,1
18080,2,"happy",2,46,"he.tif","self","Matching","Self","Self","Self","self","Self","Self","47",592,0.592,1
18080,2,"happy",2,47,"ve.tif","friend","Matching","Friend","Friend","Friend","friend","Friend","Close","47",801,0.801,1
18080,2,"line",2,48,"he.tif","friend","Nonmatching","Friend","Friend","Friend","self","Self","Self","48",636,0.636,1
18080,2,"neutral",2,49,"ve.tif","self","Nonmatching","Self","Self","Self","friend","Friend","Close","48",1103,1.103,1
18080,2,"line",2,50,"ve.tif","friend","Matching","Friend","Friend","Friend","friend","Friend","Close","48",980,0.98,0
18080,2,"line",2,51,"ve.tif","self","Nonmatching","Self","Self","Self","friend","Friend","Close","48",758,0.758,1
18080,2,"line",2,52,"ve.tif","friend","Matching","Friend","Friend","Friend","friend","Friend","Close","47",502,0.502,1
18080,2,"sad",2,53,"ve.tif","self","Nonmatching","Self","Self","Self","friend","Friend","Close","48",572,0.572,1
18080,2,"sad",2,54,"ve.tif","self","Nonmatching","Self","Self","Self","friend","Friend","Close","48",844,0.844,1
18080,2,"line",2,55,"he.tif","friend","Nonmatching","Friend","Friend","Friend","self","Self","Self","48",842,0.842,1
18080,2,"line",2,56,"ve.tif","self","Nonmatching","Self","Self","Self","friend","Friend","Close","48",914,0.914,1
18080,2,"happy",2,57,"he.tif","friend","Nonmatching","Friend","Friend","Friend","self","Self","Self","48",738,0.738,1
18080,2,"line",2,58,"ve.tif","friend","Matching","Friend","Friend","Friend","friend","Friend","Close","48",938,0.938,0
18080,2,"happy",2,59,"ve.tif","self","Nonmatching","Self","Self","Self","friend","Friend","Close","48",601,0.601,1
18080,2,"line",2,60,"he.tif","self","Matching","Self","Self","Self","self","Self","Self","47",618,0.618,1
18080,2,"sad",2,61,"ve.tif","self","Nonmatching","Self","Self","Self","friend","Friend","Close","48",626,0.626,1
18080,2,"sad",2,62,"ve.tif","friend","Matching","Friend","Friend","Friend","friend","Friend","Close","48",852,0.852,0
18080,2,"happy",2,63,"ve.tif","friend","Matching","Friend","Friend","Friend","friend","Friend","Close","47",634,0.634,1
18080,2,"sad",2,64,"he.tif","self","Matching","Self","Self","Self","self","Self","Self","47",1009,1.009,1
18080,2,"neutral",2,65,"ve.tif","friend","Matching","Friend","Friend","Friend","friend","Friend","Close","47",509,0.509,1
18080,2,"sad",2,66,"he.tif","self","Matching","Self","Self","Self","self","Self","Self","48",588,0.588,0
18080,2,"sad",2,67,"ve.tif","friend","Matching","Friend","Friend","Friend","friend","Friend","Close","47",731,0.731,1
18080,2,"neutral",2,68,"he.tif","friend","Nonmatching","Friend","Friend","Friend","self","Self","Self","48",784,0.784,1
18080,2,"happy",2,69,"ve.tif","friend","Matching","Friend","Friend","Friend","friend","Friend","Close","47",680,0.68,1
18080,2,"line",2,70,"he.tif","self","Matching","Self","Self","Self","self","Self","Self","47",593,0.593,1
18080,2,"neutral",2,71,"he.tif","friend","Nonmatching","Friend","Friend","Friend","self","Self","Self","48",823,0.823,1
18080,2,"line",2,72,"ve.tif","self","Nonmatching","Self","Self","Self","friend","Friend","Close","48",803,0.803,1
18080,2,"neutral",2,73,"ve.tif","self","Nonmatching","Self","Self","Self","friend","Friend","Close","48",813,0.813,1
18080,2,"happy",2,74,"he.tif","friend","Nonmatching","Friend","Friend","Friend","self","Self","Self","48",1081,1.081,1
18080,2,"sad",2,75,"he.tif","friend","Nonmatching","Friend","Friend","Friend","self","Self","Self","48",865,0.865,1
18080,2,"line",2,76,"ve.tif","self","Nonmatching","Self","Self","Self","friend","Friend","Close","48",551,0.551,1
18080,2,"happy",2,77,"ve.tif","friend","Matching","Friend","Friend","Friend","friend","Friend","Close","47",474,0.474,1
18080,2,"neutral",2,78,"ve.tif","self","Nonmatching","Self","Self","Self","friend","Friend","Close","48",918,0.918,1
18080,2,"sad",2,79,"he.tif","self","Matching","Self","Self","Self","self","Self","Self","48",851,0.851,0
18080,2,"neutral",2,80,"ve.tif","friend","Matching","Friend","Friend","Friend","friend","Friend","Close","47",565,0.565,1
18080,2,"line",3,1,"ve.tif","friend","Matching","Friend","Friend","Friend","friend","Friend","Close","48",533,0.533,0
18080,2,"sad",3,2,"he.tif","self","Matching","Self","Self","Self","self","Self","Self","47",527,0.527,1
18080,2,"neutral",3,3,"ve.tif","friend","Matching","Friend","Friend","Friend","friend","Friend","Close","47",718,0.718,1
18080,2,"happy",3,4,"he.tif","self","Matching","Self","Self","Self","self","Self","Self","48",682,0.682,0
18080,2,"sad",3,5,"he.tif","friend","Nonmatching","Friend","Friend","Friend","self","Self","Self","48",651,0.651,1
18080,2,"sad",3,6,"ve.tif","self","Nonmatching","Self","Self","Self","friend","Friend","Close","48",1047,1.047,1
18080,2,"line",3,7,"ve.tif","self","Nonmatching","Self","Self","Self","friend","Friend","Close","48",696,0.696,1
18080,2,"happy",3,8,"he.tif","self","Matching","Self","Self","Self","self","Self","Self","47",885,0.885,1
18080,2,"neutral",3,9,"he.tif","friend","Nonmatching","Friend","Friend","Friend","self","Self","Self","48",888,0.888,1
18080,2,"neutral",3,10,"he.tif","friend","Nonmatching","Friend","Friend","Friend","self","Self","Self","48",562,0.562,1
18080,2,"sad",3,11,"ve.tif","self","Nonmatching","Self","Self","Self","friend","Friend","Close","48",979,0.979,1
18080,2,"neutral",3,12,"he.tif","self","Matching","Self","Self","Self","self","Self","Self","47",672,0.672,1
18080,2,"line",3,13,"he.tif","self","Matching","Self","Self","Self","self","Self","Self","47",614,0.614,1
18080,2,"neutral",3,14,"ve.tif","friend","Matching","Friend","Friend","Friend","friend","Friend","Close","47",708,0.708,1
18080,2,"happy",3,15,"ve.tif","self","Nonmatching","Self","Self","Self","friend","Friend","Close","48",630,0.63,1
18080,2,"sad",3,16,"he.tif","self","Matching","Self","Self","Self","self","Self","Self","47",663,0.663,1
18080,2,"line",3,17,"he.tif","friend","Nonmatching","Friend","Friend","Friend","self","Self","Self","48",711,0.711,1
18080,2,"line",3,18,"he.tif","friend","Nonmatching","Friend","Friend","Friend","self","Self","Self","48",625,0.625,1
18080,2,"neutral",3,19,"he.tif","friend","Nonmatching","Friend","Friend","Friend","self","Self","Self","48",585,0.585,1
18080,2,"line",3,20,"ve.tif","friend","Matching","Friend","Friend","Friend","friend","Friend","Close","47",634,0.634,1
18080,2,"neutral",3,21,"he.tif","self","Matching","Self","Self","Self","self","Self","Self","47",509,0.509,1
18080,2,"sad",3,22,"he.tif","friend","Nonmatching","Friend","Friend","Friend","self","Self","Self","48",613,0.613,1
18080,2,"sad",3,23,"ve.tif","friend","Matching","Friend","Friend","Friend","friend","Friend","Close","47",847,0.847,1
18080,2,"happy",3,24,"ve.tif","friend","Matching","Friend","Friend","Friend","friend","Friend","Close","47",997,0.997,1
18080,2,"sad",3,25,"he.tif","friend","Nonmatching","Friend","Friend","Friend","self","Self","Self","48",573,0.573,1
18080,2,"sad",3,26,"ve.tif","friend","Matching","Friend","Friend","Friend","friend","Friend","Close","47",660,0.66,1
18080,2,"neutral",3,27,"he.tif","self","Matching","Self","Self","Self","self","Self","Self","47",606,0.606,1
18080,2,"neutral",3,28,"he.tif","friend","Nonmatching","Friend","Friend","Friend","self","Self","Self","48",648,0.648,1
18080,2,"line",3,29,"ve.tif","friend","Matching","Friend","Friend","Friend","friend","Friend","Close","47",523,0.523,1
18080,2,"neutral",3,30,"ve.tif","self","Nonmatching","Self","Self","Self","friend","Friend","Close","48",704,0.704,1
18080,2,"sad",3,31,"he.tif","self","Matching","Self","Self","Self","self","Self","Self","47",481,0.481,1
18080,2,"line",3,32,"he.tif","self","Matching","Self","Self","Self","self","Self","Self","47",951,0.951,1
18080,2,"happy",3,33,"he.tif","self","Matching","Self","Self","Self","self","Self","Self","47",648,0.648,1
18080,2,"happy",3,34,"he.tif","friend","Nonmatching","Friend","Friend","Friend","self","Self","Self","47",528,0.528,0
18080,2,"happy",3,35,"ve.tif","self","Nonmatching","Self","Self","Self","friend","Friend","Close","47",780,0.78,0
18080,2,"happy",3,36,"he.tif","self","Matching","Self","Self","Self","self","Self","Self","47",729,0.729,1
18080,2,"sad",3,37,"ve.tif","self","Nonmatching","Self","Self","Self","friend","Friend","Close","48",724,0.724,1
18080,2,"line",3,38,"ve.tif","friend","Matching","Friend","Friend","Friend","friend","Friend","Close","48",792,0.792,0
18080,2,"neutral",3,39,"ve.tif","friend","Matching","Friend","Friend","Friend","friend","Friend","Close","47",619,0.619,1
18080,2,"sad",3,40,"ve.tif","self","Nonmatching","Self","Self","Self","friend","Friend","Close","48",902,0.902,1
18080,2,"neutral",3,41,"ve.tif","self","Nonmatching","Self","Self","Self","friend","Friend","Close","48",1043,1.043,1
18080,2,"sad",3,42,"he.tif","self","Matching","Self","Self","Self","self","Self","Self","47",967,0.967,1
18080,2,"neutral",3,43,"he.tif","self","Matching","Self","Self","Self","self","Self","Self","47",871,0.871,1
18080,2,"line",3,44,"he.tif","friend","Nonmatching","Friend","Friend","Friend","self","Self","Self","48",754,0.754,1
18080,2,"happy",3,45,"he.tif","self","Matching","Self","Self","Self","self","Self","Self","47",634,0.634,1
18080,2,"sad",3,46,"ve.tif","self","Nonmatching","Self","Self","Self","friend","Friend","Close","48",1072,1.072,1
18080,2,"happy",3,47,"ve.tif","self","Nonmatching","Self","Self","Self","friend","Friend","Close","48",988,0.988,1
18080,2,"line",3,48,"ve.tif","self","Nonmatching","Self","Self","Self","friend","Friend","Close","48",1276,1.276,1
18080,2,"neutral",3,49,"ve.tif","friend","Matching","Friend","Friend","Friend","friend","Friend","Close","47",1280,1.28,1
18080,2,"neutral",3,50,"ve.tif","self","Nonmatching","Self","Self","Self","friend","Friend","Close","48",768,0.768,1
18080,2,"happy",3,51,"ve.tif","self","Nonmatching","Self","Self","Self","friend","Friend","Close","48",815,0.815,1
18080,2,"sad",3,52,"he.tif","self","Matching","Self","Self","Self","self","Self","Self","47",667,0.667,1
18080,2,"line",3,53,"ve.tif","self","Nonmatching","Self","Self","Self","friend","Friend","Close","48",604,0.604,1
18080,2,"happy",3,54,"ve.tif","friend","Matching","Friend","Friend","Friend","friend","Friend","Close","47",597,0.597,1
18080,2,"line",3,55,"ve.tif","friend","Matching","Friend","Friend","Friend","friend","Friend","Close","47",663,0.663,1
18080,2,"happy",3,56,"he.tif","friend","Nonmatching","Friend","Friend","Friend","self","Self","Self","48",755,0.755,1
18080,2,"happy",3,57,"he.tif","friend","Nonmatching","Friend","Friend","Friend","self","Self","Self","48",758,0.758,1
18080,2,"neutral",3,58,"ve.tif","friend","Matching","Friend","Friend","Friend","friend","Friend","Close","47",966,0.966,1
18080,2,"neutral",3,59,"ve.tif","self","Nonmatching","Self","Self","Self","friend","Friend","Close","48",611,0.611,1
18080,2,"happy",3,60,"ve.tif","friend","Matching","Friend","Friend","Friend","friend","Friend","Close","47",637,0.637,1
18080,2,"happy",3,61,"he.tif","friend","Nonmatching","Friend","Friend","Friend","self","Self","Self","48",619,0.619,1
18080,2,"happy",3,62,"ve.tif","friend","Matching","Friend","Friend","Friend","friend","Friend","Close","47",608,0.608,1
18080,2,"line",3,63,"he.tif","friend","Nonmatching","Friend","Friend","Friend","self","Self","Self","48",571,0.571,1
18080,2,"neutral",3,64,"ve.tif","self","Nonmatching","Self","Self","Self","friend","Friend","Close","48",762,0.762,1
18080,2,"line",3,65,"he.tif","friend","Nonmatching","Friend","Friend","Friend","self","Self","Self","48",664,0.664,1
18080,2,"neutral",3,66,"he.tif","self","Matching","Self","Self","Self","self","Self","Self","47",519,0.519,1
18080,2,"sad",3,67,"he.tif","friend","Nonmatching","Friend","Friend","Friend","self","Self","Self","48",569,0.569,1
18080,2,"happy",3,68,"ve.tif","friend","Matching","Friend","Friend","Friend","friend","Friend","Close","47",773,0.773,1
18080,2,"line",3,69,"ve.tif","self","Nonmatching","Self","Self","Self","friend","Friend","Close","48",739,0.739,1
18080,2,"line",3,70,"ve.tif","self","Nonmatching","Self","Self","Self","friend","Friend","Close","48",979,0.979,1
18080,2,"line",3,71,"he.tif","self","Matching","Self","Self","Self","self","Self","Self","47",671,0.671,1
18080,2,"sad",3,72,"ve.tif","friend","Matching","Friend","Friend","Friend","friend","Friend","Close","47",898,0.898,1
18080,2,"happy",3,73,"he.tif","friend","Nonmatching","Friend","Friend","Friend","self","Self","Self","48",670,0.67,1
18080,2,"line",3,74,"he.tif","self","Matching","Self","Self","Self","self","Self","Self","47",890,0.89,1
18080,2,"neutral",3,75,"he.tif","friend","Nonmatching","Friend","Friend","Friend","self","Self","Self","47",910,0.91,0
18080,2,"sad",3,76,"ve.tif","friend","Matching","Friend","Friend","Friend","friend","Friend","Close","47",954,0.954,1
18080,2,"sad",3,77,"ve.tif","friend","Matching","Friend","Friend","Friend","friend","Friend","Close","47",718,0.718,1
18080,2,"happy",3,78,"ve.tif","self","Nonmatching","Self","Self","Self","friend","Friend","Close","48",902,0.902,1
18080,2,"line",3,79,"he.tif","self","Matching","Self","Self","Self","self","Self","Self","47",547,0.547,1
18080,2,"sad",3,80,"he.tif","friend","Nonmatching","Friend","Friend","Friend","self","Self","Self","48",877,0.877,1
18080,2,"line",4,1,"ve.tif","self","Nonmatching","Self","Self","Self","friend","Friend","Close","47",1267,1.267,0
18080,2,"happy",4,2,"he.tif","friend","Nonmatching","Friend","Friend","Friend","self","Self","Self","48",749,0.749,1
18080,2,"happy",4,3,"he.tif","friend","Nonmatching","Friend","Friend","Friend","self","Self","Self","48",844,0.844,1
18080,2,"sad",4,4,"he.tif","self","Matching","Self","Self","Self","self","Self","Self","47",544,0.544,1
18080,2,"sad",4,5,"he.tif","self","Matching","Self","Self","Self","self","Self","Self","47",473,0.473,1
18080,2,"neutral",4,6,"ve.tif","friend","Matching","Friend","Friend","Friend","friend","Friend","Close","47",661,0.661,1
18080,2,"line",4,7,"he.tif","friend","Nonmatching","Friend","Friend","Friend","self","Self","Self","48",681,0.681,1
18080,2,"neutral",4,8,"he.tif","self","Matching","Self","Self","Self","self","Self","Self","47",623,0.623,1
18080,2,"happy",4,9,"he.tif","self","Matching","Self","Self","Self","self","Self","Self","47",523,0.523,1
18080,2,"happy",4,10,"ve.tif","self","Nonmatching","Self","Self","Self","friend","Friend","Close","48",560,0.56,1
18080,2,"line",4,11,"ve.tif","friend","Matching","Friend","Friend","Friend","friend","Friend","Close","47",1057,1.057,1
18080,2,"neutral",4,12,"he.tif","self","Matching","Self","Self","Self","self","Self","Self","47",843,0.843,1
18080,2,"neutral",4,13,"he.tif","self","Matching","Self","Self","Self","self","Self","Self","47",466,0.466,1
18080,2,"happy",4,14,"he.tif","friend","Nonmatching","Friend","Friend","Friend","self","Self","Self","48",822,0.822,1
18080,2,"line",4,15,"he.tif","friend","Nonmatching","Friend","Friend","Friend","self","Self","Self","48",765,0.765,1
18080,2,"neutral",4,16,"ve.tif","self","Nonmatching","Self","Self","Self","friend","Friend","Close","48",929,0.929,1
18080,2,"line",4,17,"he.tif","friend","Nonmatching","Friend","Friend","Friend","self","Self","Self","47",664,0.664,0
18080,2,"line",4,18,"ve.tif","self","Nonmatching","Self","Self","Self","friend","Friend","Close","48",1010,1.01,1
18080,2,"happy",4,19,"ve.tif","self","Nonmatching","Self","Self","Self","friend","Friend","Close","48",571,0.571,1
18080,2,"happy",4,20,"ve.tif","friend","Matching","Friend","Friend","Friend","friend","Friend","Close","47",547,0.547,1
18080,2,"happy",4,21,"he.tif","self","Matching","Self","Self","Self","self","Self","Self","47",511,0.511,1
18080,2,"sad",4,22,"ve.tif","friend","Matching","Friend","Friend","Friend","friend","Friend","Close","47",484,0.484,1
18080,2,"sad",4,23,"he.tif","self","Matching","Self","Self","Self","self","Self","Self","47",465,0.465,1
18080,2,"line",4,24,"ve.tif","self","Nonmatching","Self","Self","Self","friend","Friend","Close","47",500,0.5,0
18080,2,"sad",4,25,"he.tif","friend","Nonmatching","Friend","Friend","Friend","self","Self","Self","48",717,0.717,1
18080,2,"happy",4,26,"ve.tif","friend","Matching","Friend","Friend","Friend","friend","Friend","Close","47",378,0.378,1
18080,2,"sad",4,27,"ve.tif","friend","Matching","Friend","Friend","Friend","friend","Friend","Close","47",579,0.579,1
18080,2,"happy",4,28,"ve.tif","friend","Matching","Friend","Friend","Friend","friend","Friend","Close","47",481,0.481,1
18080,2,"happy",4,29,"he.tif","friend","Nonmatching","Friend","Friend","Friend","self","Self","Self","47",450,0.45,0
18080,2,"neutral",4,30,"he.tif","self","Matching","Self","Self","Self","self","Self","Self","48",622,0.622,0
18080,2,"line",4,31,"ve.tif","self","Nonmatching","Self","Self","Self","friend","Friend","Close","48",593,0.593,1
18080,2,"sad",4,32,"he.tif","friend","Nonmatching","Friend","Friend","Friend","self","Self","Self","48",955,0.955,1
18080,2,"sad",4,33,"ve.tif","friend","Matching","Friend","Friend","Friend","friend","Friend","Close","47",646,0.646,1
18080,2,"sad",4,34,"he.tif","self","Matching","Self","Self","Self","self","Self","Self","47",477,0.477,1
18080,2,"line",4,35,"ve.tif","self","Nonmatching","Self","Self","Self","friend","Friend","Close","48",510,0.51,1
18080,2,"line",4,36,"ve.tif","friend","Matching","Friend","Friend","Friend","friend","Friend","Close","47",1013,1.013,1
18080,2,"line",4,37,"ve.tif","friend","Matching","Friend","Friend","Friend","friend","Friend","Close","47",623,0.623,1
18080,2,"line",4,38,"ve.tif","friend","Matching","Friend","Friend","Friend","friend","Friend","Close","47",623,0.623,1
18080,2,"sad",4,39,"he.tif","friend","Nonmatching","Friend","Friend","Friend","self","Self","Self","48",715,0.715,1
18080,2,"sad",4,40,"ve.tif","self","Nonmatching","Self","Self","Self","friend","Friend","Close","48",1135,1.135,1
18080,2,"neutral",4,41,"he.tif","friend","Nonmatching","Friend","Friend","Friend","self","Self","Self","48",810,0.81,1
18080,2,"sad",4,42,"ve.tif","friend","Matching","Friend","Friend","Friend","friend","Friend","Close","47",551,0.551,1
18080,2,"neutral",4,43,"ve.tif","friend","Matching","Friend","Friend","Friend","friend","Friend","Close","47",905,0.905,1
18080,2,"happy",4,44,"ve.tif","self","Nonmatching","Self","Self","Self","friend","Friend","Close","48",600,0.6,1
18080,2,"line",4,45,"he.tif","self","Matching","Self","Self","Self","self","Self","Self","47",571,0.571,1
18080,2,"happy",4,46,"ve.tif","self","Nonmatching","Self","Self","Self","friend","Friend","Close","48",583,0.583,1
18080,2,"happy",4,47,"ve.tif","friend","Matching","Friend","Friend","Friend","friend","Friend","Close","47",699,0.699,1
18080,2,"neutral",4,48,"he.tif","friend","Nonmatching","Friend","Friend","Friend","self","Self","Self","48",646,0.646,1
18080,2,"sad",4,49,"ve.tif","self","Nonmatching","Self","Self","Self","friend","Friend","Close","48",534,0.534,1
18080,2,"neutral",4,50,"ve.tif","friend","Matching","Friend","Friend","Friend","friend","Friend","Close","47",638,0.638,1
18080,2,"line",4,51,"he.tif","self","Matching","Self","Self","Self","self","Self","Self","47",545,0.545,1
18080,2,"line",4,52,"he.tif","self","Matching","Self","Self","Self","self","Self","Self","47",403,0.403,1
18080,2,"neutral",4,53,"ve.tif","friend","Matching","Friend","Friend","Friend","friend","Friend","Close","47",523,0.523,1
18080,2,"happy",4,54,"he.tif","self","Matching","Self","Self","Self","self","Self","Self","47",699,0.699,1
18080,2,"neutral",4,55,"he.tif","friend","Nonmatching","Friend","Friend","Friend","self","Self","Self","48",601,0.601,1
18080,2,"neutral",4,56,"he.tif","self","Matching","Self","Self","Self","self","Self","Self","47",714,0.714,1
18080,2,"happy",4,57,"he.tif","friend","Nonmatching","Friend","Friend","Friend","self","Self","Self","48",653,0.653,1
18080,2,"line",4,58,"he.tif","self","Matching","Self","Self","Self","self","Self","Self","47",670,0.67,1
18080,2,"neutral",4,59,"ve.tif","self","Nonmatching","Self","Self","Self","friend","Friend","Close","48",1121,1.121,1
18080,2,"sad",4,60,"ve.tif","friend","Matching","Friend","Friend","Friend","friend","Friend","Close","47",1035,1.035,1
18080,2,"neutral",4,61,"ve.tif","self","Nonmatching","Self","Self","Self","friend","Friend","Close","48",625,0.625,1
18080,2,"sad",4,62,"ve.tif","self","Nonmatching","Self","Self","Self","friend","Friend","Close","48",943,0.943,1
18080,2,"line",4,63,"he.tif","friend","Nonmatching","Friend","Friend","Friend","self","Self","Self","48",1285,1.285,1
18080,2,"happy",4,64,"he.tif","self","Matching","Self","Self","Self","self","Self","Self","47",606,0.606,1
18080,2,"line",4,65,"ve.tif","friend","Matching","Friend","Friend","Friend","friend","Friend","Close","47",622,0.622,1
18080,2,"neutral",4,66,"he.tif","friend","Nonmatching","Friend","Friend","Friend","self","Self","Self","48",555,0.555,1
18080,2,"sad",4,67,"he.tif","self","Matching","Self","Self","Self","self","Self","Self","47",741,0.741,1
18080,2,"line",4,68,"he.tif","self","Matching","Self","Self","Self","self","Self","Self","47",596,0.596,1
18080,2,"sad",4,69,"he.tif","friend","Nonmatching","Friend","Friend","Friend","self","Self","Self","47",631,0.631,0
18080,2,"happy",4,70,"ve.tif","friend","Matching","Friend","Friend","Friend","friend","Friend","Close","47",514,0.514,1
18080,2,"neutral",4,71,"ve.tif","self","Nonmatching","Self","Self","Self","friend","Friend","Close","48",704,0.704,1
18080,2,"neutral",4,72,"ve.tif","self","Nonmatching","Self","Self","Self","friend","Friend","Close","48",477,0.477,1
18080,2,"sad",4,73,"he.tif","friend","Nonmatching","Friend","Friend","Friend","self","Self","Self","47",561,0.561,0
18080,2,"happy",4,74,"he.tif","self","Matching","Self","Self","Self","self","Self","Self","47",570,0.57,1
18080,2,"sad",4,75,"ve.tif","self","Nonmatching","Self","Self","Self","friend","Friend","Close","48",567,0.567,1
18080,2,"neutral",4,76,"he.tif","friend","Nonmatching","Friend","Friend","Friend","self","Self","Self","48",739,0.739,1
18080,2,"sad",4,77,"ve.tif","self","Nonmatching","Self","Self","Self","friend","Friend","Close","48",1397,1.397,1
18080,2,"line",4,78,"he.tif","friend","Nonmatching","Friend","Friend","Friend","self","Self","Self","48",575,0.575,1
18080,2,"neutral",4,79,"ve.tif","friend","Matching","Friend","Friend","Friend","friend","Friend","Close","48",825,0.825,0
18080,2,"happy",4,80,"ve.tif","self","Nonmatching","Self","Self","Self","friend","Friend","Close","48",667,0.667,1
18083,2,"line",1,1,"ve.tif","stranger","Matching","Stranger","Stranger","Stranger","stranger","Stranger","Stranger","48",904,0.904,1
18083,2,"sad",1,2,"ve.tif","stranger","Matching","Stranger","Stranger","Stranger","stranger","Stranger","Stranger","47",818,0.818,0
18083,2,"happy",1,3,"ve.tif","self","Nonmatching","Self","Self","Self","stranger","Stranger","Stranger","47",959,0.959,1
18083,2,"neutral",1,4,"he.tif","stranger","Nonmatching","Stranger","Stranger","Stranger","self","Self","Self","47",1102,1.102,1
18083,2,"happy",1,5,"ve.tif","self","Nonmatching","Self","Self","Self","stranger","Stranger","Stranger","47",1216,1.216,1
18083,2,"sad",1,6,"ve.tif","self","Nonmatching","Self","Self","Self","stranger","Stranger","Stranger","47",798,0.798,1
18083,2,"sad",1,7,"he.tif","self","Matching","Self","Self","Self","self","Self","Self","48",972,0.972,1
18083,2,"line",1,8,"he.tif","self","Matching","Self","Self","Self","self","Self","Self","48",1131,1.131,1
18083,2,"happy",1,9,"ve.tif","stranger","Matching","Stranger","Stranger","Stranger","stranger","Stranger","Stranger","48",948,0.948,1
18083,2,"line",1,10,"ve.tif","stranger","Matching","Stranger","Stranger","Stranger","stranger","Stranger","Stranger","48",636,0.636,1
18083,2,"happy",1,11,"ve.tif","self","Nonmatching","Self","Self","Self","stranger","Stranger","Stranger","47",744,0.744,1
18083,2,"neutral",1,12,"ve.tif","self","Nonmatching","Self","Self","Self","stranger","Stranger","Stranger","47",1040,1.04,1
18083,2,"sad",1,13,"he.tif","stranger","Nonmatching","Stranger","Stranger","Stranger","self","Self","Self","47",1061,1.061,1
18083,2,"sad",1,14,"he.tif","self","Matching","Self","Self","Self","self","Self","Self","48",1016,1.016,1
18083,2,"happy",1,15,"he.tif","self","Matching","Self","Self","Self","self","Self","Self","47",1206,1.206,0
18083,2,"sad",1,16,"ve.tif","self","Nonmatching","Self","Self","Self","stranger","Stranger","Stranger","47",988,0.988,1
18083,2,"line",1,17,"he.tif","stranger","Nonmatching","Stranger","Stranger","Stranger","self","Self","Self","47",930,0.93,1
18083,2,"line",1,18,"ve.tif","stranger","Matching","Stranger","Stranger","Stranger","stranger","Stranger","Stranger","48",1027,1.027,1
18083,2,"happy",1,19,"he.tif","self","Matching","Self","Self","Self","self","Self","Self","47",696,0.696,0
18083,2,"neutral",1,20,"he.tif","self","Matching","Self","Self","Self","self","Self","Self","48",1370,1.37,1
18083,2,"line",1,21,"he.tif","self","Matching","Self","Self","Self","self","Self","Self","48",705,0.705,1
18083,2,"happy",1,22,"ve.tif","stranger","Matching","Stranger","Stranger","Stranger","stranger","Stranger","Stranger","48",651,0.651,1
18083,2,"neutral",1,23,"he.tif","stranger","Nonmatching","Stranger","Stranger","Stranger","self","Self","Self","47",1055,1.055,1
18083,2,"line",1,24,"he.tif","self","Matching","Self","Self","Self","self","Self","Self","48",1131,1.131,1
18083,2,"sad",1,25,"he.tif","self","Matching","Self","Self","Self","self","Self","Self","48",1068,1.068,1
18083,2,"happy",1,26,"he.tif","self","Matching","Self","Self","Self","self","Self","Self","48",815,0.815,1
18083,2,"sad",1,27,"ve.tif","self","Nonmatching","Self","Self","Self","stranger","Stranger","Stranger","47",924,0.924,1
18083,2,"neutral",1,28,"ve.tif","stranger","Matching","Stranger","Stranger","Stranger","stranger","Stranger","Stranger","48",733,0.733,1
18083,2,"line",1,29,"ve.tif","self","Nonmatching","Self","Self","Self","stranger","Stranger","Stranger","47",1070,1.07,1
18083,2,"neutral",1,30,"he.tif","self","Matching","Self","Self","Self","self","Self","Self","48",1161,1.161,1
18083,2,"happy",1,31,"ve.tif","stranger","Matching","Stranger","Stranger","Stranger","stranger","Stranger","Stranger","48",736,0.736,1
18083,2,"neutral",1,32,"he.tif","stranger","Nonmatching","Stranger","Stranger","Stranger","self","Self","Self","47",833,0.833,1
18083,2,"line",1,33,"ve.tif","self","Nonmatching","Self","Self","Self","stranger","Stranger","Stranger","47",1078,1.078,1
18083,2,"happy",1,34,"he.tif","stranger","Nonmatching","Stranger","Stranger","Stranger","self","Self","Self","47",904,0.904,1
18083,2,"neutral",1,35,"he.tif","self","Matching","Self","Self","Self","self","Self","Self","48",818,0.818,1
18083,2,"neutral",1,36,"ve.tif","stranger","Matching","Stranger","Stranger","Stranger","stranger","Stranger","Stranger","48",808,0.808,1
18083,2,"line",1,37,"he.tif","stranger","Nonmatching","Stranger","Stranger","Stranger","self","Self","Self","47",1173,1.173,1
18083,2,"happy",1,38,"he.tif","stranger","Nonmatching","Stranger","Stranger","Stranger","self","Self","Self","47",749,0.749,1
18083,2,"neutral",1,39,"he.tif","stranger","Nonmatching","Stranger","Stranger","Stranger","self","Self","Self","47",604,0.604,1
18083,2,"line",1,40,"he.tif","stranger","Nonmatching","Stranger","Stranger","Stranger","self","Self","Self","47",627,0.627,1
18083,2,"line",1,41,"he.tif","self","Matching","Self","Self","Self","self","Self","Self","48",1247,1.247,1
18083,2,"line",1,42,"ve.tif","self","Nonmatching","Self","Self","Self","stranger","Stranger","Stranger","47",851,0.851,1
18083,2,"happy",1,43,"he.tif","stranger","Nonmatching","Stranger","Stranger","Stranger","self","Self","Self","47",999,0.999,1
18083,2,"happy",1,44,"he.tif","self","Matching","Self","Self","Self","self","Self","Self","48",861,0.861,1
18083,2,"neutral",1,45,"ve.tif","self","Nonmatching","Self","Self","Self","stranger","Stranger","Stranger","47",912,0.912,1
18083,2,"line",1,46,"ve.tif","self","Nonmatching","Self","Self","Self","stranger","Stranger","Stranger","47",1242,1.242,1
18083,2,"line",1,47,"ve.tif","stranger","Matching","Stranger","Stranger","Stranger","stranger","Stranger","Stranger","48",854,0.854,1
18083,2,"happy",1,48,"ve.tif","self","Nonmatching","Self","Self","Self","stranger","Stranger","Stranger","47",730,0.73,1
18083,2,"neutral",1,49,"he.tif","stranger","Nonmatching","Stranger","Stranger","Stranger","self","Self","Self","48",859,0.859,0
18083,2,"happy",1,50,"he.tif","stranger","Nonmatching","Stranger","Stranger","Stranger","self","Self","Self","47",1142,1.142,1
18083,2,"sad",1,51,"he.tif","stranger","Nonmatching","Stranger","Stranger","Stranger","self","Self","Self","0",1500,1.5,0
18083,2,"neutral",1,52,"ve.tif","stranger","Matching","Stranger","Stranger","Stranger","stranger","Stranger","Stranger","0",1500,1.5,0
18083,2,"neutral",1,53,"ve.tif","stranger","Matching","Stranger","Stranger","Stranger","stranger","Stranger","Stranger","48",1067,1.067,1
18083,2,"neutral",1,54,"he.tif","self","Matching","Self","Self","Self","self","Self","Self","47",814,0.814,0
18083,2,"neutral",1,55,"ve.tif","self","Nonmatching","Self","Self","Self","stranger","Stranger","Stranger","47",675,0.675,1
18083,2,"happy",1,56,"he.tif","self","Matching","Self","Self","Self","self","Self","Self","48",934,0.934,1
18083,2,"neutral",1,57,"ve.tif","self","Nonmatching","Self","Self","Self","stranger","Stranger","Stranger","47",1127,1.127,1
18083,2,"happy",1,58,"ve.tif","stranger","Matching","Stranger","Stranger","Stranger","stranger","Stranger","Stranger","48",687,0.687,1
18083,2,"happy",1,59,"he.tif","stranger","Nonmatching","Stranger","Stranger","Stranger","self","Self","Self","47",594,0.594,1
18083,2,"line",1,60,"he.tif","stranger","Nonmatching","Stranger","Stranger","Stranger","self","Self","Self","47",824,0.824,1
18083,2,"sad",1,61,"he.tif","stranger","Nonmatching","Stranger","Stranger","Stranger","self","Self","Self","47",637,0.637,1
18083,2,"sad",1,62,"ve.tif","self","Nonmatching","Self","Self","Self","stranger","Stranger","Stranger","47",993,0.993,1
18083,2,"sad",1,63,"he.tif","self","Matching","Self","Self","Self","self","Self","Self","47",847,0.847,0
18083,2,"sad",1,64,"he.tif","stranger","Nonmatching","Stranger","Stranger","Stranger","self","Self","Self","47",787,0.787,1
18083,2,"line",1,65,"he.tif","self","Matching","Self","Self","Self","self","Self","Self","48",793,0.793,1
18083,2,"sad",1,66,"he.tif","self","Matching","Self","Self","Self","self","Self","Self","48",767,0.767,1
18083,2,"sad",1,67,"ve.tif","stranger","Matching","Stranger","Stranger","Stranger","stranger","Stranger","Stranger","48",1271,1.271,1
18083,2,"neutral",1,68,"ve.tif","stranger","Matching","Stranger","Stranger","Stranger","stranger","Stranger","Stranger","48",658,0.658,1
18083,2,"sad",1,69,"he.tif","stranger","Nonmatching","Stranger","Stranger","Stranger","self","Self","Self","47",709,0.709,1
18083,2,"sad",1,70,"ve.tif","stranger","Matching","Stranger","Stranger","Stranger","stranger","Stranger","Stranger","48",591,0.591,1
18083,2,"sad",1,71,"ve.tif","stranger","Matching","Stranger","Stranger","Stranger","stranger","Stranger","Stranger","48",509,0.509,1
18083,2,"happy",1,72,"ve.tif","stranger","Matching","Stranger","Stranger","Stranger","stranger","Stranger","Stranger","48",559,0.559,1
18083,2,"line",1,73,"ve.tif","stranger","Matching","Stranger","Stranger","Stranger","stranger","Stranger","Stranger","48",446,0.446,1
18083,2,"happy",1,74,"ve.tif","self","Nonmatching","Self","Self","Self","stranger","Stranger","Stranger","47",730,0.73,1
18083,2,"line",1,75,"he.tif","stranger","Nonmatching","Stranger","Stranger","Stranger","self","Self","Self","48",771,0.771,0
18083,2,"neutral",1,76,"he.tif","self","Matching","Self","Self","Self","self","Self","Self","48",1010,1.01,1
18083,2,"line",1,77,"ve.tif","self","Nonmatching","Self","Self","Self","stranger","Stranger","Stranger","47",703,0.703,1
18083,2,"sad",1,78,"ve.tif","self","Nonmatching","Self","Self","Self","stranger","Stranger","Stranger","48",905,0.905,0
18083,2,"sad",1,79,"ve.tif","stranger","Matching","Stranger","Stranger","Stranger","stranger","Stranger","Stranger","48",611,0.611,1
18083,2,"neutral",1,80,"ve.tif","self","Nonmatching","Self","Self","Self","stranger","Stranger","Stranger","47",680,0.68,1
18083,2,"sad",2,1,"ve.tif","self","Nonmatching","Self","Self","Self","stranger","Stranger","Stranger","47",861,0.861,1
18083,2,"line",2,2,"he.tif","self","Matching","Self","Self","Self","self","Self","Self","48",760,0.76,1
18083,2,"line",2,3,"he.tif","self","Matching","Self","Self","Self","self","Self","Self","48",863,0.863,1
18083,2,"happy",2,4,"he.tif","self","Matching","Self","Self","Self","self","Self","Self","48",579,0.579,1
18083,2,"sad",2,5,"ve.tif","stranger","Matching","Stranger","Stranger","Stranger","stranger","Stranger","Stranger","48",833,0.833,1
18083,2,"neutral",2,6,"he.tif","self","Matching","Self","Self","Self","self","Self","Self","48",718,0.718,1
18083,2,"sad",2,7,"ve.tif","stranger","Matching","Stranger","Stranger","Stranger","stranger","Stranger","Stranger","48",767,0.767,1
18083,2,"line",2,8,"ve.tif","self","Nonmatching","Self","Self","Self","stranger","Stranger","Stranger","47",863,0.863,1
18083,2,"happy",2,9,"he.tif","self","Matching","Self","Self","Self","self","Self","Self","48",922,0.922,1
18083,2,"sad",2,10,"he.tif","self","Matching","Self","Self","Self","self","Self","Self","48",659,0.659,1
18083,2,"sad",2,11,"he.tif","self","Matching","Self","Self","Self","self","Self","Self","48",559,0.559,1
18083,2,"line",2,12,"he.tif","stranger","Nonmatching","Stranger","Stranger","Stranger","self","Self","Self","47",758,0.758,1
18083,2,"neutral",2,13,"ve.tif","stranger","Matching","Stranger","Stranger","Stranger","stranger","Stranger","Stranger","48",645,0.645,1
18083,2,"sad",2,14,"he.tif","stranger","Nonmatching","Stranger","Stranger","Stranger","self","Self","Self","47",729,0.729,1
18083,2,"happy",2,15,"ve.tif","self","Nonmatching","Self","Self","Self","stranger","Stranger","Stranger","47",858,0.858,1
18083,2,"neutral",2,16,"ve.tif","stranger","Matching","Stranger","Stranger","Stranger","stranger","Stranger","Stranger","48",790,0.79,1
18083,2,"sad",2,17,"he.tif","self","Matching","Self","Self","Self","self","Self","Self","48",1133,1.133,1
18083,2,"neutral",2,18,"he.tif","self","Matching","Self","Self","Self","self","Self","Self","48",709,0.709,1
18083,2,"line",2,19,"he.tif","stranger","Nonmatching","Stranger","Stranger","Stranger","self","Self","Self","47",727,0.727,1
18083,2,"happy",2,20,"ve.tif","self","Nonmatching","Self","Self","Self","stranger","Stranger","Stranger","47",799,0.799,1
18083,2,"neutral",2,21,"ve.tif","self","Nonmatching","Self","Self","Self","stranger","Stranger","Stranger","47",885,0.885,1
18083,2,"neutral",2,22,"ve.tif","self","Nonmatching","Self","Self","Self","stranger","Stranger","Stranger","47",544,0.544,1
18083,2,"line",2,23,"ve.tif","stranger","Matching","Stranger","Stranger","Stranger","stranger","Stranger","Stranger","48",663,0.663,1
18083,2,"happy",2,24,"ve.tif","self","Nonmatching","Self","Self","Self","stranger","Stranger","Stranger","47",611,0.611,1
18083,2,"line",2,25,"he.tif","self","Matching","Self","Self","Self","self","Self","Self","48",656,0.656,1
18083,2,"happy",2,26,"he.tif","stranger","Nonmatching","Stranger","Stranger","Stranger","self","Self","Self","47",1005,1.005,1
18083,2,"neutral",2,27,"he.tif","self","Matching","Self","Self","Self","self","Self","Self","48",715,0.715,1
18083,2,"neutral",2,28,"he.tif","stranger","Nonmatching","Stranger","Stranger","Stranger","self","Self","Self","47",716,0.716,1
18083,2,"sad",2,29,"ve.tif","stranger","Matching","Stranger","Stranger","Stranger","stranger","Stranger","Stranger","48",564,0.564,1
18083,2,"sad",2,30,"ve.tif","self","Nonmatching","Self","Self","Self","stranger","Stranger","Stranger","47",645,0.645,1
18083,2,"line",2,31,"ve.tif","stranger","Matching","Stranger","Stranger","Stranger","stranger","Stranger","Stranger","48",569,0.569,1
18083,2,"sad",2,32,"ve.tif","self","Nonmatching","Self","Self","Self","stranger","Stranger","Stranger","47",712,0.712,1
18083,2,"neutral",2,33,"he.tif","stranger","Nonmatching","Stranger","Stranger","Stranger","self","Self","Self","47",737,0.737,1
18083,2,"neutral",2,34,"he.tif","stranger","Nonmatching","Stranger","Stranger","Stranger","self","Self","Self","47",658,0.658,1
18083,2,"neutral",2,35,"ve.tif","self","Nonmatching","Self","Self","Self","stranger","Stranger","Stranger","47",750,0.75,1
18083,2,"happy",2,36,"he.tif","self","Matching","Self","Self","Self","self","Self","Self","48",613,0.613,1
18083,2,"happy",2,37,"ve.tif","stranger","Matching","Stranger","Stranger","Stranger","stranger","Stranger","Stranger","48",466,0.466,1
18083,2,"sad",2,38,"he.tif","stranger","Nonmatching","Stranger","Stranger","Stranger","self","Self","Self","47",622,0.622,1
18083,2,"line",2,39,"ve.tif","stranger","Matching","Stranger","Stranger","Stranger","stranger","Stranger","Stranger","48",595,0.595,1
18083,2,"line",2,40,"he.tif","stranger","Nonmatching","Stranger","Stranger","Stranger","self","Self","Self","47",593,0.593,1
18083,2,"neutral",2,41,"ve.tif","stranger","Matching","Stranger","Stranger","Stranger","stranger","Stranger","Stranger","48",640,0.64,1
18083,2,"line",2,42,"he.tif","stranger","Nonmatching","Stranger","Stranger","Stranger","self","Self","Self","47",596,0.596,1
18083,2,"neutral",2,43,"he.tif","stranger","Nonmatching","Stranger","Stranger","Stranger","self","Self","Self","47",850,0.85,1
18083,2,"sad",2,44,"ve.tif","self","Nonmatching","Self","Self","Self","stranger","Stranger","Stranger","47",663,0.663,1
18083,2,"happy",2,45,"he.tif","self","Matching","Self","Self","Self","self","Self","Self","48",617,0.617,1
18083,2,"happy",2,46,"ve.tif","self","Nonmatching","Self","Self","Self","stranger","Stranger","Stranger","48",639,0.639,0
18083,2,"sad",2,47,"ve.tif","stranger","Matching","Stranger","Stranger","Stranger","stranger","Stranger","Stranger","48",692,0.692,1
18083,2,"line",2,48,"he.tif","self","Matching","Self","Self","Self","self","Self","Self","47",589,0.589,0
18083,2,"sad",2,49,"he.tif","stranger","Nonmatching","Stranger","Stranger","Stranger","self","Self","Self","47",708,0.708,1
18083,2,"happy",2,50,"he.tif","stranger","Nonmatching","Stranger","Stranger","Stranger","self","Self","Self","48",926,0.926,0
18083,2,"line",2,51,"ve.tif","stranger","Matching","Stranger","Stranger","Stranger","stranger","Stranger","Stranger","48",511,0.511,1
18083,2,"sad",2,52,"ve.tif","stranger","Matching","Stranger","Stranger","Stranger","stranger","Stranger","Stranger","48",551,0.551,1
18083,2,"sad",2,53,"ve.tif","self","Nonmatching","Self","Self","Self","stranger","Stranger","Stranger","47",680,0.68,1
18083,2,"line",2,54,"ve.tif","stranger","Matching","Stranger","Stranger","Stranger","stranger","Stranger","Stranger","48",730,0.73,1
18083,2,"happy",2,55,"he.tif","stranger","Nonmatching","Stranger","Stranger","Stranger","self","Self","Self","47",619,0.619,1
18083,2,"neutral",2,56,"ve.tif","self","Nonmatching","Self","Self","Self","stranger","Stranger","Stranger","48",649,0.649,0
18083,2,"neutral",2,57,"ve.tif","self","Nonmatching","Self","Self","Self","stranger","Stranger","Stranger","47",604,0.604,1
18083,2,"neutral",2,58,"he.tif","self","Matching","Self","Self","Self","self","Self","Self","48",761,0.761,1
18083,2,"line",2,59,"ve.tif","self","Nonmatching","Self","Self","Self","stranger","Stranger","Stranger","47",744,0.744,1
18083,2,"sad",2,60,"he.tif","self","Matching","Self","Self","Self","self","Self","Self","47",1208,1.208,0
18083,2,"happy",2,61,"ve.tif","stranger","Matching","Stranger","Stranger","Stranger","stranger","Stranger","Stranger","48",903,0.903,1
18083,2,"line",2,62,"ve.tif","self","Nonmatching","Self","Self","Self","stranger","Stranger","Stranger","47",976,0.976,1
18083,2,"happy",2,63,"ve.tif","stranger","Matching","Stranger","Stranger","Stranger","stranger","Stranger","Stranger","48",678,0.678,1
18083,2,"neutral",2,64,"ve.tif","stranger","Matching","Stranger","Stranger","Stranger","stranger","Stranger","Stranger","48",729,0.729,1
18083,2,"neutral",2,65,"he.tif","self","Matching","Self","Self","Self","self","Self","Self","48",826,0.826,1
18083,2,"happy",2,66,"ve.tif","stranger","Matching","Stranger","Stranger","Stranger","stranger","Stranger","Stranger","48",862,0.862,1
18083,2,"sad",2,67,"he.tif","stranger","Nonmatching","Stranger","Stranger","Stranger","self","Self","Self","47",1170,1.17,1
18083,2,"line",2,68,"he.tif","self","Matching","Self","Self","Self","self","Self","Self","48",857,0.857,1
18083,2,"line",2,69,"ve.tif","self","Nonmatching","Self","Self","Self","stranger","Stranger","Stranger","47",805,0.805,1
18083,2,"sad",2,70,"he.tif","stranger","Nonmatching","Stranger","Stranger","Stranger","self","Self","Self","47",835,0.835,1
18083,2,"neutral",2,71,"ve.tif","stranger","Matching","Stranger","Stranger","Stranger","stranger","Stranger","Stranger","48",663,0.663,1
18083,2,"sad",2,72,"he.tif","self","Matching","Self","Self","Self","self","Self","Self","48",843,0.843,1
18083,2,"happy",2,73,"he.tif","stranger","Nonmatching","Stranger","Stranger","Stranger","self","Self","Self","47",623,0.623,1
18083,2,"neutral",2,74,"he.tif","stranger","Nonmatching","Stranger","Stranger","Stranger","self","Self","Self","47",1124,1.124,1
18083,2,"happy",2,75,"he.tif","self","Matching","Self","Self","Self","self","Self","Self","48",1069,1.069,1
18083,2,"line",2,76,"he.tif","stranger","Nonmatching","Stranger","Stranger","Stranger","self","Self","Self","47",681,0.681,1
18083,2,"happy",2,77,"he.tif","stranger","Nonmatching","Stranger","Stranger","Stranger","self","Self","Self","47",1115,1.115,1
18083,2,"happy",2,78,"ve.tif","stranger","Matching","Stranger","Stranger","Stranger","stranger","Stranger","Stranger","48",757,0.757,1
18083,2,"line",2,79,"ve.tif","self","Nonmatching","Self","Self","Self","stranger","Stranger","Stranger","47",685,0.685,1
18083,2,"happy",2,80,"ve.tif","self","Nonmatching","Self","Self","Self","stranger","Stranger","Stranger","47",711,0.711,1
18083,2,"neutral",3,1,"he.tif","self","Matching","Self","Self","Self","self","Self","Self","48",928,0.928,1
18083,2,"line",3,2,"ve.tif","stranger","Matching","Stranger","Stranger","Stranger","stranger","Stranger","Stranger","48",641,0.641,1
18083,2,"happy",3,3,"he.tif","self","Matching","Self","Self","Self","self","Self","Self","48",661,0.661,1
18083,2,"happy",3,4,"he.tif","stranger","Nonmatching","Stranger","Stranger","Stranger","self","Self","Self","47",680,0.68,1
18083,2,"sad",3,5,"he.tif","stranger","Nonmatching","Stranger","Stranger","Stranger","self","Self","Self","47",619,0.619,1
18083,2,"happy",3,6,"he.tif","self","Matching","Self","Self","Self","self","Self","Self","48",1240,1.24,1
18083,2,"happy",3,7,"ve.tif","stranger","Matching","Stranger","Stranger","Stranger","stranger","Stranger","Stranger","48",541,0.541,1
18083,2,"neutral",3,8,"he.tif","stranger","Nonmatching","Stranger","Stranger","Stranger","self","Self","Self","47",813,0.813,1
18083,2,"line",3,9,"he.tif","stranger","Nonmatching","Stranger","Stranger","Stranger","self","Self","Self","47",642,0.642,1
18083,2,"neutral",3,10,"ve.tif","self","Nonmatching","Self","Self","Self","stranger","Stranger","Stranger","48",638,0.638,0
18083,2,"sad",3,11,"he.tif","self","Matching","Self","Self","Self","self","Self","Self","48",642,0.642,1
18083,2,"sad",3,12,"ve.tif","stranger","Matching","Stranger","Stranger","Stranger","stranger","Stranger","Stranger","48",638,0.638,1
18083,2,"happy",3,13,"ve.tif","stranger","Matching","Stranger","Stranger","Stranger","stranger","Stranger","Stranger","48",643,0.643,1
18083,2,"sad",3,14,"he.tif","stranger","Nonmatching","Stranger","Stranger","Stranger","self","Self","Self","47",1031,1.031,1
18083,2,"neutral",3,15,"ve.tif","stranger","Matching","Stranger","Stranger","Stranger","stranger","Stranger","Stranger","48",587,0.587,1
18083,2,"neutral",3,16,"ve.tif","stranger","Matching","Stranger","Stranger","Stranger","stranger","Stranger","Stranger","48",930,0.93,1
18083,2,"sad",3,17,"ve.tif","stranger","Matching","Stranger","Stranger","Stranger","stranger","Stranger","Stranger","48",515,0.515,1
18083,2,"sad",3,18,"he.tif","stranger","Nonmatching","Stranger","Stranger","Stranger","self","Self","Self","47",644,0.644,1
18083,2,"sad",3,19,"ve.tif","stranger","Matching","Stranger","Stranger","Stranger","stranger","Stranger","Stranger","48",744,0.744,1
18083,2,"neutral",3,20,"he.tif","self","Matching","Self","Self","Self","self","Self","Self","48",720,0.72,1
18083,2,"sad",3,21,"ve.tif","self","Nonmatching","Self","Self","Self","stranger","Stranger","Stranger","47",745,0.745,1
18083,2,"happy",3,22,"he.tif","stranger","Nonmatching","Stranger","Stranger","Stranger","self","Self","Self","48",1113,1.113,0
18083,2,"neutral",3,23,"ve.tif","self","Nonmatching","Self","Self","Self","stranger","Stranger","Stranger","47",1075,1.075,1
18083,2,"line",3,24,"ve.tif","stranger","Matching","Stranger","Stranger","Stranger","stranger","Stranger","Stranger","48",613,0.613,1
18083,2,"neutral",3,25,"ve.tif","self","Nonmatching","Self","Self","Self","stranger","Stranger","Stranger","47",931,0.931,1
18083,2,"line",3,26,"he.tif","self","Matching","Self","Self","Self","self","Self","Self","48",1331,1.331,1
18083,2,"line",3,27,"ve.tif","stranger","Matching","Stranger","Stranger","Stranger","stranger","Stranger","Stranger","48",1300,1.3,1
18083,2,"sad",3,28,"ve.tif","self","Nonmatching","Self","Self","Self","stranger","Stranger","Stranger","47",734,0.734,1
18083,2,"neutral",3,29,"ve.tif","stranger","Matching","Stranger","Stranger","Stranger","stranger","Stranger","Stranger","48",751,0.751,1
18083,2,"sad",3,30,"he.tif","self","Matching","Self","Self","Self","self","Self","Self","48",879,0.879,1
18083,2,"sad",3,31,"ve.tif","self","Nonmatching","Self","Self","Self","stranger","Stranger","Stranger","47",729,0.729,1
18083,2,"neutral",3,32,"he.tif","stranger","Nonmatching","Stranger","Stranger","Stranger","self","Self","Self","47",842,0.842,1
18083,2,"happy",3,33,"ve.tif","stranger","Matching","Stranger","Stranger","Stranger","stranger","Stranger","Stranger","48",630,0.63,1
18083,2,"sad",3,34,"ve.tif","self","Nonmatching","Self","Self","Self","stranger","Stranger","Stranger","47",699,0.699,1
18083,2,"line",3,35,"ve.tif","stranger","Matching","Stranger","Stranger","Stranger","stranger","Stranger","Stranger","48",589,0.589,1
18083,2,"line",3,36,"he.tif","stranger","Nonmatching","Stranger","Stranger","Stranger","self","Self","Self","47",1323,1.323,1
18083,2,"line",3,37,"ve.tif","stranger","Matching","Stranger","Stranger","Stranger","stranger","Stranger","Stranger","48",654,0.654,1
18083,2,"line",3,38,"he.tif","stranger","Nonmatching","Stranger","Stranger","Stranger","self","Self","Self","47",1056,1.056,1
18083,2,"happy",3,39,"ve.tif","self","Nonmatching","Self","Self","Self","stranger","Stranger","Stranger","47",925,0.925,1
18083,2,"happy",3,40,"he.tif","self","Matching","Self","Self","Self","self","Self","Self","47",933,0.933,0
18083,2,"line",3,41,"he.tif","self","Matching","Self","Self","Self","self","Self","Self","48",974,0.974,1
18083,2,"neutral",3,42,"he.tif","stranger","Nonmatching","Stranger","Stranger","Stranger","self","Self","Self","47",725,0.725,1
18083,2,"happy",3,43,"ve.tif","self","Nonmatching","Self","Self","Self","stranger","Stranger","Stranger","47",1285,1.285,1
18083,2,"happy",3,44,"he.tif","self","Matching","Self","Self","Self","self","Self","Self","48",864,0.864,1
18083,2,"happy",3,45,"ve.tif","self","Nonmatching","Self","Self","Self","stranger","Stranger","Stranger","47",923,0.923,1
18083,2,"neutral",3,46,"he.tif","stranger","Nonmatching","Stranger","Stranger","Stranger","self","Self","Self","47",1013,1.013,1
18083,2,"line",3,47,"he.tif","self","Matching","Self","Self","Self","self","Self","Self","48",850,0.85,1
18083,2,"neutral",3,48,"he.tif","self","Matching","Self","Self","Self","self","Self","Self","48",950,0.95,1
18083,2,"happy",3,49,"ve.tif","self","Nonmatching","Self","Self","Self","stranger","Stranger","Stranger","47",910,0.91,1
18083,2,"neutral",3,50,"ve.tif","self","Nonmatching","Self","Self","Self","stranger","Stranger","Stranger","47",607,0.607,1
18083,2,"line",3,51,"he.tif","stranger","Nonmatching","Stranger","Stranger","Stranger","self","Self","Self","47",1045,1.045,1
18083,2,"happy",3,52,"he.tif","stranger","Nonmatching","Stranger","Stranger","Stranger","self","Self","Self","47",1049,1.049,1
18083,2,"line",3,53,"ve.tif","self","Nonmatching","Self","Self","Self","stranger","Stranger","Stranger","47",861,0.861,1
18083,2,"sad",3,54,"he.tif","stranger","Nonmatching","Stranger","Stranger","Stranger","self","Self","Self","47",736,0.736,1
18083,2,"happy",3,55,"he.tif","self","Matching","Self","Self","Self","self","Self","Self","48",657,0.657,1
18083,2,"neutral",3,56,"he.tif","self","Matching","Self","Self","Self","self","Self","Self","48",661,0.661,1
18083,2,"sad",3,57,"ve.tif","stranger","Matching","Stranger","Stranger","Stranger","stranger","Stranger","Stranger","48",816,0.816,1
18083,2,"happy",3,58,"he.tif","stranger","Nonmatching","Stranger","Stranger","Stranger","self","Self","Self","47",853,0.853,1
18083,2,"sad",3,59,"he.tif","stranger","Nonmatching","Stranger","Stranger","Stranger","self","Self","Self","47",809,0.809,1
18083,2,"neutral",3,60,"ve.tif","stranger","Matching","Stranger","Stranger","Stranger","stranger","Stranger","Stranger","47",1231,1.231,0
18083,2,"line",3,61,"ve.tif","self","Nonmatching","Self","Self","Self","stranger","Stranger","Stranger","47",699,0.699,1
18083,2,"line",3,62,"ve.tif","self","Nonmatching","Self","Self","Self","stranger","Stranger","Stranger","47",749,0.749,1
18083,2,"sad",3,63,"he.tif","self","Matching","Self","Self","Self","self","Self","Self","48",710,0.71,1
18083,2,"happy",3,64,"ve.tif","self","Nonmatching","Self","Self","Self","stranger","Stranger","Stranger","47",1335,1.335,1
18083,2,"line",3,65,"he.tif","self","Matching","Self","Self","Self","self","Self","Self","48",847,0.847,1
18083,2,"neutral",3,66,"he.tif","stranger","Nonmatching","Stranger","Stranger","Stranger","self","Self","Self","47",667,0.667,1
18083,2,"neutral",3,67,"he.tif","self","Matching","Self","Self","Self","self","Self","Self","47",951,0.951,0
18083,2,"happy",3,68,"he.tif","stranger","Nonmatching","Stranger","Stranger","Stranger","self","Self","Self","47",991,0.991,1
18083,2,"line",3,69,"ve.tif","self","Nonmatching","Self","Self","Self","stranger","Stranger","Stranger","47",725,0.725,1
18083,2,"happy",3,70,"ve.tif","stranger","Matching","Stranger","Stranger","Stranger","stranger","Stranger","Stranger","48",1197,1.197,1
18083,2,"sad",3,71,"he.tif","self","Matching","Self","Self","Self","self","Self","Self","48",1155,1.155,1
18083,2,"line",3,72,"he.tif","stranger","Nonmatching","Stranger","Stranger","Stranger","self","Self","Self","47",956,0.956,1
18083,2,"sad",3,73,"ve.tif","self","Nonmatching","Self","Self","Self","stranger","Stranger","Stranger","47",1164,1.164,1
18083,2,"sad",3,74,"he.tif","self","Matching","Self","Self","Self","self","Self","Self","48",883,0.883,1
18083,2,"happy",3,75,"ve.tif","stranger","Matching","Stranger","Stranger","Stranger","stranger","Stranger","Stranger","48",901,0.901,1
18083,2,"line",3,76,"he.tif","self","Matching","Self","Self","Self","self","Self","Self","48",944,0.944,1
18083,2,"neutral",3,77,"ve.tif","self","Nonmatching","Self","Self","Self","stranger","Stranger","Stranger","48",1047,1.047,0
18083,2,"line",3,78,"ve.tif","self","Nonmatching","Self","Self","Self","stranger","Stranger","Stranger","47",956,0.956,1
18083,2,"sad",3,79,"ve.tif","stranger","Matching","Stranger","Stranger","Stranger","stranger","Stranger","Stranger","48",1124,1.124,1
18083,2,"neutral",3,80,"ve.tif","stranger","Matching","Stranger","Stranger","Stranger","stranger","Stranger","Stranger","48",661,0.661,1
18083,2,"neutral",4,1,"he.tif","self","Matching","Self","Self","Self","self","Self","Self","48",878,0.878,1
18083,2,"neutral",4,2,"ve.tif","self","Nonmatching","Self","Self","Self","stranger","Stranger","Stranger","48",640,0.64,0
18083,2,"happy",4,3,"he.tif","stranger","Nonmatching","Stranger","Stranger","Stranger","self","Self","Self","47",733,0.733,1
18083,2,"neutral",4,4,"ve.tif","stranger","Matching","Stranger","Stranger","Stranger","stranger","Stranger","Stranger","0",1500,1.5,0
18083,2,"line",4,5,"ve.tif","stranger","Matching","Stranger","Stranger","Stranger","stranger","Stranger","Stranger","48",560,0.56,1
18083,2,"sad",4,6,"ve.tif","stranger","Matching","Stranger","Stranger","Stranger","stranger","Stranger","Stranger","48",567,0.567,1
18083,2,"neutral",4,7,"ve.tif","self","Nonmatching","Self","Self","Self","stranger","Stranger","Stranger","47",622,0.622,1
18083,2,"happy",4,8,"he.tif","self","Matching","Self","Self","Self","self","Self","Self","48",924,0.924,1
18083,2,"line",4,9,"ve.tif","self","Nonmatching","Self","Self","Self","stranger","Stranger","Stranger","47",1020,1.02,1
18083,2,"happy",4,10,"ve.tif","self","Nonmatching","Self","Self","Self","stranger","Stranger","Stranger","47",930,0.93,1
18083,2,"line",4,11,"he.tif","stranger","Nonmatching","Stranger","Stranger","Stranger","self","Self","Self","48",642,0.642,0
18083,2,"happy",4,12,"he.tif","self","Matching","Self","Self","Self","self","Self","Self","48",958,0.958,1
18083,2,"neutral",4,13,"he.tif","stranger","Nonmatching","Stranger","Stranger","Stranger","self","Self","Self","47",998,0.998,1
18083,2,"sad",4,14,"he.tif","self","Matching","Self","Self","Self","self","Self","Self","48",908,0.908,1
18083,2,"neutral",4,15,"ve.tif","stranger","Matching","Stranger","Stranger","Stranger","stranger","Stranger","Stranger","48",1117,1.117,1
18083,2,"sad",4,16,"ve.tif","stranger","Matching","Stranger","Stranger","Stranger","stranger","Stranger","Stranger","48",582,0.582,1
18083,2,"happy",4,17,"ve.tif","stranger","Matching","Stranger","Stranger","Stranger","stranger","Stranger","Stranger","48",605,0.605,1
18083,2,"neutral",4,18,"he.tif","stranger","Nonmatching","Stranger","Stranger","Stranger","self","Self","Self","47",707,0.707,1
18083,2,"line",4,19,"ve.tif","stranger","Matching","Stranger","Stranger","Stranger","stranger","Stranger","Stranger","48",669,0.669,1
18083,2,"happy",4,20,"ve.tif","self","Nonmatching","Self","Self","Self","stranger","Stranger","Stranger","47",672,0.672,1
18083,2,"line",4,21,"he.tif","stranger","Nonmatching","Stranger","Stranger","Stranger","self","Self","Self","47",812,0.812,1
18083,2,"neutral",4,22,"he.tif","self","Matching","Self","Self","Self","self","Self","Self","48",961,0.961,1
18083,2,"happy",4,23,"ve.tif","stranger","Matching","Stranger","Stranger","Stranger","stranger","Stranger","Stranger","48",712,0.712,1
18083,2,"happy",4,24,"he.tif","stranger","Nonmatching","Stranger","Stranger","Stranger","self","Self","Self","47",754,0.754,1
18083,2,"happy",4,25,"he.tif","self","Matching","Self","Self","Self","self","Self","Self","48",866,0.866,1
18083,2,"happy",4,26,"ve.tif","self","Nonmatching","Self","Self","Self","stranger","Stranger","Stranger","47",669,0.669,1
18083,2,"neutral",4,27,"he.tif","self","Matching","Self","Self","Self","self","Self","Self","48",776,0.776,1
18083,2,"happy",4,28,"ve.tif","stranger","Matching","Stranger","Stranger","Stranger","stranger","Stranger","Stranger","48",631,0.631,1
18083,2,"neutral",4,29,"ve.tif","stranger","Matching","Stranger","Stranger","Stranger","stranger","Stranger","Stranger","48",556,0.556,1
18083,2,"happy",4,30,"ve.tif","self","Nonmatching","Self","Self","Self","stranger","Stranger","Stranger","47",716,0.716,1
18083,2,"happy",4,31,"ve.tif","stranger","Matching","Stranger","Stranger","Stranger","stranger","Stranger","Stranger","48",573,0.573,1
18083,2,"sad",4,32,"he.tif","self","Matching","Self","Self","Self","self","Self","Self","47",876,0.876,0
18083,2,"sad",4,33,"he.tif","stranger","Nonmatching","Stranger","Stranger","Stranger","self","Self","Self","47",726,0.726,1
18083,2,"sad",4,34,"ve.tif","self","Nonmatching","Self","Self","Self","stranger","Stranger","Stranger","47",799,0.799,1
18083,2,"sad",4,35,"he.tif","self","Matching","Self","Self","Self","self","Self","Self","47",573,0.573,0
18083,2,"neutral",4,36,"he.tif","stranger","Nonmatching","Stranger","Stranger","Stranger","self","Self","Self","47",764,0.764,1
18083,2,"neutral",4,37,"he.tif","stranger","Nonmatching","Stranger","Stranger","Stranger","self","Self","Self","47",932,0.932,1
18083,2,"sad",4,38,"he.tif","self","Matching","Self","Self","Self","self","Self","Self","48",676,0.676,1
18083,2,"sad",4,39,"ve.tif","stranger","Matching","Stranger","Stranger","Stranger","stranger","Stranger","Stranger","48",631,0.631,1
18083,2,"neutral",4,40,"ve.tif","self","Nonmatching","Self","Self","Self","stranger","Stranger","Stranger","47",644,0.644,1
18083,2,"line",4,41,"ve.tif","self","Nonmatching","Self","Self","Self","stranger","Stranger","Stranger","47",896,0.896,1
18083,2,"happy",4,42,"he.tif","stranger","Nonmatching","Stranger","Stranger","Stranger","self","Self","Self","48",570,0.57,0
18083,2,"sad",4,43,"he.tif","stranger","Nonmatching","Stranger","Stranger","Stranger","self","Self","Self","48",761,0.761,0
18083,2,"sad",4,44,"he.tif","self","Matching","Self","Self","Self","self","Self","Self","48",784,0.784,1
18083,2,"line",4,45,"he.tif","self","Matching","Self","Self","Self","self","Self","Self","47",623,0.623,0
18083,2,"happy",4,46,"he.tif","self","Matching","Self","Self","Self","self","Self","Self","48",724,0.724,1
18083,2,"sad",4,47,"ve.tif","self","Nonmatching","Self","Self","Self","stranger","Stranger","Stranger","47",741,0.741,1
18083,2,"neutral",4,48,"he.tif","self","Matching","Self","Self","Self","self","Self","Self","0",1500,1.5,0
18083,2,"neutral",4,49,"ve.tif","self","Nonmatching","Self","Self","Self","stranger","Stranger","Stranger","47",904,0.904,1
18083,2,"sad",4,50,"ve.tif","stranger","Matching","Stranger","Stranger","Stranger","stranger","Stranger","Stranger","48",618,0.618,1
18083,2,"line",4,51,"ve.tif","stranger","Matching","Stranger","Stranger","Stranger","stranger","Stranger","Stranger","48",919,0.919,1
18083,2,"line",4,52,"he.tif","self","Matching","Self","Self","Self","self","Self","Self","48",896,0.896,1
18083,2,"sad",4,53,"ve.tif","self","Nonmatching","Self","Self","Self","stranger","Stranger","Stranger","47",723,0.723,1
18083,2,"neutral",4,54,"ve.tif","self","Nonmatching","Self","Self","Self","stranger","Stranger","Stranger","47",564,0.564,1
18083,2,"line",4,55,"ve.tif","self","Nonmatching","Self","Self","Self","stranger","Stranger","Stranger","47",563,0.563,1
18083,2,"line",4,56,"he.tif","self","Matching","Self","Self","Self","self","Self","Self","48",586,0.586,1
18083,2,"happy",4,57,"ve.tif","self","Nonmatching","Self","Self","Self","stranger","Stranger","Stranger","47",625,0.625,1
18083,2,"sad",4,58,"ve.tif","stranger","Matching","Stranger","Stranger","Stranger","stranger","Stranger","Stranger","48",580,0.58,1
18083,2,"sad",4,59,"he.tif","stranger","Nonmatching","Stranger","Stranger","Stranger","self","Self","Self","47",573,0.573,1
18083,2,"happy",4,60,"he.tif","stranger","Nonmatching","Stranger","Stranger","Stranger","self","Self","Self","47",677,0.677,1
18083,2,"line",4,61,"he.tif","stranger","Nonmatching","Stranger","Stranger","Stranger","self","Self","Self","47",855,0.855,1
18083,2,"sad",4,62,"ve.tif","self","Nonmatching","Self","Self","Self","stranger","Stranger","Stranger","47",739,0.739,1
18083,2,"line",4,63,"ve.tif","self","Nonmatching","Self","Self","Self","stranger","Stranger","Stranger","47",684,0.684,1
18083,2,"sad",4,64,"he.tif","stranger","Nonmatching","Stranger","Stranger","Stranger","self","Self","Self","48",654,0.654,0
18083,2,"happy",4,65,"he.tif","stranger","Nonmatching","Stranger","Stranger","Stranger","self","Self","Self","48",594,0.594,0
18083,2,"sad",4,66,"ve.tif","self","Nonmatching","Self","Self","Self","stranger","Stranger","Stranger","47",616,0.616,1
18083,2,"neutral",4,67,"ve.tif","stranger","Matching","Stranger","Stranger","Stranger","stranger","Stranger","Stranger","48",630,0.63,1
18083,2,"line",4,68,"he.tif","stranger","Nonmatching","Stranger","Stranger","Stranger","self","Self","Self","47",898,0.898,1
18083,2,"happy",4,69,"ve.tif","stranger","Matching","Stranger","Stranger","Stranger","stranger","Stranger","Stranger","48",828,0.828,1
18083,2,"neutral",4,70,"he.tif","stranger","Nonmatching","Stranger","Stranger","Stranger","self","Self","Self","47",609,0.609,1
18083,2,"line",4,71,"he.tif","self","Matching","Self","Self","Self","self","Self","Self","48",758,0.758,1
18083,2,"line",4,72,"he.tif","stranger","Nonmatching","Stranger","Stranger","Stranger","self","Self","Self","47",743,0.743,1
18083,2,"sad",4,73,"he.tif","stranger","Nonmatching","Stranger","Stranger","Stranger","self","Self","Self","47",606,0.606,1
18083,2,"line",4,74,"ve.tif","self","Nonmatching","Self","Self","Self","stranger","Stranger","Stranger","48",628,0.628,0
18083,2,"neutral",4,75,"ve.tif","stranger","Matching","Stranger","Stranger","Stranger","stranger","Stranger","Stranger","48",649,0.649,1
18083,2,"neutral",4,76,"he.tif","self","Matching","Self","Self","Self","self","Self","Self","47",629,0.629,0
18083,2,"line",4,77,"ve.tif","stranger","Matching","Stranger","Stranger","Stranger","stranger","Stranger","Stranger","48",682,0.682,1
18083,2,"happy",4,78,"he.tif","self","Matching","Self","Self","Self","self","Self","Self","48",853,0.853,1
18083,2,"line",4,79,"ve.tif","stranger","Matching","Stranger","Stranger","Stranger","stranger","Stranger","Stranger","48",616,0.616,1
18083,2,"line",4,80,"he.tif","self","Matching","Self","Self","Self","self","Self","Self","48",798,0.798,1
18088,1,"happy",1,1,"he.tif","self","Nonmatching","Self","Self","Self","friend","Friend","Close","0",1500,1.5,0
18088,1,"neutral",1,2,"ve.tif","friend","Nonmatching","Friend","Friend","Friend","self","Self","Self","47",1487,1.487,1
18088,1,"happy",1,3,"ve.tif","self","Matching","Self","Self","Self","self","Self","Self","0",1500,1.5,0
18088,1,"sad",1,4,"he.tif","friend","Matching","Friend","Friend","Friend","friend","Friend","Close","48",1048,1.048,1
18088,1,"happy",1,5,"he.tif","friend","Matching","Friend","Friend","Friend","friend","Friend","Close","48",895,0.895,1
18088,1,"neutral",1,6,"he.tif","friend","Matching","Friend","Friend","Friend","friend","Friend","Close","48",875,0.875,1
18088,1,"sad",1,7,"ve.tif","self","Matching","Self","Self","Self","self","Self","Self","47",1096,1.096,0
18088,1,"happy",1,8,"he.tif","friend","Matching","Friend","Friend","Friend","friend","Friend","Close","48",793,0.793,1
18088,1,"happy",1,9,"he.tif","self","Nonmatching","Self","Self","Self","friend","Friend","Close","47",977,0.977,1
18088,1,"happy",1,10,"ve.tif","self","Matching","Self","Self","Self","self","Self","Self","47",1088,1.088,0
18088,1,"neutral",1,11,"ve.tif","self","Matching","Self","Self","Self","self","Self","Self","48",755,0.755,1
18088,1,"line",1,12,"he.tif","friend","Matching","Friend","Friend","Friend","friend","Friend","Close","48",817,0.817,1
18088,1,"line",1,13,"ve.tif","friend","Nonmatching","Friend","Friend","Friend","self","Self","Self","48",579,0.579,0
18088,1,"happy",1,14,"ve.tif","friend","Nonmatching","Friend","Friend","Friend","self","Self","Self","48",599,0.599,0
18088,1,"neutral",1,15,"he.tif","self","Nonmatching","Self","Self","Self","friend","Friend","Close","48",807,0.807,0
18088,1,"neutral",1,16,"ve.tif","friend","Nonmatching","Friend","Friend","Friend","self","Self","Self","47",946,0.946,1
18088,1,"sad",1,17,"ve.tif","self","Matching","Self","Self","Self","self","Self","Self","47",1137,1.137,0
18088,1,"line",1,18,"ve.tif","self","Matching","Self","Self","Self","self","Self","Self","48",658,0.658,1
18088,1,"neutral",1,19,"he.tif","self","Nonmatching","Self","Self","Self","friend","Friend","Close","47",961,0.961,1
18088,1,"sad",1,20,"ve.tif","friend","Nonmatching","Friend","Friend","Friend","self","Self","Self","47",1061,1.061,1
18088,1,"happy",1,21,"he.tif","friend","Matching","Friend","Friend","Friend","friend","Friend","Close","48",909,0.909,1
18088,1,"neutral",1,22,"he.tif","self","Nonmatching","Self","Self","Self","friend","Friend","Close","47",685,0.685,1
18088,1,"neutral",1,23,"he.tif","friend","Matching","Friend","Friend","Friend","friend","Friend","Close","48",642,0.642,1
18088,1,"sad",1,24,"he.tif","friend","Matching","Friend","Friend","Friend","friend","Friend","Close","48",641,0.641,1
18088,1,"sad",1,25,"ve.tif","self","Matching","Self","Self","Self","self","Self","Self","48",848,0.848,1
18088,1,"neutral",1,26,"ve.tif","friend","Nonmatching","Friend","Friend","Friend","self","Self","Self","47",762,0.762,1
18088,1,"happy",1,27,"he.tif","self","Nonmatching","Self","Self","Self","friend","Friend","Close","48",528,0.528,0
18088,1,"neutral",1,28,"he.tif","friend","Matching","Friend","Friend","Friend","friend","Friend","Close","48",674,0.674,1
18088,1,"happy",1,29,"ve.tif","friend","Nonmatching","Friend","Friend","Friend","self","Self","Self","48",715,0.715,0
18088,1,"sad",1,30,"he.tif","self","Nonmatching","Self","Self","Self","friend","Friend","Close","48",490,0.49,0
18088,1,"line",1,31,"he.tif","self","Nonmatching","Self","Self","Self","friend","Friend","Close","47",684,0.684,1
18088,1,"happy",1,32,"ve.tif","self","Matching","Self","Self","Self","self","Self","Self","48",666,0.666,1
18088,1,"sad",1,33,"ve.tif","friend","Nonmatching","Friend","Friend","Friend","self","Self","Self","47",707,0.707,1
18088,1,"neutral",1,34,"ve.tif","self","Matching","Self","Self","Self","self","Self","Self","48",1112,1.112,1
18088,1,"line",1,35,"ve.tif","self","Matching","Self","Self","Self","self","Self","Self","48",689,0.689,1
18088,1,"line",1,36,"ve.tif","friend","Nonmatching","Friend","Friend","Friend","self","Self","Self","47",915,0.915,1
18088,1,"line",1,37,"ve.tif","self","Matching","Self","Self","Self","self","Self","Self","48",618,0.618,1
18088,1,"happy",1,38,"ve.tif","self","Matching","Self","Self","Self","self","Self","Self","47",591,0.591,0
18088,1,"neutral",1,39,"ve.tif","friend","Nonmatching","Friend","Friend","Friend","self","Self","Self","47",885,0.885,1
18088,1,"sad",1,40,"he.tif","self","Nonmatching","Self","Self","Self","friend","Friend","Close","48",560,0.56,0
18088,1,"happy",1,41,"ve.tif","self","Matching","Self","Self","Self","self","Self","Self","48",428,0.428,1
18088,1,"sad",1,42,"ve.tif","friend","Nonmatching","Friend","Friend","Friend","self","Self","Self","47",1160,1.16,1
18088,1,"happy",1,43,"ve.tif","friend","Nonmatching","Friend","Friend","Friend","self","Self","Self","47",881,0.881,1
18088,1,"line",1,44,"ve.tif","friend","Nonmatching","Friend","Friend","Friend","self","Self","Self","47",672,0.672,1
18088,1,"line",1,45,"he.tif","friend","Matching","Friend","Friend","Friend","friend","Friend","Close","47",594,0.594,0
18088,1,"neutral",1,46,"he.tif","friend","Matching","Friend","Friend","Friend","friend","Friend","Close","48",530,0.53,1
18088,1,"sad",1,47,"he.tif","friend","Matching","Friend","Friend","Friend","friend","Friend","Close","48",425,0.425,1
18088,1,"sad",1,48,"he.tif","self","Nonmatching","Self","Self","Self","friend","Friend","Close","48",585,0.585,0
18088,1,"neutral",1,49,"ve.tif","self","Matching","Self","Self","Self","self","Self","Self","48",389,0.389,1
18088,1,"happy",1,50,"he.tif","self","Nonmatching","Self","Self","Self","friend","Friend","Close","47",876,0.876,1
18088,1,"line",1,51,"ve.tif","self","Matching","Self","Self","Self","self","Self","Self","48",688,0.688,1
18088,1,"line",1,52,"he.tif","self","Nonmatching","Self","Self","Self","friend","Friend","Close","47",713,0.713,1
18088,1,"line",1,53,"he.tif","self","Nonmatching","Self","Self","Self","friend","Friend","Close","48",943,0.943,0
18088,1,"sad",1,54,"ve.tif","self","Matching","Self","Self","Self","self","Self","Self","48",588,0.588,1
18088,1,"sad",1,55,"ve.tif","self","Matching","Self","Self","Self","self","Self","Self","48",989,0.989,1
18088,1,"neutral",1,56,"ve.tif","self","Matching","Self","Self","Self","self","Self","Self","48",585,0.585,1
18088,1,"line",1,57,"he.tif","self","Nonmatching","Self","Self","Self","friend","Friend","Close","47",541,0.541,1
18088,1,"line",1,58,"he.tif","friend","Matching","Friend","Friend","Friend","friend","Friend","Close","48",945,0.945,1
18088,1,"line",1,59,"ve.tif","friend","Nonmatching","Friend","Friend","Friend","self","Self","Self","47",587,0.587,1
18088,1,"neutral",1,60,"he.tif","self","Nonmatching","Self","Self","Self","friend","Friend","Close","48",676,0.676,0
18088,1,"sad",1,61,"he.tif","friend","Matching","Friend","Friend","Friend","friend","Friend","Close","48",674,0.674,1
18088,1,"neutral",1,62,"ve.tif","self","Matching","Self","Self","Self","self","Self","Self","48",606,0.606,1
18088,1,"happy",1,63,"he.tif","friend","Matching","Friend","Friend","Friend","friend","Friend","Close","48",1477,1.477,1
18088,1,"line",1,64,"ve.tif","self","Matching","Self","Self","Self","self","Self","Self","48",771,0.771,1
18088,1,"happy",1,65,"ve.tif","friend","Nonmatching","Friend","Friend","Friend","self","Self","Self","47",656,0.656,1
18088,1,"neutral",1,66,"he.tif","friend","Matching","Friend","Friend","Friend","friend","Friend","Close","48",745,0.745,1
18088,1,"happy",1,67,"he.tif","friend","Matching","Friend","Friend","Friend","friend","Friend","Close","48",603,0.603,1
18088,1,"sad",1,68,"he.tif","self","Nonmatching","Self","Self","Self","friend","Friend","Close","47",674,0.674,1
18088,1,"sad",1,69,"he.tif","self","Nonmatching","Self","Self","Self","friend","Friend","Close","48",708,0.708,0
18088,1,"line",1,70,"ve.tif","friend","Nonmatching","Friend","Friend","Friend","self","Self","Self","47",1186,1.186,1
18088,1,"sad",1,71,"ve.tif","friend","Nonmatching","Friend","Friend","Friend","self","Self","Self","48",784,0.784,0
18088,1,"happy",1,72,"ve.tif","friend","Nonmatching","Friend","Friend","Friend","self","Self","Self","47",767,0.767,1
18088,1,"neutral",1,73,"ve.tif","friend","Nonmatching","Friend","Friend","Friend","self","Self","Self","47",583,0.583,1
18088,1,"line",1,74,"he.tif","self","Nonmatching","Self","Self","Self","friend","Friend","Close","48",787,0.787,0
18088,1,"line",1,75,"he.tif","friend","Matching","Friend","Friend","Friend","friend","Friend","Close","48",766,0.766,1
18088,1,"line",1,76,"he.tif","friend","Matching","Friend","Friend","Friend","friend","Friend","Close","48",445,0.445,1
18088,1,"happy",1,77,"he.tif","self","Nonmatching","Self","Self","Self","friend","Friend","Close","48",472,0.472,0
18088,1,"neutral",1,78,"he.tif","self","Nonmatching","Self","Self","Self","friend","Friend","Close","47",612,0.612,1
18088,1,"sad",1,79,"he.tif","friend","Matching","Friend","Friend","Friend","friend","Friend","Close","48",687,0.687,1
18088,1,"sad",1,80,"ve.tif","friend","Nonmatching","Friend","Friend","Friend","self","Self","Self","48",1186,1.186,0
18088,1,"sad",2,1,"ve.tif","friend","Nonmatching","Friend","Friend","Friend","self","Self","Self","47",1064,1.064,1
18088,1,"neutral",2,2,"he.tif","friend","Matching","Friend","Friend","Friend","friend","Friend","Close","48",1400,1.4,1
18088,1,"neutral",2,3,"he.tif","friend","Matching","Friend","Friend","Friend","friend","Friend","Close","48",653,0.653,1
18088,1,"happy",2,4,"he.tif","friend","Matching","Friend","Friend","Friend","friend","Friend","Close","48",529,0.529,1
18088,1,"line",2,5,"he.tif","self","Nonmatching","Self","Self","Self","friend","Friend","Close","47",711,0.711,1
18088,1,"line",2,6,"ve.tif","friend","Nonmatching","Friend","Friend","Friend","self","Self","Self","48",699,0.699,0
18088,1,"line",2,7,"ve.tif","friend","Nonmatching","Friend","Friend","Friend","self","Self","Self","47",689,0.689,1
18088,1,"happy",2,8,"he.tif","friend","Matching","Friend","Friend","Friend","friend","Friend","Close","48",789,0.789,1
18088,1,"neutral",2,9,"he.tif","self","Nonmatching","Self","Self","Self","friend","Friend","Close","47",842,0.842,1
18088,1,"happy",2,10,"he.tif","self","Nonmatching","Self","Self","Self","friend","Friend","Close","48",1284,1.284,0
18088,1,"sad",2,11,"ve.tif","friend","Nonmatching","Friend","Friend","Friend","self","Self","Self","47",855,0.855,1
18088,1,"line",2,12,"he.tif","friend","Matching","Friend","Friend","Friend","friend","Friend","Close","48",600,0.6,1
18088,1,"line",2,13,"ve.tif","self","Matching","Self","Self","Self","self","Self","Self","48",716,0.716,1
18088,1,"sad",2,14,"he.tif","friend","Matching","Friend","Friend","Friend","friend","Friend","Close","48",692,0.692,1
18088,1,"sad",2,15,"ve.tif","self","Matching","Self","Self","Self","self","Self","Self","48",812,0.812,1
18088,1,"neutral",2,16,"ve.tif","friend","Nonmatching","Friend","Friend","Friend","self","Self","Self","47",554,0.554,1
18088,1,"happy",2,17,"he.tif","self","Nonmatching","Self","Self","Self","friend","Friend","Close","48",574,0.574,0
18088,1,"neutral",2,18,"ve.tif","friend","Nonmatching","Friend","Friend","Friend","self","Self","Self","48",355,0.355,0
18088,1,"sad",2,19,"ve.tif","friend","Nonmatching","Friend","Friend","Friend","self","Self","Self","47",958,0.958,1
18088,1,"sad",2,20,"he.tif","friend","Matching","Friend","Friend","Friend","friend","Friend","Close","48",1185,1.185,1
18088,1,"line",2,21,"ve.tif","self","Matching","Self","Self","Self","self","Self","Self","48",678,0.678,1
18088,1,"neutral",2,22,"he.tif","self","Nonmatching","Self","Self","Self","friend","Friend","Close","47",961,0.961,1
18088,1,"happy",2,23,"he.tif","friend","Matching","Friend","Friend","Friend","friend","Friend","Close","48",575,0.575,1
18088,1,"happy",2,24,"ve.tif","friend","Nonmatching","Friend","Friend","Friend","self","Self","Self","47",665,0.665,1
18088,1,"happy",2,25,"he.tif","friend","Matching","Friend","Friend","Friend","friend","Friend","Close","48",608,0.608,1
18088,1,"sad",2,26,"he.tif","self","Nonmatching","Self","Self","Self","friend","Friend","Close","48",622,0.622,0
18088,1,"sad",2,27,"he.tif","self","Nonmatching","Self","Self","Self","friend","Friend","Close","47",670,0.67,1
18088,1,"happy",2,28,"ve.tif","self","Matching","Self","Self","Self","self","Self","Self","48",782,0.782,1
18088,1,"neutral",2,29,"he.tif","self","Nonmatching","Self","Self","Self","friend","Friend","Close","48",571,0.571,0
18088,1,"sad",2,30,"ve.tif","self","Matching","Self","Self","Self","self","Self","Self","48",388,0.388,1
18088,1,"sad",2,31,"ve.tif","friend","Nonmatching","Friend","Friend","Friend","self","Self","Self","47",618,0.618,1
18088,1,"happy",2,32,"he.tif","self","Nonmatching","Self","Self","Self","friend","Friend","Close","48",476,0.476,0
18088,1,"neutral",2,33,"ve.tif","self","Matching","Self","Self","Self","self","Self","Self","48",632,0.632,1
18088,1,"neutral",2,34,"he.tif","friend","Matching","Friend","Friend","Friend","friend","Friend","Close","48",342,0.342,1
18088,1,"sad",2,35,"he.tif","friend","Matching","Friend","Friend","Friend","friend","Friend","Close","48",474,0.474,1
18088,1,"neutral",2,36,"ve.tif","friend","Nonmatching","Friend","Friend","Friend","self","Self","Self","48",457,0.457,0
18088,1,"line",2,37,"ve.tif","friend","Nonmatching","Friend","Friend","Friend","self","Self","Self","47",543,0.543,1
18088,1,"happy",2,38,"ve.tif","self","Matching","Self","Self","Self","self","Self","Self","48",545,0.545,1
18088,1,"line",2,39,"he.tif","self","Nonmatching","Self","Self","Self","friend","Friend","Close","47",756,0.756,1
18088,1,"line",2,40,"he.tif","self","Nonmatching","Self","Self","Self","friend","Friend","Close","48",581,0.581,0
18088,1,"happy",2,41,"ve.tif","friend","Nonmatching","Friend","Friend","Friend","self","Self","Self","48",799,0.799,0
18088,1,"line",2,42,"he.tif","self","Nonmatching","Self","Self","Self","friend","Friend","Close","47",804,0.804,1
18088,1,"neutral",2,43,"he.tif","friend","Matching","Friend","Friend","Friend","friend","Friend","Close","48",709,0.709,1
18088,1,"line",2,44,"ve.tif","self","Matching","Self","Self","Self","self","Self","Self","48",623,0.623,1
18088,1,"sad",2,45,"he.tif","friend","Matching","Friend","Friend","Friend","friend","Friend","Close","48",623,0.623,1
18088,1,"neutral",2,46,"ve.tif","friend","Nonmatching","Friend","Friend","Friend","self","Self","Self","47",577,0.577,1
18088,1,"sad",2,47,"he.tif","self","Nonmatching","Self","Self","Self","friend","Friend","Close","48",648,0.648,0
18088,1,"neutral",2,48,"ve.tif","self","Matching","Self","Self","Self","self","Self","Self","0",1500,1.5,0
18088,1,"neutral",2,49,"he.tif","self","Nonmatching","Self","Self","Self","friend","Friend","Close","48",562,0.562,0
18088,1,"happy",2,50,"ve.tif","friend","Nonmatching","Friend","Friend","Friend","self","Self","Self","48",664,0.664,0
18088,1,"line",2,51,"he.tif","friend","Matching","Friend","Friend","Friend","friend","Friend","Close","48",481,0.481,1
18088,1,"neutral",2,52,"ve.tif","self","Matching","Self","Self","Self","self","Self","Self","48",643,0.643,1
18088,1,"happy",2,53,"he.tif","self","Nonmatching","Self","Self","Self","friend","Friend","Close","47",712,0.712,1
18088,1,"happy",2,54,"ve.tif","self","Matching","Self","Self","Self","self","Self","Self","48",664,0.664,1
18088,1,"sad",2,55,"he.tif","friend","Matching","Friend","Friend","Friend","friend","Friend","Close","48",836,0.836,1
18088,1,"sad",2,56,"he.tif","self","Nonmatching","Self","Self","Self","friend","Friend","Close","48",651,0.651,0
18088,1,"line",2,57,"ve.tif","self","Matching","Self","Self","Self","self","Self","Self","48",423,0.423,1
18088,1,"happy",2,58,"ve.tif","self","Matching","Self","Self","Self","self","Self","Self","47",1173,1.173,0
18088,1,"happy",2,59,"ve.tif","self","Matching","Self","Self","Self","self","Self","Self","48",534,0.534,1
18088,1,"sad",2,60,"ve.tif","friend","Nonmatching","Friend","Friend","Friend","self","Self","Self","47",792,0.792,1
18088,1,"neutral",2,61,"he.tif","friend","Matching","Friend","Friend","Friend","friend","Friend","Close","48",339,0.339,1
18088,1,"happy",2,62,"he.tif","friend","Matching","Friend","Friend","Friend","friend","Friend","Close","48",669,0.669,1
18088,1,"line",2,63,"he.tif","self","Nonmatching","Self","Self","Self","friend","Friend","Close","47",575,0.575,1
18088,1,"happy",2,64,"ve.tif","friend","Nonmatching","Friend","Friend","Friend","self","Self","Self","48",444,0.444,0
18088,1,"sad",2,65,"ve.tif","self","Matching","Self","Self","Self","self","Self","Self","48",784,0.784,1
18088,1,"line",2,66,"he.tif","friend","Matching","Friend","Friend","Friend","friend","Friend","Close","48",656,0.656,1
18088,1,"neutral",2,67,"ve.tif","self","Matching","Self","Self","Self","self","Self","Self","48",633,0.633,1
18088,1,"line",2,68,"ve.tif","friend","Nonmatching","Friend","Friend","Friend","self","Self","Self","47",526,0.526,1
18088,1,"line",2,69,"he.tif","friend","Matching","Friend","Friend","Friend","friend","Friend","Close","48",569,0.569,1
18088,1,"line",2,70,"he.tif","friend","Matching","Friend","Friend","Friend","friend","Friend","Close","48",580,0.58,1
18088,1,"sad",2,71,"ve.tif","self","Matching","Self","Self","Self","self","Self","Self","48",570,0.57,1
18088,1,"line",2,72,"ve.tif","self","Matching","Self","Self","Self","self","Self","Self","48",398,0.398,1
18088,1,"happy",2,73,"ve.tif","friend","Nonmatching","Friend","Friend","Friend","self","Self","Self","47",650,0.65,1
18088,1,"sad",2,74,"ve.tif","self","Matching","Self","Self","Self","self","Self","Self","48",787,0.787,1
18088,1,"line",2,75,"ve.tif","friend","Nonmatching","Friend","Friend","Friend","self","Self","Self","47",641,0.641,1
18088,1,"neutral",2,76,"ve.tif","self","Matching","Self","Self","Self","self","Self","Self","48",570,0.57,1
18088,1,"neutral",2,77,"ve.tif","friend","Nonmatching","Friend","Friend","Friend","self","Self","Self","47",604,0.604,1
18088,1,"neutral",2,78,"he.tif","self","Nonmatching","Self","Self","Self","friend","Friend","Close","48",547,0.547,0
18088,1,"sad",2,79,"he.tif","self","Nonmatching","Self","Self","Self","friend","Friend","Close","48",816,0.816,0
18088,1,"happy",2,80,"he.tif","self","Nonmatching","Self","Self","Self","friend","Friend","Close","48",488,0.488,0
18088,1,"happy",3,1,"he.tif","friend","Matching","Friend","Friend","Friend","friend","Friend","Close","47",1050,1.05,0
18088,1,"neutral",3,2,"ve.tif","friend","Nonmatching","Friend","Friend","Friend","self","Self","Self","0",1500,1.5,0
18088,1,"neutral",3,3,"he.tif","friend","Matching","Friend","Friend","Friend","friend","Friend","Close","48",424,0.424,1
18088,1,"sad",3,4,"ve.tif","friend","Nonmatching","Friend","Friend","Friend","self","Self","Self","47",755,0.755,1
18088,1,"neutral",3,5,"he.tif","self","Nonmatching","Self","Self","Self","friend","Friend","Close","47",761,0.761,1
18088,1,"sad",3,6,"ve.tif","self","Matching","Self","Self","Self","self","Self","Self","48",699,0.699,1
18088,1,"neutral",3,7,"he.tif","friend","Matching","Friend","Friend","Friend","friend","Friend","Close","48",659,0.659,1
18088,1,"line",3,8,"ve.tif","friend","Nonmatching","Friend","Friend","Friend","self","Self","Self","47",667,0.667,1
18088,1,"happy",3,9,"ve.tif","friend","Nonmatching","Friend","Friend","Friend","self","Self","Self","47",847,0.847,1
18088,1,"line",3,10,"ve.tif","friend","Nonmatching","Friend","Friend","Friend","self","Self","Self","47",817,0.817,1
18088,1,"sad",3,11,"ve.tif","friend","Nonmatching","Friend","Friend","Friend","self","Self","Self","47",879,0.879,1
18088,1,"neutral",3,12,"ve.tif","self","Matching","Self","Self","Self","self","Self","Self","48",676,0.676,1
18088,1,"neutral",3,13,"he.tif","self","Nonmatching","Self","Self","Self","friend","Friend","Close","47",611,0.611,1
18088,1,"line",3,14,"he.tif","self","Nonmatching","Self","Self","Self","friend","Friend","Close","47",826,0.826,1
18088,1,"line",3,15,"he.tif","self","Nonmatching","Self","Self","Self","friend","Friend","Close","47",732,0.732,1
18088,1,"line",3,16,"he.tif","friend","Matching","Friend","Friend","Friend","friend","Friend","Close","48",602,0.602,1
18088,1,"line",3,17,"he.tif","friend","Matching","Friend","Friend","Friend","friend","Friend","Close","48",708,0.708,1
18088,1,"neutral",3,18,"he.tif","self","Nonmatching","Self","Self","Self","friend","Friend","Close","47",536,0.536,1
18088,1,"sad",3,19,"ve.tif","friend","Nonmatching","Friend","Friend","Friend","self","Self","Self","47",813,0.813,1
18088,1,"happy",3,20,"he.tif","self","Nonmatching","Self","Self","Self","friend","Friend","Close","47",785,0.785,1
18088,1,"happy",3,21,"he.tif","self","Nonmatching","Self","Self","Self","friend","Friend","Close","47",708,0.708,1
18088,1,"neutral",3,22,"he.tif","self","Nonmatching","Self","Self","Self","friend","Friend","Close","47",523,0.523,1
18088,1,"sad",3,23,"ve.tif","self","Matching","Self","Self","Self","self","Self","Self","47",660,0.66,0
18088,1,"neutral",3,24,"he.tif","friend","Matching","Friend","Friend","Friend","friend","Friend","Close","48",759,0.759,1
18088,1,"happy",3,25,"ve.tif","friend","Nonmatching","Friend","Friend","Friend","self","Self","Self","47",531,0.531,1
18088,1,"happy",3,26,"he.tif","self","Nonmatching","Self","Self","Self","friend","Friend","Close","48",666,0.666,0
18088,1,"neutral",3,27,"ve.tif","self","Matching","Self","Self","Self","self","Self","Self","48",1016,1.016,1
18088,1,"happy",3,28,"he.tif","self","Nonmatching","Self","Self","Self","friend","Friend","Close","47",788,0.788,1
18088,1,"happy",3,29,"ve.tif","friend","Nonmatching","Friend","Friend","Friend","self","Self","Self","47",692,0.692,1
18088,1,"happy",3,30,"he.tif","friend","Matching","Friend","Friend","Friend","friend","Friend","Close","48",782,0.782,1
18088,1,"happy",3,31,"ve.tif","friend","Nonmatching","Friend","Friend","Friend","self","Self","Self","47",876,0.876,1
18088,1,"sad",3,32,"he.tif","self","Nonmatching","Self","Self","Self","friend","Friend","Close","47",745,0.745,1
18088,1,"happy",3,33,"he.tif","friend","Matching","Friend","Friend","Friend","friend","Friend","Close","48",559,0.559,1
18088,1,"sad",3,34,"he.tif","friend","Matching","Friend","Friend","Friend","friend","Friend","Close","47",547,0.547,0
18088,1,"neutral",3,35,"ve.tif","self","Matching","Self","Self","Self","self","Self","Self","47",514,0.514,0
18088,1,"happy",3,36,"ve.tif","self","Matching","Self","Self","Self","self","Self","Self","48",932,0.932,1
18088,1,"sad",3,37,"he.tif","self","Nonmatching","Self","Self","Self","friend","Friend","Close","47",823,0.823,1
18088,1,"happy",3,38,"he.tif","self","Nonmatching","Self","Self","Self","friend","Friend","Close","47",774,0.774,1
18088,1,"neutral",3,39,"ve.tif","friend","Nonmatching","Friend","Friend","Friend","self","Self","Self","48",807,0.807,0
18088,1,"line",3,40,"ve.tif","friend","Nonmatching","Friend","Friend","Friend","self","Self","Self","47",834,0.834,1
18088,1,"neutral",3,41,"ve.tif","friend","Nonmatching","Friend","Friend","Friend","self","Self","Self","47",776,0.776,1
18088,1,"neutral",3,42,"ve.tif","self","Matching","Self","Self","Self","self","Self","Self","48",535,0.535,1
18088,1,"line",3,43,"ve.tif","friend","Nonmatching","Friend","Friend","Friend","self","Self","Self","48",603,0.603,0
18088,1,"line",3,44,"he.tif","self","Nonmatching","Self","Self","Self","friend","Friend","Close","47",662,0.662,1
18088,1,"line",3,45,"ve.tif","self","Matching","Self","Self","Self","self","Self","Self","48",800,0.8,1
18088,1,"sad",3,46,"ve.tif","self","Matching","Self","Self","Self","self","Self","Self","0",1500,1.5,0
18088,1,"line",3,47,"ve.tif","self","Matching","Self","Self","Self","self","Self","Self","48",600,0.6,1
18088,1,"sad",3,48,"ve.tif","self","Matching","Self","Self","Self","self","Self","Self","48",543,0.543,1
18088,1,"sad",3,49,"he.tif","self","Nonmatching","Self","Self","Self","friend","Friend","Close","47",901,0.901,1
